#time,accel_x,accel_y,accel_z
20310.868333,2886.803174,-9474.636058,-689.485948
20310.868666,3552.988522,-8364.327145,3294.210641
20310.869000,6587.832884,-7772.162391,2528.115143
20310.869333,8216.285956,-8290.306550,4366.744339
20310.869666,9400.615463,-8586.388927,2911.162892
20310.870000,10584.944971,-9474.636058,3217.601092
20310.870333,9400.615463,-9474.636058,-1302.362347
20310.870667,4737.318029,-10436.903782,-1072.533697
20310.871000,5847.626942,-11843.295072,-3753.867940
20310.871333,4737.318029,-8364.327145,-3677.258390
20310.871667,7772.162391,-10658.965565,-1302.362347
20310.872000,7254.018232,-8808.450710,0.000000
20310.872334,10584.944971,-9622.677246,3370.820191
20310.872667,13101.645173,-7624.121203,4443.353888
20310.873000,13619.789333,-7105.977043,3907.087040
20310.873334,12435.459826,-7179.997637,2451.505594
20310.873667,12435.459826,-10436.903782,4826.401637
20310.874001,9992.780217,-10658.965565,-612.876398
20310.874334,4367.215058,-11029.068536,-6128.763984
20310.874667,1480.411884,-13619.789333,-4979.620737
20310.875001,-814.226536,-11621.233289,-4290.134789
20310.875334,2294.638420,-8438.347739,-1685.410096
20310.875668,3775.050304,-6809.894666,1302.362347
20310.876001,6883.915261,-4589.276840,3447.429741
20310.876334,9992.780217,-5625.565159,7584.345430
20310.876668,13101.645173,-4441.235652,7354.516781
20310.877001,12805.562797,-6587.832884,4136.915689
20310.877334,10658.965565,-9548.656652,2451.505594
20310.877668,7105.977043,-9548.656652,-3064.381992
20310.878001,6439.791695,-13027.624579,-7124.688131
20310.878335,1480.411884,-12879.583391,-9346.365076
20310.878668,-1776.494261,-13989.892304,-5975.544884
20310.879001,-1776.494261,-13397.727550,-4213.525239
20310.879335,0.000000,-10955.047942,-76.609550
20310.879668,74.020594,-8734.430116,1838.629195
20310.880002,3478.967927,-5477.523971,6052.154434
20310.880335,8808.450710,-4737.318029,10955.165621
20310.880668,8882.471304,-1850.514855,12870.404366
20310.881002,9400.615463,-3997.112087,5439.278036
20310.881335,2664.741391,-7772.162391,2145.067394
20310.881669,0.000000,-9696.697840,-2528.115143
20310.882002,-2442.679609,-13323.706956,-6971.469032
20310.882335,-6365.771101,-13619.789333,-9346.365076
20310.882669,-9326.594869,-13767.830521,-9729.412825
20310.883002,-8068.244768,-13323.706956,-5745.716235
20310.883336,-4515.256246,-10066.800811,-459.657299
20310.883669,0.000000,-6883.915261,6435.202183
20310.884002,4367.215058,-3552.988522,6052.154434
20310.884336,7105.977043,-3627.009116,10418.898773
20310.884669,13545.768739,-1776.494261,7890.783629
20310.885002,11251.130318,-3627.009116,5286.058936
20310.885336,12065.356855,-8290.306550,1762.019645
20310.885669,8882.471304,-10510.924376,-2834.553343
20310.886003,1776.494261,-13397.727550,-6588.421283
20310.886336,0.000000,-15618.345376,-9576.193725
20310.886669,-2442.679609,-18061.024985,-7737.564530
20310.887003,-3997.112087,-14285.974681,-3217.601092
20310.887336,-2368.659014,-10732.986159,1838.629195
20310.887670,4663.297435,-8586.388927,4826.401637
20310.888003,5921.647536,-4219.173869,9806.022374
20310.888336,11029.068536,-2146.597232,11184.994271
20310.888670,12879.583391,-2442.679609,10725.336972
20310.889003,10288.862594,-2738.761985,3370.820191
20310.889337,9178.553681,-5773.606348,-919.314598
20310.889670,6513.812290,-6883.915261,-6741.640382
20310.890003,2368.659014,-12509.480420,-6358.592633
20310.890337,1110.308913,-15100.201217,-11108.384721
20310.890670,-4811.338623,-17616.901420,-13176.842566
20310.891003,-7105.977043,-19171.333898,-6128.763984
20310.891337,-5403.503377,-15322.262999,-1532.190996
20310.891670,-2368.659014,-12065.356855,4290.134789
20310.892004,2368.659014,-7105.977043,9806.022374
20310.892337,9992.780217,-1036.288319,14862.252661
20310.892670,11621.233289,1702.473667,15321.909960
20310.893004,11769.274478,222.061783,9806.022374
20310.893337,8956.491898,-5773.606348,3294.210641
20310.893671,4367.215058,-8142.265362,-3830.477490
20310.894004,-74.020594,-11547.212695,-9882.631924
20310.894337,-4811.338623,-14211.954086,-15092.081311
20310.894671,-9474.636058,-17838.963202,-14096.157163
20310.895004,-9474.636058,-18505.148550,-6971.469032
20310.895338,-7772.162391,-14285.974681,-2757.943793
20310.895671,-4737.318029,-13101.645173,6205.373534
20310.896004,-1776.494261,-7179.997637,10112.460574
20310.896338,4737.318029,-3034.844362,13406.671215
20310.896671,7550.100608,-1110.308913,14938.862211
20310.897005,4737.318029,2294.638420,7507.735880
20310.897338,3775.050304,-666.185348,2451.505594
20310.897671,2664.741391,-5551.544565,-995.924147
20310.898005,-1258.350101,-10658.965565,-8656.879127
20310.898338,-8364.327145,-11399.171507,-13483.280765
20310.898671,-12879.583391,-18357.107362,-12334.137518
20310.899005,-12435.459826,-15470.304188,-8580.269578
20310.899338,-7476.080014,-14063.912898,-1991.848295
20310.899672,-2294.638420,-10436.903782,4443.353888
20310.900005,1480.411884,-9844.739029,12180.918418
20310.900338,4145.153275,-5107.421000,13483.280765
20310.900672,7031.956449,-6809.894666,9116.536426
20310.901005,4663.297435,-2664.741391,4826.401637
20310.901339,2368.659014,-3627.009116,2451.505594
20310.901672,2812.782580,-5699.585753,-3064.381992
20310.902005,-518.144159,-7105.977043,-6128.763984
20310.902339,-3034.844362,-9474.636058,-8044.002729
20310.902672,-5033.400406,-13619.789333,-6818.249932
20310.903006,-2442.679609,-12731.542202,-4826.401637
20310.903339,-74.020594,-10140.821405,0.000000
20310.903672,0.000000,-9844.739029,2451.505594
20310.904006,4737.318029,-10955.047942,6588.421283
20310.904339,7920.203579,-11251.130318,5439.278036
20310.904673,6069.688724,-7920.203579,4903.011187
20310.905006,5033.400406,-7550.100608,4443.353888
20310.905339,2442.679609,-7179.997637,-536.266849
20310.905673,666.185348,-8068.244768,-1991.848295
20310.906006,-1924.535449,-8512.368333,-3600.648841
20310.906339,-2368.659014,-5995.668130,-459.657299
20310.906673,1702.473667,-8290.306550,-689.485948
20310.907006,2368.659014,-4811.338623,0.000000
20310.907340,4145.153275,-10732.986159,4826.401637
20310.907673,4737.318029,-11695.253884,1762.019645
20310.908006,2146.597232,-13027.624579,-1302.362347
20310.908340,2442.679609,-13175.665768,-689.485948
20310.908673,3701.029710,-10732.986159,-76.609550
20310.909007,962.267725,-11251.130318,-1302.362347
20310.909340,-1184.329507,-10881.027347,1378.971896
20310.909673,-3182.885551,-9548.656652,0.000000
20310.910007,-2442.679609,-7254.018232,1838.629195
20310.910340,1628.453072,-4737.318029,4826.401637
20310.910674,2294.638420,-4145.153275,6052.154434
20310.911007,2516.700203,-3627.009116,3370.820191
20310.911340,0.000000,-5107.421000,1838.629195
20310.911674,-74.020594,-9474.636058,-4519.963438
20310.912007,-2072.576638,-11473.192101,-4903.011187
20310.912340,-2368.659014,-15100.201217,-4979.620737
20310.912674,-4737.318029,-15618.345376,-6205.373534
20310.913007,-6735.874072,-15026.180623,-3830.477490
20310.913341,-6069.688724,-13101.645173,-689.485948
20310.913674,-2886.803174,-7179.997637,3677.258390
20310.914007,296.082377,-2738.761985,10418.898773
20310.914341,5551.544565,-2960.823768,11568.042020
20310.914674,4663.297435,-1406.391290,6128.763984
20310.915008,2368.659014,-3404.947333,4903.011187
20310.915341,2886.803174,-6513.812290,-2221.676944
20310.915674,-1036.288319,-10066.800811,-4673.182538
20310.916008,-3330.926739,-11103.089130,-9269.755526
20310.916341,-7550.100608,-16062.468941,-10265.679673
20310.916675,-8290.306550,-17246.798449,-8580.269578
20310.917008,-9474.636058,-13101.645173,-2451.505594
20310.917341,-666.185348,-13027.624579,3294.210641
20310.917675,4515.256246,-7105.977043,8503.660028
20310.918008,6069.688724,-2442.679609,13023.623466
20310.918342,7994.224174,-2442.679609,11721.261119
20310.918675,6365.771101,-2294.638420,6741.640382
20310.919008,4145.153275,-4367.215058,1302.362347
20310.919341,3997.112087,-7846.182985,-3294.210641
20310.919674,-74.020594,-10658.965565,-6205.373534
20310.920007,-4145.153275,-14952.160028,-8427.050478
20310.920341,-4811.338623,-17172.777854,-10495.508323
20310.920674,-5921.647536,-14582.057057,-5362.668486
20310.921007,-74.020594,-10436.903782,-2451.505594
20310.921340,6439.791695,-11843.295072,8503.660028
20310.921673,9400.615463,-9474.636058,11568.042020
20310.922006,9104.533087,-4515.256246,10878.556072
20310.922339,8734.430116,-4515.256246,8044.002729
20310.922673,4737.318029,-4811.338623,1838.629195
20310.923006,4071.132681,-6069.688724,-3983.696590
20310.923339,0.000000,-7772.162391,-9499.584175
20310.923672,-4441.235652,-14211.954086,-9882.631924
20310.924005,-6291.750507,-13027.624579,-11568.042020
20310.924338,-4811.338623,-15840.407159,-5592.497135
20310.924671,74.020594,-12657.521608,2221.676944
20310.925005,4071.132681,-9104.533087,8350.440928
20310.925338,6143.709319,-8068.244768,10418.898773
20310.925671,6069.688724,-5995.668130,10418.898773
20310.926004,6143.709319,-5921.647536,8350.440928
20310.926337,3701.029710,-5477.523971,2911.162892
20310.926670,740.205942,-5995.668130,-2451.505594
20310.927003,-4219.173869,-8438.347739,-8427.050478
20310.927337,-10288.862594,-11843.295072,-9882.631924
20310.927670,-9548.656652,-15988.448347,-9882.631924
20310.928003,-13323.706956,-10140.821405,-8580.269578
20310.928336,-5551.544565,-10584.944971,-1838.629195
20310.928669,2886.803174,-9178.553681,8120.612279
20310.929002,4737.318029,-5995.668130,13713.109414
20310.929335,7624.121203,-6587.832884,13176.842566
20310.929669,6587.832884,-6513.812290,9652.803275
20310.930002,3849.070898,-8290.306550,2528.115143
20310.930335,0.000000,-7179.997637,-2451.505594
20310.930668,-3034.844362,-10510.924376,-8656.879127
20310.931001,-9548.656652,-12213.398043,-14632.424012
20310.931334,-13027.624579,-13101.645173,-10955.165621
20310.931667,-8364.327145,-13027.624579,-6205.373534
20310.932000,-4737.318029,-10288.862594,1915.238745
20310.932334,888.247130,-6291.750507,6818.249932
20310.932667,5477.523971,-5181.441594,10955.165621
20310.933000,9178.553681,-4737.318029,13253.452115
20310.933333,10584.944971,-5329.482782,9729.412825
20310.933666,9400.615463,-9474.636058,3600.648841
20310.933999,3997.112087,-6883.915261,-2451.505594
20310.934332,-3552.988522,-10140.821405,-6128.763984
20310.934666,-5107.421000,-14804.118840,-11261.603821
20310.934999,-8956.491898,-14656.077652,-13406.671215
20310.935332,-8142.265362,-14211.954086,-7890.783629
20310.935665,-1702.473667,-9918.759623,-153.219100
20310.935998,4663.297435,-6513.812290,7048.078582
20310.936331,9400.615463,-4441.235652,10342.289223
20310.936664,10881.027347,-3627.009116,11338.213370
20310.936998,11621.233289,-6513.812290,10955.165621
20310.937331,9400.615463,-8290.306550,3600.648841
20310.937664,3552.988522,-7179.997637,0.000000
20310.937997,3478.967927,-10658.965565,-5592.497135
20310.938330,-3849.070898,-13989.892304,-8580.269578
20310.938663,-7105.977043,-13397.727550,-11031.775171
20310.938996,-7328.038826,-13397.727550,-8427.050478
20310.939330,-2738.761985,-13915.871710,-1302.362347
20310.939663,1036.288319,-7920.203579,4213.525239
20310.939996,4219.173869,-6069.688724,6971.469032
20310.940329,7328.038826,-4737.318029,9039.926876
20310.940662,7105.977043,-6587.832884,9806.022374
20310.940995,9400.615463,-7105.977043,6052.154434
20310.941328,4071.132681,-5995.668130,0.000000
20310.941661,-3552.988522,-11325.150913,-3370.820191
20310.941995,-3627.009116,-13915.871710,-7737.564530
20310.942328,-9474.636058,-14285.974681,-9806.022374
20310.942661,-7772.162391,-13471.748144,-6818.249932
20310.942994,-4885.359217,-10066.800811,0.000000
20310.943327,-1332.370696,-7402.059420,4443.353888
20310.943660,4071.132681,-6513.812290,8503.660028
20310.943993,4071.132681,-8290.306550,9729.412825
20310.944327,2886.803174,-4515.256246,3064.381992
20310.944660,1480.411884,-7179.997637,2451.505594
20310.944993,1184.329507,-8290.306550,-76.609550
20310.945326,-1258.350101,-10510.924376,-4290.134789
20310.945659,-5699.585753,-12509.480420,-5669.106685
20310.945992,-8216.285956,-13693.809927,-6511.811733
20310.946325,-7402.059420,-11325.150913,-3983.696590
20310.946659,-3552.988522,-9622.677246,689.485948
20310.946992,814.226536,-9474.636058,5439.278036
20310.947325,0.000000,-5403.503377,8580.269578
20310.947658,5255.462188,-5625.565159,6052.154434
20310.947991,1702.473667,-6513.812290,2987.772442
20310.948324,3182.885551,-6217.729913,842.705048
20310.948657,370.102971,-8808.450710,-1838.629195
20310.948991,-1850.514855,-10658.965565,-5822.325785
20310.949324,-5329.482782,-13915.871710,-6281.983084
20310.949657,-6513.812290,-13101.645173,-5515.887586
20310.949990,-2738.761985,-11251.130318,-2221.676944
20310.950323,2516.700203,-8734.430116,3983.696590
20310.950656,6957.935855,-7994.224174,7277.907231
20310.950989,4737.318029,-5551.544565,7354.516781
20310.951323,2960.823768,-4811.338623,4903.011187
20310.951656,3849.070898,-8586.388927,1991.848295
20310.951989,2072.576638,-8586.388927,-612.876398
20310.952322,1406.391290,-7994.224174,-4673.182538
20310.952655,-74.020594,-13619.789333,-5286.058936
20310.952988,-4737.318029,-9844.739029,-6741.640382
20310.953321,-1850.514855,-14211.954086,-3753.867940
20310.953654,1110.308913,-11843.295072,-76.609550
20310.953988,2960.823768,-5995.668130,5515.887586
20310.954321,5921.647536,-5995.668130,7354.516781
20310.954654,8068.244768,-6069.688724,7584.345430
20310.954987,6513.812290,-6587.832884,4366.744339
20310.955320,4663.297435,-7328.038826,842.705048
20310.955653,4663.297435,-10658.965565,-2528.115143
20310.955986,-2220.617826,-10140.821405,-5515.887586
20310.956320,-4663.297435,-12509.480420,-9193.145976
20310.956653,-6069.688724,-13841.851115,-8044.002729
20310.956986,-6809.894666,-13545.768739,-4213.525239
20310.957319,-74.020594,-10881.027347,3600.648841
20310.957652,3256.906145,-6069.688724,7354.516781
20310.957985,2960.823768,-3034.844362,11031.775171
20310.958318,8734.430116,-5921.647536,10955.165621
20310.958652,6143.709319,-4367.215058,6741.640382
20310.958985,3552.988522,-7179.997637,2987.772442
20310.959318,-666.185348,-8734.430116,-4366.744339
20310.959651,-3849.070898,-10955.047942,-8963.317327
20310.959984,-10807.006753,-15100.201217,-12487.356617
20310.960317,-10140.821405,-15396.283594,-11108.384721
20310.960650,-10066.800811,-11917.315666,-6128.763984
20310.960984,-2442.679609,-11843.295072,3677.258390
20310.961317,4663.297435,-7994.224174,9729.412825
20310.961650,6143.709319,-4145.153275,12027.699319
20310.961983,8808.450710,-3997.112087,12640.575717
20310.962316,5773.606348,-3775.050304,8120.612279
20310.962649,4885.359217,-5625.565159,2451.505594
20310.962982,814.226536,-8142.265362,-2374.896044
20310.963316,-4737.318029,-9548.656652,-9806.022374
20310.963649,-12435.459826,-12509.480420,-12257.527968
20310.963982,-10732.986159,-16580.613101,-13866.328514
20310.964315,-10732.986159,-16580.613101,-8044.002729
20310.964648,-6957.935855,-11917.315666,0.000000
20310.964981,2886.803174,-4959.379811,7354.516781
20310.965314,7772.162391,-3775.050304,13330.061665
20310.965647,10584.944971,-3775.050304,15245.300410
20310.965981,8882.471304,-3627.009116,10418.898773
20310.966314,5329.482782,-6069.688724,4903.011187
20310.966647,4071.132681,-8290.306550,-76.609550
20310.966980,-1554.432478,-10066.800811,-10342.289223
20310.967313,-8290.306550,-11917.315666,-12717.185267
20310.967646,-10658.965565,-13693.809927,-12027.699319
20310.967979,-6587.832884,-13397.727550,-9499.584175
20310.968313,-2146.597232,-13249.686362,-76.609550
20310.968646,4219.173869,-9770.718434,7431.126331
20310.968979,8438.347739,-6883.915261,11951.089769
20310.969312,9770.718434,-6587.832884,13483.280765
20310.969645,10584.944971,-6513.812290,10648.727422
20310.969978,8290.306550,-5255.462188,7584.345430
20310.970311,6513.812290,-5255.462188,1762.019645
20310.970645,1850.514855,-7105.977043,-4979.620737
20310.970978,-7105.977043,-11325.150913,-12180.918418
20310.971311,-11547.212695,-12509.480420,-13789.718964
20310.971644,-8660.409521,-14211.954086,-9882.631924
20310.971977,-3034.844362,-11695.253884,-5975.544884
20310.972310,1702.473667,-9474.636058,3294.210641
20310.972643,7772.162391,-7698.141797,9269.755526
20310.972977,10732.986159,-7550.100608,14019.547613
20310.973310,9770.718434,-6291.750507,11644.651570
20310.973643,8068.244768,-6957.935855,6818.249932
20310.973976,7031.956449,-8290.306550,2374.896044
20310.974309,0.000000,-7772.162391,-2298.286494
20310.974642,-2442.679609,-12435.459826,-8656.879127
20310.974975,-10066.800811,-10732.986159,-12257.527968
20310.975309,-10658.965565,-13693.809927,-8580.269578
20310.975642,-5403.503377,-10955.047942,-2221.676944
20310.975975,-1480.411884,-8808.450710,3600.648841
20310.976308,1036.288319,-7105.977043,6818.249932
20310.976641,4367.215058,-4737.318029,8580.269578
20310.976974,4367.215058,-2960.823768,7277.907231
20310.977307,6735.874072,-7105.977043,7277.907231
20310.977640,4663.297435,-7698.141797,229.828649
20310.977974,-2072.576638,-9844.739029,-2451.505594
20310.978307,-5033.400406,-14211.954086,-4979.620737
20310.978640,-10658.965565,-12509.480420,-9806.022374
20310.978973,-10140.821405,-12361.439231,-8120.612279
20310.979306,-4959.379811,-11473.192101,-1915.238745
20310.979639,-740.205942,-5625.565159,4136.915689
20310.979972,2368.659014,-4811.338623,6128.763984
20310.980306,6735.874072,-7105.977043,8197.221829
20310.980639,4959.379811,-5329.482782,5286.058936
20310.980972,4737.318029,-6587.832884,6128.763984
20310.981305,4071.132681,-9474.636058,-76.609550
20310.981638,-1776.494261,-10140.821405,-3753.867940
20310.981971,-3849.070898,-12361.439231,-6741.640382
20310.982304,-6217.729913,-13323.706956,-6665.030833
20310.982638,-5107.421000,-11991.336260,-4673.182538
20310.982971,-1628.453072,-11843.295072,1762.019645
20310.983304,-74.020594,-8142.265362,1455.581446
20310.983637,1480.411884,-4811.338623,5822.325785
20310.983970,6513.812290,-6439.791695,9422.974625
20310.984303,4663.297435,-5921.647536,2374.896044
20310.984636,4737.318029,-7624.121203,3600.648841
20310.984970,3775.050304,-7476.080014,-306.438199
20310.985303,888.247130,-11251.130318,-3294.210641
20310.985636,-2368.659014,-13397.727550,-5209.449386
20310.985969,-2664.741391,-14730.098246,-3753.867940
20310.986302,-4515.256246,-12657.521608,-3217.601092
20310.986635,1110.308913,-9252.574275,1149.143247
20310.986968,2590.720797,-6291.750507,4903.011187
20310.987302,5033.400406,-6365.771101,5209.449386
20310.987635,6513.812290,-5995.668130,8120.612279
20310.987968,5107.421000,-8882.471304,4213.525239
20310.988301,3478.967927,-6513.812290,-2451.505594
20310.988634,592.164754,-9252.574275,-2374.896044
20310.988967,1110.308913,-11251.130318,-4979.620737
20310.989300,-2368.659014,-12657.521608,-3753.867940
20310.989633,-4441.235652,-13915.871710,-4290.134789
20310.989967,-1776.494261,-11621.233289,-153.219100
20310.990300,1184.329507,-9548.656652,4903.011187
20310.990633,4737.318029,-6587.832884,9806.022374
20310.990966,6439.791695,-6809.894666,6052.154434
20310.991299,3849.070898,-3627.009116,2451.505594
20310.991632,2368.659014,-6883.915261,2681.334243
20310.991965,1184.329507,-6883.915261,-3064.381992
20310.992299,-1184.329507,-9178.553681,-3907.087040
20310.992632,-4441.235652,-12731.542202,-6128.763984
20310.992965,-5773.606348,-13545.768739,-6435.202183
20310.993298,-5995.668130,-12435.459826,-4366.744339
20310.993631,-4737.318029,-11325.150913,1762.019645
20310.993964,2294.638420,-5477.523971,3983.696590
20310.994297,3849.070898,-5699.585753,10112.460574
20310.994631,5921.647536,-6587.832884,10495.508323
20310.994964,5551.544565,-7105.977043,6511.811733
20310.995297,1850.514855,-8216.285956,689.485948
20310.995630,1110.308913,-7994.224174,-2374.896044
20310.995963,-3330.926739,-10362.883188,-6205.373534
20310.996296,-8734.430116,-10732.986159,-11338.213370
20310.996629,-8660.409521,-15988.448347,-7737.564530
20310.996963,-8882.471304,-11325.150913,-5515.887586
20310.997296,-4737.318029,-10140.821405,3524.039291
20310.997629,2294.638420,-9178.553681,7890.783629
20310.997962,4959.379811,-4441.235652,9422.974625
20310.998295,5995.668130,-3997.112087,10878.556072
20310.998628,7031.956449,-4515.256246,7354.516781
20310.998961,3256.906145,-5773.606348,2298.286494
20310.999295,592.164754,-8364.327145,-3064.381992
20310.999628,-1258.350101,-9474.636058,-10495.508323
20310.999961,-6513.812290,-14285.974681,-9882.631924
20311.000294,-6809.894666,-16358.551318,-8044.002729
20311.000627,-5995.668130,-14804.118840,-7354.516781
20311.000960,-2442.679609,-10955.047942,76.609550
20311.001293,3404.947333,-7402.059420,7660.954980
20311.001626,7698.141797,-4959.379811,11031.775171
20311.001960,10140.821405,-4589.276840,12793.794817
20311.002293,8586.388927,-5403.503377,10112.460574
20311.002626,6735.874072,-5773.606348,3370.820191
20311.002959,3627.009116,-6587.832884,-1915.238745
20311.003292,-1480.411884,-9844.739029,-7814.174080
20311.003625,-6217.729913,-13027.624579,-12027.699319
20311.003958,-9474.636058,-13101.645173,-12257.527968
20311.004292,-7476.080014,-15396.283594,-8656.879127
20311.004625,-2738.761985,-11029.068536,-3677.258390
20311.004958,1480.411884,-9696.697840,7660.954980
20311.005291,8216.285956,-7994.224174,12180.918418
20311.005624,7105.977043,-4219.173869,12870.404366
20311.005957,8216.285956,-3849.070898,9959.241474
20311.006290,7550.100608,-4885.359217,5745.716235
20311.006624,6069.688724,-7105.977043,1915.238745
20311.006957,2220.617826,-9474.636058,-2834.553343
20311.007290,-4811.338623,-13915.871710,-11721.261119
20311.007623,-10362.883188,-14285.974681,-14709.033562
20311.007956,-9474.636058,-16580.613101,-8044.002729
20311.008289,-4811.338623,-12213.398043,-3677.258390
20311.008622,0.000000,-9252.574275,5898.935335
20311.008956,4737.318029,-6587.832884,9039.926876
20311.009289,8956.491898,-4885.359217,13253.452115
20311.009622,8438.347739,-5477.523971,10878.556072
20311.009955,7920.203579,-7105.977043,6665.030833
20311.010288,5847.626942,-5181.441594,-1838.629195
20311.010621,-888.247130,-8956.491898,-3753.867940
20311.010954,-4811.338623,-14211.954086,-9882.631924
20311.011287,-10436.903782,-12657.521608,-12257.527968
20311.011621,-8364.327145,-14804.118840,-8656.879127
20311.011954,-5181.441594,-11621.233289,-1762.019645
20311.012287,-592.164754,-8734.430116,3677.258390
20311.012620,3478.967927,-6809.894666,7584.345430
20311.012953,5477.523971,-5403.503377,10725.336972
20311.013286,7105.977043,-4367.215058,9806.022374
20311.013619,7031.956449,-8290.306550,7277.907231
20311.013953,4071.132681,-5995.668130,306.438199
20311.014286,0.000000,-7179.997637,-3370.820191
20311.014619,-4811.338623,-12731.542202,-7737.564530
20311.014952,-9770.718434,-13545.768739,-11108.384721
20311.015285,-11547.212695,-12805.562797,-10725.336972
20311.015618,-6291.750507,-12435.459826,-3064.381992
20311.015951,-1036.288319,-7179.997637,2451.505594
20311.016285,3552.988522,-6217.729913,7890.783629
20311.016618,6735.874072,-5625.565159,9959.241474
20311.016951,7105.977043,-6217.729913,8963.317327
20311.017284,9252.574275,-8586.388927,8503.660028
20311.017617,7031.956449,-8290.306550,2374.896044
20311.017950,1406.391290,-8660.409521,-4903.011187
20311.018283,-2368.659014,-13175.665768,-4213.525239
20311.018617,-4811.338623,-14211.954086,-9269.755526
20311.018950,-6513.812290,-14137.933492,-6435.202183
20311.019283,-2738.761985,-13027.624579,-383.047749
20311.019616,-666.185348,-9030.512492,3600.648841
20311.019949,2516.700203,-5403.503377,5209.449386
20311.020282,4663.297435,-4737.318029,6665.030833
20311.020615,3552.988522,-3923.091493,6894.859482
20311.020948,3478.967927,-4811.338623,3677.258390
20311.021281,4737.318029,-7698.141797,2068.457845
20311.021614,888.247130,-10732.986159,-76.609550
20311.021947,-2442.679609,-13619.789333,-6511.811733
20311.022281,-5995.668130,-14137.933492,-9193.145976
20311.022614,-6217.729913,-14211.954086,-4366.744339
20311.022947,-2664.741391,-11103.089130,0.000000
20311.023280,1406.391290,-7846.182985,4443.353888
20311.023613,4663.297435,-7994.224174,7890.783629
20311.023946,5921.647536,-5995.668130,8580.269578
20311.024279,4811.338623,-8290.306550,6358.592633
20311.024612,4515.256246,-5107.421000,919.314598
20311.024945,592.164754,-7179.997637,0.000000
20311.025278,-1258.350101,-8364.327145,-5822.325785
20311.025611,-2812.782580,-11843.295072,-6358.592633
20311.025944,-4219.173869,-12879.583391,-4443.353888
20311.026278,-3330.926739,-12435.459826,-2374.896044
20311.026611,-1406.391290,-8068.244768,766.095498
20311.026944,2072.576638,-10066.800811,6052.154434
20311.027277,4071.132681,-9178.553681,6665.030833
20311.027610,1850.514855,-3627.009116,4290.134789
20311.027943,4145.153275,-8068.244768,4213.525239
20311.028276,1776.494261,-6291.750507,306.438199
20311.028609,1998.556043,-7328.038826,-2681.334243
20311.028942,-74.020594,-10807.006753,-4060.306139
20311.029275,-4367.215058,-12879.583391,-5286.058936
20311.029608,-6513.812290,-13101.645173,-4903.011187
20311.029941,-1850.514855,-14211.954086,-1302.362347
20311.030275,370.102971,-8068.244768,2834.553343
20311.030608,4071.132681,-3627.009116,5515.887586
20311.030941,7402.059420,-6957.935855,10418.898773
20311.031274,5921.647536,-6143.709319,7584.345430
20311.031607,2442.679609,-7179.997637,2681.334243
20311.031940,2590.720797,-7624.121203,-1532.190996
20311.032273,-2590.720797,-8956.491898,-6205.373534
20311.032606,-6217.729913,-9548.656652,-9652.803275
20311.032939,-6069.688724,-12805.562797,-7354.516781
20311.033272,-5995.668130,-13027.624579,-5056.230287
20311.033605,-2812.782580,-11769.274478,842.705048
20311.033939,2886.803174,-9474.636058,7277.907231
20311.034272,2368.659014,-5107.421000,9806.022374
20311.034605,6587.832884,-5551.544565,11644.651570
20311.034938,7920.203579,-5773.606348,6052.154434
20311.035271,2812.782580,-5995.668130,1302.362347
20311.035604,2442.679609,-8142.265362,-76.609550
20311.035937,-2368.659014,-9252.574275,-6741.640382
20311.036270,-7105.977043,-13471.748144,-10648.727422
20311.036603,-9104.533087,-14434.015869,-10725.336972
20311.036936,-9474.636058,-13101.645173,-8580.269578
20311.037269,-6365.771101,-10732.986159,0.000000
20311.037602,4071.132681,-7698.141797,6052.154434
20311.037936,6809.894666,-5921.647536,11568.042020
20311.038269,8290.306550,-3627.009116,13483.280765
20311.038602,8512.368333,-5921.647536,10955.165621
20311.038935,5625.565159,-7550.100608,4519.963438
20311.039268,1850.514855,-7550.100608,-2451.505594
20311.039601,-2738.761985,-9844.739029,-7967.393179
20311.039934,-7105.977043,-12065.356855,-11338.213370
20311.040267,-9918.759623,-13693.809927,-12257.527968
20311.040600,-7179.997637,-14211.954086,-9576.193725
20311.040933,-6217.729913,-12509.480420,0.000000
20311.041266,-1184.329507,-8364.327145,7354.516781
20311.041600,3108.864956,-3923.091493,9806.022374
20311.041933,6957.935855,-4737.318029,12180.918418
20311.042266,8808.450710,-2664.741391,10801.946522
20311.042599,6069.688724,-4737.318029,6511.811733
20311.042932,8216.285956,-6809.894666,2374.896044
20311.043265,0.000000,-8956.491898,-4136.915689
20311.043598,-5107.421000,-13619.789333,-12027.699319
20311.043931,-9326.594869,-14285.974681,-13176.842566
20311.044264,-9030.512492,-16580.613101,-9882.631924
20311.044597,-3627.009116,-13915.871710,-2528.115143
20311.044930,962.267725,-8956.491898,3294.210641
20311.045263,8438.347739,-5995.668130,11491.432470
20311.045597,10584.944971,-5329.482782,14479.204912
20311.045930,9474.636058,-2812.782580,10495.508323
20311.046263,10584.944971,-7698.141797,7277.907231
20311.046596,2664.741391,-5699.585753,1225.752797
20311.046929,2072.576638,-9992.780217,-2528.115143
20311.047262,-6291.750507,-12509.480420,-12563.966167
20311.047595,-8882.471304,-13693.809927,-11721.261119
20311.047928,-9844.739029,-14656.077652,-9729.412825
20311.048261,-5699.585753,-12879.583391,-2757.943793
20311.048594,-1480.411884,-9622.677246,3907.087040
20311.048927,2368.659014,-4811.338623,7354.516781
20311.049261,8808.450710,-4737.318029,12640.575717
20311.049594,7698.141797,-3849.070898,10878.556072
20311.049927,6439.791695,-5181.441594,5822.325785
20311.050260,4811.338623,-6291.750507,1838.629195
20311.050593,-666.185348,-9474.636058,-4519.963438
20311.050926,-3997.112087,-13915.871710,-6205.373534
20311.051259,-9548.656652,-15396.283594,-12334.137518
20311.051592,-12435.459826,-13101.645173,-10725.336972
20311.051925,-7105.977043,-11621.233289,-1838.629195
20311.052258,-74.020594,-6809.894666,2604.724693
20311.052591,4071.132681,-5107.421000,8886.707777
20311.052924,7476.080014,-4885.359217,11491.432470
20311.053258,8216.285956,-5625.565159,9729.412825
20311.053591,4737.318029,-5403.503377,4903.011187
20311.053924,6735.874072,-8290.306550,-76.609550
20311.054257,148.041188,-7179.997637,-6665.030833
20311.054590,-3552.988522,-14434.015869,-4979.620737
20311.054923,-5995.668130,-14211.954086,-8656.879127
20311.055256,-9474.636058,-13101.645173,-8273.831378
20311.055589,-3478.967927,-12953.603985,-1225.752797
20311.055922,0.000000,-8364.327145,3907.087040
20311.056255,4959.379811,-5403.503377,7048.078582
20311.056588,6809.894666,-6809.894666,10878.556072
20311.056922,8216.285956,-7105.977043,6665.030833
20311.057255,4737.318029,-4811.338623,5515.887586
20311.057588,5921.647536,-9104.533087,4826.401637
20311.057921,2294.638420,-7328.038826,-4903.011187
20311.058254,-2960.823768,-13101.645173,-4366.744339
20311.058587,-7476.080014,-13027.624579,-9116.536426
20311.058920,-7698.141797,-12287.418637,-8963.317327
20311.059253,-4071.132681,-11843.295072,-3524.039291
20311.059586,1110.308913,-10362.883188,2374.896044
20311.059919,2812.782580,-4811.338623,4060.306139
20311.060252,5921.647536,-6587.832884,10342.289223
20311.060585,6439.791695,-6809.894666,5745.716235
20311.060919,6587.832884,-3627.009116,612.876398
20311.061252,6365.771101,-7476.080014,3600.648841
20311.061585,2368.659014,-8364.327145,-2911.162892
20311.061918,-74.020594,-11843.295072,-5669.106685
20311.062251,-4737.318029,-14508.036463,-6741.640382
20311.062584,-3627.009116,-13915.871710,-5286.058936
20311.062917,-666.185348,-12509.480420,459.657299
20311.063250,1776.494261,-9474.636058,4213.525239
20311.063583,3923.091493,-7550.100608,6894.859482
20311.063916,2368.659014,-4811.338623,5515.887586
20311.064249,2368.659014,-5403.503377,5056.230287
20311.064583,4367.215058,-6513.812290,1149.143247
20311.064916,592.164754,-7179.997637,-2451.505594
20311.065249,-2368.659014,-9548.656652,-2911.162892
20311.065582,-6661.853478,-11769.274478,-6588.421283
20311.065915,-8882.471304,-13989.892304,-5975.544884
20311.066248,-6217.729913,-11769.274478,-2604.724693
20311.066581,-1258.350101,-8734.430116,2834.553343
20311.066914,4071.132681,-8882.471304,7890.783629
20311.067247,2146.597232,-5403.503377,7890.783629
20311.067580,4663.297435,-6957.935855,4366.744339
20311.067913,1184.329507,-6291.750507,4136.915689
20311.068246,2368.659014,-8808.450710,2374.896044
20311.068580,-1110.308913,-8734.430116,-3064.381992
20311.068913,-5329.482782,-11843.295072,-6205.373534
20311.069246,-6143.709319,-11917.315666,-6665.030833
20311.069579,-6069.688724,-13397.727550,-2528.115143
20311.069912,-4071.132681,-11843.295072,0.000000
20311.070245,0.000000,-9548.656652,8120.612279
20311.070578,1776.494261,-3923.091493,6128.763984
20311.070911,4145.153275,-4811.338623,9193.145976
20311.071244,5255.462188,-6365.771101,7277.907231
20311.071577,2294.638420,-7105.977043,-76.609550
20311.071910,2072.576638,-7402.059420,-2374.896044
20311.072244,-1332.370696,-10288.862594,-6435.202183
20311.072577,-4441.235652,-11473.192101,-8273.831378
20311.072910,-7179.997637,-15766.386565,-8350.440928
20311.073243,-4811.338623,-15396.283594,-5592.497135
20311.073576,-4145.153275,-11325.150913,919.314598
20311.073909,2368.659014,-9548.656652,9576.193725
20311.074242,10584.944971,-4145.153275,10878.556072
20311.074575,7698.141797,-3923.091493,12870.404366
20311.074908,9400.615463,-4737.318029,8044.002729
20311.075241,4811.338623,-7846.182985,3447.429741
20311.075574,3182.885551,-8142.265362,-2528.115143
20311.075907,-518.144159,-10066.800811,-7124.688131
20311.076241,-5181.441594,-10140.821405,-13789.718964
20311.076574,-8290.306550,-14582.057057,-10189.070123
20311.076907,-6143.709319,-14211.954086,-7431.126331
20311.077240,-666.185348,-12731.542202,-1072.533697
20311.077573,1184.329507,-7772.162391,7354.516781
20311.077906,7920.203579,-5699.585753,10495.508323
20311.078239,9992.780217,-4737.318029,12793.794817
20311.078572,8512.368333,-4737.318029,9806.022374
20311.078905,7031.956449,-5551.544565,4673.182538
20311.079238,4663.297435,-7550.100608,-1838.629195
20311.079571,0.000000,-9326.594869,-6511.811733
20311.079905,-6661.853478,-13397.727550,-10572.117872
20311.080238,-9104.533087,-15396.283594,-12793.794817
20311.080571,-10214.842000,-15544.324782,-8197.221829
20311.080904,-4811.338623,-12657.521608,-3907.087040
20311.081237,1184.329507,-8364.327145,4903.011187
20311.081570,6513.812290,-7031.956449,14632.424012
20311.081903,8216.285956,-5921.647536,13406.671215
20311.082236,5033.400406,-3034.844362,10112.460574
20311.082569,5847.626942,-5921.647536,5286.058936
20311.082902,4515.256246,-6291.750507,1991.848295
20311.083235,-296.082377,-8734.430116,-4366.744339
20311.083568,-5403.503377,-13619.789333,-10495.508323
20311.083902,-9548.656652,-14063.912898,-14402.595362
20311.084235,-10658.965565,-14878.139434,-8656.879127
20311.084568,-4811.338623,-15248.242405,-1302.362347
20311.084901,-2442.679609,-10362.883188,2834.553343
20311.085234,2738.761985,-7476.080014,10955.165621
20311.085567,5107.421000,-4959.379811,12180.918418
20311.085900,6809.894666,-2442.679609,11644.651570
20311.086233,5033.400406,-4811.338623,7201.297681
20311.086566,3775.050304,-3849.070898,1991.848295
20311.086899,814.226536,-6365.771101,-5592.497135
20311.087232,-4737.318029,-13175.665768,-7431.126331
20311.087565,-9548.656652,-13323.706956,-12717.185267
20311.087899,-10732.986159,-15692.365970,-12257.527968
20311.088232,-6513.812290,-13027.624579,-5286.058936
20311.088565,-962.267725,-10066.800811,2604.724693
20311.088898,4811.338623,-6291.750507,7584.345430
20311.089231,8364.327145,-6883.915261,12257.527968
20311.089564,9474.636058,-5995.668130,10725.336972
20311.089897,6513.812290,-4811.338623,6128.763984
20311.090230,5329.482782,-8068.244768,3600.648841
20311.090563,4071.132681,-7105.977043,-4826.401637
20311.090896,-3404.947333,-10140.821405,-8580.269578
20311.091229,-6217.729913,-12509.480420,-11031.775171
20311.091563,-6883.915261,-14804.118840,-8656.879127
20311.091896,-4737.318029,-13693.809927,-2987.772442
20311.092229,370.102971,-9252.574275,2298.286494
20311.092562,4663.297435,-8290.306550,7277.907231
20311.092895,5921.647536,-5551.544565,11261.603821
20311.093228,6439.791695,-5551.544565,7507.735880
20311.093561,6439.791695,-2442.679609,4903.011187
20311.093894,7031.956449,-9474.636058,2987.772442
20311.094227,3108.864956,-8660.409521,-3370.820191
20311.094560,-1258.350101,-11843.295072,-5898.935335
20311.094893,-6957.935855,-13545.768739,-8580.269578
20311.095226,-7920.203579,-13397.727550,-9422.974625
20311.095560,-3923.091493,-13027.624579,-2528.115143
20311.095893,-888.247130,-9400.615463,3294.210641
20311.096226,3478.967927,-6365.771101,6665.030833
20311.096559,4737.318029,-6883.915261,8733.488677
20311.096892,5551.544565,-5329.482782,6741.640382
20311.097225,6439.791695,-8290.306550,6665.030833
20311.097558,2812.782580,-6587.832884,1225.752797
20311.097891,2738.761985,-9474.636058,-2528.115143
20311.098224,-4145.153275,-11325.150913,-4903.011187
20311.098557,-5329.482782,-10732.986159,-6741.640382
20311.098890,-4885.359217,-13619.789333,-4979.620737
20311.099224,-2886.803174,-12139.377449,-383.047749
20311.099557,148.041188,-9326.594869,3140.991542
20311.099890,592.164754,-7328.038826,5286.058936
20311.100223,4367.215058,-3849.070898,4826.401637
20311.100556,1184.329507,-7328.038826,6052.154434
20311.100889,6735.874072,-7698.141797,2374.896044
20311.101222,1554.432478,-5995.668130,1225.752797
20311.101555,1184.329507,-8660.409521,-612.876398
20311.101888,-1258.350101,-9918.759623,-5822.325785
20311.102221,-5699.585753,-13397.727550,-6128.763984
20311.102554,-5477.523971,-12213.398043,-5286.058936
20311.102887,-2220.617826,-9474.636058,-1072.533697
20311.103221,0.000000,-7772.162391,1225.752797
20311.103554,5477.523971,-9474.636058,8197.221829
20311.103887,6143.709319,-4811.338623,5822.325785
20311.104220,2664.741391,-5995.668130,4903.011187
20311.104553,5255.462188,-9474.636058,-76.609550
20311.104886,0.000000,-7179.997637,-3677.258390
20311.105219,0.000000,-9770.718434,-5132.839837
20311.105552,-1998.556043,-10732.986159,-5669.106685
20311.105885,-3775.050304,-13989.892304,-4979.620737
20311.106218,-1184.329507,-13027.624579,919.314598
20311.106551,2886.803174,-13027.624579,4826.401637
20311.106885,4663.297435,-6291.750507,5515.887586
20311.107218,5329.482782,-6513.812290,10418.898773
20311.107551,7031.956449,-7105.977043,4826.401637
20311.107884,0.000000,-4811.338623,2451.505594
20311.108217,2294.638420,-6809.894666,-1838.629195
20311.108550,-1998.556043,-8438.347739,-4749.792088
20311.108883,-4441.235652,-10436.903782,-7737.564530
20311.109216,-6513.812290,-14137.933492,-7354.516781
20311.109549,-10436.903782,-14582.057057,-7737.564530
20311.109882,-6291.750507,-11991.336260,-3294.210641
20311.110215,-518.144159,-9326.594869,5669.106685
20311.110548,4811.338623,-5329.482782,9422.974625
20311.110882,7328.038826,-2738.761985,11644.651570
20311.111215,5329.482782,-5773.606348,10189.070123
20311.111548,3478.967927,-9474.636058,2987.772442
20311.111881,-3256.906145,-6587.832884,-2451.505594
20311.112214,-2442.679609,-9474.636058,-6818.249932
20311.112547,-7994.224174,-10732.986159,-11031.775171
20311.112880,-8216.285956,-12731.542202,-10035.851024
20311.113213,-7476.080014,-13619.789333,-6052.154434
20311.113546,-5921.647536,-10732.986159,306.438199
20311.113879,2886.803174,-8586.388927,4903.011187
20311.114212,6439.791695,-9474.636058,11568.042020
20311.114546,6883.915261,-4441.235652,9882.631924
20311.114879,5255.462188,-3034.844362,7354.516781
20311.115212,4737.318029,-4071.132681,3217.601092
20311.115545,1776.494261,-6883.915261,-612.876398
20311.115878,-1406.391290,-8734.430116,-5745.716235
20311.116211,-4737.318029,-12583.501014,-9652.803275
20311.116544,-7476.080014,-16580.613101,-9882.631924
20311.116877,-8660.409521,-11917.315666,-10418.898773
20311.117210,-1258.350101,-15988.448347,-1302.362347
20311.117543,3923.091493,-7179.997637,5209.449386
20311.117876,8882.471304,-5995.668130,11644.651570
20311.118209,12361.439231,-6809.894666,15168.690860
20311.118543,10066.800811,-5107.421000,11874.480219
20311.118876,6513.812290,-7031.956449,4903.011187
20311.119209,4811.338623,-7550.100608,-1302.362347
20311.119542,-1184.329507,-8956.491898,-8273.831378
20311.119875,-5921.647536,-11917.315666,-9806.022374
20311.120209,-5995.668130,-11917.315666,-11951.089769
20311.120542,-6291.750507,-12213.398043,-9806.022374
20311.120875,-2368.659014,-14063.912898,-76.609550
20311.121208,2294.638420,-11251.130318,6052.154434
20311.121542,7920.203579,-6513.812290,9269.755526
20311.121875,11177.109724,-4737.318029,10342.289223
20311.122208,9770.718434,-4959.379811,10572.117872
20311.122541,7994.224174,-5625.565159,6588.421283
20311.122875,7031.956449,-9474.636058,2374.896044
20311.123208,0.000000,-7179.997637,-4903.011187
20311.123541,-4811.338623,-15100.201217,-8656.879127
20311.123874,-7772.162391,-14211.954086,-14172.766713
20311.124207,-11621.233289,-14582.057057,-10495.508323
20311.124541,-5107.421000,-12731.542202,-3753.867940
20311.124874,-1628.453072,-9548.656652,4136.915689
20311.125207,4663.297435,-5995.668130,10572.117872
20311.125540,7476.080014,-4811.338623,13789.718964
20311.125874,8216.285956,-5625.565159,10955.165621
20311.126207,5181.441594,-6513.812290,6511.811733
20311.126540,2146.597232,-5477.523971,612.876398
20311.126873,-1258.350101,-8438.347739,-4213.525239
20311.127206,-6217.729913,-9548.656652,-9806.022374
20311.127540,-7920.203579,-14804.118840,-10495.508323
20311.127873,-9844.739029,-12953.603985,-11108.384721
20311.128206,-8290.306550,-13249.686362,-842.705048
20311.128539,-2738.761985,-10955.047942,2987.772442
20311.128873,814.226536,-6217.729913,4903.011187
20311.129206,4367.215058,-5921.647536,10572.117872
20311.129539,6735.874072,-3775.050304,10725.336972
20311.129872,4663.297435,-5255.462188,6665.030833
20311.130206,3552.988522,-5403.503377,2451.505594
20311.130539,2368.659014,-9474.636058,-689.485948
20311.130872,-5477.523971,-10140.821405,-7967.393179
20311.131205,-9474.636058,-11917.315666,-9806.022374
20311.131538,-9622.677246,-14804.118840,-10495.508323
20311.131872,-7105.977043,-13397.727550,-4903.011187
20311.132205,-1110.308913,-8660.409521,1838.629195
20311.132538,3108.864956,-7772.162391,7201.297681
20311.132871,5107.421000,-6661.853478,8733.488677
20311.133205,8068.244768,-6809.894666,8810.098227
20311.133538,8216.285956,-9474.636058,6052.154434
20311.133871,2960.823768,-4811.338623,2451.505594
20311.134204,4367.215058,-8290.306550,-76.609550
20311.134537,1702.473667,-10955.047942,-4979.620737
20311.134871,-3627.009116,-13841.851115,-4366.744339
20311.135204,-4737.318029,-11991.336260,-6818.249932
20311.135537,-3923.091493,-13915.871710,-2604.724693
20311.135870,148.041188,-9992.780217,1608.800546
20311.136204,1776.494261,-6587.832884,3830.477490
20311.136537,5551.544565,-6217.729913,4903.011187
20311.136870,1184.329507,-5403.503377,7354.516781
20311.137203,6217.729913,-8882.471304,4826.401637
20311.137537,4293.194464,-3701.029710,612.876398
20311.137870,1036.288319,-9474.636058,-1302.362347
20311.138203,-1776.494261,-11251.130318,-4366.744339
20311.138536,-5403.503377,-14211.954086,-5745.716235
20311.138869,-5403.503377,-12435.459826,-4749.792088
20311.139203,-1776.494261,-11843.295072,612.876398
20311.139536,-1184.329507,-6587.832884,4903.011187
20311.139869,4071.132681,-7698.141797,8273.831378
20311.140202,6439.791695,-7105.977043,6971.469032
20311.140536,3256.906145,-5995.668130,4903.011187
20311.140869,2812.782580,-8290.306550,2068.457845
20311.141202,666.185348,-8586.388927,-1608.800546
20311.141535,-1258.350101,-9918.759623,-4979.620737
20311.141868,-3330.926739,-11325.150913,-6894.859482
20311.142202,-4145.153275,-14211.954086,-3524.039291
20311.142535,-4737.318029,-12805.562797,-1378.971896
20311.142868,74.020594,-9992.780217,3600.648841
20311.143201,3923.091493,-7550.100608,6818.249932
20311.143535,5477.523971,-6513.812290,8044.002729
20311.143868,4737.318029,-4811.338623,6128.763984
20311.144201,3478.967927,-5921.647536,-76.609550
20311.144534,0.000000,-6587.832884,0.000000
20311.144868,2294.638420,-8290.306550,-2528.115143
20311.145201,-370.102971,-11251.130318,-4979.620737
20311.145534,-4737.318029,-12509.480420,-6128.763984
20311.145867,-5403.503377,-13397.727550,-5975.544884
20311.146200,-4441.235652,-13027.624579,-1455.581446
20311.146534,1850.514855,-9918.759623,4826.401637
20311.146867,5847.626942,-8142.265362,9729.412825
20311.147200,5329.482782,-4811.338623,9806.022374
20311.147533,4737.318029,-5403.503377,10035.851024
20311.147867,4663.297435,-7105.977043,2681.334243
20311.148200,0.000000,-4811.338623,0.000000
20311.148533,-74.020594,-8882.471304,-5286.058936
20311.148866,-1480.411884,-8142.265362,-8350.440928
20311.149199,-3108.864956,-11769.274478,-7737.564530
20311.149533,-1850.514855,-12435.459826,-5898.935335
20311.149866,-3034.844362,-14804.118840,-1608.800546
20311.150199,0.000000,-10732.986159,3983.696590
20311.150532,5403.503377,-12731.542202,9652.803275
20311.150866,9400.615463,-5921.647536,8503.660028
20311.151199,9474.636058,-6291.750507,11031.775171
20311.151532,6291.750507,-4811.338623,3447.429741
20311.151865,6143.709319,-5477.523971,1455.581446
20311.152199,1332.370696,-8216.285956,-2374.896044
20311.152532,-2442.679609,-10066.800811,-7507.735880
20311.152865,-8734.430116,-13101.645173,-11644.651570
20311.153198,-9474.636058,-16358.551318,-6205.373534
20311.153531,-5403.503377,-12435.459826,-4443.353888
20311.153865,-2368.659014,-8364.327145,2451.505594
20311.154198,2368.659014,-8364.327145,11644.651570
20311.154531,4959.379811,-5847.626942,10418.898773
20311.154864,4885.359217,-5625.565159,9729.412825
20311.155198,1480.411884,-5699.585753,5439.278036
20311.155531,-666.185348,-6883.915261,0.000000
20311.155864,-4589.276840,-5995.668130,-5822.325785
20311.156197,-6439.791695,-10214.842000,-9116.536426
20311.156530,-9918.759623,-13175.665768,-10035.851024
20311.156864,-10658.965565,-12953.603985,-8197.221829
20311.157197,-5107.421000,-15988.448347,-1915.238745
20311.157530,-666.185348,-9918.759623,3830.477490
20311.157863,592.164754,-8068.244768,10342.289223
20311.158197,4737.318029,-6291.750507,13100.233016
20311.158530,8808.450710,-4737.318029,10801.946522
20311.158863,6809.894666,-5403.503377,7660.954980
20311.159196,3404.947333,-6809.894666,1762.019645
20311.159530,-1332.370696,-7550.100608,-4596.572988
20311.159863,-7105.977043,-12731.542202,-10112.460574
20311.160196,-9918.759623,-11547.212695,-14172.766713
20311.160529,-8882.471304,-14359.995275,-11108.384721
20311.160862,-7105.977043,-12213.398043,-2145.067394
20311.161196,1628.453072,-10214.842000,6052.154434
20311.161529,6439.791695,-6957.935855,9729.412825
20311.161862,9400.615463,-6513.812290,12793.794817
20311.162195,9770.718434,-4441.235652,9959.241474
20311.162529,7476.080014,-7550.100608,5745.716235
20311.162862,5699.585753,-6365.771101,0.000000
20311.163195,2664.741391,-7179.997637,-3677.258390
20311.163528,-74.020594,-11843.295072,-9576.193725
20311.163861,-2960.823768,-15322.262999,-7431.126331
20311.164195,-6587.832884,-14434.015869,-10725.336972
20311.164528,-4737.318029,-11917.315666,-6128.763984
20311.164861,0.000000,-9548.656652,2145.067394
20311.165194,5033.400406,-7105.977043,7814.174080
20311.165528,8734.430116,-5847.626942,11951.089769
20311.165861,11399.171507,-3182.885551,12717.185267
20311.166194,11769.274478,-6809.894666,9729.412825
20311.166527,7328.038826,-3627.009116,2451.505594
20311.166861,7031.956449,-8290.306550,-689.485948
20311.167194,-74.020594,-10584.944971,-9806.022374
20311.167527,-5921.647536,-15766.386565,-10495.508323
20311.167860,-7772.162391,-16580.613101,-11721.261119
20311.168193,-5921.647536,-15174.221811,-5439.278036
20311.168527,-518.144159,-10881.027347,1378.971896
20311.168860,3330.926739,-7772.162391,6741.640382
20311.169193,5847.626942,-5181.441594,9499.584175
20311.169526,5329.482782,-4811.338623,14172.766713
20311.169860,8808.450710,-3552.988522,7277.907231
20311.170193,4441.235652,-3256.906145,2834.553343
20311.170526,1184.329507,-7772.162391,1149.143247
20311.170859,-2442.679609,-11843.295072,-5286.058936
20311.171192,-8586.388927,-13693.809927,-8886.707777
20311.171526,-10362.883188,-14878.139434,-10112.460574
20311.171859,-8142.265362,-14137.933492,-5669.106685
20311.172192,-5847.626942,-12139.377449,153.219100
20311.172525,-4145.153275,-8956.491898,4903.011187
20311.172859,222.061783,-6217.729913,6971.469032
20311.173192,1776.494261,-4293.194464,7967.393179
20311.173525,3404.947333,-4219.173869,8503.660028
20311.173858,2886.803174,-4737.318029,4826.401637
20311.174192,0.000000,-5847.626942,842.705048
20311.174525,-2442.679609,-13619.789333,-2528.115143
20311.174858,-8660.409521,-10732.986159,-7354.516781
20311.175191,-9400.615463,-12805.562797,-7737.564530
20311.175524,-5995.668130,-15396.283594,-4979.620737
20311.175858,-2664.741391,-10510.924376,459.657299
20311.176191,-1332.370696,-8512.368333,3370.820191
20311.176524,3552.988522,-5995.668130,5669.106685
20311.176857,1480.411884,-5403.503377,4290.134789
20311.177191,2960.823768,-5403.503377,4903.011187
20311.177524,4663.297435,-5847.626942,1455.581446
20311.177857,1110.308913,-6143.709319,-4136.915689
20311.178190,0.000000,-10214.842000,-3753.867940
20311.178523,-74.020594,-12139.377449,-5286.058936
20311.178857,-2960.823768,-11917.315666,-2757.943793
20311.179190,-222.061783,-10881.027347,-76.609550
20311.179523,740.205942,-10732.986159,2374.896044
20311.179856,3330.926739,-8216.285956,4290.134789
20311.180190,4737.318029,-7772.162391,8503.660028
20311.180523,4663.297435,-5403.503377,1225.752797
20311.180856,2960.823768,-7179.997637,0.000000
20311.181189,4737.318029,-8142.265362,-76.609550
20311.181523,888.247130,-8364.327145,-2451.505594
20311.181856,-518.144159,-11621.233289,-4290.134789
20311.182189,-4219.173869,-13767.830521,-6511.811733
20311.182522,-3701.029710,-14211.954086,-3447.429741
20311.182855,-74.020594,-10658.965565,2374.896044
20311.183189,4959.379811,-9474.636058,7277.907231
20311.183522,7031.956449,-3627.009116,6128.763984
20311.183855,5921.647536,-5995.668130,8810.098227
20311.184188,8216.285956,-8290.306550,4519.963438
20311.184522,4515.256246,-7920.203579,2068.457845
20311.184855,-296.082377,-8734.430116,-4903.011187
20311.185188,-2368.659014,-10214.842000,-7967.393179
20311.185521,-3478.967927,-13323.706956,-7737.564530
20311.185854,-5329.482782,-12509.480420,-5898.935335
20311.186188,-2442.679609,-11917.315666,-3677.258390
20311.186521,1184.329507,-10732.986159,3064.381992
20311.186854,6217.729913,-9474.636058,11568.042020
20311.187187,5329.482782,-5107.421000,9806.022374
20311.187521,5847.626942,-5329.482782,9116.536426
20311.187854,3256.906145,-5107.421000,3064.381992
20311.188187,2146.597232,-6661.853478,-383.047749
20311.188520,962.267725,-6587.832884,-3983.696590
20311.188853,-4737.318029,-9548.656652,-8273.831378
20311.189187,-6439.791695,-13101.645173,-9806.022374
20311.189520,-6883.915261,-15100.201217,-8044.002729
20311.189853,-5477.523971,-13841.851115,-3370.820191
20311.190186,-1184.329507,-10436.903782,3830.477490
20311.190520,3552.988522,-5995.668130,8886.707777
20311.190853,8808.450710,-7105.977043,12180.918418
20311.191186,6069.688724,-3923.091493,10418.898773
20311.191519,6291.750507,-6809.894666,8503.660028
20311.191853,4071.132681,-6217.729913,1149.143247
20311.192186,-2072.576638,-7179.997637,-4213.525239
20311.192519,-4219.173869,-9104.533087,-9806.022374
20311.192852,-8290.306550,-11473.192101,-11797.870669
20311.193185,-7179.997637,-14804.118840,-10801.946522
20311.193519,-4589.276840,-14804.118840,-2528.115143
20311.193852,-1184.329507,-13249.686362,3600.648841
20311.194185,4663.297435,-10658.965565,8503.660028
20311.194518,7179.997637,-4811.338623,10418.898773
20311.194852,7105.977043,-3627.009116,11644.651570
20311.195185,8808.450710,-4737.318029,6052.154434
20311.195518,5107.421000,-5477.523971,1532.190996
20311.195851,1184.329507,-7846.182985,-3140.991542
20311.196184,-4737.318029,-11547.212695,-8350.440928
20311.196518,-8956.491898,-13915.871710,-12947.013916
20311.196851,-14211.954086,-14582.057057,-9959.241474
20311.197184,-6587.832884,-15100.201217,-6511.811733
20311.197517,-1258.350101,-8068.244768,612.876398
20311.197851,4145.153275,-8290.306550,12717.185267
20311.198184,7031.956449,-3627.009116,13023.623466
20311.198517,8216.285956,-5921.647536,13406.671215
20311.198850,5329.482782,-5477.523971,8350.440928
20311.199184,2664.741391,-4959.379811,2221.676944
20311.199517,-888.247130,-7772.162391,-3677.258390
20311.199850,-3627.009116,-12879.583391,-7737.564530
20311.200183,-9548.656652,-12879.583391,-14019.547613
20311.200516,-10066.800811,-15174.221811,-11644.651570
20311.200850,-7920.203579,-15988.448347,-3753.867940
20311.201183,-3849.070898,-11917.315666,2374.896044
20311.201516,2664.741391,-7994.224174,8580.269578
20311.201849,7698.141797,-4589.276840,13253.452115
20311.202183,8512.368333,-2368.659014,12257.527968
20311.202516,9326.594869,-5181.441594,9806.022374
20311.202849,5847.626942,-5033.400406,3447.429741
20311.203182,2294.638420,-6587.832884,-3064.381992
20311.203515,-1998.556043,-11843.295072,-7967.393179
20311.203849,-9030.512492,-13101.645173,-14249.376263
20311.204182,-10066.800811,-13693.809927,-11951.089769
20311.204515,-6439.791695,-17172.777854,-5745.716235
20311.204848,-222.061783,-9474.636058,-383.047749
20311.205182,1998.556043,-8438.347739,5209.449386
20311.205515,7772.162391,-4737.318029,10955.165621
20311.205848,7920.203579,-4515.256246,11644.651570
20311.206181,8364.327145,-4071.132681,8656.879127
20311.206515,6735.874072,-5255.462188,4060.306139
20311.206848,4145.153275,-5995.668130,-1225.752797
20311.207181,1702.473667,-9326.594869,-6741.640382
20311.207514,-2442.679609,-15396.283594,-10189.070123
20311.207847,-7698.141797,-13397.727550,-11644.651570
20311.208181,-8290.306550,-14285.974681,-7967.393179
20311.208514,-2072.576638,-12509.480420,-1225.752797
20311.208847,1776.494261,-8290.306550,4903.011187
20311.209180,5033.400406,-7105.977043,8886.707777
20311.209514,7846.182985,-4515.256246,10265.679673
20311.209847,10584.944971,-4737.318029,9729.412825
20311.210180,5329.482782,-3627.009116,4903.011187
20311.210513,3775.050304,-7105.977043,-1915.238745
20311.210846,-1998.556043,-8364.327145,-6128.763984
20311.211180,-6587.832884,-16284.530724,-7431.126331
20311.211513,-6291.750507,-13915.871710,-9882.631924
20311.211846,-8290.306550,-14582.057057,-5898.935335
20311.212179,-3182.885551,-11621.233289,-306.438199
20311.212513,0.000000,-8290.306550,4826.401637
20311.212846,3701.029710,-6439.791695,7354.516781
20311.213179,5921.647536,-6143.709319,11568.042020
20311.213512,4219.173869,-4811.338623,7354.516781
20311.213846,2960.823768,-4811.338623,5209.449386
20311.214179,2294.638420,-6809.894666,-2221.676944
20311.214512,-3627.009116,-8956.491898,-5669.106685
20311.214845,-5477.523971,-13619.789333,-7124.688131
20311.215178,-8660.409521,-13101.645173,-7048.078582
20311.215512,-6143.709319,-13101.645173,-4596.572988
20311.215845,-3775.050304,-11769.274478,1762.019645
20311.216178,-74.020594,-9474.636058,5439.278036
20311.216511,0.000000,-5107.421000,8580.269578
20311.216845,3330.926739,-5921.647536,6665.030833
20311.217178,1702.473667,-2442.679609,2451.505594
20311.217511,296.082377,-4663.297435,2834.553343
20311.217844,-74.020594,-7105.977043,-2528.115143
20311.218177,-3108.864956,-9548.656652,-5056.230287
20311.218511,-6587.832884,-14211.954086,-6281.983084
20311.218844,-7254.018232,-13619.789333,-6971.469032
20311.219177,-3627.009116,-12731.542202,-2834.553343
20311.219510,-592.164754,-10732.986159,2374.896044
20311.219844,2960.823768,-6439.791695,6128.763984
20311.220177,5329.482782,-6217.729913,7660.954980
20311.220510,5921.647536,-4811.338623,6128.763984
20311.220843,5551.544565,-8290.306550,3600.648841
20311.221177,4663.297435,-7698.141797,-1302.362347
20311.221510,0.000000,-8364.327145,-3370.820191
20311.221843,-1850.514855,-11843.295072,-7124.688131
20311.222177,-4737.318029,-12213.398043,-8350.440928
20311.222510,-5181.441594,-14211.954086,-4366.744339
20311.222843,-518.144159,-10807.006753,1378.971896
20311.223176,3775.050304,-9474.636058,6894.859482
20311.223510,8660.409521,-7698.141797,10648.727422
20311.223843,9400.615463,-6513.812290,9116.536426
20311.224176,3552.988522,-3923.091493,4903.011187
20311.224509,4737.318029,-6883.915261,3294.210641
20311.224843,1702.473667,-7328.038826,-4213.525239
20311.225176,0.000000,-8364.327145,-7048.078582
20311.225509,-4219.173869,-13915.871710,-8350.440928
20311.225842,-6957.935855,-14730.098246,-8273.831378
20311.226176,-5181.441594,-14730.098246,-4979.620737
20311.226509,-666.185348,-10658.965565,2374.896044
20311.226842,6439.791695,-7105.977043,7890.783629
20311.227175,6513.812290,-3627.009116,13176.842566
20311.227509,10140.821405,-4737.318029,12793.794817
20311.227842,7624.121203,-6217.729913,5439.278036
20311.228175,3478.967927,-7105.977043,1149.143247
20311.228508,370.102971,-7328.038826,-4366.744339
20311.228842,-4663.297435,-10732.986159,-9652.803275
20311.229175,-6661.853478,-13175.665768,-11721.261119
20311.229508,-9474.636058,-14285.974681,-9806.022374
20311.229841,-4811.338623,-13027.624579,-4903.011187
20311.230175,-2368.659014,-10140.821405,4903.011187
20311.230508,7624.121203,-8290.306550,10955.165621
20311.230841,6513.812290,-3849.070898,12180.918418
20311.231174,7698.141797,-1850.514855,10495.508323
20311.231508,7105.977043,-5033.400406,7431.126331
20311.231841,3478.967927,-5255.462188,229.828649
20311.232174,-1036.288319,-8734.430116,-4443.353888
20311.232507,-4219.173869,-11251.130318,-9882.631924
20311.232841,-11695.253884,-14878.139434,-11951.089769
20311.233174,-11251.130318,-14952.160028,-10648.727422
20311.233507,-7179.997637,-11917.315666,-6741.640382
20311.233840,-74.020594,-13027.624579,4826.401637
20311.234174,4885.359217,-4959.379811,9806.022374
20311.234507,9104.533087,-3182.885551,11797.870669
20311.234840,10510.924376,-4367.215058,13636.499864
20311.235173,8068.244768,-4959.379811,8427.050478
20311.235507,7031.956449,-7994.224174,3294.210641
20311.235840,0.000000,-8660.409521,-3830.477490
20311.236173,-3701.029710,-9548.656652,-10725.336972
20311.236506,-8586.388927,-14508.036463,-12640.575717
20311.236840,-9992.780217,-13989.892304,-12334.137518
20311.237173,-7476.080014,-17172.777854,-4979.620737
20311.237506,-4145.153275,-10732.986159,0.000000
20311.237839,3627.009116,-7772.162391,10801.946522
20311.238173,8216.285956,-4589.276840,13406.671215
20311.238506,7698.141797,-74.020594,11644.651570
20311.238839,7624.121203,-4145.153275,8963.317327
20311.239172,5033.400406,-4219.173869,3294.210641
20311.239506,2072.576638,-7105.977043,-2681.334243
20311.239839,-3997.112087,-11991.336260,-9576.193725
20311.240172,-8956.491898,-14804.118840,-14785.643111
20311.240505,-13027.624579,-16950.716072,-10801.946522
20311.240839,-6587.832884,-17764.942608,-6818.249932
20311.241172,-3923.091493,-10436.903782,0.000000
20311.241505,2960.823768,-8660.409521,9806.022374
20311.241838,7920.203579,-4737.318029,12717.185267
20311.242172,7994.224174,-3849.070898,14019.547613
20311.242505,7846.182985,-3775.050304,10648.727422
20311.242838,5773.606348,-4737.318029,5439.278036
20311.243171,592.164754,-3627.009116,-2451.505594
20311.243505,-2368.659014,-10658.965565,-4979.620737
20311.243838,-8956.491898,-14063.912898,-13559.890315
20311.244171,-10140.821405,-13249.686362,-15934.786358
20311.244504,-8364.327145,-17468.860231,-6818.249932
20311.244838,-2960.823768,-12509.480420,0.000000
20311.245171,518.144159,-9548.656652,6052.154434
20311.245504,5477.523971,-4959.379811,9806.022374
20311.245838,7846.182985,-4293.194464,12487.356617
20311.246171,7698.141797,-3627.009116,10418.898773
20311.246504,8216.285956,-8290.306550,6052.154434
20311.246837,3330.926739,-5773.606348,-1225.752797
20311.247171,0.000000,-9844.739029,-1532.190996
20311.247504,-4811.338623,-15396.283594,-8044.002729
20311.247837,-7698.141797,-11917.315666,-9806.022374
20311.248170,-6735.874072,-15840.407159,-7277.907231
20311.248504,-1554.432478,-11177.109724,-689.485948
20311.248837,962.267725,-9770.718434,2987.772442
20311.249170,3552.988522,-6735.874072,7354.516781
20311.249503,7624.121203,-6365.771101,8350.440928
20311.249837,6735.874072,-5773.606348,7890.783629
20311.250170,7476.080014,-5773.606348,4826.401637
20311.250503,3923.091493,-5625.565159,-1302.362347
20311.250836,1110.308913,-7179.997637,-4903.011187
20311.251170,-3552.988522,-13915.871710,-5439.278036
20311.251503,-2442.679609,-14211.954086,-7431.126331
20311.251836,-5847.626942,-12805.562797,-6128.763984
20311.252169,-74.020594,-13619.789333,1149.143247
20311.252503,2220.617826,-7179.997637,4290.134789
20311.252836,4959.379811,-7031.956449,6435.202183
20311.253169,5181.441594,-5107.421000,6665.030833
20311.253502,3552.988522,-5995.668130,4290.134789
20311.253836,7624.121203,-5329.482782,612.876398
20311.254169,4663.297435,-9474.636058,-76.609550
20311.254502,-222.061783,-9252.574275,-5822.325785
20311.254835,-4071.132681,-12065.356855,-6128.763984
20311.255169,-6217.729913,-14285.974681,-6741.640382
20311.255502,-4145.153275,-12361.439231,-2834.553343
20311.255835,-2220.617826,-11029.068536,2451.505594
20311.256168,0.000000,-7179.997637,4903.011187
20311.256502,3478.967927,-7550.100608,8963.317327
20311.256835,2146.597232,-4811.338623,4903.011187
20311.257168,2294.638420,-7105.977043,3600.648841
20311.257501,-1036.288319,-5107.421000,1225.752797
20311.257835,-74.020594,-7698.141797,-1302.362347
20311.258168,-3552.988522,-9474.636058,-5209.449386
20311.258501,-6291.750507,-14211.954086,-6281.983084
20311.258834,-6217.729913,-13249.686362,-5209.449386
20311.259168,-5181.441594,-12879.583391,-995.924147
20311.259501,-666.185348,-10510.924376,2681.334243
20311.259834,0.000000,-8364.327145,8273.831378
20311.260167,2294.638420,-4219.173869,5515.887586
20311.260501,296.082377,-3034.844362,6128.763984
20311.260834,3478.967927,-6513.812290,2374.896044
20311.261167,1110.308913,-4737.318029,-76.609550
20311.261500,-1406.391290,-9104.533087,-2834.553343
20311.261834,-4219.173869,-10881.027347,-6435.202183
20311.262167,-7105.977043,-12805.562797,-7354.516781
20311.262500,-6661.853478,-14878.139434,-5209.449386
20311.262833,-74.020594,-13619.789333,-76.609550
20311.263167,296.082377,-7772.162391,5515.887586
20311.263500,6735.874072,-7402.059420,8580.269578
20311.263833,7920.203579,-8290.306550,6665.030833
20311.264166,4663.297435,-5773.606348,3447.429741
20311.264500,5551.544565,-8290.306550,2374.896044
20311.264833,2146.597232,-7624.121203,-2221.676944
20311.265166,-222.061783,-9178.553681,-5592.497135
20311.265499,-4071.132681,-12509.480420,-7124.688131
20311.265833,-2590.720797,-14211.954086,-6205.373534
20311.266166,-3256.906145,-12509.480420,-2221.676944
20311.266499,1258.350101,-11695.253884,3370.820191
20311.266832,5921.647536,-8512.368333,8886.707777
20311.267166,5921.647536,-3627.009116,8886.707777
20311.267499,8586.388927,-5847.626942,9729.412825
20311.267832,5255.462188,-7105.977043,3294.210641
20311.268165,1184.329507,-5995.668130,0.000000
20311.268499,1850.514855,-9326.594869,-3753.867940
20311.268832,-3627.009116,-11695.253884,-9729.412825
20311.269165,-7105.977043,-13101.645173,-10572.117872
20311.269499,-9400.615463,-15692.365970,-8427.050478
20311.269832,-4589.276840,-13841.851115,-1762.019645
20311.270165,0.000000,-8956.491898,6128.763984
20311.270498,5033.400406,-9030.512492,12793.794817
20311.270832,8216.285956,-2442.679609,11338.213370
20311.271165,6661.853478,-2442.679609,10418.898773
20311.271498,7254.018232,-5403.503377,7354.516781
20311.271831,592.164754,-6587.832884,0.000000
20311.272165,-518.144159,-8290.306550,-6281.983084
20311.272498,-5699.585753,-12583.501014,-10572.117872
20311.272831,-8512.368333,-13545.768739,-12487.356617
20311.273164,-8660.409521,-17468.860231,-9882.631924
20311.273498,-5995.668130,-17764.942608,-3140.991542
20311.273831,-1776.494261,-10140.821405,4903.011187
20311.274164,3849.070898,-7105.977043,13483.280765
20311.274497,8882.471304,-5255.462188,15245.300410
20311.274831,10584.944971,-2590.720797,15245.300410
20311.275164,8142.265362,-3923.091493,9193.145976
20311.275497,4885.359217,-4071.132681,2987.772442
20311.275830,1776.494261,-7328.038826,-4136.915689
20311.276164,-5181.441594,-9696.697840,-11644.651570
20311.276497,-7476.080014,-14804.118840,-14785.643111
20311.276830,-13027.624579,-14878.139434,-13483.280765
20311.277163,-9474.636058,-17024.736666,-7431.126331
20311.277497,-2738.761985,-14211.954086,1149.143247
20311.277830,2886.803174,-8882.471304,9116.536426
20311.278163,9474.636058,-3552.988522,14938.862211
20311.278496,10584.944971,-3701.029710,16394.443657
20311.278830,10436.903782,-2220.617826,11568.042020
20311.279163,6513.812290,-4293.194464,5515.887586
20311.279496,2664.741391,-3627.009116,-2451.505594
20311.279829,-1332.370696,-11843.295072,-7431.126331
20311.280163,-6587.832884,-14211.954086,-15858.176809
20311.280496,-11547.212695,-16950.716072,-14709.033562
20311.280829,-7179.997637,-18949.272115,-8656.879127
20311.281162,-1036.288319,-13545.768739,459.657299
20311.281496,3182.885551,-9474.636058,8044.002729
20311.281829,8586.388927,-5921.647536,12640.575717
20311.282162,9474.636058,-3182.885551,14709.033562
20311.282495,8808.450710,-2146.597232,10418.898773
20311.282829,7476.080014,-3552.988522,6052.154434
20311.283162,2516.700203,-6291.750507,153.219100
20311.283495,-1554.432478,-9326.594869,-6435.202183
20311.283828,-9474.636058,-13101.645173,-13176.842566
20311.284162,-9548.656652,-16580.613101,-13866.328514
20311.284495,-11103.089130,-14582.057057,-8580.269578
20311.284828,-4367.215058,-14211.954086,-459.657299
20311.285161,-74.020594,-10658.965565,4826.401637
20311.285495,2960.823768,-5995.668130,10418.898773
20311.285828,7476.080014,-4515.256246,13636.499864
20311.286161,7179.997637,-3997.112087,11338.213370
20311.286494,6365.771101,-3923.091493,5209.449386
20311.286828,3256.906145,-7402.059420,2298.286494
20311.287161,-4737.318029,-7179.997637,-5822.325785
20311.287494,-9474.636058,-12213.398043,-8580.269578
20311.287827,-8364.327145,-15396.283594,-12027.699319
20311.288161,-9178.553681,-13101.645173,-7967.393179
20311.288494,-3182.885551,-13619.789333,-76.609550
20311.288827,148.041188,-9252.574275,5362.668486
20311.289160,3182.885551,-6661.853478,8273.831378
20311.289494,6217.729913,-4737.318029,9576.193725
20311.289827,7031.956449,-4737.318029,8503.660028
20311.290160,2960.823768,-2442.679609,4903.011187
20311.290493,2960.823768,-7254.018232,0.000000
20311.290827,2294.638420,-10658.965565,-4979.620737
20311.291160,-6513.812290,-12509.480420,-7354.516781
20311.291493,-5995.668130,-12805.562797,-9193.145976
20311.291826,-7550.100608,-15322.262999,-6818.249932
20311.292160,-2146.597232,-11103.089130,-919.314598
20311.292493,592.164754,-9770.718434,3907.087040
20311.292826,5329.482782,-2442.679609,5822.325785
20311.293160,4737.318029,-7179.997637,11951.089769
20311.293493,8216.285956,-4737.318029,5745.716235
20311.293826,5921.647536,-5403.503377,3064.381992
20311.294159,2664.741391,-9474.636058,-1302.362347
20311.294493,1406.391290,-7920.203579,-7354.516781
20311.294826,-4293.194464,-14137.933492,-7277.907231
20311.295159,-4737.318029,-14434.015869,-6894.859482
20311.295492,-3256.906145,-12731.542202,-3524.039291
20311.295826,-888.247130,-11029.068536,2298.286494
20311.296159,4589.276840,-7994.224174,7277.907231
20311.296492,5107.421000,-6883.915261,8503.660028
20311.296825,6365.771101,-3997.112087,6588.421283
20311.297159,5699.585753,-7698.141797,5439.278036
20311.297492,5551.544565,-5921.647536,536.266849
20311.297825,888.247130,-6143.709319,-1838.629195
20311.298158,-74.020594,-13027.624579,-2834.553343
20311.298492,-5699.585753,-12805.562797,-8427.050478
20311.298825,-7105.977043,-14878.139434,-7354.516781
20311.299158,-3182.885551,-12065.356855,-2681.334243
20311.299491,1184.329507,-10214.842000,3600.648841
20311.299825,3182.885551,-7920.203579,6818.249932
20311.300158,4367.215058,-5921.647536,7277.907231
20311.300491,4293.194464,-8290.306550,6052.154434
20311.300824,1776.494261,-5403.503377,3677.258390
20311.301158,2294.638420,-8290.306550,2374.896044
20311.301491,-74.020594,-9178.553681,-4979.620737
20311.301824,-3627.009116,-10066.800811,-5592.497135
20311.302157,-6143.709319,-12583.501014,-6665.030833
20311.302491,-5329.482782,-13841.851115,-3907.087040
20311.302824,-1036.288319,-11769.274478,2451.505594
20311.303157,0.000000,-9548.656652,6741.640382
20311.303490,4663.297435,-8290.306550,6665.030833
20311.303824,1184.329507,-5403.503377,8580.269578
20311.304157,3923.091493,-6513.812290,4060.306139
20311.304490,592.164754,-3627.009116,0.000000
20311.304823,-1480.411884,-6291.750507,-2451.505594
20311.305157,-5551.544565,-8660.409521,-6588.421283
20311.305490,-7846.182985,-11621.233289,-9193.145976
20311.305823,-7624.121203,-13471.748144,-6971.469032
20311.306156,-4885.359217,-14211.954086,-1608.800546
20311.306490,-1258.350101,-9548.656652,612.876398
20311.306823,6735.874072,-9474.636058,9729.412825
20311.307156,8808.450710,-6513.812290,9729.412825
20311.307489,7402.059420,-5995.668130,11261.603821
20311.307823,6809.894666,-7994.224174,6281.983084
20311.308156,2516.700203,-7772.162391,0.000000
20311.308489,0.000000,-9252.574275,-4290.134789
20311.308822,-3923.091493,-11029.068536,-8580.269578
20311.309156,-7402.059420,-12731.542202,-11721.261119
20311.309489,-9474.636058,-12509.480420,-7354.516781
20311.309822,-2738.761985,-13027.624579,-4060.306139
20311.310155,-1258.350101,-8882.471304,2681.334243
20311.310489,3552.988522,-7476.080014,11261.603821
20311.310822,8882.471304,-6883.915261,13483.280765
20311.311155,8956.491898,-4737.318029,11568.042020
20311.311488,8142.265362,-4367.215058,6511.811733
20311.311822,3923.091493,-6957.935855,919.314598
20311.312155,2294.638420,-7105.977043,-5898.935335
20311.312488,-4145.153275,-12065.356855,-9346.365076
20311.312821,-6661.853478,-14730.098246,-12257.527968
20311.313155,-8512.368333,-16728.654289,-10648.727422
20311.313488,-7624.121203,-16136.489536,-5669.106685
20311.313821,-74.020594,-11547.212695,3600.648841
20311.314154,2664.741391,-5995.668130,11031.775171
20311.314488,8290.306550,-4071.132681,16317.834107
20311.314821,10584.944971,-2368.659014,12640.575717
20311.315154,6513.812290,-3627.009116,9039.926876
20311.315487,7031.956449,-5921.647536,4826.401637
20311.315821,148.041188,-7254.018232,-3753.867940
20311.316154,-4293.194464,-10288.862594,-11338.213370
20311.316487,-9992.780217,-15174.221811,-14096.157163
20311.316821,-9548.656652,-14285.974681,-14632.424012
20311.317154,-9474.636058,-15766.386565,-6128.763984
20311.317487,-1258.350101,-13027.624579,2374.896044
20311.317820,6439.791695,-9474.636058,9116.536426
20311.318154,9104.533087,-3849.070898,14709.033562
20311.318487,12657.521608,-2220.617826,13942.938064
20311.318820,9104.533087,-3701.029710,10342.289223
20311.319153,7254.018232,-3627.009116,4366.744339
20311.319487,2812.782580,-6957.935855,-1762.019645
20311.319820,-1776.494261,-9548.656652,-8273.831378
20311.320153,-9474.636058,-13397.727550,-11031.775171
20311.320486,-10140.821405,-14434.015869,-16241.224558
20311.320820,-9474.636058,-14878.139434,-11031.775171
20311.321153,-5329.482782,-13841.851115,-689.485948
20311.321486,518.144159,-7920.203579,6281.983084
20311.321819,7254.018232,-5625.565159,12180.918418
20311.322152,9622.677246,-3108.864956,14709.033562
20311.322486,8512.368333,-1850.514855,8886.707777
20311.322819,9400.615463,-6513.812290,7890.783629
20311.323152,4441.235652,-6217.729913,2374.896044
20311.323485,-74.020594,-9474.636058,-7124.688131
20311.323819,-7105.977043,-12065.356855,-11644.651570
20311.324152,-11843.295072,-15470.304188,-11644.651570
20311.324485,-8290.306550,-17394.839637,-7431.126331
20311.324818,-4145.153275,-12805.562797,-2145.067394
20311.325152,296.082377,-11029.068536,5362.668486
20311.325485,4515.256246,-5033.400406,9269.755526
20311.325818,6291.750507,-4145.153275,12180.918418
20311.326151,8216.285956,-3404.947333,9116.536426
20311.326485,5329.482782,-1554.432478,2757.943793
20311.326818,2368.659014,-7179.997637,2221.676944
20311.327151,-666.185348,-6661.853478,-6128.763984
20311.327484,-8142.265362,-13397.727550,-7814.174080
20311.327818,-9918.759623,-14952.160028,-12410.747068
20311.328151,-10807.006753,-16432.571912,-9422.974625
20311.328484,-5255.462188,-14137.933492,-2911.162892
20311.328817,-370.102971,-9178.553681,3524.039291
20311.329151,4071.132681,-6735.874072,8350.440928
20311.329484,6883.915261,-5329.482782,11874.480219
20311.329817,5033.400406,-5033.400406,10189.070123
20311.330150,5847.626942,-3775.050304,6281.983084
20311.330484,2294.638420,-6513.812290,-689.485948
20311.330817,-296.082377,-10510.924376,-1608.800546
20311.331150,-5995.668130,-11473.192101,-9806.022374
20311.331483,-9178.553681,-13693.809927,-10878.556072
20311.331817,-7105.977043,-14285.974681,-6128.763984
20311.332150,-2738.761985,-12213.398043,0.000000
20311.332483,888.247130,-9474.636058,4596.572988
20311.332816,3627.009116,-6513.812290,7201.297681
20311.333150,5477.523971,-5921.647536,8197.221829
20311.333483,3701.029710,-2442.679609,4903.011187
20311.333816,7031.956449,-5921.647536,4826.401637
20311.334149,4071.132681,-5625.565159,-2374.896044
20311.334483,0.000000,-9548.656652,-3830.477490
20311.334816,-1258.350101,-14211.954086,-4979.620737
20311.335149,-7105.977043,-14285.974681,-7201.297681
20311.335482,-2960.823768,-12361.439231,-4749.792088
20311.335816,-1110.308913,-12805.562797,612.876398
20311.336149,4145.153275,-7031.956449,4903.011187
20311.336482,5329.482782,-7624.121203,9193.145976
20311.336815,8216.285956,-4145.153275,4749.792088
20311.337149,4737.318029,-7476.080014,4903.011187
20311.337482,7031.956449,-6809.894666,-76.609550
20311.337815,2294.638420,-5551.544565,-3983.696590
20311.338148,-1554.432478,-11177.109724,-5592.497135
20311.338482,-2664.741391,-12361.439231,-7507.735880
20311.338815,-5551.544565,-14878.139434,-6052.154434
20311.339148,-1184.329507,-12583.501014,-1455.581446
20311.339481,4367.215058,-11843.295072,4826.401637
20311.339815,2368.659014,-7179.997637,6128.763984
20311.340148,6217.729913,-6809.894666,8810.098227
20311.340481,4367.215058,-5921.647536,4826.401637
20311.340814,3108.864956,-2590.720797,1225.752797
20311.341148,2590.720797,-7698.141797,-76.609550
20311.341481,-222.061783,-8364.327145,-4903.011187
20311.341814,-4959.379811,-11103.089130,-6971.469032
20311.342147,-8142.265362,-13767.830521,-8963.317327
20311.342481,-7179.997637,-14730.098246,-5286.058936
20311.342814,-3997.112087,-11399.171507,0.000000
20311.343147,1850.514855,-8068.244768,5975.544884
20311.343480,4663.297435,-7105.977043,9729.412825
20311.343814,3552.988522,-3034.844362,7354.516781
20311.344147,4145.153275,-6587.832884,7277.907231
20311.344480,2294.638420,-6809.894666,995.924147
20311.344813,-3552.988522,-5995.668130,-2451.505594
20311.345147,-4811.338623,-11103.089130,-7431.126331
20311.345480,-8142.265362,-10658.965565,-10801.946522
20311.345813,-7920.203579,-13545.768739,-7967.393179
20311.346146,-6735.874072,-13915.871710,-3983.696590
20311.346480,-2220.617826,-12139.377449,2451.505594
20311.346813,2368.659014,-9992.780217,10418.898773
20311.347146,3849.070898,-7179.997637,14479.204912
20311.347479,5847.626942,-1998.556043,8273.831378
20311.347813,2960.823768,-3627.009116,4903.011187
20311.348146,2886.803174,-6513.812290,1762.019645
20311.348479,-1628.453072,-6587.832884,-4596.572988
20311.348812,-3923.091493,-10658.965565,-8503.660028
20311.349146,-8364.327145,-13027.624579,-11721.261119
20311.349479,-9474.636058,-15248.242405,-11031.775171
20311.349812,-5403.503377,-14211.954086,-4366.744339
20311.350145,0.000000,-11473.192101,4826.401637
20311.350479,6439.791695,-6291.750507,7354.516781
20311.350812,9770.718434,-5403.503377,14632.424012
20311.351145,10658.965565,-4959.379811,14019.547613
20311.351478,9400.615463,-5625.565159,8197.221829
20311.351812,5477.523971,-6809.894666,1455.581446
20311.352145,1850.514855,-7920.203579,-4903.011187
20311.352478,-2960.823768,-9696.697840,-9806.022374
20311.352811,-6957.935855,-11917.315666,-12717.185267
20311.353145,-6291.750507,-16580.613101,-11414.822920
20311.353478,-7105.977043,-14285.974681,-7354.516781
20311.353811,1110.308913,-14211.954086,2987.772442
20311.354144,4071.132681,-6883.915261,7967.393179
20311.354478,7254.018232,-3923.091493,11797.870669
20311.354811,9474.636058,-3775.050304,12717.185267
20311.355144,9474.636058,-3701.029710,8886.707777
20311.355477,7254.018232,-4959.379811,4826.401637
20311.355811,5329.482782,-7328.038826,0.000000
20311.356144,-1554.432478,-9844.739029,-10725.336972
20311.356477,-7698.141797,-16136.489536,-11414.822920
20311.356810,-9548.656652,-17764.942608,-13559.890315
20311.357144,-10362.883188,-14878.139434,-8580.269578
20311.357477,-5329.482782,-11029.068536,0.000000
20311.357810,592.164754,-8956.491898,7660.954980
20311.358143,7105.977043,-3627.009116,13100.233016
20311.358477,8956.491898,-2442.679609,15321.909960
20311.358810,8882.471304,-3330.926739,12563.966167
20311.359143,5847.626942,-1554.432478,5515.887586
20311.359476,1332.370696,-6661.853478,-1302.362347
20311.359810,-3701.029710,-9252.574275,-9499.584175
20311.360143,-10436.903782,-15692.365970,-13559.890315
20311.360476,-11547.212695,-14878.139434,-14709.033562
20311.360809,-8364.327145,-17172.777854,-8580.269578
20311.361143,-6365.771101,-11917.315666,0.000000
20311.361476,1110.308913,-10658.965565,7277.907231
20311.361809,5699.585753,-6513.812290,9729.412825
20311.362142,8290.306550,-666.185348,14862.252661
20311.362475,6809.894666,-3034.844362,10418.898773
20311.362809,5625.565159,-3404.947333,5209.449386
20311.363142,2960.823768,-4811.338623,-383.047749
20311.363475,-74.020594,-10658.965565,-3753.867940
20311.363808,-4811.338623,-11399.171507,-12104.308868
20311.364142,-10362.883188,-15174.221811,-14096.157163
20311.364475,-9474.636058,-18357.107362,-7584.345430
20311.364808,-5995.668130,-13619.789333,-3830.477490
20311.365141,148.041188,-10510.924376,4519.963438
20311.365475,3775.050304,-6661.853478,9422.974625
20311.365808,8808.450710,-4811.338623,12410.747068
20311.366141,9326.594869,-3701.029710,11568.042020
20311.366474,7328.038826,-3552.988522,6358.592633
20311.366808,4071.132681,-3034.844362,0.000000
20311.367141,2368.659014,-8290.306550,-3753.867940
20311.367474,-3627.009116,-16284.530724,-9882.631924
20311.367807,-6587.832884,-12657.521608,-13483.280765
20311.368141,-5403.503377,-17468.860231,-9116.536426
20311.368474,-2442.679609,-14804.118840,-1685.410096
20311.368807,1628.453072,-11399.171507,4826.401637
20311.369140,4367.215058,-6291.750507,7048.078582
20311.369474,6513.812290,-3034.844362,9806.022374
20311.369807,4737.318029,-4811.338623,9806.022374
20311.370140,9400.615463,-4441.235652,6971.469032
20311.370473,3182.885551,-3775.050304,0.000000
20311.370807,0.000000,-7920.203579,-3064.381992
20311.371140,-1850.514855,-12731.542202,-7431.126331
20311.371473,-8290.306550,-15248.242405,-9346.365076
20311.371806,-5625.565159,-14063.912898,-7431.126331
20311.372140,-3701.029710,-14137.933492,-1991.848295
20311.372473,296.082377,-8364.327145,2451.505594
20311.372806,4219.173869,-7772.162391,8197.221829
20311.373139,5551.544565,-6069.688724,8503.660028
20311.373473,4219.173869,-5625.565159,6971.469032
20311.373806,4663.297435,-6809.894666,4826.401637
20311.374139,2294.638420,-7105.977043,-383.047749
20311.374472,-3256.906145,-5995.668130,-4903.011187
20311.374806,-4071.132681,-13027.624579,-3753.867940
20311.375139,-6291.750507,-13027.624579,-7431.126331
20311.375472,-4441.235652,-13619.789333,-1762.019645
20311.375805,-370.102971,-12657.521608,2681.334243
20311.376139,0.000000,-9548.656652,5209.449386
20311.376472,2146.597232,-5625.565159,5209.449386
20311.376805,3182.885551,-5477.523971,5056.230287
20311.377138,1184.329507,-5995.668130,4519.963438
20311.377472,0.000000,-3627.009116,2451.505594
20311.377805,518.144159,-9474.636058,-1455.581446
20311.378138,-2368.659014,-8290.306550,-6205.373534
20311.378471,-6513.812290,-13471.748144,-5745.716235
20311.378805,-5403.503377,-13915.871710,-5898.935335
20311.379138,-2442.679609,-11843.295072,-1302.362347
20311.379471,1184.329507,-10214.842000,3830.477490
20311.379804,5625.565159,-6365.771101,7354.516781
20311.380138,5255.462188,-8882.471304,7277.907231
20311.380471,5921.647536,-4071.132681,4903.011187
20311.380804,2664.741391,-10510.924376,3600.648841
20311.381137,1702.473667,-4811.338623,-3064.381992
20311.381471,-2960.823768,-8364.327145,-5515.887586
20311.381804,-4071.132681,-10140.821405,-9193.145976
20311.382137,-4219.173869,-12657.521608,-6971.469032
20311.382470,-6365.771101,-14137.933492,-5286.058936
20311.382804,740.205942,-10732.986159,1838.629195
20311.383137,1406.391290,-9548.656652,5898.935335
20311.383470,8586.388927,-8290.306550,10955.165621
20311.383803,9104.533087,-6809.894666,11568.042020
20311.384137,4811.338623,-3627.009116,4903.011187
20311.384470,6069.688724,-5995.668130,3600.648841
20311.384803,2368.659014,-7179.997637,-2145.067394
20311.385136,-1850.514855,-10066.800811,-7737.564530
20311.385470,-6809.894666,-12583.501014,-10725.336972
20311.385803,-8364.327145,-15100.201217,-10725.336972
20311.386136,-9474.636058,-14878.139434,-5822.325785
20311.386469,-74.020594,-13027.624579,-76.609550
20311.386803,4589.276840,-6883.915261,8580.269578
20311.387136,5921.647536,-3627.009116,14709.033562
20311.387469,12953.603985,-4737.318029,14632.424012
20311.387802,6217.729913,-4219.173869,8120.612279
20311.388136,4293.194464,-6217.729913,1838.629195
20311.388469,-444.123565,-7920.203579,-4136.915689
20311.388802,-4293.194464,-10436.903782,-10955.165621
20311.389135,-9178.553681,-12805.562797,-12257.527968
20311.389469,-8882.471304,-15396.283594,-11491.432470
20311.389802,-6587.832884,-15322.262999,-5132.839837
20311.390135,-1406.391290,-12435.459826,2987.772442
20311.390468,4367.215058,-9178.553681,8963.317327
20311.390802,4737.318029,-4811.338623,13483.280765
20311.391135,7698.141797,-3404.947333,15781.567259
20311.391468,7031.956449,-2960.823768,6894.859482
20311.391801,2368.659014,-4219.173869,3370.820191
20311.392135,-74.020594,-7698.141797,-1302.362347
20311.392468,-5625.565159,-9548.656652,-8273.831378
20311.392801,-8956.491898,-13619.789333,-12104.308868
20311.393134,-11325.150913,-14878.139434,-13636.499864
20311.393468,-9474.636058,-14285.974681,-9806.022374
20311.393801,-4441.235652,-11917.315666,1225.752797
20311.394134,6439.791695,-9474.636058,9116.536426
20311.394467,7846.182985,-4737.318029,12180.918418
20311.394801,7698.141797,-3627.009116,13559.890315
20311.395134,8068.244768,-4145.153275,8503.660028
20311.395467,5773.606348,-4811.338623,4290.134789
20311.395800,3330.926739,-5921.647536,-2221.676944
20311.396134,-2960.823768,-9548.656652,-9346.365076
20311.396467,-7105.977043,-14508.036463,-12257.527968
20311.396800,-10658.965565,-14285.974681,-12104.308868
20311.397133,-7179.997637,-16580.613101,-9576.193725
20311.397467,-5625.565159,-13101.645173,0.000000
20311.397800,296.082377,-9548.656652,7507.735880
20311.398133,7698.141797,-4219.173869,11644.651570
20311.398466,9918.759623,-2664.741391,14862.252661
20311.398800,9326.594869,-1998.556043,10418.898773
20311.399133,7402.059420,-4959.379811,5439.278036
20311.399466,4663.297435,-6513.812290,-689.485948
20311.399799,-1776.494261,-11621.233289,-6435.202183
20311.400133,-9252.574275,-14211.954086,-14785.643111
20311.400466,-11843.295072,-15174.221811,-13636.499864
20311.400799,-9548.656652,-17764.942608,-8656.879127
20311.401132,-2442.679609,-12287.418637,-383.047749
20311.401466,1406.391290,-9030.512492,6665.030833
20311.401799,7254.018232,-4589.276840,12334.137518
20311.402132,9696.697840,-2368.659014,15092.081311
20311.402465,5921.647536,-1850.514855,9806.022374
20311.402798,9104.533087,-4737.318029,4826.401637
20311.403132,1480.411884,-5107.421000,0.000000
20311.403465,-2368.659014,-9548.656652,-5056.230287
20311.403798,-4811.338623,-13323.706956,-12640.575717
20311.404131,-9548.656652,-15396.283594,-12640.575717
20311.404465,-8142.265362,-17764.942608,-9193.145976
20311.404798,-3701.029710,-14508.036463,-459.657299
20311.405131,1258.350101,-10214.842000,5439.278036
20311.405464,3701.029710,-3923.091493,9806.022374
20311.405798,9400.615463,-3552.988522,12793.794817
20311.406131,7846.182985,-3182.885551,11031.775171
20311.406464,6365.771101,-2738.761985,6281.983084
20311.406797,3627.009116,-5773.606348,-153.219100
20311.407131,74.020594,-7846.182985,-5209.449386
20311.407464,-4663.297435,-13915.871710,-6205.373534
20311.407797,-7179.997637,-13027.624579,-13559.890315
20311.408130,-8882.471304,-17024.736666,-7124.688131
20311.408464,-2664.741391,-14211.954086,-766.095498
20311.408797,1110.308913,-8290.306550,2757.943793
20311.409130,5107.421000,-6661.853478,8197.221829
20311.409463,5847.626942,-5773.606348,8656.879127
20311.409797,6291.750507,-5699.585753,7890.783629
20311.410130,5921.647536,-3330.926739,4903.011187
20311.410463,5847.626942,-7105.977043,-76.609550
20311.410796,0.000000,-6291.750507,-5515.887586
20311.411130,-3552.988522,-12509.480420,-5286.058936
20311.411463,-4811.338623,-14211.954086,-7737.564530
20311.411796,-4737.318029,-14285.974681,-5822.325785
20311.412129,-1110.308913,-13323.706956,0.000000
20311.412463,666.185348,-11177.109724,3370.820191
20311.412796,3849.070898,-7031.956449,6665.030833
20311.413129,4293.194464,-6365.771101,7890.783629
20311.413462,5847.626942,-7105.977043,4213.525239
20311.413796,2368.659014,-3627.009116,5362.668486
20311.414129,1776.494261,-8364.327145,2374.896044
20311.414462,-962.267725,-7105.977043,-4903.011187
20311.414795,-5921.647536,-13323.706956,-4366.744339
20311.415129,-7105.977043,-13841.851115,-6281.983084
20311.415462,-4515.256246,-12361.439231,-2681.334243
20311.415795,-666.185348,-13027.624579,2374.896044
20311.416128,1702.473667,-9474.636058,4826.401637
20311.416462,2368.659014,-4811.338623,4366.744339
20311.416795,3552.988522,-5403.503377,7048.078582
20311.417128,4071.132681,-7994.224174,4826.401637
20311.417461,3478.967927,-3627.009116,0.000000
20311.417795,-2072.576638,-9474.636058,-1302.362347
20311.418128,-3552.988522,-8142.265362,-6128.763984
20311.418461,-5403.503377,-12287.418637,-6894.859482
20311.418794,-6809.894666,-13915.871710,-4213.525239
20311.419128,-3034.844362,-12435.459826,-689.485948
20311.419461,0.000000,-10140.821405,4903.011187
20311.419794,3849.070898,-8364.327145,7814.174080
20311.420127,4737.318029,-5847.626942,8503.660028
20311.420461,2516.700203,-4811.338623,6128.763984
20311.420794,3552.988522,-7328.038826,4519.963438
20311.421127,1702.473667,-5921.647536,-2987.772442
20311.421460,-1628.453072,-9548.656652,-4903.011187
20311.421794,-3256.906145,-12287.418637,-6818.249932
20311.422127,-8290.306550,-12509.480420,-8427.050478
20311.422460,-6143.709319,-14137.933492,-5515.887586
20311.422794,-1628.453072,-12213.398043,1762.019645
20311.423127,3552.988522,-8068.244768,5209.449386
20311.423460,9400.615463,-8290.306550,12180.918418
20311.423793,6809.894666,-2442.679609,9806.022374
20311.424127,5847.626942,-3034.844362,3677.258390
20311.424460,2664.741391,-5995.668130,2298.286494
20311.424793,5847.626942,-9474.636058,-383.047749
20311.425126,-1850.514855,-10362.883188,-7431.126331
20311.425460,-2812.782580,-11843.295072,-9882.631924
20311.425793,-7550.100608,-15470.304188,-9806.022374
20311.426126,-3330.926739,-14804.118840,-5056.230287
20311.426459,-74.020594,-11177.109724,1225.752797
20311.426793,6735.874072,-11399.171507,10342.289223
20311.427126,7105.977043,-4811.338623,9806.022374
20311.427459,7402.059420,-4811.338623,14096.157163
20311.427792,9400.615463,-3256.906145,7890.783629
20311.428126,2442.679609,-4219.173869,1838.629195
20311.428459,2886.803174,-7105.977043,-3447.429741
20311.428792,-3330.926739,-10584.944971,-7890.783629
20311.429125,-8586.388927,-12953.603985,-12410.747068
20311.429459,-10066.800811,-14582.057057,-12257.527968
20311.429792,-7772.162391,-16580.613101,-7431.126331
20311.430125,-1184.329507,-12509.480420,4443.353888
20311.430458,6439.791695,-10658.965565,12180.918418
20311.430792,8216.285956,-4219.173869,12257.527968
20311.431125,9474.636058,-3034.844362,15015.471761
20311.431458,7328.038826,-3775.050304,8580.269578
20311.431791,4441.235652,-5033.400406,3217.601092
20311.432125,-592.164754,-7920.203579,-2834.553343
20311.432458,-5181.441594,-9844.739029,-9576.193725
20311.432791,-10510.924376,-12509.480420,-14096.157163
20311.433125,-9696.697840,-17764.942608,-10495.508323
20311.433458,-8956.491898,-14878.139434,-7354.516781
20311.433791,-5033.400406,-10732.986159,612.876398
20311.434124,1776.494261,-7772.162391,10418.898773
20311.434458,3997.112087,-4219.173869,12257.527968
20311.434791,6735.874072,-3552.988522,12640.575717
20311.435124,4811.338623,-3552.988522,8810.098227
20311.435457,3701.029710,-4441.235652,3447.429741
20311.435791,814.226536,-4811.338623,-2145.067394
20311.436124,-3701.029710,-9252.574275,-8580.269578
20311.436457,-8142.265362,-13175.665768,-12563.966167
20311.436790,-10510.924376,-15840.407159,-13100.233016
20311.437124,-7476.080014,-16876.695478,-6511.811733
20311.437457,-4219.173869,-13101.645173,-1838.629195
20311.437790,2442.679609,-9770.718434,6128.763984
20311.438123,7994.224174,-7698.141797,14632.424012
20311.438457,9844.739029,-3108.864956,13023.623466
20311.438790,7698.141797,-2738.761985,11644.651570
20311.439123,7254.018232,-3701.029710,5362.668486
20311.439456,4589.276840,-5107.421000,0.000000
20311.439790,518.144159,-8882.471304,-6205.373534
20311.440123,-5699.585753,-13619.789333,-11721.261119
20311.440456,-7772.162391,-13693.809927,-15628.348159
20311.440789,-7698.141797,-18653.189738,-7431.126331
20311.441123,-2442.679609,-15988.448347,-76.609550
20311.441456,1110.308913,-9474.636058,3217.601092
20311.441789,6735.874072,-7105.977043,12027.699319
20311.442122,9400.615463,-2960.823768,13636.499864
20311.442456,9622.677246,-2146.597232,10495.508323
20311.442789,8512.368333,-3701.029710,6435.202183
20311.443122,5921.647536,-3923.091493,1225.752797
20311.443456,1998.556043,-7772.162391,-7354.516781
20311.443789,-3034.844362,-15100.201217,-8656.879127
20311.444122,-9548.656652,-14582.057057,-14709.033562
20311.444455,-10955.047942,-15766.386565,-11031.775171
20311.444789,-4737.318029,-14582.057057,-3907.087040
20311.445122,296.082377,-10732.986159,4290.134789
20311.445455,4367.215058,-6957.935855,9729.412825
20311.445788,7846.182985,-2960.823768,12180.918418
20311.446122,9400.615463,-4441.235652,13406.671215
20311.446455,5921.647536,-1258.350101,8580.269578
20311.446788,6439.791695,-5921.647536,-76.609550
20311.447121,-814.226536,-7179.997637,-6128.763984
20311.447455,-5329.482782,-14211.954086,-8580.269578
20311.447788,-7254.018232,-15914.427753,-11031.775171
20311.448121,-7624.121203,-17172.777854,-8963.317327
20311.448454,-3182.885551,-14804.118840,-1991.848295
20311.448788,-888.247130,-11251.130318,4366.744339
20311.449121,3775.050304,-6513.812290,7890.783629
20311.449454,5329.482782,-6809.894666,11568.042020
20311.449787,4663.297435,-2442.679609,6741.640382
20311.450121,2960.823768,-2442.679609,7660.954980
20311.450454,3478.967927,-5921.647536,-76.609550
20311.450787,0.000000,-5995.668130,-4903.011187
20311.451120,-4515.256246,-12435.459826,-7124.688131
20311.451454,-7846.182985,-13619.789333,-9499.584175
20311.451787,-7179.997637,-13693.809927,-7277.907231
20311.452120,-4219.173869,-13471.748144,-2528.115143
20311.452453,1332.370696,-11843.295072,3600.648841
20311.452787,3552.988522,-6291.750507,5822.325785
20311.453120,5921.647536,-6883.915261,7814.174080
20311.453453,3849.070898,-5255.462188,5669.106685
20311.453787,5551.544565,-6513.812290,3600.648841
20311.454120,2960.823768,-5699.585753,0.000000
20311.454453,1998.556043,-11843.295072,-3753.867940
20311.454786,-4737.318029,-10732.986159,-6128.763984
20311.455120,-4737.318029,-14285.974681,-5515.887586
20311.455453,-2442.679609,-14211.954086,-2834.553343
20311.455786,1628.453072,-11769.274478,3294.210641
20311.456119,2294.638420,-9548.656652,5362.668486
20311.456453,4367.215058,-6809.894666,6665.030833
20311.456786,3256.906145,-3627.009116,4903.011187
20311.457119,2368.659014,-8216.285956,4519.963438
20311.457452,3478.967927,-5921.647536,-76.609550
20311.457786,-2960.823768,-7179.997637,-2451.505594
20311.458119,-666.185348,-10658.965565,-3753.867940
20311.458452,-6217.729913,-10732.986159,-6741.640382
20311.458785,-6883.915261,-15396.283594,-6205.373534
20311.459119,-3552.988522,-12731.542202,-1072.533697
20311.459452,1258.350101,-10955.047942,5056.230287
20311.459785,4737.318029,-7772.162391,8580.269578
20311.460118,9400.615463,-7105.977043,9116.536426
20311.460452,5107.421000,-5107.421000,6281.983084
20311.460785,1184.329507,-5995.668130,4903.011187
20311.461118,3182.885551,-7105.977043,-1608.800546
20311.461451,-2368.659014,-8364.327145,-4443.353888
20311.461785,-4145.153275,-10584.944971,-7431.126331
20311.462118,-4737.318029,-12731.542202,-7124.688131
20311.462451,-6143.709319,-13841.851115,-4826.401637
20311.462784,-1850.514855,-14063.912898,-76.609550
20311.463118,2146.597232,-8290.306550,3600.648841
20311.463451,3552.988522,-7179.997637,11031.775171
20311.463784,8216.285956,-6217.729913,10955.165621
20311.464118,5551.544565,-2960.823768,4519.963438
20311.464451,1184.329507,-5403.503377,3600.648841
20311.464784,2294.638420,-5773.606348,-1915.238745
20311.465117,-1406.391290,-8808.450710,-6358.592633
20311.465451,-4959.379811,-11843.295072,-9269.755526
20311.465784,-7772.162391,-15988.448347,-9269.755526
20311.466117,-7994.224174,-15100.201217,-7354.516781
20311.466450,-1998.556043,-12731.542202,842.705048
20311.466784,2960.823768,-9252.574275,7354.516781
20311.467117,6217.729913,-3034.844362,9806.022374
20311.467450,7105.977043,-4219.173869,13483.280765
20311.467783,9104.533087,-4737.318029,7277.907231
20311.468117,2664.741391,-3034.844362,0.000000
20311.468450,1184.329507,-6291.750507,-1991.848295
20311.468783,-2146.597232,-9326.594869,-8197.221829
20311.469116,-8364.327145,-12953.603985,-13176.842566
20311.469450,-9918.759623,-15100.201217,-12793.794817
20311.469783,-8364.327145,-15544.324782,-9806.022374
20311.470116,-1776.494261,-13693.809927,1991.848295
20311.470449,4367.215058,-7698.141797,9039.926876
20311.470783,9400.615463,-6809.894666,11414.822920
20311.471116,8290.306550,-2442.679609,15321.909960
20311.471449,5921.647536,-3627.009116,11338.213370
20311.471782,5403.503377,-3701.029710,3753.867940
20311.472116,1332.370696,-6809.894666,-2528.115143
20311.472449,-3330.926739,-10214.842000,-9729.412825
20311.472782,-8068.244768,-14211.954086,-12717.185267
20311.473116,-10732.986159,-16580.613101,-14785.643111
20311.473449,-12435.459826,-15470.304188,-9193.145976
20311.473782,-5403.503377,-12435.459826,-2604.724693
20311.474115,1554.432478,-8364.327145,7967.393179
20311.474449,8216.285956,-5625.565159,14709.033562
20311.474782,11769.274478,-4145.153275,15245.300410
20311.475115,9548.656652,-2960.823768,12027.699319
20311.475448,7254.018232,-4515.256246,7201.297681
20311.475782,4219.173869,-5625.565159,76.609550
20311.476115,-1850.514855,-10066.800811,-8580.269578
20311.476448,-6661.853478,-14656.077652,-11721.261119
20311.476781,-12435.459826,-14878.139434,-14709.033562
20311.477115,-11251.130318,-16654.633695,-8580.269578
20311.477448,-3034.844362,-15988.448347,-1302.362347
20311.477781,666.185348,-9918.759623,5515.887586
20311.478114,6291.750507,-6069.688724,11797.870669
20311.478448,9326.594869,-2516.700203,15092.081311
20311.478781,8734.430116,-1480.411884,11797.870669
20311.479114,6217.729913,-3108.864956,6741.640382
20311.479447,6143.709319,-4737.318029,-76.609550
20311.479781,0.000000,-9548.656652,-3064.381992
20311.480114,-4219.173869,-13027.624579,-11108.384721
20311.480447,-9548.656652,-15396.283594,-16471.053207
20311.480780,-11251.130318,-16654.633695,-12257.527968
20311.481114,-3627.009116,-15396.283594,-3830.477490
20311.481447,592.164754,-11695.253884,3677.258390
20311.481780,6661.853478,-6587.832884,10342.289223
20311.482113,9030.512492,-4441.235652,14632.424012
20311.482447,11177.109724,-3552.988522,11874.480219
20311.482780,7698.141797,-2590.720797,7967.393179
20311.483113,4811.338623,-4663.297435,1532.190996
20311.483447,370.102971,-7550.100608,-4519.963438
20311.483780,-7105.977043,-11621.233289,-9806.022374
20311.484113,-7772.162391,-16284.530724,-13559.890315
20311.484446,-10362.883188,-14582.057057,-12104.308868
20311.484780,-5921.647536,-15618.345376,-1838.629195
20311.485113,444.123565,-11843.295072,2911.162892
20311.485446,3478.967927,-5551.544565,6435.202183
20311.485779,6957.935855,-4293.194464,10648.727422
20311.486113,6809.894666,-3775.050304,11568.042020
20311.486446,7105.977043,-3034.844362,6435.202183
20311.486779,6217.729913,-6513.812290,2987.772442
20311.487112,2294.638420,-10658.965565,-3753.867940
20311.487446,-6513.812290,-11917.315666,-7354.516781
20311.487779,-7994.224174,-15914.427753,-8656.879127
20311.488112,-7772.162391,-15396.283594,-10418.898773
20311.488445,-6809.894666,-13693.809927,-2451.505594
20311.488779,-1184.329507,-10584.944971,2911.162892
20311.489112,3330.926739,-5699.585753,7354.516781
20311.489445,4885.359217,-5107.421000,10495.508323
20311.489778,6439.791695,-3552.988522,8503.660028
20311.490112,5329.482782,-3552.988522,5439.278036
20311.490445,1184.329507,-4811.338623,1532.190996
20311.490778,518.144159,-9474.636058,-3753.867940
20311.491111,-2442.679609,-13027.624579,-7737.564530
20311.491445,-6587.832884,-15840.407159,-7431.126331
20311.491778,-5699.585753,-13989.892304,-6818.249932
20311.492111,-3034.844362,-13693.809927,-1685.410096
20311.492444,1554.432478,-10214.842000,4443.353888
20311.492778,3108.864956,-4811.338623,7354.516781
20311.493111,4663.297435,-4737.318029,5209.449386
20311.493444,2368.659014,-4959.379811,7048.078582
20311.493778,5255.462188,-4737.318029,2374.896044
20311.494111,592.164754,-3627.009116,-3524.039291
20311.494444,-2368.659014,-7772.162391,-5822.325785
20311.494777,-2738.761985,-11843.295072,-8044.002729
20311.495111,-6735.874072,-14730.098246,-7507.735880
20311.495444,-5033.400406,-14285.974681,-4903.011187
20311.495777,-74.020594,-13323.706956,2374.896044
20311.496110,1776.494261,-11325.150913,7584.345430
20311.496444,5107.421000,-5403.503377,6052.154434
20311.496777,3775.050304,-2442.679609,6128.763984
20311.497110,7031.956449,-7698.141797,4826.401637
20311.497443,2960.823768,-4959.379811,1225.752797
20311.497777,1110.308913,-7994.224174,-2221.676944
20311.498110,-666.185348,-8734.430116,-5898.935335
20311.498443,-5625.565159,-12509.480420,-7507.735880
20311.498776,-3627.009116,-14211.954086,-6818.249932
20311.499110,-2664.741391,-12805.562797,-1915.238745
20311.499443,1998.556043,-11251.130318,3907.087040
20311.499776,4441.235652,-8956.491898,6741.640382
20311.500109,4737.318029,-8290.306550,8427.050478
20311.500443,7031.956449,-5921.647536,6052.154434
20311.500776,2960.823768,-6883.915261,4826.401637
20311.501109,4663.297435,-7105.977043,-1302.362347
20311.501442,-2960.823768,-7179.997637,-3983.696590
20311.501776,-4441.235652,-10436.903782,-7048.078582
20311.502109,-3923.091493,-11843.295072,-7124.688131
20311.502442,-6513.812290,-14359.995275,-4979.620737
20311.502775,-2442.679609,-13989.892304,-306.438199
20311.503109,3478.967927,-9918.759623,4903.011187
20311.503442,5551.544565,-6513.812290,9576.193725
20311.503775,7698.141797,-5551.544565,14555.814462
20311.504109,6735.874072,-5921.647536,6971.469032
20311.504442,2590.720797,-5995.668130,919.314598
20311.504775,592.164754,-8068.244768,-1225.752797
20311.505108,-2738.761985,-8956.491898,-8580.269578
20311.505442,-7254.018232,-12139.377449,-9882.631924
20311.505775,-8882.471304,-14285.974681,-10112.460574
20311.506108,-7105.977043,-13767.830521,-5056.230287
20311.506441,-4737.318029,-10140.821405,306.438199
20311.506775,3552.988522,-11843.295072,9116.536426
20311.507108,5033.400406,-4811.338623,11031.775171
20311.507441,4737.318029,-3034.844362,13483.280765
20311.507774,8808.450710,-4737.318029,9729.412825
20311.508108,2368.659014,-4811.338623,2451.505594
20311.508441,1702.473667,-6661.853478,-3140.991542
20311.508774,-3552.988522,-10881.027347,-8273.831378
20311.509107,-7550.100608,-13471.748144,-12793.794817
20311.509441,-10362.883188,-15100.201217,-11644.651570
20311.509774,-7772.162391,-18949.272115,-8656.879127
20311.510107,-4737.318029,-11917.315666,766.095498
20311.510440,3923.091493,-8734.430116,10955.165621
20311.510774,9400.615463,-5921.647536,12180.918418
20311.511107,7698.141797,-1850.514855,14709.033562
20311.511440,8512.368333,-3108.864956,10189.070123
20311.511773,6069.688724,-4811.338623,4596.572988
20311.512107,2590.720797,-7402.059420,-1302.362347
20311.512440,-2664.741391,-10732.986159,-9193.145976
20311.512773,-9252.574275,-15174.221811,-14096.157163
20311.513107,-10955.047942,-15692.365970,-14785.643111
20311.513440,-9992.780217,-17468.860231,-9882.631924
20311.513773,-3034.844362,-13027.624579,-842.705048
20311.514106,2368.659014,-7179.997637,9806.022374
20311.514440,9474.636058,-4737.318029,16930.710506
20311.514773,13545.768739,-4441.235652,18309.682402
20311.515106,7994.224174,-1850.514855,10418.898773
20311.515439,8216.285956,-3552.988522,6052.154434
20311.515773,2664.741391,-5403.503377,-1225.752797
20311.516106,-222.061783,-10140.821405,-8580.269578
20311.516439,-7179.997637,-13619.789333,-14172.766713
20311.516772,-11547.212695,-16654.633695,-16547.662757
20311.517106,-7476.080014,-17468.860231,-12257.527968
20311.517439,-3330.926739,-18357.107362,-1302.362347
20311.517772,814.226536,-10436.903782,4673.182538
20311.518105,5551.544565,-3923.091493,10418.898773
20311.518439,9474.636058,-962.267725,15015.471761
20311.518772,9548.656652,-1554.432478,13942.938064
20311.519105,8512.368333,-2664.741391,8120.612279
20311.519438,5477.523971,-3923.091493,1378.971896
20311.519772,1554.432478,-10658.965565,-3830.477490
20311.520105,-7179.997637,-12213.398043,-13483.280765
20311.520438,-9844.739029,-16580.613101,-16011.395908
20311.520771,-10955.047942,-17838.963202,-11644.651570
20311.521105,-3849.070898,-16580.613101,-2451.505594
20311.521438,1628.453072,-13027.624579,5286.058936
20311.521771,3256.906145,-7105.977043,10342.289223
20311.522106,7254.018232,-4071.132681,13789.718964
20311.522439,8290.306550,-1332.370696,12257.527968
20311.522772,6365.771101,-1850.514855,7048.078582
20311.523106,2960.823768,-3034.844362,1532.190996
20311.523439,1480.411884,-9474.636058,-1915.238745
20311.523772,-4219.173869,-11843.295072,-9346.365076
20311.524105,-10658.965565,-13101.645173,-13483.280765
20311.524438,-11251.130318,-17098.757260,-11108.384721
20311.524771,-5403.503377,-18653.189738,-4979.620737
20311.525105,-1406.391290,-11029.068536,1225.752797
20311.525438,3775.050304,-7846.182985,8044.002729
20311.525771,6069.688724,-4145.153275,10648.727422
20311.526104,7031.956449,-2960.823768,9422.974625
20311.526437,5329.482782,-2590.720797,9499.584175
20311.526770,4663.297435,-3552.988522,2374.896044
20311.527103,-74.020594,-6809.894666,-7277.907231
20311.527437,-5921.647536,-10732.986159,-8580.269578
20311.527770,-8364.327145,-14952.160028,-11338.213370
20311.528103,-7550.100608,-15174.221811,-8886.707777
20311.528436,-3701.029710,-14804.118840,-1915.238745
20311.528769,-74.020594,-12065.356855,3753.867940
20311.529102,4367.215058,-6735.874072,5975.544884
20311.529436,4663.297435,-5181.441594,8503.660028
20311.529769,5773.606348,-3404.947333,7431.126331
20311.530102,6439.791695,-4737.318029,5439.278036
20311.530435,3849.070898,-5847.626942,3370.820191
20311.530768,1110.308913,-7994.224174,-5592.497135
20311.531101,-5625.565159,-10732.986159,-9806.022374
20311.531434,-5403.503377,-16580.613101,-9882.631924
20311.531768,-6291.750507,-14952.160028,-7201.297681
20311.532101,-3552.988522,-11917.315666,612.876398
20311.532434,2886.803174,-9770.718434,4903.011187
20311.532767,5625.565159,-7328.038826,9422.974625
20311.533100,7698.141797,-4071.132681,8886.707777
20311.533433,5847.626942,-5625.565159,6052.154434
20311.533767,6735.874072,-4737.318029,4213.525239
20311.534100,3478.967927,-6809.894666,-2068.457845
20311.534433,-3552.988522,-7772.162391,-5515.887586
20311.534766,-5625.565159,-10732.986159,-7967.393179
20311.535099,-5403.503377,-16580.613101,-7431.126331
20311.535432,-4737.318029,-13397.727550,-3677.258390
20311.535765,-518.144159,-11917.315666,1608.800546
20311.536099,3256.906145,-10584.944971,5822.325785
20311.536432,4737.318029,-7179.997637,8580.269578
20311.536765,3552.988522,-3627.009116,7354.516781
20311.537098,5847.626942,-6513.812290,2374.896044
20311.537431,592.164754,-4219.173869,0.000000
20311.537764,74.020594,-5403.503377,-2911.162892
20311.538098,-2368.659014,-8364.327145,-6435.202183
20311.538431,-5625.565159,-12879.583391,-7124.688131
20311.538764,-6735.874072,-14211.954086,-7354.516781
20311.539097,-4293.194464,-13989.892304,-2451.505594
20311.539430,2294.638420,-10955.047942,4519.963438
20311.539763,3552.988522,-8956.491898,9806.022374
20311.540096,6439.791695,-7105.977043,8503.660028
20311.540430,4663.297435,-3034.844362,4903.011187
20311.540763,2812.782580,-7402.059420,4290.134789
20311.541096,4515.256246,-6809.894666,1685.410096
20311.541429,-3627.009116,-9104.533087,-5439.278036
20311.541762,-5773.606348,-10140.821405,-8963.317327
20311.542095,-7994.224174,-12805.562797,-8044.002729
20311.542429,-7105.977043,-12731.542202,-6128.763984
20311.542762,-444.123565,-13027.624579,-76.609550
20311.543095,1184.329507,-8660.409521,6741.640382
20311.543428,3552.988522,-7179.997637,11031.775171
20311.543761,8808.450710,-4737.318029,9422.974625
20311.544094,6735.874072,-4737.318029,7890.783629
20311.544427,2738.761985,-6439.791695,1302.362347
20311.544761,0.000000,-7031.956449,-2451.505594
20311.545094,-2886.803174,-9548.656652,-7660.954980
20311.545427,-6883.915261,-10140.821405,-11644.651570
20311.545760,-7179.997637,-14656.077652,-10035.851024
20311.546093,-6439.791695,-14508.036463,-5745.716235
20311.546426,-2664.741391,-12879.583391,1455.581446
20311.546760,2960.823768,-8956.491898,7660.954980
20311.547093,8216.285956,-4737.318029,11414.822920
20311.547426,8290.306550,-4071.132681,14709.033562
20311.547759,10584.944971,-4737.318029,9729.412825
20311.548092,3552.988522,-4811.338623,4290.134789
20311.548425,2368.659014,-6883.915261,-1838.629195
20311.548758,-1850.514855,-9326.594869,-9269.755526
20311.549092,-5995.668130,-13101.645173,-12487.356617
20311.549425,-8956.491898,-15618.345376,-12870.404366
20311.549758,-7772.162391,-16210.510130,-8963.317327
20311.550091,-4441.235652,-13101.645173,-2451.505594
20311.550424,4071.132681,-11547.212695,8197.221829
20311.550757,7920.203579,-7105.977043,12793.794817
20311.551091,8808.450710,-1850.514855,13483.280765
20311.551424,9400.615463,-3552.988522,13406.671215
20311.551757,5995.668130,-2442.679609,5515.887586
20311.552090,4663.297435,-6587.832884,-76.609550
20311.552423,-1258.350101,-9252.574275,-7890.783629
20311.552756,-6735.874072,-13767.830521,-12870.404366
20311.553089,-9474.636058,-15470.304188,-13789.718964
20311.553423,-7179.997637,-18949.272115,-11108.384721
20311.553756,-6957.935855,-14285.974681,-3677.258390
20311.554089,0.000000,-10732.986159,6894.859482
20311.554422,7105.977043,-6217.729913,13713.109414
20311.554755,9474.636058,-3182.885551,16317.834107
20311.555088,8734.430116,-2146.597232,12640.575717
20311.555422,7179.997637,-3552.988522,8044.002729
20311.555755,4145.153275,-4515.256246,1915.238745
20311.556088,-74.020594,-8882.471304,-6205.373534
20311.556421,-7772.162391,-11325.150913,-15398.519510
20311.556754,-13027.624579,-16654.633695,-13789.718964
20311.557087,-9844.739029,-17764.942608,-10495.508323
20311.557420,-4811.338623,-14804.118840,-4903.011187
20311.557754,-1776.494261,-11843.295072,6665.030833
20311.558087,5255.462188,-6587.832884,12563.966167
20311.558420,7179.997637,-2220.617826,15015.471761
20311.558753,8216.285956,-814.226536,12870.404366
20311.559086,5551.544565,-3552.988522,7890.783629
20311.559419,4145.153275,-2220.617826,1072.533697
20311.559753,-962.267725,-8290.306550,-4366.744339
20311.560086,-5625.565159,-12065.356855,-10801.946522
20311.560419,-11843.295072,-13101.645173,-14709.033562
20311.560752,-12731.542202,-17542.880825,-12257.527968
20311.561085,-3627.009116,-17172.777854,-4519.963438
20311.561418,-2368.659014,-10140.821405,1532.190996
20311.561751,3552.988522,-6587.832884,9806.022374
20311.562085,7698.141797,-2738.761985,12104.308868
20311.562418,10658.965565,-2368.659014,13100.233016
20311.562751,8956.491898,-3404.947333,9269.755526
20311.563084,6143.709319,-4441.235652,2374.896044
20311.563417,2220.617826,-8734.430116,-2604.724693
20311.563750,-5699.585753,-11917.315666,-9729.412825
20311.564084,-5995.668130,-15988.448347,-13559.890315
20311.564417,-10658.965565,-14285.974681,-11031.775171
20311.564750,-7105.977043,-14582.057057,-2911.162892
20311.565083,-148.041188,-12583.501014,3524.039291
20311.565416,3849.070898,-7328.038826,8503.660028
20311.565749,5699.585753,-4367.215058,10725.336972
20311.566082,7328.038826,-3701.029710,10189.070123
20311.566416,7476.080014,-2368.659014,6665.030833
20311.566749,3552.988522,-3923.091493,2451.505594
20311.567082,0.000000,-6957.935855,-4979.620737
20311.567415,-5921.647536,-11029.068536,-7354.516781
20311.567748,-5995.668130,-15988.448347,-8656.879127
20311.568081,-5995.668130,-15692.365970,-9269.755526
20311.568415,-3404.947333,-16136.489536,-2068.457845
20311.568748,814.226536,-10881.027347,3524.039291
20311.569081,5181.441594,-7105.977043,8580.269578
20311.569414,6957.935855,-4219.173869,10112.460574
20311.569747,9104.533087,-5921.647536,9729.412825
20311.570080,3552.988522,-3627.009116,7048.078582
20311.570413,4737.318029,-6143.709319,2374.896044
20311.570747,518.144159,-6069.688724,-7048.078582
20311.571080,-4737.318029,-11917.315666,-7354.516781
20311.571413,-6291.750507,-14211.954086,-9806.022374
20311.571746,-6365.771101,-15322.262999,-6511.811733
20311.572079,-1480.411884,-14582.057057,0.000000
20311.572412,1332.370696,-10658.965565,4826.401637
20311.572746,3923.091493,-5921.647536,5898.935335
20311.573079,5329.482782,-5107.421000,10955.165621
20311.573412,5699.585753,-5181.441594,6358.592633
20311.573745,4663.297435,-1850.514855,1838.629195
20311.574078,1184.329507,-5995.668130,612.876398
20311.574411,-74.020594,-7698.141797,-5822.325785
20311.574744,-5107.421000,-13027.624579,-7124.688131
20311.575078,-7550.100608,-14137.933492,-7660.954980
20311.575411,-6883.915261,-13323.706956,-5209.449386
20311.575744,-814.226536,-10732.986159,1378.971896
20311.576077,3182.885551,-9474.636058,6052.154434
20311.576410,4589.276840,-5477.523971,7354.516781
20311.576743,4293.194464,-4737.318029,6665.030833
20311.577077,4737.318029,-5847.626942,5515.887586
20311.577410,2886.803174,-5625.565159,0.000000
20311.577743,0.000000,-6883.915261,-4903.011187
20311.578076,-2072.576638,-11843.295072,-5592.497135
20311.578409,-5403.503377,-11991.336260,-8810.098227
20311.578742,-6957.935855,-12509.480420,-6128.763984
20311.579075,-2516.700203,-13545.768739,-1072.533697
20311.579409,1480.411884,-11547.212695,4979.620737
20311.579742,4515.256246,-8512.368333,8580.269578
20311.580075,6439.791695,-8290.306550,9422.974625
20311.580408,5847.626942,-4145.153275,4903.011187
20311.580741,1184.329507,-5699.585753,4519.963438
20311.581074,3478.967927,-7105.977043,-76.609550
20311.581408,-2738.761985,-7254.018232,-6435.202183
20311.581741,-3997.112087,-10436.903782,-7431.126331
20311.582074,-7550.100608,-13619.789333,-9193.145976
20311.582407,-7772.162391,-15174.221811,-6971.469032
20311.582740,-4145.153275,-12731.542202,-1762.019645
20311.583073,888.247130,-10436.903782,6128.763984
20311.583406,7624.121203,-4811.338623,7354.516781
20311.583740,8290.306550,-4515.256246,13789.718964
20311.584073,9400.615463,-4589.276840,9729.412825
20311.584406,5551.544565,-5329.482782,2987.772442
20311.584739,740.205942,-7698.141797,-1302.362347
20311.585072,-1406.391290,-9474.636058,-7124.688131
20311.585405,-7476.080014,-12731.542202,-12334.137518
20311.585739,-8956.491898,-13767.830521,-11951.089769
20311.586072,-7994.224174,-15174.221811,-6435.202183
20311.586405,-3627.009116,-11325.150913,0.000000
20311.586738,2368.659014,-9696.697840,10342.289223
20311.587071,7920.203579,-7105.977043,12180.918418
20311.587404,7698.141797,-1850.514855,12257.527968
20311.587737,7698.141797,-2442.679609,9806.022374
20311.588071,5995.668130,-4737.318029,4979.620737
20311.588404,2072.576638,-6513.812290,-1455.581446
20311.588737,-1776.494261,-9030.512492,-8350.440928
20311.589070,-4219.173869,-13619.789333,-11108.384721
20311.589403,-9474.636058,-15470.304188,-10342.289223
20311.589736,-7179.997637,-16136.489536,-10801.946522
20311.590070,-3627.009116,-15100.201217,-3677.258390
20311.590403,2368.659014,-10510.924376,7890.783629
20311.590736,7105.977043,-5995.668130,11338.213370
20311.591069,10955.047942,-3701.029710,15475.129060
20311.591402,9474.636058,-1998.556043,12410.747068
20311.591735,7179.997637,-3701.029710,6511.811733
20311.592068,5847.626942,-6809.894666,1762.019645
20311.592402,-2368.659014,-8364.327145,-6894.859482
20311.592735,-7031.956449,-13175.665768,-12870.404366
20311.593068,-10140.821405,-15618.345376,-14096.157163
20311.593401,-9622.677246,-17024.736666,-11184.994271
20311.593734,-4811.338623,-16580.613101,-1915.238745
20311.594067,0.000000,-9548.656652,2451.505594
20311.594401,5329.482782,-6735.874072,14632.424012
20311.594734,9992.780217,-2368.659014,15245.300410
20311.595067,6513.812290,-74.020594,11031.775171
20311.595400,7920.203579,-3552.988522,7124.688131
20311.595733,4145.153275,-4515.256246,1378.971896
20311.596066,370.102971,-9252.574275,-5592.497135
20311.596399,-7254.018232,-14211.954086,-12027.699319
20311.596733,-11029.068536,-15396.283594,-16011.395908
20311.597066,-13619.789333,-17838.963202,-10648.727422
20311.597399,-6513.812290,-16358.551318,-2221.676944
20311.597732,-74.020594,-11547.212695,3600.648841
20311.598065,4737.318029,-5403.503377,13483.280765
20311.598398,9992.780217,-1184.329507,15015.471761
20311.598732,9104.533087,-1406.391290,13100.233016
20311.599065,7105.977043,-2516.700203,7967.393179
20311.599398,4811.338623,-3330.926739,1532.190996
20311.599731,-2368.659014,-7179.997637,-6741.640382
20311.600064,-5921.647536,-14952.160028,-9882.631924
20311.600397,-10732.986159,-15692.365970,-15934.786358
20311.600730,-10732.986159,-16654.633695,-12257.527968
20311.601064,-4515.256246,-16580.613101,-1608.800546
20311.601397,0.000000,-10140.821405,4290.134789
20311.601730,3775.050304,-7550.100608,10189.070123
20311.602063,7105.977043,-3330.926739,13023.623466
20311.602396,7476.080014,-1924.535449,12410.747068
20311.602729,7550.100608,-2220.617826,9499.584175
20311.603063,7031.956449,-6809.894666,2987.772442
20311.603396,-74.020594,-6883.915261,-4903.011187
20311.603729,-5625.565159,-12509.480420,-9806.022374
20311.604062,-8956.491898,-17764.942608,-12334.137518
20311.604395,-11843.295072,-16654.633695,-12257.527968
20311.604728,-5107.421000,-16876.695478,-4366.744339
20311.605061,0.000000,-11843.295072,3677.258390
20311.605395,5699.585753,-7105.977043,9193.145976
20311.605728,7994.224174,-4367.215058,12257.527968
20311.606061,8808.450710,-3552.988522,12027.699319
20311.606394,8512.368333,-2294.638420,8427.050478
20311.606727,5847.626942,-3849.070898,2068.457845
20311.607060,3478.967927,-7105.977043,-4366.744339
20311.607394,-2368.659014,-9844.739029,-8580.269578
20311.607727,-6957.935855,-15766.386565,-9576.193725
20311.608060,-5995.668130,-15988.448347,-11108.384721
20311.608393,-5921.647536,-15470.304188,-2451.505594
20311.608726,-74.020594,-13027.624579,2068.457845
20311.609059,2442.679609,-7328.038826,6435.202183
20311.609392,4737.318029,-4515.256246,9193.145976
20311.609726,5033.400406,-2664.741391,8810.098227
20311.610059,4737.318029,-3034.844362,5515.887586
20311.610392,6439.791695,-4145.153275,612.876398
20311.610725,2294.638420,-9474.636058,-2528.115143
20311.611058,-3330.926739,-9770.718434,-8427.050478
20311.611391,-8290.306550,-14285.974681,-9499.584175
20311.611725,-6513.812290,-14359.995275,-8197.221829
20311.612058,-1850.514855,-14804.118840,-842.705048
20311.612391,1332.370696,-11325.150913,4136.915689
20311.612724,4515.256246,-7920.203579,7660.954980
20311.613057,6143.709319,-6957.935855,10342.289223
20311.613390,4441.235652,-3627.009116,5515.887586
20311.613723,4663.297435,-7105.977043,4213.525239
20311.614057,518.144159,-4811.338623,-1838.629195
20311.614390,-74.020594,-8290.306550,-3140.991542
20311.614723,-2812.782580,-10510.924376,-5209.449386
20311.615056,-5551.544565,-14804.118840,-5592.497135
20311.615389,-5033.400406,-13841.851115,-3600.648841
20311.615722,-1036.288319,-11695.253884,1149.143247
20311.616056,3478.967927,-10362.883188,4826.401637
20311.616389,3552.988522,-6587.832884,8733.488677
20311.616722,4663.297435,-4071.132681,5515.887586
20311.617055,3478.967927,-3034.844362,1225.752797
20311.617388,3256.906145,-7624.121203,1149.143247
20311.617721,-74.020594,-8290.306550,-3140.991542
20311.618054,-1998.556043,-11251.130318,-6358.592633
20311.618388,-5699.585753,-12731.542202,-7431.126331
20311.618721,-7846.182985,-13545.768739,-6588.421283
20311.619054,-4367.215058,-12805.562797,-1225.752797
20311.619387,1702.473667,-11251.130318,6665.030833
20311.619720,3701.029710,-4811.338623,9806.022374
20311.620053,7550.100608,-5773.606348,12257.527968
20311.620387,6439.791695,-4737.318029,5439.278036
20311.620720,1110.308913,-5033.400406,229.828649
20311.621053,1702.473667,-8290.306550,-2221.676944
20311.621386,-1406.391290,-9030.512492,-6741.640382
20311.621719,-2812.782580,-10955.047942,-9269.755526
20311.622052,-4885.359217,-13841.851115,-8580.269578
20311.622385,-2442.679609,-16284.530724,-5286.058936
20311.622719,-1776.494261,-13175.665768,306.438199
20311.623052,3923.091493,-11029.068536,7048.078582
20311.623385,7031.956449,-7994.224174,10878.556072
20311.623718,6809.894666,-2442.679609,11031.775171
20311.624051,8290.306550,-4737.318029,9729.412825
20311.624384,5847.626942,-7105.977043,4213.525239
20311.624718,1406.391290,-3034.844362,-2451.505594
20311.625051,-1924.535449,-9178.553681,-5592.497135
20311.625384,-4811.338623,-11547.212695,-12027.699319
20311.625717,-10140.821405,-14359.995275,-12870.404366
20311.626050,-9548.656652,-16432.571912,-9116.536426
20311.626383,-4811.338623,-13767.830521,-1685.410096
20311.626717,1184.329507,-9548.656652,7660.954980
20311.627050,8142.265362,-8882.471304,13406.671215
20311.627383,7402.059420,-2442.679609,13483.280765
20311.627716,5329.482782,-1258.350101,12257.527968
20311.628049,6883.915261,-6217.729913,5132.839837
20311.628382,592.164754,-4811.338623,-1838.629195
20311.628715,-2146.597232,-10658.965565,-7814.174080
20311.629049,-6735.874072,-13323.706956,-11874.480219
20311.629382,-10658.965565,-15470.304188,-12870.404366
20311.629715,-8364.327145,-16580.613101,-9882.631924
20311.630048,-3627.009116,-17764.942608,-76.609550
20311.630381,962.267725,-7772.162391,6128.763984
20311.630714,6291.750507,-6957.935855,14709.033562
20311.631048,10584.944971,-4145.153275,14019.547613
20311.631381,9400.615463,-2220.617826,13713.109414
20311.631714,5403.503377,-3997.112087,6971.469032
20311.632047,3182.885551,-3997.112087,0.000000
20311.632380,-3627.009116,-10658.965565,-8044.002729
20311.632713,-7698.141797,-11621.233289,-13942.938064
20311.633046,-10732.986159,-17172.777854,-15092.081311
20311.633380,-11843.295072,-14878.139434,-11951.089769
20311.633713,-6661.853478,-17468.860231,-2221.676944
20311.634046,1110.308913,-11843.295072,5745.716235
20311.634379,7624.121203,-4737.318029,14019.547613
20311.634712,10362.883188,-2220.617826,17083.929605
20311.635045,10955.047942,-962.267725,13713.109414
20311.635379,6735.874072,-3034.844362,7124.688131
20311.635712,4885.359217,-4219.173869,612.876398
20311.636045,0.000000,-7179.997637,-6741.640382
20311.636378,-4367.215058,-15396.283594,-11108.384721
20311.636711,-7772.162391,-17764.942608,-16011.395908
20311.637044,-10732.986159,-18431.127956,-13176.842566
20311.637377,-4885.359217,-16580.613101,-4673.182538
20311.637711,-962.267725,-12213.398043,4826.401637
20311.638044,6217.729913,-5107.421000,11031.775171
20311.638377,9548.656652,-2812.782580,16700.881856
20311.638710,10066.800811,-962.267725,15321.909960
20311.639043,7698.141797,-222.061783,8886.707777
20311.639376,6143.709319,-3923.091493,2528.115143
20311.639710,2146.597232,-8290.306550,-4060.306139
20311.640043,-4515.256246,-13915.871710,-10265.679673
20311.640376,-10955.047942,-15766.386565,-15934.786358
20311.640709,-11029.068536,-18949.272115,-14785.643111
20311.641042,-9178.553681,-17542.880825,-4136.915689
20311.641375,-74.020594,-12731.542202,4826.401637
20311.641708,5847.626942,-7698.141797,11568.042020
20311.642042,8290.306550,-3034.844362,15781.567259
20311.642375,8586.388927,-962.267725,13789.718964
20311.642708,6735.874072,-1702.473667,8733.488677
20311.643041,4663.297435,-2368.659014,1762.019645
20311.643374,2294.638420,-9178.553681,-2681.334243
20311.643707,-5995.668130,-10140.821405,-11031.775171
20311.644041,-10658.965565,-14878.139434,-11644.651570
20311.644374,-8364.327145,-18949.272115,-11414.822920
20311.644707,-5699.585753,-14878.139434,-5745.716235
20311.645040,-74.020594,-13323.706956,3600.648841
20311.645373,4441.235652,-7624.121203,8963.317327
20311.645706,4885.359217,-4219.173869,11338.213370
20311.646039,5625.565159,-3256.906145,10265.679673
20311.646373,5551.544565,-2960.823768,7277.907231
20311.646706,0.000000,-2442.679609,3983.696590
20311.647039,296.082377,-7550.100608,-1991.848295
