#time,accel_x,accel_y,accel_z
19793.266148,8808.450710,-10658.965565,3600.648841
19793.266482,7994.224174,-8512.368333,3830.477490
19793.266816,11177.109724,-9474.636058,4596.572988
19793.267149,10807.006753,-9474.636058,4213.525239
19793.267483,9770.718434,-8956.491898,1685.410096
19793.267817,9474.636058,-9696.697840,766.095498
19793.268150,9918.759623,-11843.295072,-1302.362347
19793.268484,5921.647536,-7772.162391,-3370.820191
19793.268817,5921.647536,-8364.327145,-1072.533697
19793.269151,8512.368333,-10362.883188,-1608.800546
19793.269485,8290.306550,-9474.636058,536.266849
19793.269818,9622.677246,-9548.656652,2528.115143
19793.270152,10881.027347,-9104.533087,4136.915689
19793.270486,9474.636058,-9548.656652,3370.820191
19793.270819,8216.285956,-11843.295072,3600.648841
19793.271153,3478.967927,-11843.295072,-76.609550
19793.271487,0.000000,-10140.821405,919.314598
19793.271820,-666.185348,-10955.047942,-76.609550
19793.272154,-1258.350101,-7402.059420,-2528.115143
19793.272488,-2960.823768,-7328.038826,1608.800546
19793.272821,-888.247130,-4959.379811,306.438199
19793.273155,-74.020594,-6217.729913,766.095498
19793.273488,2516.700203,-5847.626942,306.438199
19793.273822,5255.462188,-9474.636058,3600.648841
19793.274156,4367.215058,-8068.244768,612.876398
19793.274489,3256.906145,-10732.986159,-1378.971896
19793.274823,3182.885551,-11473.192101,-2451.505594
19793.275157,296.082377,-11917.315666,-3370.820191
19793.275490,0.000000,-11917.315666,-1838.629195
19793.275824,-74.020594,-13619.789333,-1915.238745
19793.276158,-370.102971,-11843.295072,-1302.362347
19793.276491,74.020594,-6587.832884,612.876398
19793.276825,2812.782580,-5255.462188,3217.601092
19793.277159,2664.741391,-4811.338623,4443.353888
19793.277492,4367.215058,-5625.565159,4213.525239
19793.277826,4885.359217,-6587.832884,4290.134789
19793.278159,6661.853478,-7328.038826,3830.477490
19793.278493,6735.874072,-6587.832884,0.000000
19793.278827,7031.956449,-11843.295072,-2528.115143
19793.279160,0.000000,-11621.233289,-4903.011187
19793.279494,-2368.659014,-13397.727550,-4136.915689
19793.279828,-4145.153275,-13693.809927,-6128.763984
19793.280161,-5625.565159,-13397.727550,-3140.991542
19793.280495,-6291.750507,-10584.944971,-1608.800546
19793.280829,-4219.173869,-9178.553681,1225.752797
19793.281162,-1554.432478,-6513.812290,4519.963438
19793.281496,1776.494261,-666.185348,7660.954980
19793.281830,9400.615463,-4737.318029,9729.412825
19793.282163,9400.615463,-2442.679609,7354.516781
19793.282497,9474.636058,-6365.771101,4903.011187
19793.282830,10584.944971,-8290.306550,-383.047749
19793.283164,8142.265362,-10362.883188,-4060.306139
19793.283498,4737.318029,-13249.686362,-7354.516781
19793.283831,518.144159,-16062.468941,-10955.165621
19793.284165,-2812.782580,-17764.942608,-11031.775171
19793.284499,-2368.659014,-16210.510130,-4979.620737
19793.284832,1702.473667,-10436.903782,-2145.067394
19793.285166,2886.803174,-8068.244768,3677.258390
19793.285500,5329.482782,-8882.471304,9116.536426
19793.285833,5847.626942,-4145.153275,9499.584175
19793.286167,9992.780217,-2812.782580,11874.480219
19793.286500,8586.388927,-3404.947333,10955.165621
19793.286834,6661.853478,-4071.132681,5592.497135
19793.287168,4737.318029,-6217.729913,229.828649
19793.287501,2294.638420,-11843.295072,-3753.867940
19793.287835,-2294.638420,-9548.656652,-9499.584175
19793.288169,-2886.803174,-14211.954086,-8580.269578
19793.288502,-2738.761985,-15988.448347,-8044.002729
19793.288836,-5403.503377,-13915.871710,-7737.564530
19793.289170,-3627.009116,-14804.118840,-3447.429741
19793.289503,-3997.112087,-11695.253884,-306.438199
19793.289837,1258.350101,-8512.368333,5362.668486
19793.290171,4737.318029,-5699.585753,10418.898773
19793.290504,7328.038826,-5329.482782,11261.603821
19793.290838,4145.153275,-4219.173869,8810.098227
19793.291171,2368.659014,-5107.421000,6052.154434
19793.291505,-962.267725,-6661.853478,766.095498
19793.291839,-5921.647536,-8364.327145,-3677.258390
19793.292172,-9474.636058,-11325.150913,-6205.373534
19793.292506,-10732.986159,-14211.954086,-9882.631924
19793.292840,-11843.295072,-10140.821405,-7354.516781
19793.293173,-6735.874072,-11695.253884,-3830.477490
19793.293507,-3923.091493,-9326.594869,-1838.629195
19793.293841,0.000000,-8290.306550,3983.696590
19793.294174,2590.720797,-6513.812290,6052.154434
19793.294508,3997.112087,-5033.400406,5439.278036
19793.294842,3552.988522,-6735.874072,5209.449386
19793.295175,3552.988522,-8216.285956,4826.401637
19793.295509,1850.514855,-6883.915261,0.000000
19793.295842,0.000000,-7772.162391,-2451.505594
19793.296176,-1850.514855,-13027.624579,-3753.867940
19793.296510,-5551.544565,-11325.150913,-5822.325785
19793.296843,-4071.132681,-12435.459826,-4749.792088
19793.297177,-3552.988522,-12583.501014,-1378.971896
19793.297511,-1554.432478,-9992.780217,919.314598
19793.297844,1702.473667,-9474.636058,6665.030833
19793.298178,4663.297435,-9474.636058,9729.412825
19793.298512,3256.906145,-3923.091493,4903.011187
19793.298845,5033.400406,-4811.338623,6128.763984
19793.299179,8216.285956,-5921.647536,3600.648841
19793.299513,4737.318029,-4959.379811,2451.505594
19793.299846,3478.967927,-7698.141797,-3524.039291
19793.300180,370.102971,-10214.842000,-6052.154434
19793.300513,-74.020594,-13619.789333,-7660.954980
19793.300847,-222.061783,-13027.624579,-5822.325785
19793.301181,-74.020594,-14211.954086,-4060.306139
19793.301514,1110.308913,-11621.233289,-3524.039291
19793.301848,1776.494261,-11917.315666,3447.429741
19793.302182,6439.791695,-11547.212695,6665.030833
19793.302515,4663.297435,-9178.553681,6052.154434
19793.302849,3552.988522,-6809.894666,6435.202183
19793.303183,3701.029710,-6365.771101,5592.497135
19793.303516,2960.823768,-5625.565159,4366.744339
19793.303850,1184.329507,-4811.338623,612.876398
19793.304183,814.226536,-4811.338623,-3677.258390
19793.304517,0.000000,-8068.244768,-4903.011187
19793.304851,2886.803174,-10658.965565,-5592.497135
19793.305184,-666.185348,-11473.192101,-6741.640382
19793.305518,-74.020594,-14211.954086,-4979.620737
19793.305852,-1480.411884,-14878.139434,-3064.381992
19793.306185,1332.370696,-13619.789333,-842.705048
19793.306519,1480.411884,-12583.501014,2221.676944
19793.306853,0.000000,-8956.491898,3983.696590
19793.307186,-1036.288319,-6883.915261,4290.134789
19793.307520,-592.164754,-6513.812290,5592.497135
19793.307854,-1480.411884,-6291.750507,5592.497135
19793.308187,-2072.576638,-4663.297435,4519.963438
19793.308521,-4737.318029,-2442.679609,1608.800546
19793.308854,-1258.350101,-7105.977043,-76.609550
19793.309188,-5921.647536,-6587.832884,-1225.752797
19793.309522,-2664.741391,-10658.965565,-2145.067394
19793.309855,-1184.329507,-10658.965565,-2145.067394
19793.310189,-3404.947333,-11029.068536,-1915.238745
19793.310523,-2220.617826,-11621.233289,-3064.381992
19793.310856,-444.123565,-11917.315666,-1455.581446
19793.311190,-1480.411884,-10584.944971,229.828649
19793.311524,0.000000,-8660.409521,612.876398
19793.311857,-74.020594,-7254.018232,766.095498
19793.312191,-74.020594,-5699.585753,612.876398
19793.312525,-1776.494261,-6957.935855,2987.772442
19793.312858,-74.020594,-7105.977043,-689.485948
19793.313192,-2368.659014,-9474.636058,459.657299
19793.313525,-1332.370696,-9030.512492,-1302.362347
19793.313859,-1480.411884,-10584.944971,1149.143247
19793.314193,-814.226536,-9918.759623,229.828649
19793.314526,2590.720797,-11103.089130,2374.896044
19793.314860,5551.544565,-8734.430116,995.924147
19793.315194,3701.029710,-7179.997637,842.705048
19793.315527,4737.318029,-8364.327145,3600.648841
19793.315861,2664.741391,-6587.832884,-2757.943793
19793.316195,3923.091493,-10658.965565,-2528.115143
19793.316528,296.082377,-10140.821405,-3524.039291
19793.316862,888.247130,-10288.862594,-3370.820191
19793.317195,1184.329507,-10288.862594,-1455.581446
19793.317529,2294.638420,-10658.965565,-689.485948
19793.317862,1702.473667,-7772.162391,306.438199
19793.318196,2886.803174,-9474.636058,2757.943793
19793.318529,592.164754,-7476.080014,4903.011187
19793.318863,2960.823768,-9474.636058,5745.716235
19793.319197,2294.638420,-5477.523971,383.047749
19793.319530,0.000000,-7772.162391,4673.182538
19793.319864,814.226536,-7550.100608,842.705048
19793.320197,-1258.350101,-7772.162391,-1225.752797
19793.320531,-1702.473667,-7105.977043,-2528.115143
19793.320864,444.123565,-7031.956449,-2834.553343
19793.321198,-74.020594,-7994.224174,-4060.306139
19793.321531,-888.247130,-10807.006753,-4060.306139
19793.321865,-1184.329507,-13175.665768,-1838.629195
19793.322198,148.041188,-12435.459826,842.705048
19793.322532,1110.308913,-10214.842000,383.047749
19793.322865,0.000000,-9548.656652,3677.258390
19793.323199,2886.803174,-9474.636058,3447.429741
19793.323533,-1184.329507,-8660.409521,2451.505594
19793.323866,-74.020594,-9178.553681,2298.286494
19793.324200,-2590.720797,-9992.780217,1455.581446
19793.324533,-4071.132681,-8290.306550,-76.609550
19793.324867,-3627.009116,-8586.388927,-76.609550
19793.325200,-4441.235652,-9696.697840,-76.609550
19793.325534,-2442.679609,-5699.585753,-1838.629195
19793.325867,0.000000,-7328.038826,1225.752797
19793.326201,2886.803174,-8290.306550,3600.648841
19793.326534,3404.947333,-8586.388927,2757.943793
19793.326868,2294.638420,-8882.471304,0.000000
19793.327201,1850.514855,-10658.965565,-536.266849
19793.327535,888.247130,-10584.944971,-919.314598
19793.327869,296.082377,-9548.656652,-2451.505594
19793.328202,-222.061783,-12953.603985,-1302.362347
19793.328536,-7105.977043,-9548.656652,-919.314598
19793.328869,-3034.844362,-10955.047942,-2068.457845
19793.329203,-3034.844362,-10658.965565,-1302.362347
19793.329536,-2220.617826,-7624.121203,2298.286494
19793.329870,0.000000,-7254.018232,5592.497135
19793.330203,2886.803174,-5773.606348,7431.126331
19793.330537,3849.070898,-4811.338623,7201.297681
19793.330870,3552.988522,-6587.832884,6128.763984
19793.331204,7031.956449,-6809.894666,1149.143247
19793.331537,4145.153275,-9326.594869,1838.629195
19793.331871,4663.297435,-10658.965565,-6205.373534
19793.332205,-2368.659014,-12509.480420,-7967.393179
19793.332538,-4145.153275,-13101.645173,-8963.317327
19793.332872,-2960.823768,-13027.624579,-6588.421283
19793.333205,-1258.350101,-13027.624579,-3830.477490
19793.333539,962.267725,-10807.006753,612.876398
19793.333872,5255.462188,-10658.965565,7277.907231
19793.334206,5255.462188,-3923.091493,7354.516781
19793.334539,6809.894666,-6957.935855,10955.165621
19793.334873,5551.544565,-7105.977043,6052.154434
19793.335206,2368.659014,-7772.162391,7201.297681
19793.335540,-814.226536,-8808.450710,306.438199
19793.335873,-3404.947333,-9400.615463,-2451.505594
19793.336207,-4959.379811,-9400.615463,-5286.058936
19793.336541,-3404.947333,-9548.656652,-5209.449386
19793.336874,-74.020594,-9474.636058,-1915.238745
19793.337208,-1184.329507,-7179.997637,-3677.258390
19793.337541,518.144159,-10140.821405,-1991.848295
19793.337875,1702.473667,-9696.697840,76.609550
19793.338208,3404.947333,-9326.594869,2145.067394
19793.338542,4145.153275,-9104.533087,4443.353888
19793.338875,3478.967927,-9104.533087,2451.505594
19793.339209,1184.329507,-9548.656652,5669.106685
19793.339542,-666.185348,-9178.553681,0.000000
19793.339876,-3108.864956,-8882.471304,0.000000
19793.340209,-5329.482782,-9548.656652,229.828649
19793.340543,-5625.565159,-8956.491898,-1072.533697
19793.340877,-4515.256246,-7105.977043,-536.266849
19793.341210,-3627.009116,-7179.997637,612.876398
19793.341544,-74.020594,-7105.977043,2374.896044
19793.341877,1110.308913,-5995.668130,1838.629195
19793.342211,4367.215058,-8290.306550,4826.401637
19793.342544,4663.297435,-7994.224174,-383.047749
19793.342878,0.000000,-9548.656652,0.000000
19793.343211,1332.370696,-12731.542202,-1915.238745
19793.343545,-2368.659014,-10807.006753,-3753.867940
19793.343878,-1998.556043,-11473.192101,-4060.306139
19793.344212,-1776.494261,-11103.089130,-1378.971896
19793.344545,-814.226536,-8882.471304,-689.485948
19793.344879,-962.267725,-4811.338623,0.000000
19793.345213,444.123565,-9474.636058,2681.334243
19793.345546,1554.432478,-9474.636058,1762.019645
19793.345880,0.000000,-8660.409521,4290.134789
19793.346213,2294.638420,-7698.141797,2834.553343
19793.346547,148.041188,-7920.203579,2834.553343
19793.346880,1110.308913,-9252.574275,2451.505594
19793.347214,2294.638420,-8290.306550,2298.286494
19793.347547,1184.329507,-5995.668130,306.438199
19793.347881,2368.659014,-7254.018232,612.876398
19793.348214,1924.535449,-10362.883188,-1915.238745
19793.348548,814.226536,-9918.759623,-4903.011187
19793.348881,-1776.494261,-9548.656652,-3677.258390
19793.349215,-74.020594,-12731.542202,-4366.744339
19793.349549,296.082377,-11621.233289,-1762.019645
19793.349882,888.247130,-12583.501014,1225.752797
19793.350216,2738.761985,-9844.739029,3294.210641
19793.350549,1036.288319,-8956.491898,3677.258390
19793.350883,1480.411884,-8364.327145,5362.668486
19793.351216,2590.720797,-7550.100608,5898.935335
19793.351550,1258.350101,-6291.750507,5209.449386
19793.351883,2294.638420,-7105.977043,4213.525239
19793.352217,-1258.350101,-8290.306550,-76.609550
19793.352550,-4145.153275,-5995.668130,-3064.381992
19793.352884,-74.020594,-8586.388927,-2528.115143
19793.353217,-74.020594,-9474.636058,-4673.182538
19793.353551,-74.020594,-11103.089130,-3753.867940
19793.353885,-370.102971,-14063.912898,-3140.991542
19793.354218,74.020594,-11843.295072,-2221.676944
19793.354552,518.144159,-11325.150913,-842.705048
19793.354885,2368.659014,-10658.965565,2451.505594
19793.355219,4145.153275,-9548.656652,5822.325785
19793.355552,1628.453072,-5107.421000,4903.011187
19793.355886,4441.235652,-8882.471304,5745.716235
19793.356219,518.144159,-9178.553681,2374.896044
19793.356553,-2516.700203,-9030.512492,153.219100
19793.356886,-3330.926739,-9474.636058,-2528.115143
19793.357220,-5699.585753,-9474.636058,-2834.553343
19793.357553,-4737.318029,-8438.347739,-3677.258390
19793.357887,-2812.782580,-9030.512492,76.609550
19793.358221,2886.803174,-8882.471304,3600.648841
19793.358554,3552.988522,-6735.874072,3677.258390
19793.358888,7031.956449,-8290.306550,5439.278036
19793.359221,3997.112087,-7179.997637,1225.752797
19793.359555,1184.329507,-7179.997637,0.000000
19793.359888,222.061783,-10362.883188,-3677.258390
19793.360222,-1924.535449,-11843.295072,-4673.182538
19793.360555,-3404.947333,-12213.398043,-3907.087040
19793.360889,-2368.659014,-11843.295072,-2757.943793
19793.361222,-3478.967927,-9252.574275,-2528.115143
19793.361556,-1628.453072,-11547.212695,2374.896044
19793.361889,-370.102971,-9474.636058,2987.772442
19793.362223,0.000000,-6587.832884,8886.707777
19793.362557,4663.297435,-6513.812290,9346.365076
19793.362890,1480.411884,-5403.503377,7048.078582
19793.363224,3478.967927,-6291.750507,4136.915689
19793.363557,2442.679609,-6513.812290,1225.752797
19793.363891,2368.659014,-7476.080014,-1685.410096
19793.364224,-2072.576638,-9548.656652,-6128.763984
19793.364558,-74.020594,-14211.954086,-8044.002729
19793.364891,-3330.926739,-11621.233289,-9193.145976
19793.365225,-4737.318029,-11917.315666,-6741.640382
19793.365558,-888.247130,-13619.789333,-1532.190996
19793.365892,1036.288319,-10881.027347,1225.752797
19793.366225,5551.544565,-8438.347739,5822.325785
19793.366559,5995.668130,-7105.977043,8810.098227
19793.366893,5551.544565,-7179.997637,8120.612279
19793.367226,3849.070898,-5403.503377,6435.202183
19793.367560,1776.494261,-8068.244768,3983.696590
19793.367893,-444.123565,-8586.388927,383.047749
19793.368227,-4589.276840,-9474.636058,-3140.991542
19793.368560,-3034.844362,-10658.965565,-4979.620737
19793.368894,-3997.112087,-7920.203579,-4903.011187
19793.369227,-1628.453072,-9474.636058,-766.095498
19793.369561,-74.020594,-9474.636058,-2068.457845
19793.369894,1406.391290,-8364.327145,0.000000
19793.370228,3552.988522,-8660.409521,4826.401637
19793.370561,3182.885551,-8068.244768,2911.162892
19793.370895,2442.679609,-9918.759623,2374.896044
19793.371229,2590.720797,-10658.965565,1915.238745
19793.371562,-962.267725,-9548.656652,-536.266849
19793.371896,-2442.679609,-7772.162391,-2451.505594
19793.372229,-3034.844362,-11843.295072,-1915.238745
19793.372563,-5107.421000,-8290.306550,-3753.867940
19793.372896,-4737.318029,-7772.162391,0.000000
19793.373230,-1258.350101,-9474.636058,2374.896044
19793.373563,-1628.453072,-6143.709319,3370.820191
19793.373897,444.123565,-7476.080014,4673.182538
19793.374230,2886.803174,-7550.100608,4519.963438
19793.374564,2368.659014,-5403.503377,2145.067394
19793.374897,2886.803174,-7179.997637,0.000000
19793.375231,4663.297435,-11251.130318,-76.609550
19793.375565,666.185348,-9548.656652,-4290.134789
19793.375898,-2368.659014,-10732.986159,-3983.696590
19793.376232,-4145.153275,-11325.150913,-5975.544884
19793.376565,-2812.782580,-12287.418637,-3447.429741
19793.376899,-666.185348,-9918.759623,-1302.362347
19793.377232,-74.020594,-10066.800811,919.314598
19793.377566,3182.885551,-9474.636058,4826.401637
19793.377899,592.164754,-7772.162391,6128.763984
19793.378233,4663.297435,-9474.636058,8197.221829
19793.378566,1702.473667,-4811.338623,3677.258390
19793.378900,2886.803174,-9474.636058,4826.401637
19793.379233,2072.576638,-7920.203579,1225.752797
19793.379567,518.144159,-8216.285956,536.266849
19793.379901,1406.391290,-7846.182985,-1072.533697
19793.380234,-666.185348,-8808.450710,-3140.991542
19793.380568,518.144159,-8882.471304,-5439.278036
19793.380901,888.247130,-11695.253884,-3140.991542
19793.381235,0.000000,-9548.656652,-4903.011187
19793.381568,-3552.988522,-9844.739029,-1838.629195
19793.381902,3478.967927,-11843.295072,-1685.410096
19793.382235,4737.318029,-10881.027347,3677.258390
19793.382569,3775.050304,-9400.615463,3907.087040
19793.382902,2812.782580,-10066.800811,4519.963438
19793.383236,2294.638420,-8068.244768,3907.087040
19793.383570,1110.308913,-9474.636058,3294.210641
19793.383903,518.144159,-8512.368333,2374.896044
19793.384237,-1998.556043,-7402.059420,919.314598
19793.384570,-2886.803174,-6883.915261,-1838.629195
19793.384904,-2368.659014,-8216.285956,-1302.362347
19793.385237,-74.020594,-8290.306550,-689.485948
19793.385571,0.000000,-8364.327145,0.000000
19793.385904,3478.967927,-11251.130318,-76.609550
19793.386238,1998.556043,-8660.409521,-1838.629195
19793.386571,0.000000,-10140.821405,0.000000
19793.386905,1110.308913,-12287.418637,-1302.362347
19793.387238,740.205942,-11399.171507,536.266849
19793.387572,1406.391290,-9326.594869,1072.533697
19793.387906,1554.432478,-9474.636058,2451.505594
19793.388239,-1036.288319,-7476.080014,1302.362347
19793.388573,-4145.153275,-8956.491898,3907.087040
19793.388906,-3330.926739,-8882.471304,-689.485948
19793.389240,-5329.482782,-7772.162391,0.000000
19793.389573,-4441.235652,-7920.203579,919.314598
19793.389907,-2442.679609,-7994.224174,536.266849
19793.390240,-592.164754,-8142.265362,2757.943793
19793.390574,1554.432478,-7031.956449,3140.991542
19793.390907,2146.597232,-7402.059420,3677.258390
19793.391241,3552.988522,-7179.997637,3677.258390
19793.391574,4663.297435,-9474.636058,-76.609550
19793.391908,1332.370696,-8660.409521,-3064.381992
19793.392242,-2368.659014,-9844.739029,-2451.505594
19793.392575,-592.164754,-12435.459826,-2221.676944
19793.392909,0.000000,-10732.986159,-2451.505594
19793.393242,-1406.391290,-12065.356855,-2451.505594
19793.393576,-1258.350101,-11103.089130,-1762.019645
19793.393909,-1406.391290,-11399.171507,1149.143247
19793.394243,2294.638420,-9474.636058,4826.401637
19793.394576,2294.638420,-8290.306550,4826.401637
19793.394910,592.164754,-5403.503377,7354.516781
19793.395243,4663.297435,-6217.729913,6052.154434
19793.395577,2442.679609,-3923.091493,2451.505594
19793.395910,2368.659014,-6291.750507,2987.772442
19793.396244,444.123565,-6809.894666,-3447.429741
19793.396578,814.226536,-10066.800811,-5745.716235
19793.396911,-2072.576638,-10140.821405,-7431.126331
19793.397245,-1258.350101,-14211.954086,-6205.373534
19793.397578,-2738.761985,-12805.562797,-6971.469032
19793.397912,-814.226536,-13915.871710,-3140.991542
19793.398245,1776.494261,-11029.068536,2987.772442
19793.398579,1480.411884,-5995.668130,5515.887586
19793.398912,2516.700203,-6291.750507,8580.269578
19793.399246,6735.874072,-7105.977043,9116.536426
19793.399579,0.000000,-3627.009116,4903.011187
19793.399913,1480.411884,-8216.285956,4826.401637
19793.400246,-2738.761985,-8290.306550,-1455.581446
19793.400580,-7105.977043,-9548.656652,-3753.867940
19793.400914,-6661.853478,-9104.533087,-5745.716235
19793.401247,-4663.297435,-9622.677246,-4673.182538
19793.401581,-2368.659014,-8956.491898,-2451.505594
19793.401914,1110.308913,-8364.327145,153.219100
19793.402248,5847.626942,-8290.306550,1149.143247
19793.402581,4663.297435,-7920.203579,2451.505594
19793.402915,3108.864956,-7772.162391,2451.505594
19793.403248,4145.153275,-10288.862594,2451.505594
19793.403582,2368.659014,-10584.944971,1762.019645
19793.403915,1776.494261,-10732.986159,153.219100
19793.404249,-1776.494261,-10732.986159,-1302.362347
19793.404582,-3330.926739,-13027.624579,-2528.115143
19793.404916,-6217.729913,-7772.162391,-2451.505594
19793.405250,-4219.173869,-8882.471304,-2681.334243
19793.405583,-4589.276840,-7179.997637,2451.505594
19793.405917,-74.020594,-8290.306550,4826.401637
19793.406250,3478.967927,-5921.647536,6665.030833
19793.406584,4589.276840,-6883.915261,6971.469032
19793.406917,4367.215058,-7105.977043,4366.744339
19793.407251,4663.297435,-7698.141797,2068.457845
19793.407584,1776.494261,-8660.409521,-1225.752797
19793.407918,592.164754,-11325.150913,-2528.115143
19793.408251,-4885.359217,-11325.150913,-7967.393179
19793.408585,-5773.606348,-10732.986159,-7354.516781
19793.408918,-1554.432478,-12435.459826,-3753.867940
19793.409252,222.061783,-10658.965565,-995.924147
19793.409586,1702.473667,-9178.553681,2221.676944
19793.409919,2294.638420,-9178.553681,5362.668486
19793.410253,4589.276840,-6217.729913,7277.907231
19793.410586,3849.070898,-7179.997637,7277.907231
19793.410920,3478.967927,-9474.636058,5439.278036
19793.411253,0.000000,-7179.997637,3677.258390
19793.411587,-666.185348,-9474.636058,-76.609550
19793.411920,-74.020594,-7994.224174,-3294.210641
19793.412254,-3701.029710,-7698.141797,-5209.449386
19793.412587,-1258.350101,-8734.430116,-4979.620737
19793.412921,-740.205942,-7772.162391,-3370.820191
19793.413254,592.164754,-9104.533087,-2911.162892
19793.413588,1258.350101,-10436.903782,-2451.505594
19793.413922,4071.132681,-11547.212695,-76.609550
19793.414255,3256.906145,-11695.253884,2528.115143
19793.414589,3627.009116,-10881.027347,3370.820191
19793.414922,2738.761985,-10732.986159,3064.381992
19793.415256,592.164754,-9548.656652,2451.505594
19793.415589,1998.556043,-10658.965565,3600.648841
19793.415923,-1184.329507,-7179.997637,0.000000
19793.416256,-1628.453072,-10658.965565,3294.210641
19793.416590,-2590.720797,-7254.018232,0.000000
19793.416923,-2738.761985,-5699.585753,-1225.752797
19793.417257,-1554.432478,-6735.874072,-153.219100
19793.417590,-518.144159,-7698.141797,-536.266849
19793.417923,666.185348,-8068.244768,0.000000
19793.418257,2368.659014,-8364.327145,1072.533697
19793.418590,1776.494261,-9548.656652,2221.676944
19793.418924,1702.473667,-10362.883188,-3064.381992
19793.419257,0.000000,-9844.739029,-4136.915689
19793.419590,0.000000,-12065.356855,-76.609550
19793.419924,1184.329507,-11103.089130,0.000000
19793.420257,222.061783,-8364.327145,0.000000
19793.420591,1110.308913,-9178.553681,1762.019645
19793.420924,592.164754,-8290.306550,2681.334243
19793.421257,-370.102971,-9474.636058,-76.609550
19793.421591,-2368.659014,-9548.656652,2221.676944
19793.421924,-3034.844362,-8068.244768,0.000000
19793.422258,-2368.659014,-8364.327145,2528.115143
19793.422591,-74.020594,-9400.615463,4213.525239
19793.422924,1998.556043,-9178.553681,3600.648841
19793.423258,3108.864956,-6291.750507,2911.162892
19793.423591,3775.050304,-6661.853478,1149.143247
19793.423925,3701.029710,-7846.182985,-306.438199
19793.424258,0.000000,-10140.821405,-3677.258390
19793.424591,-74.020594,-11843.295072,-5898.935335
19793.424925,-2368.659014,-12805.562797,-2528.115143
19793.425258,-74.020594,-13027.624579,-5132.839837
19793.425592,-2368.659014,-11325.150913,-1225.752797
19793.425925,-1184.329507,-10732.986159,612.876398
19793.426258,1850.514855,-8364.327145,4443.353888
19793.426592,1184.329507,-7772.162391,6971.469032
19793.426925,2738.761985,-8142.265362,6052.154434
19793.427259,4071.132681,-7698.141797,9116.536426
19793.427592,0.000000,-4811.338623,4903.011187
19793.427925,3478.967927,-7105.977043,3600.648841
19793.428259,-1184.329507,-5403.503377,-2528.115143
19793.428592,-1628.453072,-7179.997637,-4290.134789
19793.428925,-444.123565,-10066.800811,-4673.182538
19793.429259,-1184.329507,-10436.903782,-5669.106685
19793.429592,-666.185348,-12287.418637,-7431.126331
19793.429926,-1036.288319,-12287.418637,-4443.353888
19793.430259,1110.308913,-13027.624579,-76.609550
19793.430592,1480.411884,-9548.656652,2757.943793
19793.430926,4885.359217,-9474.636058,6435.202183
19793.431259,5995.668130,-7994.224174,7584.345430
19793.431593,4589.276840,-7402.059420,6741.640382
19793.431926,5181.441594,-8290.306550,6358.592633
19793.432259,0.000000,-8364.327145,1302.362347
19793.432593,-1184.329507,-10732.986159,-76.609550
19793.432926,-4811.338623,-9178.553681,-5515.887586
19793.433260,-5181.441594,-9696.697840,-4136.915689
19793.433593,-3849.070898,-11029.068536,-1302.362347
19793.433926,-1924.535449,-9252.574275,-612.876398
19793.434260,1258.350101,-7179.997637,2298.286494
19793.434593,3701.029710,-6957.935855,4290.134789
19793.434927,5551.544565,-7698.141797,4519.963438
19793.435260,3627.009116,-5403.503377,2451.505594
19793.435593,3478.967927,-9474.636058,2374.896044
19793.435927,1702.473667,-8586.388927,-4290.134789
19793.436260,-2368.659014,-12509.480420,-2528.115143
19793.436594,-2442.679609,-13027.624579,-4366.744339
19793.436927,-5625.565159,-11029.068536,-4443.353888
19793.437260,-5107.421000,-11177.109724,-2451.505594
19793.437594,-3256.906145,-10066.800811,383.047749
19793.437927,-1110.308913,-6587.832884,4290.134789
19793.438261,0.000000,-3034.844362,8580.269578
19793.438594,4663.297435,-7105.977043,8503.660028
19793.438927,3478.967927,-5329.482782,4366.744339
19793.439261,2368.659014,-6587.832884,4903.011187
19793.439594,3478.967927,-6439.791695,-1225.752797
19793.439928,1332.370696,-7772.162391,-2757.943793
19793.440261,-2220.617826,-10732.986159,-7201.297681
19793.440594,-3701.029710,-12953.603985,-7814.174080
19793.440928,-5329.482782,-11621.233289,-7354.516781
19793.441261,-2812.782580,-14063.912898,-2528.115143
19793.441595,-74.020594,-12435.459826,-1915.238745
19793.441928,1110.308913,-9326.594869,2451.505594
19793.442261,2368.659014,-6587.832884,9729.412825
19793.442595,6439.791695,-5921.647536,7507.735880
19793.442928,5847.626942,-7550.100608,8503.660028
19793.443262,3478.967927,-8068.244768,6128.763984
19793.443595,518.144159,-7994.224174,2451.505594
19793.443928,-1776.494261,-8660.409521,-1838.629195
19793.444262,-3849.070898,-9918.759623,-4366.744339
19793.444595,-3404.947333,-9696.697840,-5056.230287
19793.444929,-2812.782580,-8438.347739,-3753.867940
19793.445262,1258.350101,-8586.388927,-2528.115143
19793.445595,0.000000,-8290.306550,-2528.115143
19793.445929,1776.494261,-8660.409521,0.000000
19793.446262,4219.173869,-11769.274478,3677.258390
19793.446595,6439.791695,-11251.130318,2221.676944
19793.446929,5847.626942,-11103.089130,2987.772442
19793.447262,3923.091493,-11843.295072,3907.087040
19793.447596,518.144159,-9844.739029,1762.019645
19793.447929,-1406.391290,-8956.491898,0.000000
19793.448262,-3108.864956,-9770.718434,-995.924147
19793.448596,-2072.576638,-10140.821405,1149.143247
19793.448929,-4737.318029,-7476.080014,2528.115143
19793.449263,-1554.432478,-7105.977043,689.485948
19793.449596,-3256.906145,-4811.338623,0.000000
19793.449929,962.267725,-7698.141797,2221.676944
19793.450263,3478.967927,-6365.771101,2604.724693
19793.450596,3404.947333,-7698.141797,2374.896044
19793.450930,1998.556043,-8512.368333,-919.314598
19793.451263,2220.617826,-11029.068536,-1915.238745
19793.451596,-666.185348,-13619.789333,-3140.991542
19793.451930,-148.041188,-11843.295072,-2451.505594
19793.452263,-1258.350101,-14804.118840,-2528.115143
19793.452597,-1776.494261,-9548.656652,-1838.629195
19793.452930,-2368.659014,-9548.656652,1225.752797
19793.453263,-1110.308913,-8142.265362,1685.410096
19793.453597,-148.041188,-8068.244768,3064.381992
19793.453930,-592.164754,-9548.656652,4136.915689
19793.454264,444.123565,-7179.997637,4903.011187
19793.454597,-2072.576638,-5107.421000,612.876398
19793.454930,1110.308913,-11251.130318,2374.896044
19793.455264,1110.308913,-9474.636058,1762.019645
19793.455597,-814.226536,-6291.750507,0.000000
19793.455931,3478.967927,-8586.388927,-76.609550
19793.456264,-814.226536,-8660.409521,-3064.381992
19793.456597,-518.144159,-9992.780217,-3753.867940
19793.456931,-1406.391290,-9992.780217,-3983.696590
19793.457264,-1332.370696,-11325.150913,-4060.306139
19793.457598,-1776.494261,-11325.150913,-1072.533697
19793.457931,3478.967927,-11843.295072,-1608.800546
19793.458264,1184.329507,-10732.986159,3830.477490
19793.458598,3923.091493,-11769.274478,6665.030833
19793.458931,3478.967927,-8882.471304,4213.525239
19793.459265,1480.411884,-8068.244768,6971.469032
19793.459598,1480.411884,-6957.935855,5286.058936
19793.459931,1406.391290,-6291.750507,3907.087040
19793.460265,-740.205942,-7179.997637,919.314598
19793.460598,-2072.576638,-7328.038826,0.000000
19793.460932,-962.267725,-7994.224174,-3064.381992
19793.461265,148.041188,-9030.512492,-3907.087040
19793.461598,-592.164754,-9548.656652,-4749.792088
19793.461932,1110.308913,-11547.212695,-5056.230287
19793.462265,0.000000,-11029.068536,-2374.896044
19793.462599,2294.638420,-12731.542202,-76.609550
19793.462932,4515.256246,-12435.459826,995.924147
19793.463265,4663.297435,-9696.697840,3830.477490
19793.463599,5255.462188,-9474.636058,7277.907231
19793.463932,4145.153275,-7254.018232,5439.278036
19793.464265,1332.370696,-8068.244768,3294.210641
19793.464599,-222.061783,-9104.533087,229.828649
19793.464932,-3256.906145,-7920.203579,-2145.067394
19793.465266,-6439.791695,-7772.162391,-3677.258390
19793.465599,-3627.009116,-10658.965565,-4519.963438
19793.465932,-4737.318029,-9548.656652,-4290.134789
19793.466266,592.164754,-8068.244768,2757.943793
19793.466599,2590.720797,-5921.647536,3600.648841
19793.466933,3775.050304,-7105.977043,4290.134789
19793.467266,4811.338623,-7328.038826,3447.429741
19793.467599,3256.906145,-9178.553681,1608.800546
19793.467933,1480.411884,-9844.739029,0.000000
19793.468266,-1776.494261,-9696.697840,-2451.505594
19793.468600,-74.020594,-12731.542202,-5898.935335
19793.468933,-3552.988522,-11325.150913,-3064.381992
19793.469266,-4737.318029,-11917.315666,-2298.286494
19793.469600,-4737.318029,-10436.903782,-2451.505594
19793.469933,-2442.679609,-10066.800811,1455.581446
19793.470267,74.020594,-8216.285956,6205.373534
19793.470600,1924.535449,-4885.359217,7890.783629
19793.470933,3478.967927,-7105.977043,8503.660028
19793.471267,2960.823768,-5403.503377,8120.612279
19793.471600,2294.638420,-6513.812290,2374.896044
19793.471934,592.164754,-5403.503377,306.438199
19793.472267,-74.020594,-9474.636058,-4979.620737
19793.472600,-2146.597232,-11621.233289,-7277.907231
19793.472934,-4811.338623,-13175.665768,-9576.193725
19793.473267,-4145.153275,-14359.995275,-7507.735880
19793.473601,-3478.967927,-13101.645173,-4749.792088
19793.473934,-592.164754,-10510.924376,153.219100
19793.474267,5255.462188,-11547.212695,6665.030833
19793.474601,4145.153275,-5403.503377,8580.269578
19793.474934,4737.318029,-5995.668130,11338.213370
19793.475268,5847.626942,-5625.565159,6128.763984
19793.475601,2368.659014,-8216.285956,6435.202183
19793.475934,-666.185348,-7994.224174,229.828649
19793.476268,-4737.318029,-9178.553681,-3753.867940
19793.476601,-5921.647536,-9326.594869,-6358.592633
19793.476935,-4663.297435,-7772.162391,-6128.763984
19793.477268,-518.144159,-8882.471304,-3907.087040
19793.477601,0.000000,-8660.409521,-1838.629195
19793.477935,2664.741391,-7328.038826,0.000000
19793.478268,4737.318029,-9992.780217,2604.724693
19793.478602,6143.709319,-8882.471304,2221.676944
19793.478935,4959.379811,-11547.212695,4366.744339
19793.479268,6439.791695,-12731.542202,1762.019645
19793.479602,1776.494261,-10732.986159,2451.505594
19793.479935,1776.494261,-10732.986159,1838.629195
19793.480269,-666.185348,-10510.924376,-1991.848295
19793.480602,-3330.926739,-10288.862594,-1378.971896
19793.480935,-3923.091493,-10066.800811,-1302.362347
19793.481269,-3552.988522,-7846.182985,0.000000
19793.481602,-3997.112087,-5995.668130,0.000000
19793.481935,1110.308913,-9474.636058,4213.525239
19793.482269,2294.638420,-7105.977043,4213.525239
19793.482602,592.164754,-5995.668130,4903.011187
19793.482936,4663.297435,-9474.636058,2374.896044
19793.483269,1628.453072,-7476.080014,-1225.752797
19793.483602,370.102971,-10362.883188,-3217.601092
19793.483936,-814.226536,-11843.295072,-5132.839837
19793.484269,-3923.091493,-13101.645173,-5669.106685
19793.484603,-2960.823768,-12213.398043,-3217.601092
19793.484936,1036.288319,-14211.954086,-76.609550
19793.485269,962.267725,-9252.574275,1762.019645
19793.485603,0.000000,-5995.668130,2451.505594
19793.485936,2738.761985,-8882.471304,6052.154434
19793.486270,1776.494261,-7179.997637,6741.640382
19793.486603,518.144159,-7328.038826,4596.572988
19793.486936,-962.267725,-8364.327145,1532.190996
19793.487270,-2072.576638,-8808.450710,1149.143247
19793.487603,-1258.350101,-8734.430116,-76.609550
19793.487937,-74.020594,-6513.812290,-2528.115143
19793.488270,-2960.823768,-6587.832884,-1838.629195
19793.488603,0.000000,-8290.306550,-1455.581446
19793.488937,2294.638420,-8882.471304,-4979.620737
19793.489270,592.164754,-10732.986159,-1762.019645
19793.489604,-666.185348,-12287.418637,-3447.429741
19793.489937,148.041188,-11621.233289,-2451.505594
19793.490270,1776.494261,-11917.315666,1302.362347
19793.490604,3478.967927,-11399.171507,3600.648841
19793.490937,1850.514855,-8660.409521,3064.381992
19793.491271,3478.967927,-8956.491898,5286.058936
19793.491604,1924.535449,-7920.203579,4826.401637
19793.491937,0.000000,-5403.503377,3677.258390
19793.492271,-3256.906145,-4811.338623,1838.629195
19793.492604,-370.102971,-8290.306550,-76.609550
19793.492938,-1850.514855,-7698.141797,-2528.115143
19793.493271,0.000000,-7772.162391,-612.876398
19793.493604,-222.061783,-8290.306550,-3140.991542
19793.493938,888.247130,-9252.574275,-2528.115143
19793.494271,2146.597232,-10510.924376,-2681.334243
19793.494605,2146.597232,-11917.315666,-1378.971896
19793.494938,1184.329507,-11473.192101,-919.314598
19793.495271,2294.638420,-11103.089130,0.000000
19793.495605,4663.297435,-10658.965565,1149.143247
19793.495938,2960.823768,-8364.327145,3217.601092
19793.496272,0.000000,-8364.327145,4826.401637
19793.496605,592.164754,-8956.491898,2451.505594
19793.496938,-888.247130,-8956.491898,1149.143247
19793.497272,-2960.823768,-9104.533087,-1455.581446
19793.497605,-4293.194464,-9030.512492,-1532.190996
19793.497939,-3034.844362,-11547.212695,-76.609550
19793.498272,-2368.659014,-7179.997637,1838.629195
19793.498605,518.144159,-7105.977043,842.705048
19793.498939,0.000000,-6587.832884,3983.696590
19793.499272,5107.421000,-7105.977043,4826.401637
19793.499605,5255.462188,-7031.956449,3600.648841
19793.499939,3997.112087,-8882.471304,-76.609550
19793.500272,-888.247130,-10288.862594,-2987.772442
19793.500606,-2664.741391,-11843.295072,-5592.497135
19793.500939,-3627.009116,-11843.295072,-5439.278036
19793.501272,-3552.988522,-13397.727550,-1915.238745
19793.501606,-4811.338623,-9548.656652,-4290.134789
19793.501939,-3627.009116,-9548.656652,-1838.629195
19793.502273,962.267725,-9474.636058,4826.401637
19793.502606,1554.432478,-6809.894666,6358.592633
19793.502939,4367.215058,-5107.421000,7737.564530
19793.503273,4293.194464,-5625.565159,8350.440928
19793.503606,3256.906145,-5477.523971,5439.278036
19793.503940,1850.514855,-7328.038826,2221.676944
19793.504273,-74.020594,-9474.636058,-1915.238745
19793.504606,-4145.153275,-8364.327145,-6128.763984
19793.504940,-3404.947333,-11251.130318,-6435.202183
19793.505273,-666.185348,-14211.954086,-8656.879127
19793.505607,-4811.338623,-12139.377449,-7967.393179
19793.505940,-1258.350101,-12139.377449,-4060.306139
19793.506273,444.123565,-11695.253884,2221.676944
19793.506607,5107.421000,-9030.512492,6894.859482
19793.506940,5329.482782,-7179.997637,8810.098227
19793.507274,7031.956449,-7698.141797,7890.783629
19793.507607,3552.988522,-6291.750507,6588.421283
19793.507940,2146.597232,-7994.224174,3677.258390
19793.508274,-1480.411884,-9104.533087,0.000000
19793.508607,-5625.565159,-9548.656652,-4903.011187
19793.508941,-5181.441594,-11251.130318,-5286.058936
19793.509274,-4367.215058,-9474.636058,-6205.373534
19793.509607,-4441.235652,-8512.368333,-1838.629195
19793.509941,2738.761985,-8290.306550,-76.609550
19793.510274,5255.462188,-6513.812290,1225.752797
19793.510608,6809.894666,-7624.121203,4519.963438
19793.510941,5625.565159,-8364.327145,3370.820191
19793.511274,4811.338623,-10214.842000,2221.676944
19793.511608,2368.659014,-10510.924376,1225.752797
19793.511941,3256.906145,-12731.542202,-76.609550
19793.512275,-2368.659014,-9844.739029,-3064.381992
19793.512608,-3552.988522,-11917.315666,-76.609550
19793.512941,-3627.009116,-10955.047942,-3447.429741
19793.513275,-4737.318029,-8364.327145,-1838.629195
19793.513608,-2738.761985,-9474.636058,1149.143247
19793.513942,-1406.391290,-7254.018232,3983.696590
19793.514275,740.205942,-5995.668130,5669.106685
19793.514608,4367.215058,-6809.894666,7277.907231
19793.514942,5551.544565,-9474.636058,4826.401637
19793.515275,1776.494261,-5403.503377,3677.258390
19793.515609,3478.967927,-8882.471304,-76.609550
19793.515942,2294.638420,-8882.471304,-4979.620737
19793.516275,-1554.432478,-13397.727550,-5056.230287
19793.516609,-4293.194464,-12879.583391,-7354.516781
19793.516942,-5477.523971,-13101.645173,-5592.497135
19793.517275,-2442.679609,-11843.295072,-3140.991542
19793.517608,-2220.617826,-10140.821405,153.219100
19793.517942,1998.556043,-8142.265362,2681.334243
19793.518275,0.000000,-5995.668130,7967.393179
19793.518608,3552.988522,-7550.100608,8503.660028
19793.518941,3330.926739,-7254.018232,6052.154434
19793.519274,962.267725,-5403.503377,2604.724693
19793.519608,814.226536,-9474.636058,3830.477490
19793.519941,-1036.288319,-8882.471304,-76.609550
19793.520274,-2516.700203,-9030.512492,-2987.772442
19793.520607,-962.267725,-9178.553681,-4136.915689
19793.520940,-2960.823768,-8364.327145,-3677.258390
19793.521274,1702.473667,-9474.636058,-4979.620737
19793.521607,-74.020594,-11251.130318,-4749.792088
19793.521940,592.164754,-11103.089130,-76.609550
19793.522273,1776.494261,-9844.739029,842.705048
19793.522606,3404.947333,-10214.842000,3447.429741
19793.522940,3997.112087,-9918.759623,3907.087040
19793.523273,2072.576638,-9474.636058,3753.867940
19793.523606,1776.494261,-9474.636058,4443.353888
19793.523939,0.000000,-8364.327145,3217.601092
19793.524272,-666.185348,-9104.533087,1838.629195
19793.524606,-1998.556043,-7328.038826,536.266849
19793.524939,-3108.864956,-8364.327145,-766.095498
19793.525272,-1776.494261,-7254.018232,0.000000
19793.525605,-1776.494261,-6587.832884,-3677.258390
19793.525938,592.164754,-9252.574275,995.924147
19793.526272,3478.967927,-7994.224174,-76.609550
19793.526605,3478.967927,-9474.636058,-1302.362347
19793.526938,2960.823768,-11399.171507,-229.828649
19793.527271,2368.659014,-10881.027347,-842.705048
19793.527604,888.247130,-10955.047942,-766.095498
19793.527938,1184.329507,-9918.759623,-229.828649
19793.528271,2294.638420,-11843.295072,1762.019645
19793.528604,-2072.576638,-7772.162391,1225.752797
19793.528937,0.000000,-9252.574275,2834.553343
19793.529271,-74.020594,-8216.285956,0.000000
19793.529604,-3552.988522,-9548.656652,1225.752797
19793.529937,-370.102971,-9474.636058,842.705048
19793.530270,-962.267725,-9178.553681,2681.334243
19793.530603,-1184.329507,-7846.182985,1991.848295
19793.530937,74.020594,-9474.636058,1915.238745
19793.531270,2590.720797,-6217.729913,2374.896044
19793.531603,0.000000,-5995.668130,3983.696590
19793.531936,4663.297435,-7994.224174,-76.609550
19793.532269,-74.020594,-9474.636058,-4519.963438
19793.532603,-1776.494261,-10732.986159,-3064.381992
19793.532936,-2442.679609,-10955.047942,-6435.202183
19793.533269,-962.267725,-11473.192101,-4519.963438
19793.533602,-1184.329507,-12435.459826,-1455.581446
19793.533935,-814.226536,-10140.821405,76.609550
19793.534269,0.000000,-8364.327145,1838.629195
19793.534602,0.000000,-8364.327145,6894.859482
19793.534935,2294.638420,-9178.553681,4213.525239
19793.535268,1184.329507,-6587.832884,6128.763984
19793.535601,2368.659014,-8290.306550,7890.783629
19793.535935,-74.020594,-4885.359217,612.876398
19793.536268,-370.102971,-7550.100608,-689.485948
19793.536601,-888.247130,-8068.244768,-2528.115143
19793.536934,-1480.411884,-8734.430116,-4213.525239
19793.537267,-888.247130,-8364.327145,-7277.907231
19793.537601,-1702.473667,-13027.624579,-5898.935335
19793.537934,-2146.597232,-12361.439231,-4979.620737
19793.538267,-74.020594,-11991.336260,-1762.019645
19793.538600,4663.297435,-12435.459826,3600.648841
19793.538933,5847.626942,-10066.800811,4213.525239
19793.539267,3552.988522,-8364.327145,7660.954980
19793.539600,6439.791695,-9474.636058,7277.907231
19793.539933,2590.720797,-5995.668130,4290.134789
19793.540266,1480.411884,-9104.533087,2451.505594
19793.540600,-1406.391290,-8808.450710,-1225.752797
19793.540933,-5107.421000,-9474.636058,-3447.429741
19793.541266,-4811.338623,-9252.574275,-4903.011187
19793.541599,-4959.379811,-9474.636058,-5286.058936
19793.541932,-74.020594,-10066.800811,-1302.362347
19793.542266,1184.329507,-7476.080014,4366.744339
19793.542599,5255.462188,-7698.141797,3600.648841
19793.542932,6735.874072,-7698.141797,1915.238745
19793.543265,5847.626942,-9178.553681,2987.772442
19793.543598,4219.173869,-8364.327145,306.438199
19793.543932,2664.741391,-10066.800811,-919.314598
19793.544265,1480.411884,-11325.150913,-2834.553343
19793.544598,0.000000,-10732.986159,-2451.505594
19793.544931,-666.185348,-11547.212695,-2834.553343
19793.545264,-1776.494261,-12361.439231,-76.609550
19793.545598,-3034.844362,-10066.800811,-1685.410096
19793.545931,-2368.659014,-9548.656652,612.876398
19793.546264,0.000000,-6587.832884,5975.544884
19793.546597,888.247130,-5403.503377,7201.297681
19793.546930,2960.823768,-5699.585753,5669.106685
19793.547264,3330.926739,-6143.709319,5362.668486
19793.547597,4071.132681,-7105.977043,3294.210641
19793.547930,2294.638420,-5107.421000,-3677.258390
19793.548263,-74.020594,-11547.212695,-4979.620737
19793.548596,-1850.514855,-13619.789333,-8656.879127
19793.548930,-6809.894666,-11917.315666,-7967.393179
19793.549263,-2960.823768,-13101.645173,-4903.011187
19793.549596,-1332.370696,-13175.665768,-1455.581446
19793.549929,1628.453072,-11103.089130,2374.896044
19793.550262,3552.988522,-8216.285956,7584.345430
19793.550596,4663.297435,-8142.265362,8503.660028
19793.550929,2368.659014,-4811.338623,9806.022374
19793.551262,3478.967927,-7698.141797,5132.839837
19793.551595,-1184.329507,-4811.338623,612.876398
19793.551929,-2960.823768,-9400.615463,2374.896044
19793.552262,-4145.153275,-9474.636058,-2145.067394
19793.552595,-4441.235652,-8364.327145,-4749.792088
19793.552928,-4145.153275,-7994.224174,-4673.182538
19793.553261,-444.123565,-8142.265362,-3830.477490
19793.553595,-518.144159,-9474.636058,-2834.553343
19793.553928,592.164754,-9844.739029,-995.924147
19793.554261,1776.494261,-10881.027347,306.438199
19793.554594,3034.844362,-10362.883188,1225.752797
19793.554927,3701.029710,-10658.965565,2298.286494
19793.555261,5847.626942,-11843.295072,4826.401637
19793.555594,1776.494261,-8364.327145,3370.820191
19793.555927,3330.926739,-10955.047942,4826.401637
19793.556260,-1258.350101,-7772.162391,0.000000
19793.556593,-2072.576638,-10214.842000,536.266849
19793.556927,-2738.761985,-10362.883188,-76.609550
19793.557260,-3552.988522,-7254.018232,-689.485948
19793.557593,-3330.926739,-7698.141797,153.219100
19793.557926,296.082377,-8438.347739,1532.190996
19793.558259,2886.803174,-7031.956449,1991.848295
19793.558593,1480.411884,-5995.668130,2451.505594
19793.558926,4515.256246,-9474.636058,1762.019645
19793.559259,4663.297435,-11251.130318,-1302.362347
19793.559592,148.041188,-10140.821405,-1838.629195
19793.559925,1110.308913,-11695.253884,-3140.991542
19793.560259,-1702.473667,-12879.583391,-2834.553343
19793.560592,-444.123565,-11621.233289,-1685.410096
19793.560925,-1702.473667,-9992.780217,0.000000
19793.561258,-888.247130,-7772.162391,0.000000
19793.561591,-4737.318029,-8364.327145,3677.258390
19793.561925,-74.020594,-8586.388927,1149.143247
19793.562258,0.000000,-6587.832884,2451.505594
19793.562591,0.000000,-8068.244768,4979.620737
19793.562924,-814.226536,-6291.750507,1838.629195
19793.563258,1110.308913,-7994.224174,2987.772442
19793.563591,1998.556043,-7105.977043,2374.896044
19793.563924,1924.535449,-7105.977043,76.609550
19793.564257,888.247130,-8882.471304,-1378.971896
19793.564590,0.000000,-10436.903782,-1302.362347
19793.564924,-74.020594,-11843.295072,-4060.306139
19793.565257,-1702.473667,-9844.739029,-6128.763984
19793.565590,-2368.659014,-12065.356855,-2681.334243
19793.565923,0.000000,-10732.986159,-1838.629195
19793.566256,1184.329507,-10288.862594,2451.505594
19793.566590,2368.659014,-8512.368333,4136.915689
19793.566923,2368.659014,-9030.512492,4979.620737
19793.567256,3182.885551,-7994.224174,6052.154434
19793.567589,4663.297435,-8882.471304,5439.278036
19793.567922,1184.329507,-4811.338623,2451.505594
19793.568256,444.123565,-9474.636058,2374.896044
19793.568589,-1258.350101,-7105.977043,-2221.676944
19793.568922,-3552.988522,-7772.162391,-2451.505594
19793.569255,-148.041188,-8142.265362,-4213.525239
19793.569588,0.000000,-9178.553681,-3447.429741
19793.569922,0.000000,-9696.697840,-3677.258390
19793.570255,1110.308913,-12435.459826,-1302.362347
19793.570588,1110.308913,-10955.047942,-995.924147
19793.570921,1702.473667,-11547.212695,229.828649
19793.571254,3775.050304,-9770.718434,3294.210641
19793.571588,3849.070898,-9104.533087,4826.401637
19793.571921,4071.132681,-9474.636058,5439.278036
19793.572254,0.000000,-9548.656652,4826.401637
19793.572587,-666.185348,-8882.471304,-1685.410096
19793.572920,-3108.864956,-11325.150913,0.000000
19793.573254,-4737.318029,-8660.409521,-3064.381992
19793.573587,-5403.503377,-8808.450710,-3983.696590
19793.573920,-3034.844362,-9474.636058,-995.924147
19793.574253,888.247130,-8068.244768,2757.943793
19793.574586,2812.782580,-5847.626942,4596.572988
19793.574920,3701.029710,-4811.338623,3447.429741
19793.575253,6735.874072,-8290.306550,4749.792088
19793.575586,5847.626942,-10658.965565,-76.609550
19793.575919,592.164754,-9548.656652,-2145.067394
19793.576253,0.000000,-12879.583391,-3217.601092
19793.576586,-2220.617826,-11917.315666,-4903.011187
19793.576919,-1628.453072,-12731.542202,-3524.039291
19793.577252,-1850.514855,-11325.150913,-2757.943793
19793.577585,-2738.761985,-11251.130318,-995.924147
19793.577919,-2960.823768,-8364.327145,0.000000
19793.578252,2294.638420,-8882.471304,4213.525239
19793.578585,888.247130,-3627.009116,6052.154434
19793.578918,1184.329507,-5403.503377,8733.488677
19793.579251,4071.132681,-5921.647536,6665.030833
19793.579585,1776.494261,-7179.997637,4903.011187
19793.579918,1776.494261,-6587.832884,0.000000
19793.580251,222.061783,-8290.306550,-3753.867940
19793.580584,-1850.514855,-10436.903782,-7354.516781
19793.580917,-3552.988522,-13619.789333,-6741.640382
19793.581251,-2442.679609,-13619.789333,-9269.755526
19793.581584,-4737.318029,-12509.480420,-4596.572988
19793.581917,0.000000,-12509.480420,2374.896044
19793.582250,4663.297435,-11251.130318,4826.401637
19793.582583,4737.318029,-8216.285956,9116.536426
19793.582917,4737.318029,-6957.935855,7890.783629
19793.583250,3182.885551,-6809.894666,6588.421283
19793.583583,2368.659014,-6957.935855,4903.011187
19793.583916,0.000000,-7179.997637,4519.963438
19793.584249,-2960.823768,-8290.306550,-1378.971896
19793.584583,-5033.400406,-8734.430116,-4596.572988
19793.584916,-4737.318029,-9844.739029,-4903.011187
19793.585249,-2146.597232,-7920.203579,-4903.011187
19793.585582,-1628.453072,-8956.491898,-1838.629195
19793.585915,2886.803174,-9178.553681,-1302.362347
19793.586249,2886.803174,-8586.388927,0.000000
19793.586582,3701.029710,-9548.656652,2528.115143
19793.586915,4663.297435,-10658.965565,1762.019645
19793.587248,3627.009116,-10658.965565,2911.162892
19793.587582,3182.885551,-10658.965565,2374.896044
19793.587915,1258.350101,-9622.677246,1149.143247
19793.588248,-3552.988522,-8956.491898,-2145.067394
19793.588581,-4737.318029,-9548.656652,-919.314598
19793.588914,-3034.844362,-8216.285956,-3064.381992
19793.589248,-3552.988522,-8956.491898,0.000000
19793.589581,-2738.761985,-9474.636058,2374.896044
19793.589914,-2812.782580,-5995.668130,612.876398
19793.590247,2072.576638,-7402.059420,5132.839837
19793.590580,3923.091493,-6661.853478,4979.620737
19793.590914,3997.112087,-5699.585753,2911.162892
19793.591247,5847.626942,-8882.471304,2374.896044
19793.591580,1776.494261,-8660.409521,-76.609550
19793.591913,2294.638420,-11103.089130,-6358.592633
19793.592246,-4145.153275,-12213.398043,-5822.325785
19793.592580,-3552.988522,-12805.562797,-4673.182538
19793.592913,-1776.494261,-12731.542202,-4290.134789
19793.593246,1036.288319,-11473.192101,-612.876398
19793.593579,-592.164754,-9252.574275,1685.410096
19793.593912,1776.494261,-8290.306550,4136.915689
19793.594246,3478.967927,-7994.224174,6665.030833
19793.594579,2368.659014,-8216.285956,8503.660028
19793.594912,0.000000,-4811.338623,2451.505594
19793.595245,0.000000,-7179.997637,4136.915689
19793.595578,-74.020594,-7105.977043,229.828649
19793.595912,-74.020594,-7994.224174,-76.609550
19793.596245,-1406.391290,-7550.100608,-3370.820191
19793.596578,-1850.514855,-8956.491898,-4673.182538
19793.596911,-2368.659014,-9548.656652,-5745.716235
19793.597244,-1184.329507,-10140.821405,-4903.011187
19793.597578,-74.020594,-13027.624579,-3753.867940
19793.597911,0.000000,-9844.739029,-1532.190996
19793.598244,3552.988522,-12065.356855,4826.401637
19793.598577,3775.050304,-8364.327145,3677.258390
19793.598911,3701.029710,-9474.636058,6665.030833
19793.599244,1628.453072,-8956.491898,4136.915689
19793.599577,222.061783,-8586.388927,2987.772442
19793.599910,-592.164754,-8956.491898,2834.553343
19793.600243,-2960.823768,-6587.832884,612.876398
19793.600577,-2146.597232,-7624.121203,-689.485948
19793.600910,-3404.947333,-7772.162391,-1378.971896
19793.601243,-1554.432478,-8290.306550,-1608.800546
19793.601576,-1258.350101,-8882.471304,-1608.800546
19793.601909,74.020594,-6883.915261,-3294.210641
19793.602243,3108.864956,-10066.800811,-76.609550
19793.602576,2294.638420,-9548.656652,-2145.067394
19793.602909,1184.329507,-11029.068536,612.876398
19793.603242,2590.720797,-12435.459826,1378.971896
19793.603575,1554.432478,-9548.656652,153.219100
19793.603909,2516.700203,-10140.821405,2451.505594
19793.604242,1110.308913,-9252.574275,1762.019645
19793.604575,814.226536,-8586.388927,1225.752797
19793.604908,-1776.494261,-7476.080014,0.000000
19793.605241,-74.020594,-9474.636058,-1302.362347
19793.605575,-3627.009116,-8882.471304,-995.924147
19793.605908,-4441.235652,-8364.327145,0.000000
19793.606241,-592.164754,-9474.636058,1762.019645
19793.606574,0.000000,-7772.162391,3217.601092
19793.606907,2886.803174,-7624.121203,2604.724693
19793.607241,5329.482782,-6365.771101,4213.525239
19793.607574,4811.338623,-7179.997637,2374.896044
19793.607907,6217.729913,-10288.862594,1455.581446
19793.608240,4663.297435,-11843.295072,-3753.867940
19793.608573,-1776.494261,-11325.150913,-4596.572988
19793.608907,1480.411884,-13175.665768,-1302.362347
19793.609240,-74.020594,-12731.542202,-3983.696590
19793.609573,-1184.329507,-12583.501014,-383.047749
19793.609906,-1332.370696,-10288.862594,-153.219100
19793.610240,444.123565,-9992.780217,3677.258390
19793.610573,1924.535449,-8808.450710,6511.811733
19793.610906,2886.803174,-8290.306550,6665.030833
19793.611239,1776.494261,-3330.926739,5056.230287
19793.611572,0.000000,-5403.503377,6894.859482
19793.611906,2294.638420,-5773.606348,1149.143247
19793.612239,-74.020594,-5699.585753,-3600.648841
19793.612572,-2368.659014,-8956.491898,-4366.744339
19793.612905,-2590.720797,-9548.656652,-6818.249932
19793.613238,-2516.700203,-12731.542202,-7814.174080
19793.613572,-4219.173869,-13841.851115,-7277.907231
19793.613905,-3034.844362,-13027.624579,-4979.620737
19793.614238,0.000000,-11991.336260,919.314598
19793.614571,3849.070898,-9844.739029,5669.106685
19793.614904,5033.400406,-8586.388927,7814.174080
19793.615238,2960.823768,-6587.832884,6741.640382
19793.615571,2368.659014,-6883.915261,8503.660028
19793.615904,3478.967927,-7550.100608,3600.648841
19793.616237,-2368.659014,-8364.327145,0.000000
19793.616570,-2590.720797,-9474.636058,-1915.238745
19793.616903,-8290.306550,-9548.656652,-6128.763984
19793.617237,-4737.318029,-8438.347739,-4366.744339
19793.617570,-3034.844362,-10362.883188,-2528.115143
19793.617903,592.164754,-7476.080014,-689.485948
19793.618236,4663.297435,-9474.636058,4673.182538
19793.618569,3923.091493,-6587.832884,3370.820191
19793.618902,7031.956449,-9474.636058,1762.019645
19793.619235,3330.926739,-8364.327145,1838.629195
19793.619568,2368.659014,-10140.821405,1532.190996
19793.619901,3404.947333,-11177.109724,842.705048
19793.620234,0.000000,-11621.233289,-995.924147
19793.620567,-2960.823768,-10510.924376,-2987.772442
19793.620900,-3701.029710,-11103.089130,-1608.800546
19793.621233,-4737.318029,-8512.368333,-1762.019645
19793.621566,-4737.318029,-8956.491898,1532.190996
19793.621899,-1258.350101,-5477.523971,0.000000
19793.622232,0.000000,-7179.997637,7124.688131
19793.622565,4071.132681,-7105.977043,8503.660028
19793.622898,4663.297435,-7105.977043,4213.525239
19793.623231,4663.297435,-5921.647536,2451.505594
19793.623564,3478.967927,-7476.080014,-76.609550
19793.623898,1554.432478,-9030.512492,-4290.134789
19793.624231,-1628.453072,-13323.706956,-6818.249932
19793.624564,-2442.679609,-16432.571912,-6205.373534
19793.624897,-6513.812290,-12509.480420,-5515.887586
19793.625230,-3552.988522,-13101.645173,-2145.067394
19793.625563,-74.020594,-10658.965565,-229.828649
19793.625896,0.000000,-6587.832884,3677.258390
19793.626229,4071.132681,-6217.729913,6741.640382
19793.626562,4515.256246,-6291.750507,9116.536426
19793.626895,2960.823768,-6809.894666,7201.297681
19793.627228,1184.329507,-7624.121203,5286.058936
19793.627561,-1258.350101,-7698.141797,-689.485948
19793.627894,-3552.988522,-8068.244768,-153.219100
19793.628227,-2442.679609,-10066.800811,-3753.867940
19793.628560,-1258.350101,-9474.636058,-6205.373534
19793.628893,-4737.318029,-8364.327145,-4596.572988
19793.629226,-74.020594,-9104.533087,-4903.011187
19793.629559,-148.041188,-10510.924376,-2298.286494
19793.629892,1184.329507,-9622.677246,-612.876398
19793.630225,2664.741391,-10955.047942,2068.457845
19793.630558,4071.132681,-8586.388927,1685.410096
19793.630892,4663.297435,-9474.636058,4443.353888
19793.631225,2368.659014,-8956.491898,4136.915689
19793.631558,888.247130,-9104.533087,2374.896044
19793.631891,0.000000,-9030.512492,2757.943793
19793.632224,-1258.350101,-10362.883188,-995.924147
19793.632557,-3552.988522,-6587.832884,-2451.505594
19793.632890,-4737.318029,-9104.533087,995.924147
19793.633223,-666.185348,-6957.935855,-1685.410096
19793.633556,-2368.659014,-7772.162391,612.876398
19793.633889,2294.638420,-7179.997637,459.657299
19793.634222,3552.988522,-7105.977043,1915.238745
19793.634555,4293.194464,-7698.141797,995.924147
19793.634888,5847.626942,-11103.089130,1149.143247
19793.635221,5847.626942,-11843.295072,-689.485948
19793.635554,0.000000,-11621.233289,-229.828649
19793.635887,3478.967927,-13027.624579,-1608.800546
19793.636220,-592.164754,-11621.233289,-2298.286494
19793.636553,592.164754,-10140.821405,1991.848295
19793.636886,-518.144159,-9178.553681,153.219100
19793.637219,-592.164754,-8586.388927,76.609550
19793.637553,-1480.411884,-9770.718434,1225.752797
19793.637886,-2442.679609,-8290.306550,1072.533697
19793.638219,-74.020594,-6809.894666,842.705048
19793.638552,0.000000,-8808.450710,5439.278036
19793.638885,1110.308913,-7994.224174,1455.581446
19793.639218,2294.638420,-4811.338623,2757.943793
19793.639551,2294.638420,-7698.141797,1762.019645
19793.639884,3182.885551,-6883.915261,-229.828649
19793.640217,592.164754,-10288.862594,-3064.381992
19793.640550,-814.226536,-11695.253884,-5056.230287
19793.640883,-3552.988522,-11029.068536,-6128.763984
19793.641216,-2442.679609,-11473.192101,-7048.078582
19793.641549,-1776.494261,-13101.645173,-76.609550
19793.641882,1110.308913,-10955.047942,-919.314598
19793.642215,1480.411884,-8660.409521,2451.505594
19793.642548,1480.411884,-8068.244768,5132.839837
19793.642881,1776.494261,-8290.306550,6358.592633
19793.643214,2072.576638,-6809.894666,6665.030833
19793.643547,888.247130,-5477.523971,5056.230287
19793.643880,2738.761985,-7105.977043,4060.306139
19793.644214,-2368.659014,-6587.832884,612.876398
19793.644547,-74.020594,-9474.636058,-2528.115143
19793.644880,-74.020594,-8290.306550,-6358.592633
19793.645213,-1776.494261,-9548.656652,-4749.792088
19793.645546,-2072.576638,-11029.068536,-6052.154434
19793.645879,-888.247130,-13027.624579,-4673.182538
19793.646212,-370.102971,-12361.439231,-2221.676944
19793.646545,2146.597232,-10362.883188,1762.019645
19793.646878,7031.956449,-10658.965565,6971.469032
19793.647211,5625.565159,-8956.491898,9116.536426
19793.647544,2812.782580,-7550.100608,5822.325785
19793.647877,1628.453072,-7328.038826,3370.820191
19793.648210,-592.164754,-8660.409521,766.095498
19793.648543,-2368.659014,-10288.862594,0.000000
19793.648876,-5181.441594,-7179.997637,-4519.963438
19793.649209,-4737.318029,-11843.295072,-1302.362347
19793.649542,-4811.338623,-8438.347739,-3064.381992
19793.649875,-2442.679609,-8882.471304,-995.924147
19793.650208,1924.535449,-7402.059420,2681.334243
19793.650541,2368.659014,-6883.915261,3064.381992
19793.650874,3330.926739,-7031.956449,1915.238745
19793.651208,4293.194464,-8808.450710,1762.019645
19793.651541,4071.132681,-9474.636058,-76.609550
19793.651874,296.082377,-9844.739029,0.000000
19793.652207,592.164754,-11917.315666,-459.657299
19793.652540,-74.020594,-11843.295072,-4596.572988
19793.652873,-4737.318029,-10732.986159,-2451.505594
19793.653206,-2442.679609,-11843.295072,-3753.867940
19793.653539,-4219.173869,-11251.130318,-919.314598
19793.653872,-1628.453072,-9770.718434,2451.505594
19793.654205,666.185348,-6957.935855,6128.763984
19793.654538,1702.473667,-4959.379811,6971.469032
19793.654871,1184.329507,-4811.338623,9039.926876
19793.655204,4663.297435,-5921.647536,5439.278036
19793.655537,3478.967927,-3923.091493,0.000000
19793.655870,4145.153275,-8512.368333,1685.410096
19793.656203,-370.102971,-9252.574275,-6894.859482
19793.656536,-2368.659014,-13323.706956,-8503.660028
19793.656869,-4663.297435,-14211.954086,-8963.317327
19793.657202,-2812.782580,-13101.645173,-7354.516781
19793.657535,-2368.659014,-11917.315666,-3983.696590
19793.657869,2368.659014,-12065.356855,4826.401637
19793.658202,3775.050304,-8586.388927,4903.011187
19793.658535,3552.988522,-5995.668130,6741.640382
19793.658868,6513.812290,-7920.203579,12180.918418
19793.659201,4367.215058,-5477.523971,6435.202183
19793.659534,3034.844362,-6957.935855,4979.620737
19793.659867,-518.144159,-7476.080014,1149.143247
19793.660200,-3849.070898,-9178.553681,-3217.601092
19793.660533,-4737.318029,-8956.491898,-7354.516781
19793.660866,-3997.112087,-9992.780217,-6052.154434
19793.661199,-1998.556043,-8734.430116,-5056.230287
19793.661532,-1184.329507,-9918.759623,-2911.162892
19793.661865,3478.967927,-10955.047942,-76.609550
19793.662198,3478.967927,-9548.656652,459.657299
19793.662531,3849.070898,-8956.491898,4060.306139
19793.662864,7031.956449,-11695.253884,5439.278036
19793.663197,3923.091493,-9548.656652,2528.115143
19793.663530,3108.864956,-10362.883188,3983.696590
19793.663863,-74.020594,-9474.636058,229.828649
19793.664196,-3330.926739,-11177.109724,-1532.190996
19793.664530,-3404.947333,-10214.842000,-1149.143247
19793.664863,-5699.585753,-9326.594869,-2528.115143
19793.665196,-3849.070898,-7105.977043,-1302.362347
19793.665529,-5921.647536,-9548.656652,2987.772442
19793.665862,-666.185348,-8290.306550,2374.896044
19793.666195,2590.720797,-7105.977043,4826.401637
19793.666528,3478.967927,-5625.565159,3600.648841
19793.666861,2960.823768,-7254.018232,1915.238745
19793.667194,1924.535449,-9252.574275,-536.266849
19793.667527,-222.061783,-10732.986159,-2987.772442
19793.667860,-3552.988522,-11325.150913,-4903.011187
19793.668193,-2442.679609,-13027.624579,-5592.497135
19793.668526,-3552.988522,-13101.645173,-76.609550
19793.668859,-74.020594,-10658.965565,-76.609550
19793.669192,0.000000,-6661.853478,919.314598
19793.669525,0.000000,-7328.038826,3983.696590
19793.669858,1628.453072,-7179.997637,4749.792088
19793.670191,1998.556043,-7031.956449,5286.058936
19793.670524,888.247130,-6661.853478,4213.525239
19793.670857,-74.020594,-9474.636058,2987.772442
19793.671190,0.000000,-5995.668130,0.000000
19793.671524,2886.803174,-9474.636058,-76.609550
19793.671857,2886.803174,-6587.832884,-2451.505594
19793.672190,1480.411884,-9622.677246,-1302.362347
19793.672523,2590.720797,-10658.965565,-4136.915689
19793.672856,592.164754,-11177.109724,-3600.648841
19793.673189,2220.617826,-10584.944971,-4213.525239
19793.673522,2368.659014,-11547.212695,-2451.505594
19793.673855,4293.194464,-11103.089130,229.828649
19793.674188,4737.318029,-11917.315666,6128.763984
19793.674521,4663.297435,-9474.636058,2987.772442
19793.674854,2368.659014,-7476.080014,1225.752797
19793.675187,3701.029710,-11103.089130,6052.154434
19793.675520,3849.070898,-9178.553681,6205.373534
19793.675853,1702.473667,-7031.956449,4136.915689
19793.676186,0.000000,-6291.750507,1762.019645
19793.676519,-296.082377,-6661.853478,-459.657299
19793.676852,-1258.350101,-8290.306550,-2374.896044
19793.677185,0.000000,-7772.162391,-2145.067394
19793.677518,-2146.597232,-9474.636058,-4903.011187
19793.677851,74.020594,-9770.718434,-4979.620737
19793.678185,296.082377,-11399.171507,-2451.505594
19793.678518,2294.638420,-11251.130318,-1302.362347
19793.678851,592.164754,-10881.027347,1225.752797
19793.679184,4441.235652,-12435.459826,6052.154434
19793.679517,3182.885551,-8068.244768,3064.381992
19793.679850,1924.535449,-8364.327145,4290.134789
19793.680183,1332.370696,-10658.965565,3600.648841
19793.680516,-1110.308913,-9178.553681,1225.752797
19793.680849,-2442.679609,-9844.739029,459.657299
19793.681182,-3775.050304,-9252.574275,-995.924147
19793.681515,-5995.668130,-7179.997637,-3064.381992
19793.681848,-6513.812290,-9548.656652,0.000000
19793.682181,-74.020594,-7994.224174,1149.143247
19793.682514,1406.391290,-4811.338623,0.000000
19793.682847,3552.988522,-6587.832884,3600.648841
19793.683180,5847.626942,-7550.100608,2068.457845
19793.683513,4293.194464,-7624.121203,306.438199
19793.683846,3627.009116,-10955.047942,-995.924147
19793.684179,-592.164754,-11621.233289,-4136.915689
19793.684512,-1776.494261,-11917.315666,-4596.572988
19793.684846,-2368.659014,-13101.645173,-153.219100
19793.685179,-1258.350101,-10732.986159,-3677.258390
19793.685512,-2812.782580,-10955.047942,-2451.505594
19793.685845,-1184.329507,-10807.006753,3294.210641
19793.686178,-370.102971,-7254.018232,5209.449386
19793.686511,222.061783,-5699.585753,7354.516781
19793.686844,1628.453072,-5107.421000,6665.030833
19793.687177,2368.659014,-5773.606348,7048.078582
19793.687510,3478.967927,-6809.894666,4826.401637
19793.687843,1776.494261,-7920.203579,2374.896044
19793.688176,-1258.350101,-5107.421000,-6741.640382
19793.688509,-2368.659014,-11769.274478,-5592.497135
19793.688842,-3256.906145,-13249.686362,-6818.249932
19793.689175,-3034.844362,-14285.974681,-6818.249932
19793.689508,-5773.606348,-14063.912898,-4979.620737
19793.689841,-2664.741391,-11917.315666,-2221.676944
19793.690174,2516.700203,-10066.800811,3983.696590
19793.690507,3849.070898,-6291.750507,8580.269578
19793.690840,6439.791695,-5921.647536,7354.516781
19793.691173,3256.906145,-6587.832884,7354.516781
19793.691506,4071.132681,-9178.553681,6971.469032
19793.691840,-518.144159,-7179.997637,2451.505594
19793.692173,-2664.741391,-9252.574275,-76.609550
19793.692506,-4959.379811,-10362.883188,-5669.106685
19793.692839,-6291.750507,-10807.006753,-5822.325785
19793.693172,-3330.926739,-9104.533087,-4290.134789
19793.693505,-2812.782580,-7476.080014,-3677.258390
19793.693838,1850.514855,-8438.347739,-229.828649
19793.694171,3182.885551,-9104.533087,2681.334243
19793.694504,5773.606348,-8882.471304,4213.525239
19793.694837,5107.421000,-8068.244768,3600.648841
19793.695170,3330.926739,-10066.800811,3600.648841
19793.695503,6957.935855,-11177.109724,3600.648841
19793.695836,2294.638420,-9696.697840,-1225.752797
19793.696169,-1480.411884,-10807.006753,-2451.505594
19793.696502,-4145.153275,-10140.821405,-4903.011187
19793.696835,-4515.256246,-9770.718434,-4903.011187
19793.697168,-2664.741391,-9696.697840,-766.095498
19793.697501,-2368.659014,-9400.615463,2068.457845
19793.697834,666.185348,-7105.977043,3753.867940
19793.698167,1776.494261,-4885.359217,5132.839837
19793.698501,5847.626942,-8290.306550,7277.907231
19793.698834,5847.626942,-4737.318029,1762.019645
19793.699167,3701.029710,-7179.997637,2451.505594
19793.699500,4663.297435,-9474.636058,-689.485948
19793.699833,1554.432478,-9548.656652,-3677.258390
19793.700166,-222.061783,-12435.459826,-5745.716235
19793.700499,-2886.803174,-13841.851115,-6205.373534
19793.700832,-2886.803174,-11843.295072,-4519.963438
19793.701165,-2220.617826,-11621.233289,-2911.162892
19793.701498,-2368.659014,-10140.821405,2374.896044
19793.701831,1702.473667,-7698.141797,2374.896044
19793.702164,1406.391290,-4811.338623,5209.449386
19793.702497,4367.215058,-9178.553681,9729.412825
19793.702830,592.164754,-5699.585753,5515.887586
19793.703163,740.205942,-7179.997637,3524.039291
19793.703496,-1850.514855,-7624.121203,842.705048
19793.703829,-962.267725,-8290.306550,-1302.362347
19793.704162,-2368.659014,-9252.574275,-3370.820191
19793.704495,-74.020594,-11843.295072,-2528.115143
19793.704828,-1258.350101,-8808.450710,-5515.887586
19793.705162,0.000000,-9548.656652,-4903.011187
19793.705495,962.267725,-13915.871710,-76.609550
19793.705828,0.000000,-9548.656652,-1838.629195
19793.706161,3034.844362,-11103.089130,2374.896044
19793.706494,3701.029710,-9474.636058,3983.696590
19793.706827,3182.885551,-9104.533087,3983.696590
19793.707160,444.123565,-9252.574275,3064.381992
19793.707493,-74.020594,-8438.347739,2528.115143
19793.707826,-740.205942,-8734.430116,2068.457845
19793.708159,-1998.556043,-7550.100608,1378.971896
19793.708492,-1258.350101,-7698.141797,-76.609550
19793.708825,-1850.514855,-7254.018232,-1685.410096
19793.709158,0.000000,-7179.997637,-76.609550
19793.709491,-74.020594,-10584.944971,-76.609550
19793.709824,1702.473667,-7179.997637,-2451.505594
19793.710157,2886.803174,-10510.924376,1149.143247
19793.710490,1702.473667,-10584.944971,-1915.238745
19793.710823,1850.514855,-11103.089130,-995.924147
19793.711156,1998.556043,-10436.903782,459.657299
19793.711489,1184.329507,-8512.368333,612.876398
19793.711822,4663.297435,-10288.862594,0.000000
19793.712156,2442.679609,-12435.459826,2374.896044
19793.712489,-74.020594,-7994.224174,0.000000
19793.712822,-666.185348,-8660.409521,-919.314598
19793.713155,-2220.617826,-9178.553681,-229.828649
19793.713488,-3552.988522,-9696.697840,0.000000
19793.713821,-2442.679609,-8808.450710,-76.609550
19793.714154,-666.185348,-8216.285956,2221.676944
19793.714487,0.000000,-8068.244768,3370.820191
19793.714820,2294.638420,-6513.812290,1915.238745
19793.715153,4737.318029,-7550.100608,4826.401637
19793.715486,4367.215058,-7105.977043,689.485948
19793.715819,2368.659014,-7772.162391,-2145.067394
19793.716152,1184.329507,-11029.068536,-2451.505594
19793.716485,-666.185348,-11843.295072,-4519.963438
19793.716818,-2368.659014,-11917.315666,-4673.182538
19793.717151,-1924.535449,-12657.521608,-3983.696590
19793.717484,-2146.597232,-14211.954086,-1915.238745
19793.717817,-4737.318029,-8364.327145,0.000000
19793.718150,-74.020594,-8882.471304,2681.334243
19793.718483,222.061783,-5995.668130,4290.134789
19793.718817,1776.494261,-8808.450710,8503.660028
19793.719150,2294.638420,-5921.647536,7277.907231
19793.719483,74.020594,-6957.935855,6052.154434
19793.719816,0.000000,-5551.544565,2298.286494
19793.720149,-962.267725,-7994.224174,-995.924147
19793.720482,-1628.453072,-7772.162391,-4749.792088
19793.720815,-2072.576638,-11029.068536,-3140.991542
19793.721149,-1258.350101,-9548.656652,-9499.584175
19793.721482,-3256.906145,-13693.809927,-7354.516781
19793.721815,-222.061783,-14211.954086,-4979.620737
19793.722148,1702.473667,-13027.624579,-383.047749
19793.722481,2146.597232,-9548.656652,3064.381992
19793.722815,6513.812290,-11251.130318,7354.516781
19793.723148,6143.709319,-6957.935855,7584.345430
19793.723481,4737.318029,-6365.771101,6894.859482
19793.723814,4737.318029,-6883.915261,7201.297681
19793.724147,518.144159,-8808.450710,2451.505594
19793.724481,-3552.988522,-8956.491898,-1685.410096
19793.724814,-5995.668130,-10584.944971,-5132.839837
19793.725147,-6217.729913,-7920.203579,-6128.763984
19793.725480,-4145.153275,-11029.068536,-1608.800546
19793.725813,-74.020594,-8290.306550,-1302.362347
19793.726147,2886.803174,-6513.812290,0.000000
19793.726480,4145.153275,-7105.977043,3447.429741
19793.726813,5551.544565,-8882.471304,3294.210641
19793.727146,5551.544565,-8882.471304,3294.210641
19793.727480,3552.988522,-8364.327145,919.314598
19793.727813,2368.659014,-9844.739029,-842.705048
19793.728146,962.267725,-13027.624579,-1225.752797
19793.728479,-2368.659014,-13101.645173,-383.047749
19793.728812,-4219.173869,-10288.862594,-4903.011187
19793.729146,-4293.194464,-11695.253884,-4290.134789
19793.729479,-3627.009116,-10658.965565,-459.657299
19793.729812,-1480.411884,-9326.594869,2451.505594
19793.730145,888.247130,-5773.606348,7354.516781
19793.730478,2664.741391,-4515.256246,8120.612279
19793.730812,3849.070898,-6143.709319,7201.297681
19793.731145,4663.297435,-6513.812290,4213.525239
19793.731478,2368.659014,-8068.244768,1149.143247
19793.731811,0.000000,-6587.832884,-4596.572988
19793.732144,-2664.741391,-13915.871710,-6818.249932
19793.732478,-4811.338623,-15100.201217,-8810.098227
19793.732811,-4959.379811,-13619.789333,-7431.126331
19793.733144,-2442.679609,-12805.562797,-4290.134789
19793.733477,-962.267725,-11547.212695,229.828649
19793.733811,888.247130,-8364.327145,4826.401637
19793.734144,1184.329507,-5403.503377,7354.516781
19793.734477,4663.297435,-7105.977043,7890.783629
19793.734810,2368.659014,-6735.874072,6741.640382
19793.735143,2960.823768,-9474.636058,7277.907231
19793.735477,-962.267725,-6587.832884,1225.752797
19793.735810,-3256.906145,-6291.750507,-1225.752797
19793.736143,-3849.070898,-9696.697840,-3370.820191
19793.736476,-3478.967927,-8660.409521,-5745.716235
19793.736809,-2294.638420,-9918.759623,-4366.744339
19793.737143,1184.329507,-9178.553681,-2298.286494
19793.737476,1998.556043,-8364.327145,-3677.258390
19793.737809,3552.988522,-11843.295072,-76.609550
19793.738142,4367.215058,-11251.130318,842.705048
19793.738475,2960.823768,-9548.656652,3983.696590
19793.738809,5329.482782,-9548.656652,4060.306139
19793.739142,4219.173869,-9918.759623,3983.696590
19793.739475,3182.885551,-9030.512492,2374.896044
19793.739808,1628.453072,-8586.388927,1762.019645
19793.740142,1184.329507,-10214.842000,2451.505594
19793.740475,-74.020594,-8438.347739,-919.314598
19793.740808,-1554.432478,-8882.471304,-536.266849
19793.741141,-1258.350101,-8512.368333,-1762.019645
19793.741474,-2220.617826,-8808.450710,-919.314598
19793.741808,296.082377,-8364.327145,0.000000
19793.742141,4367.215058,-6513.812290,1149.143247
19793.742474,3849.070898,-5107.421000,1225.752797
19793.742807,4885.359217,-9474.636058,1762.019645
19793.743140,4663.297435,-11251.130318,-76.609550
19793.743474,0.000000,-8956.491898,-919.314598
19793.743807,370.102971,-10436.903782,-3064.381992
19793.744140,-666.185348,-12139.377449,-2374.896044
19793.744473,-222.061783,-11473.192101,-536.266849
19793.744806,1110.308913,-10658.965565,-76.609550
19793.745140,2886.803174,-7994.224174,0.000000
19793.745473,0.000000,-10140.821405,1225.752797
19793.745806,-1184.329507,-10510.924376,3600.648841
19793.746139,-1628.453072,-7179.997637,766.095498
19793.746473,-2812.782580,-9252.574275,2374.896044
19793.746806,0.000000,-7476.080014,2221.676944
19793.747139,1110.308913,-7105.977043,3447.429741
19793.747472,2812.782580,-6513.812290,2757.943793
19793.747805,3478.967927,-7105.977043,-76.609550
19793.748139,1110.308913,-7179.997637,-2451.505594
19793.748472,1702.473667,-11843.295072,-2528.115143
19793.748805,-370.102971,-14211.954086,-3753.867940
19793.749138,-2738.761985,-11991.336260,-7354.516781
19793.749471,-2516.700203,-12435.459826,-3907.087040
19793.749805,-666.185348,-12953.603985,-76.609550
19793.750138,-518.144159,-9696.697840,3447.429741
19793.750471,-962.267725,-8956.491898,4903.011187
19793.750804,-1924.535449,-7476.080014,3983.696590
19793.751137,-1184.329507,-7179.997637,7354.516781
19793.751471,-74.020594,-7105.977043,4826.401637
19793.751804,-2072.576638,-4811.338623,3677.258390
19793.752137,-3552.988522,-5403.503377,2451.505594
19793.752470,-666.185348,-8290.306550,-1302.362347
19793.752803,-2960.823768,-7624.121203,-3447.429741
19793.753137,-2294.638420,-9104.533087,-5822.325785
19793.753470,-3330.926739,-10955.047942,-6971.469032
19793.753803,-2368.659014,-11917.315666,-6435.202183
19793.754136,-1258.350101,-13027.624579,-2298.286494
19793.754470,666.185348,-10881.027347,383.047749
19793.754803,2442.679609,-11399.171507,3447.429741
19793.755136,6735.874072,-10658.965565,9729.412825
19793.755469,6439.791695,-9474.636058,7277.907231
19793.755802,2590.720797,-5107.421000,3983.696590
19793.756136,1776.494261,-9178.553681,4826.401637
19793.756469,-74.020594,-9474.636058,-689.485948
19793.756802,-3552.988522,-8956.491898,-1838.629195
19793.757135,-4293.194464,-10066.800811,-3447.429741
19793.757468,-5625.565159,-9696.697840,-3447.429741
19793.757802,-2960.823768,-10140.821405,-1838.629195
19793.758135,814.226536,-8290.306550,-76.609550
19793.758468,2368.659014,-5995.668130,3983.696590
19793.758801,3775.050304,-4811.338623,2451.505594
19793.759134,7402.059420,-8290.306550,5286.058936
19793.759468,8216.285956,-10658.965565,3600.648841
19793.759801,5551.544565,-9474.636058,-76.609550
19793.760134,3478.967927,-13027.624579,-3140.991542
19793.760467,148.041188,-13101.645173,-4136.915689
19793.760801,-1628.453072,-12657.521608,-5056.230287
19793.761134,-2368.659014,-11325.150913,-4290.134789
19793.761467,-74.020594,-11843.295072,-76.609550
19793.761800,0.000000,-9548.656652,1225.752797
19793.762133,2960.823768,-8290.306550,8810.098227
19793.762467,4071.132681,-5477.523971,7890.783629
19793.762800,2664.741391,-3034.844362,5515.887586
19793.763133,5255.462188,-6513.812290,5515.887586
19793.763466,3478.967927,-6291.750507,2298.286494
19793.763799,3330.926739,-6661.853478,-1455.581446
19793.764133,0.000000,-9474.636058,-4673.182538
19793.764466,-370.102971,-11843.295072,-8963.317327
19793.764799,-3849.070898,-15544.324782,-6205.373534
19793.765132,-2442.679609,-15396.283594,-5592.497135
19793.765465,-4959.379811,-11325.150913,-5822.325785
19793.765799,-888.247130,-13175.665768,995.924147
19793.766132,2738.761985,-8290.306550,6052.154434
19793.766465,4589.276840,-6143.709319,10189.070123
19793.766798,4071.132681,-5477.523971,9499.584175
19793.767132,2516.700203,-6291.750507,7737.564530
19793.767465,-2960.823768,-6883.915261,2451.505594
19793.767798,-2220.617826,-9474.636058,1149.143247
19793.768131,-6291.750507,-9400.615463,-4903.011187
19793.768464,-8290.306550,-7772.162391,-6128.763984
19793.768798,-5921.647536,-11695.253884,-4290.134789
19793.769131,-4737.318029,-7179.997637,-4596.572988
19793.769464,-370.102971,-9178.553681,-1302.362347
19793.769797,1332.370696,-8290.306550,536.266849
19793.770130,3330.926739,-9474.636058,2834.553343
19793.770464,2294.638420,-6291.750507,1532.190996
19793.770797,3923.091493,-8882.471304,2145.067394
19793.771130,4219.173869,-10288.862594,2987.772442
19793.771463,2886.803174,-10584.944971,1991.848295
19793.771796,2294.638420,-11251.130318,1762.019645
19793.772130,-3034.844362,-11177.109724,-3370.820191
19793.772463,-3997.112087,-10732.986159,-2451.505594
19793.772796,-2738.761985,-11843.295072,-1302.362347
19793.773129,-2812.782580,-6291.750507,0.000000
19793.773463,-3552.988522,-7772.162391,4290.134789
19793.773796,1406.391290,-5847.626942,3217.601092
19793.774129,3627.009116,-7105.977043,6052.154434
19793.774462,3997.112087,-5477.523971,3447.429741
19793.774795,4663.297435,-6957.935855,383.047749
19793.775129,4663.297435,-4811.338623,-3677.258390
19793.775462,3627.009116,-12879.583391,-1608.800546
19793.775795,1702.473667,-13915.871710,-4979.620737
19793.776128,-2886.803174,-11917.315666,-7354.516781
19793.776461,-666.185348,-14211.954086,-4596.572988
19793.776795,962.267725,-12139.377449,-1302.362347
19793.777128,962.267725,-9696.697840,919.314598
19793.777461,814.226536,-8882.471304,2681.334243
19793.777794,592.164754,-5995.668130,3677.258390
19793.778127,3034.844362,-6069.688724,4903.011187
19793.778461,4071.132681,-8290.306550,6665.030833
19793.778794,444.123565,-5995.668130,1838.629195
19793.779127,-1184.329507,-6587.832884,1838.629195
19793.779460,0.000000,-7772.162391,-76.609550
19793.779794,740.205942,-8734.430116,-1302.362347
19793.780127,-1258.350101,-9178.553681,-3447.429741
19793.780460,-592.164754,-10140.821405,-4826.401637
19793.780793,-74.020594,-12435.459826,-1915.238745
19793.781126,0.000000,-10140.821405,-3370.820191
19793.781460,-74.020594,-14211.954086,-1302.362347
19793.781793,370.102971,-8956.491898,-2451.505594
19793.782126,2368.659014,-12139.377449,3983.696590
19793.782459,2368.659014,-9918.759623,3677.258390
19793.782792,1036.288319,-7920.203579,3753.867940
19793.783126,-888.247130,-8808.450710,4136.915689
19793.783459,-888.247130,-8364.327145,3677.258390
19793.783792,-370.102971,-7698.141797,2987.772442
19793.784125,-2368.659014,-9474.636058,3600.648841
19793.784458,-3775.050304,-5995.668130,0.000000
19793.784792,-4737.318029,-6587.832884,0.000000
19793.785125,-962.267725,-8882.471304,-1608.800546
19793.785458,-1850.514855,-9178.553681,-4596.572988
19793.785791,-1110.308913,-9178.553681,-4060.306139
19793.786125,-740.205942,-10140.821405,-2757.943793
19793.786458,296.082377,-10658.965565,-1532.190996
19793.786791,814.226536,-11251.130318,-689.485948
19793.787124,2442.679609,-11399.171507,2298.286494
19793.787457,3108.864956,-9770.718434,3753.867940
19793.787791,4885.359217,-9474.636058,4443.353888
19793.788124,2072.576638,-8734.430116,2911.162892
19793.788457,2294.638420,-9474.636058,2068.457845
19793.788790,-1776.494261,-9548.656652,0.000000
19793.789123,-814.226536,-11843.295072,-689.485948
19793.789457,-5107.421000,-7476.080014,-2451.505594
19793.789790,-4737.318029,-8364.327145,-1225.752797
19793.790123,1702.473667,-7698.141797,229.828649
19793.790456,1850.514855,-7476.080014,3064.381992
19793.790789,4219.173869,-6365.771101,2757.943793
19793.791123,5107.421000,-6957.935855,3600.648841
19793.791456,4737.318029,-6587.832884,1225.752797
19793.791789,5477.523971,-11251.130318,1455.581446
19793.792122,2294.638420,-13619.789333,-3140.991542
19793.792456,-2072.576638,-10732.986159,-4903.011187
19793.792789,-74.020594,-13915.871710,-2681.334243
19793.793122,-222.061783,-11621.233289,-4290.134789
19793.793455,-1850.514855,-11399.171507,-1762.019645
19793.793788,-1850.514855,-9918.759623,-612.876398
19793.794122,-222.061783,-9252.574275,3983.696590
19793.794455,0.000000,-5403.503377,6281.983084
19793.794788,3552.988522,-8882.471304,9116.536426
19793.795121,2368.659014,-3627.009116,6281.983084
19793.795454,0.000000,-5995.668130,6741.640382
19793.795788,2738.761985,-8882.471304,1762.019645
19793.796121,0.000000,-7179.997637,-2451.505594
19793.796454,-1776.494261,-9548.656652,-6281.983084
19793.796787,-3552.988522,-11621.233289,-7584.345430
19793.797120,-4737.318029,-14211.954086,-8120.612279
19793.797454,-4441.235652,-13989.892304,-5515.887586
19793.797787,-1258.350101,-14211.954086,-3753.867940
19793.798120,814.226536,-9548.656652,2451.505594
19793.798453,4737.318029,-8882.471304,10418.898773
19793.798787,7031.956449,-8290.306550,8503.660028
19793.799120,3552.988522,-4811.338623,9193.145976
19793.799453,3330.926739,-6809.894666,5898.935335
19793.799786,1258.350101,-8068.244768,2911.162892
19793.800119,-2738.761985,-9548.656652,-1991.848295
19793.800453,-5625.565159,-10658.965565,-5822.325785
19793.800786,-6291.750507,-11251.130318,-7048.078582
19793.801119,-3552.988522,-10584.944971,-4673.182538
19793.801452,-2146.597232,-9252.574275,-2681.334243
19793.801785,592.164754,-6809.894666,-1378.971896
19793.802119,2368.659014,-5995.668130,2451.505594
19793.802452,7254.018232,-9178.553681,4826.401637
19793.802785,7031.956449,-9474.636058,3600.648841
19793.803118,4145.153275,-7772.162391,2451.505594
19793.803451,4663.297435,-10066.800811,1149.143247
19793.803785,3552.988522,-10288.862594,0.000000
19793.804118,518.144159,-11547.212695,-2068.457845
19793.804451,-2220.617826,-11029.068536,-3907.087040
19793.804784,-4737.318029,-11917.315666,-3677.258390
19793.805118,-1258.350101,-10955.047942,-3677.258390
19793.805451,-1332.370696,-11843.295072,2068.457845
19793.805784,-74.020594,-6587.832884,2757.943793
19793.806117,1702.473667,-3923.091493,5515.887586
19793.806450,3849.070898,-5403.503377,6281.983084
19793.806784,4737.318029,-4811.338623,5515.887586
19793.807117,4367.215058,-6069.688724,1838.629195
19793.807450,3108.864956,-8142.265362,-1225.752797
19793.807783,1924.535449,-11695.253884,-2528.115143
19793.808116,-3034.844362,-11917.315666,-7967.393179
19793.808450,-3034.844362,-14211.954086,-8044.002729
19793.808783,-3627.009116,-11917.315666,-5975.544884
19793.809116,592.164754,-13027.624579,-1225.752797
19793.809449,592.164754,-11843.295072,3600.648841
19793.809782,2294.638420,-8290.306550,3600.648841
19793.810116,2368.659014,-6957.935855,6741.640382
19793.810449,2220.617826,-6143.709319,6205.373534
19793.810782,1110.308913,-6513.812290,4826.401637
19793.811115,0.000000,-5995.668130,4903.011187
19793.811449,-1554.432478,-6883.915261,0.000000
19793.811782,-2072.576638,-4811.338623,0.000000
19793.812115,-666.185348,-12435.459826,-2528.115143
19793.812448,-74.020594,-7105.977043,-5592.497135
19793.812781,-1258.350101,-11843.295072,-3447.429741
19793.813115,888.247130,-10066.800811,-3753.867940
19793.813448,814.226536,-11177.109724,-2451.505594
19793.813781,148.041188,-11621.233289,-2374.896044
19793.814114,4663.297435,-13619.789333,3600.648841
19793.814447,740.205942,-8364.327145,3064.381992
19793.814781,4145.153275,-10066.800811,6971.469032
19793.815114,-74.020594,-7550.100608,1532.190996
19793.815447,-74.020594,-8216.285956,3294.210641
19793.815780,-370.102971,-8734.430116,2834.553343
19793.816113,-3108.864956,-8808.450710,1838.629195
19793.816447,-2590.720797,-6661.853478,-766.095498
19793.816780,-5477.523971,-8734.430116,-1072.533697
19793.817113,-1480.411884,-8216.285956,-842.705048
19793.817446,-3552.988522,-8956.491898,-1072.533697
19793.817780,-296.082377,-7476.080014,-2068.457845
19793.818113,1998.556043,-7846.182985,-76.609550
19793.818446,518.144159,-7179.997637,-2451.505594
19793.818779,3182.885551,-11843.295072,-76.609550
19793.819112,1110.308913,-11547.212695,-1302.362347
19793.819446,0.000000,-9548.656652,0.000000
19793.819779,2516.700203,-11177.109724,1685.410096
19793.820111,1998.556043,-10510.924376,153.219100
19793.820444,296.082377,-9770.718434,2068.457845
19793.820777,-1776.494261,-9030.512492,383.047749
19793.821110,-1628.453072,-8660.409521,0.000000
19793.821444,-4145.153275,-9548.656652,612.876398
19793.821777,-3256.906145,-9992.780217,2374.896044
19793.822110,-2664.741391,-5995.668130,612.876398
19793.822443,-3552.988522,-5995.668130,2451.505594
19793.822777,2146.597232,-9474.636058,2987.772442
19793.823110,1184.329507,-4811.338623,2451.505594
19793.823443,4071.132681,-5699.585753,0.000000
19793.823776,3701.029710,-7772.162391,995.924147
19793.824110,1850.514855,-10140.821405,-1608.800546
19793.824443,1998.556043,-10955.047942,-3140.991542
19793.824776,1110.308913,-15100.201217,-2528.115143
19793.825109,0.000000,-10732.986159,-4290.134789
19793.825443,-74.020594,-13471.748144,-689.485948
19793.825776,814.226536,-11843.295072,-995.924147
19793.826109,0.000000,-9548.656652,3370.820191
19793.826442,2368.659014,-8364.327145,5056.230287
19793.826776,4441.235652,-7179.997637,6971.469032
19793.827109,3775.050304,-6809.894666,8350.440928
19793.827442,3330.926739,-5329.482782,5286.058936
19793.827775,3478.967927,-7698.141797,3294.210641
19793.828108,74.020594,-5403.503377,-1838.629195
19793.828442,0.000000,-8290.306550,-2528.115143
19793.828775,-592.164754,-10288.862594,-4366.744339
19793.829108,-74.020594,-11547.212695,-6205.373534
19793.829441,-2960.823768,-12805.562797,-6358.592633
19793.829775,-666.185348,-12361.439231,-4979.620737
19793.830108,-444.123565,-12805.562797,-1302.362347
19793.830441,1184.329507,-8364.327145,2451.505594
19793.830774,5255.462188,-7772.162391,4903.011187
19793.831108,5329.482782,-10066.800811,9806.022374
19793.831441,5847.626942,-8290.306550,6665.030833
19793.831774,0.000000,-7179.997637,4903.011187
19793.832107,-370.102971,-10584.944971,3294.210641
19793.832441,-5477.523971,-9178.553681,-2068.457845
19793.832774,-7254.018232,-9548.656652,-4979.620737
19793.833107,-7105.977043,-8216.285956,-4903.011187
19793.833440,-7105.977043,-8660.409521,-3983.696590
19793.833774,-2294.638420,-7328.038826,-1378.971896
19793.834107,0.000000,-5773.606348,2451.505594
19793.834440,2590.720797,-6661.853478,2834.553343
19793.834773,3775.050304,-7476.080014,2987.772442
19793.835106,2664.741391,-7476.080014,2528.115143
19793.835440,4663.297435,-11843.295072,1762.019645
19793.835773,1406.391290,-8956.491898,-2145.067394
19793.836106,0.000000,-13027.624579,-612.876398
19793.836439,-666.185348,-13323.706956,-1838.629195
19793.836773,-5921.647536,-10140.821405,-3677.258390
19793.837106,-4293.194464,-10881.027347,-3064.381992
19793.837439,-3997.112087,-9400.615463,-306.438199
19793.837772,-222.061783,-7846.182985,3524.039291
19793.838106,0.000000,-5403.503377,5515.887586
19793.838439,2886.803174,-4293.194464,5132.839837
19793.838772,2738.761985,-3923.091493,3830.477490
19793.839105,4737.318029,-7920.203579,5439.278036
19793.839439,4367.215058,-7105.977043,-383.047749
19793.839772,2368.659014,-9326.594869,-1608.800546
19793.840105,-592.164754,-11399.171507,-7048.078582
19793.840438,-1998.556043,-13545.768739,-7890.783629
19793.840771,-3552.988522,-13545.768739,-7431.126331
19793.841105,-74.020594,-13915.871710,-2528.115143
19793.841438,-74.020594,-9548.656652,-2451.505594
19793.841771,2516.700203,-9844.739029,2451.505594
19793.842104,6439.791695,-8882.471304,6052.154434
19793.842438,3997.112087,-4811.338623,6741.640382
19793.842771,6143.709319,-7105.977043,7584.345430
19793.843104,2442.679609,-8364.327145,5975.544884
19793.843437,888.247130,-7105.977043,2757.943793
19793.843771,-2220.617826,-8364.327145,-383.047749
19793.844104,-2146.597232,-9178.553681,-3753.867940
19793.844437,-5921.647536,-7772.162391,-4290.134789
19793.844770,-2146.597232,-10658.965565,-4366.744339
19793.845104,-74.020594,-9474.636058,-4979.620737
19793.845437,-2368.659014,-7476.080014,-4290.134789
19793.845770,3330.926739,-9474.636058,-1302.362347
19793.846103,2294.638420,-10510.924376,1149.143247
19793.846437,4071.132681,-9474.636058,2374.896044
19793.846770,3404.947333,-9770.718434,2451.505594
19793.847103,2886.803174,-11843.295072,3600.648841
19793.847436,592.164754,-9326.594869,2298.286494
19793.847769,-1480.411884,-9844.739029,1225.752797
19793.848103,-2368.659014,-9770.718434,229.828649
19793.848436,-4737.318029,-9548.656652,306.438199
19793.848769,-2738.761985,-9474.636058,1149.143247
19793.849102,-3997.112087,-5699.585753,0.000000
19793.849436,-5329.482782,-5403.503377,1225.752797
19793.849769,-74.020594,-8882.471304,1149.143247
19793.850102,0.000000,-5107.421000,0.000000
19793.850435,2294.638420,-7994.224174,1149.143247
19793.850769,1924.535449,-8660.409521,0.000000
19793.851102,2368.659014,-10807.006753,-612.876398
19793.851435,2590.720797,-11843.295072,-76.609550
19793.851768,1110.308913,-13841.851115,-76.609550
19793.852102,-1850.514855,-10732.986159,-2451.505594
19793.852435,296.082377,-12435.459826,612.876398
19793.852768,-74.020594,-10658.965565,-689.485948
19793.853101,296.082377,-9844.739029,0.000000
19793.853435,-74.020594,-8882.471304,1915.238745
19793.853768,370.102971,-8586.388927,2834.553343
19793.854101,148.041188,-6661.853478,4213.525239
19793.854434,-74.020594,-6217.729913,2987.772442
19793.854767,0.000000,-8734.430116,3294.210641
19793.855101,0.000000,-5995.668130,3677.258390
19793.855434,2294.638420,-8290.306550,995.924147
19793.855767,1036.288319,-6069.688724,-1532.190996
19793.856100,1702.473667,-9178.553681,-1302.362347
19793.856434,962.267725,-10584.944971,-4903.011187
19793.856767,-74.020594,-11547.212695,-4290.134789
19793.857100,222.061783,-12583.501014,-4903.011187
19793.857433,-2368.659014,-10732.986159,-3677.258390
19793.857767,2294.638420,-11843.295072,-2528.115143
19793.858100,1184.329507,-11843.295072,5209.449386
19793.858433,3478.967927,-9474.636058,3294.210641
19793.858766,592.164754,-8068.244768,6128.763984
19793.859100,2664.741391,-6587.832884,7431.126331
19793.859433,2220.617826,-6291.750507,6818.249932
19793.859766,2146.597232,-5551.544565,4290.134789
19793.860099,-444.123565,-7550.100608,766.095498
19793.860433,-296.082377,-9474.636058,-459.657299
19793.860766,-2442.679609,-7476.080014,-6128.763984
19793.861099,-666.185348,-10658.965565,-4979.620737
19793.861432,-1850.514855,-11843.295072,-6205.373534
19793.861765,-3552.988522,-10140.821405,-3677.258390
19793.862099,0.000000,-10732.986159,-1608.800546
19793.862432,74.020594,-9252.574275,612.876398
19793.862765,2812.782580,-9770.718434,2911.162892
19793.863098,3701.029710,-9622.677246,5898.935335
19793.863432,5033.400406,-8586.388927,7660.954980
19793.863765,2590.720797,-6735.874072,3830.477490
19793.864098,0.000000,-9400.615463,1915.238745
19793.864431,-1702.473667,-9178.553681,-1378.971896
19793.864765,-4663.297435,-11473.192101,-2068.457845
19793.865098,-5625.565159,-9548.656652,-3064.381992
19793.865431,-5403.503377,-8660.409521,-4596.572988
19793.865764,-4737.318029,-9252.574275,-76.609550
19793.866098,2886.803174,-7698.141797,1762.019645
19793.866431,2368.659014,-5625.565159,4213.525239
19793.866764,4737.318029,-5699.585753,5056.230287
19793.867097,5551.544565,-6587.832884,3677.258390
19793.867431,3923.091493,-9252.574275,919.314598
19793.867764,3330.926739,-9770.718434,-1762.019645
19793.868097,1110.308913,-13027.624579,-3140.991542
19793.868430,-74.020594,-11177.109724,-6741.640382
19793.868763,-2072.576638,-13989.892304,-995.924147
19793.869097,-74.020594,-11843.295072,-3753.867940
19793.869430,-2886.803174,-10140.821405,-2145.067394
19793.869763,-592.164754,-10066.800811,2987.772442
19793.870096,1998.556043,-7402.059420,6741.640382
19793.870430,3997.112087,-4071.132681,8810.098227
19793.870763,4441.235652,-4293.194464,7354.516781
19793.871096,4367.215058,-6217.729913,5439.278036
19793.871429,1258.350101,-4811.338623,2451.505594
19793.871763,4663.297435,-7994.224174,-1915.238745
19793.872096,0.000000,-8364.327145,-6818.249932
19793.872429,-2812.782580,-10732.986159,-8886.707777
19793.872762,-2442.679609,-15100.201217,-8656.879127
19793.873096,-2368.659014,-12953.603985,-6665.030833
19793.873429,-2072.576638,-13323.706956,-3907.087040
19793.873762,0.000000,-10732.986159,612.876398
19793.874095,2516.700203,-9548.656652,5822.325785
19793.874428,3552.988522,-6587.832884,9806.022374
19793.874762,6439.791695,-6513.812290,7277.907231
19793.875095,1480.411884,-5995.668130,7354.516781
19793.875428,592.164754,-7772.162391,6435.202183
19793.875761,-74.020594,-9178.553681,1149.143247
19793.876095,-4441.235652,-9178.553681,-2528.115143
19793.876428,-5625.565159,-9178.553681,-5209.449386
19793.876761,-3627.009116,-9770.718434,-4749.792088
19793.877094,-2368.659014,-8364.327145,-4290.134789
19793.877428,0.000000,-7920.203579,-1762.019645
19793.877761,1554.432478,-9474.636058,-1302.362347
19793.878094,3923.091493,-8660.409521,689.485948
19793.878427,4663.297435,-11843.295072,3600.648841
19793.878761,4663.297435,-9474.636058,-76.609550
19793.879094,1850.514855,-9548.656652,1225.752797
19793.879427,3997.112087,-11547.212695,4826.401637
19793.879760,4663.297435,-9474.636058,1762.019645
19793.880094,-1776.494261,-11473.192101,1225.752797
19793.880427,-2146.597232,-10362.883188,-995.924147
19793.880760,-5477.523971,-11029.068536,-1225.752797
19793.881093,-3627.009116,-8586.388927,229.828649
19793.881426,-5107.421000,-7994.224174,383.047749
19793.881760,-3552.988522,-5995.668130,2604.724693
19793.882093,-962.267725,-4811.338623,2451.505594
19793.882426,2886.803174,-7105.977043,4826.401637
19793.882759,3478.967927,-5921.647536,-76.609550
19793.883093,2590.720797,-7698.141797,1149.143247
19793.883426,2294.638420,-9474.636058,-2528.115143
19793.883759,-1184.329507,-11917.315666,-4366.744339
19793.884092,-3404.947333,-13323.706956,-6205.373534
19793.884426,-3182.885551,-13693.809927,-4903.011187
19793.884759,-74.020594,-14211.954086,-689.485948
19793.885092,0.000000,-11029.068536,0.000000
19793.885425,-74.020594,-10362.883188,2987.772442
19793.885759,0.000000,-6143.709319,2451.505594
19793.886092,0.000000,-5995.668130,5209.449386
19793.886425,1702.473667,-5921.647536,5209.449386
19793.886758,148.041188,-7031.956449,4136.915689
19793.887092,-962.267725,-8068.244768,2757.943793
19793.887425,-1332.370696,-7328.038826,612.876398
19793.887758,-370.102971,-8290.306550,-1302.362347
19793.888091,-74.020594,-9474.636058,-1915.238745
19793.888424,-1776.494261,-10658.965565,-4060.306139
19793.888758,-2368.659014,-9548.656652,-3370.820191
19793.889091,1480.411884,-12731.542202,-2757.943793
19793.889424,-1776.494261,-9548.656652,-3677.258390
19793.889757,1554.432478,-10140.821405,-2221.676944
19793.890091,2516.700203,-10881.027347,1838.629195
19793.890424,4663.297435,-9622.677246,3907.087040
19793.890757,1776.494261,-7179.997637,1225.752797
19793.891090,4663.297435,-11843.295072,3600.648841
19793.891424,2072.576638,-7179.997637,3677.258390
19793.891757,0.000000,-8364.327145,5669.106685
19793.892090,1480.411884,-9474.636058,2451.505594
19793.892423,-1924.535449,-7179.997637,-1149.143247
19793.892757,-2368.659014,-9474.636058,-1915.238745
19793.893090,0.000000,-7994.224174,-1915.238745
19793.893423,-888.247130,-8216.285956,-2145.067394
19793.893756,0.000000,-5995.668130,-3677.258390
19793.894090,1628.453072,-8364.327145,-1685.410096
19793.894423,1850.514855,-10066.800811,-1149.143247
19793.894756,2960.823768,-9622.677246,-383.047749
19793.895089,2294.638420,-13323.706956,2068.457845
19793.895422,1998.556043,-8364.327145,612.876398
19793.895756,3404.947333,-11547.212695,6052.154434
19793.896089,2294.638420,-8216.285956,0.000000
19793.896422,296.082377,-8956.491898,1991.848295
19793.896755,-2368.659014,-9548.656652,153.219100
19793.897089,-2368.659014,-9918.759623,-1225.752797
19793.897422,-5699.585753,-10066.800811,-1455.581446
19793.897755,-4293.194464,-7920.203579,-2068.457845
19793.898088,-2442.679609,-7994.224174,842.705048
19793.898422,518.144159,-5477.523971,2451.505594
19793.898755,3775.050304,-7105.977043,4826.401637
19793.899088,5847.626942,-8290.306550,4826.401637
19793.899421,3478.967927,-5403.503377,1225.752797
19793.899755,3330.926739,-11547.212695,1762.019645
19793.900088,148.041188,-10584.944971,-3830.477490
19793.900421,-2516.700203,-12805.562797,-6128.763984
19793.900754,-2664.741391,-12953.603985,-5209.449386
19793.901088,-2368.659014,-11917.315666,-3677.258390
19793.901421,-3627.009116,-9844.739029,-4903.011187
19793.901754,-74.020594,-10658.965565,-76.609550
19793.902087,-1406.391290,-8216.285956,2911.162892
19793.902420,0.000000,-5403.503377,7354.516781
19793.902754,1332.370696,-3627.009116,7277.907231
19793.903087,1924.535449,-5107.421000,7431.126331
19793.903420,1332.370696,-4515.256246,4903.011187
19793.903753,1480.411884,-6809.894666,2068.457845
19793.904087,1480.411884,-8586.388927,-842.705048
19793.904420,-3552.988522,-8364.327145,-6128.763984
19793.904753,-1258.350101,-13027.624579,-8044.002729
19793.905086,-3182.885551,-11325.150913,-9193.145976
19793.905420,-2664.741391,-14804.118840,-6128.763984
19793.905753,-1924.535449,-11399.171507,-4903.011187
19793.906086,1554.432478,-11621.233289,1455.581446
19793.906419,5181.441594,-8438.347739,6128.763984
19793.906753,6365.771101,-6661.853478,8120.612279
19793.907086,5255.462188,-7105.977043,6665.030833
19793.907419,4145.153275,-7772.162391,7890.783629
19793.907752,1702.473667,-7328.038826,2451.505594
19793.908085,-2960.823768,-8364.327145,1225.752797
19793.908419,-3627.009116,-10658.965565,-3753.867940
19793.908752,-4959.379811,-11029.068536,-6665.030833
19793.909085,-3256.906145,-9770.718434,-4519.963438
19793.909418,-1480.411884,-10214.842000,-2528.115143
19793.909752,1036.288319,-7994.224174,-766.095498
19793.910085,4071.132681,-8290.306550,1149.143247
19793.910418,4589.276840,-8586.388927,3907.087040
19793.910751,5107.421000,-8068.244768,3294.210641
19793.911085,4219.173869,-9104.533087,2068.457845
19793.911418,2812.782580,-9548.656652,459.657299
19793.911751,4071.132681,-11251.130318,1149.143247
19793.912084,0.000000,-11917.315666,0.000000
19793.912418,-666.185348,-12731.542202,-3753.867940
19793.912751,-6513.812290,-10732.986159,-2451.505594
19793.913084,-5921.647536,-9548.656652,-2451.505594
19793.913417,-2442.679609,-10658.965565,842.705048
19793.913751,-1702.473667,-6439.791695,2528.115143
19793.914084,0.000000,-6143.709319,5515.887586
19793.914417,1628.453072,-4959.379811,6894.859482
19793.914750,3182.885551,-4589.276840,3907.087040
19793.915083,2368.659014,-6291.750507,4673.182538
19793.915417,2294.638420,-8290.306550,-1302.362347
19793.915750,0.000000,-8364.327145,-2451.505594
19793.916083,-592.164754,-14211.954086,-4366.744339
19793.916416,-3627.009116,-12287.418637,-9193.145976
19793.916750,-3330.926739,-14063.912898,-6281.983084
19793.917083,-370.102971,-13027.624579,-2604.724693
19793.917416,-296.082377,-11399.171507,766.095498
19793.917749,0.000000,-7179.997637,1838.629195
19793.918083,2664.741391,-9474.636058,8503.660028
19793.918416,4071.132681,-5329.482782,6665.030833
19793.918749,1998.556043,-4811.338623,6128.763984
19793.919082,1998.556043,-8290.306550,6665.030833
19793.919416,-1480.411884,-5995.668130,1225.752797
19793.919749,-1480.411884,-7846.182985,-842.705048
19793.920082,-1036.288319,-9030.512492,-2604.724693
19793.920415,-2442.679609,-9030.512492,-4519.963438
19793.920749,-1628.453072,-9992.780217,-3370.820191
19793.921082,1702.473667,-11843.295072,-4979.620737
19793.921415,-1480.411884,-10140.821405,-4290.134789
19793.921749,1628.453072,-11251.130318,-1302.362347
19793.922082,2294.638420,-13027.624579,-76.609550
19793.922415,2368.659014,-8364.327145,3677.258390
19793.922749,4663.297435,-8438.347739,4903.011187
19793.923082,3478.967927,-8660.409521,4903.011187
19793.923415,1480.411884,-7476.080014,5975.544884
19793.923748,888.247130,-9474.636058,2451.505594
19793.924082,-74.020594,-10658.965565,1455.581446
19793.924415,-2812.782580,-7772.162391,-612.876398
19793.924748,-3627.009116,-8660.409521,-1991.848295
19793.925082,-2442.679609,-7105.977043,-3294.210641
19793.925415,-2442.679609,-7920.203579,-2451.505594
19793.925748,888.247130,-9178.553681,-689.485948
19793.926081,3478.967927,-9474.636058,-76.609550
19793.926415,2220.617826,-6143.709319,0.000000
19793.926748,4663.297435,-10362.883188,-76.609550
19793.927081,1850.514855,-9548.656652,612.876398
19793.927415,1480.411884,-10436.903782,0.000000
19793.927748,1776.494261,-10584.944971,459.657299
19793.928081,592.164754,-10140.821405,612.876398
19793.928415,1110.308913,-10436.903782,0.000000
19793.928748,-74.020594,-11843.295072,-76.609550
19793.929081,-1554.432478,-8290.306550,-1762.019645
19793.929414,-3034.844362,-8364.327145,0.000000
19793.929748,-2368.659014,-6587.832884,76.609550
19793.930081,-1998.556043,-7105.977043,2681.334243
19793.930414,-1924.535449,-6439.791695,2451.505594
19793.930748,888.247130,-7105.977043,2834.553343
19793.931081,2664.741391,-7031.956449,5209.449386
19793.931414,2294.638420,-5107.421000,0.000000
19793.931748,4663.297435,-9474.636058,-76.609550
19793.932081,74.020594,-9548.656652,-3677.258390
19793.932414,814.226536,-13027.624579,-2528.115143
19793.932747,-2368.659014,-12583.501014,-5898.935335
19793.933081,-518.144159,-12731.542202,-4366.744339
19793.933414,0.000000,-12139.377449,-995.924147
19793.933747,740.205942,-10140.821405,995.924147
19793.934081,1332.370696,-9474.636058,2987.772442
19793.934414,0.000000,-7179.997637,6741.640382
19793.934747,3478.967927,-6809.894666,5132.839837
19793.935081,814.226536,-5107.421000,5515.887586
19793.935414,2812.782580,-6809.894666,5439.278036
19793.935747,-74.020594,-6809.894666,2374.896044
19793.936080,444.123565,-8586.388927,-76.609550
19793.936414,-962.267725,-7920.203579,-3677.258390
19793.936747,-2220.617826,-9030.512492,-5515.887586
19793.937080,-518.144159,-9474.636058,-6205.373534
19793.937414,-666.185348,-13471.748144,-3753.867940
19793.937747,-1998.556043,-9844.739029,-6128.763984
19793.938080,0.000000,-11325.150913,-2451.505594
19793.938414,4071.132681,-11843.295072,1149.143247
19793.938747,5847.626942,-10362.883188,5439.278036
19793.939080,5181.441594,-10658.965565,7737.564530
19793.939413,4811.338623,-6069.688724,6281.983084
19793.939747,3108.864956,-7772.162391,5975.544884
19793.940080,2886.803174,-9178.553681,3217.601092
19793.940413,-1480.411884,-10510.924376,842.705048
19793.940747,-6217.729913,-10732.986159,-3524.039291
19793.941080,-5995.668130,-10362.883188,-4673.182538
19793.941413,-6439.791695,-9918.759623,-4366.744339
19793.941747,-2738.761985,-7846.182985,-2757.943793
19793.942080,0.000000,-6587.832884,2528.115143
19793.942413,4663.297435,-8290.306550,4826.401637
19793.942746,5847.626942,-3923.091493,2757.943793
19793.943080,5921.647536,-7772.162391,4443.353888
19793.943413,7031.956449,-8882.471304,842.705048
19793.943746,2516.700203,-12805.562797,-1072.533697
19793.944080,1036.288319,-11843.295072,-4136.915689
19793.944413,-962.267725,-14508.036463,-4903.011187
19793.944746,-2960.823768,-11325.150913,-4290.134789
19793.945080,-2368.659014,-12213.398043,-76.609550
19793.945413,-1554.432478,-10362.883188,-536.266849
19793.945746,-74.020594,-8734.430116,1762.019645
19793.946079,-1036.288319,-6291.750507,7354.516781
19793.946413,1998.556043,-3330.926739,6435.202183
19793.946746,2886.803174,-3997.112087,6971.469032
19793.947079,2442.679609,-6217.729913,5362.668486
19793.947413,2368.659014,-4959.379811,2068.457845
19793.947746,1184.329507,-7105.977043,-76.609550
19793.948079,-592.164754,-11917.315666,-2834.553343
19793.948413,-5403.503377,-11917.315666,-11031.775171
19793.948746,-7402.059420,-14582.057057,-9806.022374
19793.949079,-5181.441594,-13471.748144,-6665.030833
19793.949412,-4145.153275,-11917.315666,-2145.067394
19793.949746,0.000000,-10288.862594,1838.629195
19793.950079,1850.514855,-8216.285956,6894.859482
19793.950412,3997.112087,-5403.503377,9346.365076
19793.950746,4663.297435,-4441.235652,9422.974625
19793.951079,3478.967927,-9178.553681,7277.907231
19793.951412,222.061783,-3775.050304,2451.505594
19793.951746,-2368.659014,-9474.636058,1762.019645
19793.952079,-3478.967927,-9474.636058,-3294.210641
19793.952412,-4367.215058,-11177.109724,-3294.210641
19793.952745,-4811.338623,-10214.842000,-5286.058936
19793.953079,-2812.782580,-9178.553681,-4443.353888
19793.953412,-1554.432478,-9326.594869,-3217.601092
19793.953745,0.000000,-7476.080014,-3064.381992
19793.954079,3478.967927,-8512.368333,0.000000
19793.954412,4737.318029,-9104.533087,3677.258390
19793.954745,7031.956449,-9474.636058,3600.648841
19793.955078,2960.823768,-10140.821405,4290.134789
19793.955412,4515.256246,-10362.883188,3600.648841
19793.955745,1036.288319,-10436.903782,766.095498
19793.956078,296.082377,-10881.027347,-766.095498
19793.956412,-1258.350101,-10955.047942,-995.924147
19793.956745,-2664.741391,-8956.491898,-1225.752797
19793.957078,-666.185348,-8142.265362,0.000000
19793.957412,-296.082377,-7550.100608,995.924147
19793.957745,1850.514855,-7254.018232,1762.019645
19793.958078,2664.741391,-6735.874072,3753.867940
19793.958411,3034.844362,-4737.318029,842.705048
19793.958745,6735.874072,-9474.636058,2374.896044
19793.959078,2442.679609,-7476.080014,-1838.629195
19793.959411,3478.967927,-11547.212695,-1225.752797
19793.959745,1776.494261,-12435.459826,-2834.553343
19793.960078,-2072.576638,-12509.480420,-3370.820191
19793.960411,-222.061783,-12139.377449,-2681.334243
19793.960745,-1184.329507,-11843.295072,-229.828649
19793.961078,0.000000,-8882.471304,0.000000
19793.961411,-1776.494261,-8956.491898,1225.752797
19793.961744,1110.308913,-7105.977043,842.705048
19793.962078,-1628.453072,-7179.997637,3677.258390
19793.962411,-444.123565,-7105.977043,4213.525239
19793.962744,-74.020594,-8142.265362,2374.896044
19793.963078,0.000000,-7476.080014,4443.353888
19793.963411,1702.473667,-7105.977043,2757.943793
19793.963744,1998.556043,-7105.977043,842.705048
19793.964078,2072.576638,-8956.491898,-1455.581446
19793.964411,-74.020594,-11769.274478,-2528.115143
19793.964744,-666.185348,-11251.130318,-6205.373534
19793.965077,-2960.823768,-11917.315666,-6741.640382
19793.965411,-370.102971,-14211.954086,-4979.620737
19793.965744,-3404.947333,-8364.327145,-2451.505594
19793.966077,1998.556043,-11843.295072,2374.896044
19793.966411,1480.411884,-7402.059420,5745.716235
19793.966744,814.226536,-7476.080014,6665.030833
19793.967077,962.267725,-7402.059420,5592.497135
19793.967411,1702.473667,-8290.306550,6052.154434
19793.967744,-1554.432478,-4219.173869,1225.752797
19793.968077,-1184.329507,-8438.347739,2374.896044
19793.968410,-666.185348,-10658.965565,-1302.362347
19793.968744,-3182.885551,-6587.832884,-4903.011187
19793.969077,-370.102971,-9178.553681,-3447.429741
19793.969410,-1776.494261,-9696.697840,-4519.963438
19793.969744,-1184.329507,-9548.656652,-4826.401637
19793.970077,0.000000,-11621.233289,-2451.505594
19793.970410,3182.885551,-11547.212695,-76.609550
19793.970744,2368.659014,-9548.656652,1838.629195
19793.971077,4071.132681,-10362.883188,4213.525239
19793.971410,5181.441594,-9030.512492,5592.497135
19793.971743,2368.659014,-7179.997637,4903.011187
19793.972077,3256.906145,-10362.883188,3600.648841
19793.972410,-74.020594,-8882.471304,0.000000
19793.972743,-4737.318029,-9548.656652,0.000000
19793.973077,-3182.885551,-10362.883188,-1915.238745
19793.973410,-4811.338623,-8586.388927,-3753.867940
19793.973743,-2220.617826,-8290.306550,-1915.238745
19793.974077,296.082377,-8364.327145,1838.629195
19793.974410,3182.885551,-6217.729913,3217.601092
19793.974743,5921.647536,-6661.853478,5209.449386
19793.975076,5625.565159,-8956.491898,6052.154434
19793.975410,4663.297435,-6883.915261,0.000000
19793.975743,3552.988522,-10214.842000,0.000000
19793.976076,2294.638420,-13027.624579,-2528.115143
19793.976410,-1184.329507,-12213.398043,-5822.325785
19793.976743,-962.267725,-14211.954086,-3983.696590
19793.977076,-1924.535449,-11769.274478,-3064.381992
19793.977410,-3404.947333,-11251.130318,-1378.971896
19793.977743,-1258.350101,-8290.306550,-76.609550
19793.978076,-1036.288319,-9622.677246,6358.592633
19793.978409,814.226536,-3034.844362,6128.763984
19793.978743,2368.659014,-4663.297435,9269.755526
19793.979076,2294.638420,-7105.977043,6052.154434
19793.979409,3330.926739,-7550.100608,4826.401637
19793.979743,222.061783,-6661.853478,0.000000
19793.980076,370.102971,-8734.430116,-3907.087040
19793.980409,-2960.823768,-10658.965565,-7201.297681
19793.980743,-4737.318029,-11917.315666,-9193.145976
19793.981076,-1258.350101,-14211.954086,-6818.249932
19793.981409,-4737.318029,-11917.315666,-7354.516781
19793.981742,-2368.659014,-10732.986159,-766.095498
19793.982076,2294.638420,-11251.130318,3600.648841
19793.982409,2738.761985,-4811.338623,6128.763984
19793.982742,4441.235652,-5773.606348,8273.831378
19793.983076,3775.050304,-6587.832884,7584.345430
19793.983409,3775.050304,-7031.956449,6665.030833
19793.983742,1184.329507,-9252.574275,5515.887586
19793.984076,-962.267725,-7179.997637,-2911.162892
19793.984409,-5625.565159,-10955.047942,-3753.867940
19793.984742,-3627.009116,-12435.459826,-5592.497135
19793.985075,-4145.153275,-8364.327145,-4903.011187
19793.985409,-3256.906145,-8364.327145,-2451.505594
19793.985742,74.020594,-7624.121203,-1685.410096
19793.986075,1998.556043,-8660.409521,76.609550
19793.986409,3552.988522,-8512.368333,3907.087040
19793.986742,5847.626942,-9474.636058,4826.401637
19793.987075,3627.009116,-9104.533087,2451.505594
19793.987408,5847.626942,-10362.883188,2681.334243
19793.987742,2664.741391,-10955.047942,2451.505594
19793.988075,1036.288319,-9992.780217,0.000000
19793.988408,-1406.391290,-12139.377449,-383.047749
19793.988742,-3627.009116,-10362.883188,-4136.915689
19793.989075,-4737.318029,-9548.656652,0.000000
19793.989408,-1924.535449,-9178.553681,-76.609550
19793.989742,-1258.350101,-8882.471304,-76.609550
19793.990075,0.000000,-8438.347739,4826.401637
19793.990408,2590.720797,-5847.626942,4673.182538
19793.990741,3478.967927,-4515.256246,2911.162892
19793.991075,4663.297435,-6957.935855,2681.334243
19793.991408,4367.215058,-8882.471304,-689.485948
19793.991741,1406.391290,-9548.656652,-2451.505594
19793.992075,-74.020594,-14211.954086,-3753.867940
19793.992408,-1258.350101,-13619.789333,-6205.373534
19793.992741,-2368.659014,-12509.480420,-3677.258390
19793.993075,888.247130,-13027.624579,-76.609550
19793.993408,-592.164754,-10362.883188,2374.896044
19793.993741,-444.123565,-7994.224174,3600.648841
19793.994074,592.164754,-7179.997637,5592.497135
19793.994408,0.000000,-5995.668130,6128.763984
19793.994741,0.000000,-3034.844362,6128.763984
19793.995074,-74.020594,-7698.141797,2374.896044
19793.995408,-3108.864956,-4811.338623,-1532.190996
19793.995741,-2368.659014,-8364.327145,0.000000
19793.996074,-74.020594,-7476.080014,-3983.696590
19793.996408,-1480.411884,-10140.821405,-3140.991542
19793.996741,-1036.288319,-10140.821405,-3907.087040
19793.997074,0.000000,-10955.047942,-4596.572988
19793.997407,-74.020594,-12435.459826,-1915.238745
19793.997741,0.000000,-11177.109724,-76.609550
19793.998074,4071.132681,-10658.965565,536.266849
19793.998407,5699.585753,-8586.388927,5592.497135
19793.998741,4663.297435,-9474.636058,6052.154434
19793.999074,2368.659014,-8068.244768,5515.887586
19793.999407,2442.679609,-7698.141797,2221.676944
19793.999741,814.226536,-10214.842000,3600.648841
19794.000074,-740.205942,-7772.162391,1455.581446
19794.000407,-4663.297435,-7698.141797,-2145.067394
19794.000740,-2442.679609,-8882.471304,-3447.429741
19794.001074,-3552.988522,-7179.997637,-3294.210641
19794.001407,-2368.659014,-7920.203579,-306.438199
19794.001740,1702.473667,-7105.977043,-2528.115143
19794.002074,1776.494261,-7920.203579,-76.609550
19794.002407,2368.659014,-9548.656652,-383.047749
19794.002740,2368.659014,-8956.491898,76.609550
19794.003074,2368.659014,-11029.068536,459.657299
19794.003407,2442.679609,-9474.636058,1149.143247
19794.003740,4663.297435,-11695.253884,2834.553343
19794.004073,2516.700203,-10732.986159,1838.629195
19794.004407,962.267725,-9178.553681,306.438199
19794.004740,-1110.308913,-9844.739029,-383.047749
19794.005073,-370.102971,-10658.965565,-76.609550
19794.005407,-2368.659014,-10140.821405,2987.772442
19794.005740,-2738.761985,-7179.997637,-2451.505594
19794.006073,-2664.741391,-7179.997637,612.876398
19794.006407,-592.164754,-7476.080014,2451.505594
19794.006740,1998.556043,-4515.256246,2451.505594
19794.007073,2812.782580,-5773.606348,3370.820191
19794.007406,3923.091493,-7328.038826,2298.286494
19794.007740,4293.194464,-8660.409521,919.314598
19794.008073,370.102971,-9696.697840,-3677.258390
19794.008406,-74.020594,-13619.789333,-5286.058936
19794.008740,-2738.761985,-10881.027347,-8273.831378
19794.009073,-592.164754,-14656.077652,-2834.553343
19794.009406,-74.020594,-13027.624579,-76.609550
19794.009740,-2368.659014,-9548.656652,306.438199
19794.010073,-370.102971,-9104.533087,3370.820191
19794.010406,1702.473667,-8512.368333,7124.688131
19794.010739,2516.700203,-6513.812290,7890.783629
19794.011073,0.000000,-5403.503377,7354.516781
19794.011406,2294.638420,-6217.729913,3600.648841
19794.011739,0.000000,-4811.338623,612.876398
19794.012073,1776.494261,-9474.636058,2374.896044
19794.012406,-1850.514855,-6365.771101,-5898.935335
19794.012739,-2664.741391,-11251.130318,-6205.373534
19794.013073,-3923.091493,-10881.027347,-8733.488677
19794.013406,-4737.318029,-14211.954086,-7737.564530
19794.013739,-4737.318029,-12435.459826,-6052.154434
19794.014072,-74.020594,-14211.954086,-76.609550
19794.014406,3478.967927,-8586.388927,2451.505594
19794.014739,3849.070898,-7624.121203,9806.022374
19794.015072,7624.121203,-8882.471304,9729.412825
19794.015406,4071.132681,-4515.256246,7584.345430
19794.015739,3404.947333,-8586.388927,6665.030833
19794.016072,0.000000,-8808.450710,2528.115143
19794.016406,-4737.318029,-9252.574275,-2451.505594
19794.016739,-6957.935855,-10362.883188,-6665.030833
19794.017072,-5107.421000,-10732.986159,-4366.744339
19794.017405,-3552.988522,-9696.697840,-3370.820191
19794.017739,-1998.556043,-8438.347739,-1455.581446
19794.018072,740.205942,-7179.997637,919.314598
19794.018405,1332.370696,-4811.338623,612.876398
19794.018739,4737.318029,-7328.038826,4596.572988
19794.019072,5551.544565,-8290.306550,2374.896044
19794.019405,2368.659014,-7179.997637,1838.629195
19794.019738,3701.029710,-10732.986159,1608.800546
19794.020072,3182.885551,-12435.459826,-689.485948
19794.020405,-740.205942,-11621.233289,-2221.676944
19794.020738,-2590.720797,-11843.295072,-4366.744339
19794.021071,-2590.720797,-11769.274478,-3064.381992
19794.021405,-2368.659014,-10732.986159,0.000000
19794.021738,0.000000,-7772.162391,5209.449386
19794.022071,2294.638420,-7105.977043,4826.401637
19794.022404,2368.659014,-3034.844362,5669.106685
19794.022737,3552.988522,-4811.338623,7354.516781
19794.023071,4737.318029,-4811.338623,2834.553343
19794.023404,5551.544565,-7105.977043,1149.143247
19794.023737,2664.741391,-8882.471304,-1991.848295
19794.024070,0.000000,-10732.986159,-6128.763984
19794.024403,-2442.679609,-14211.954086,-6818.249932
19794.024737,-4737.318029,-13101.645173,-6128.763984
19794.025070,-2960.823768,-10732.986159,-6741.640382
19794.025403,-2368.659014,-12657.521608,1762.019645
19794.025736,814.226536,-9474.636058,2987.772442
19794.026070,2072.576638,-7772.162391,5515.887586
19794.026403,4145.153275,-6143.709319,9116.536426
19794.026736,3478.967927,-5847.626942,8580.269578
19794.027069,0.000000,-7402.059420,4979.620737
19794.027402,-740.205942,-7105.977043,2221.676944
19794.027736,-2072.576638,-9474.636058,1455.581446
19794.028069,-3552.988522,-7179.997637,-3677.258390
19794.028402,-4737.318029,-7476.080014,-3370.820191
19794.028735,-2442.679609,-9474.636058,-4979.620737
19794.029068,-74.020594,-8290.306550,-4060.306139
19794.029402,-1184.329507,-11177.109724,-3064.381992
19794.029735,-74.020594,-10214.842000,-2604.724693
19794.030068,444.123565,-11177.109724,-76.609550
19794.030401,592.164754,-8660.409521,1838.629195
19794.030735,5847.626942,-8882.471304,2068.457845
19794.031068,1480.411884,-9548.656652,5898.935335
19794.031401,4663.297435,-11251.130318,4826.401637
19794.031734,-1184.329507,-7772.162391,1838.629195
19794.032067,0.000000,-9992.780217,2528.115143
19794.032401,-2442.679609,-8364.327145,0.000000
19794.032734,-2960.823768,-9326.594869,-306.438199
19794.033067,-1924.535449,-8290.306550,-689.485948
19794.033400,-2960.823768,-7476.080014,0.000000
19794.033733,1110.308913,-6809.894666,-1302.362347
19794.034067,148.041188,-7254.018232,383.047749
19794.034400,2294.638420,-6587.832884,0.000000
19794.034733,2516.700203,-9104.533087,-229.828649
19794.035066,0.000000,-9548.656652,0.000000
19794.035400,2294.638420,-10658.965565,-689.485948
19794.035733,518.144159,-9548.656652,-2451.505594
19794.036066,3701.029710,-12361.439231,2068.457845
19794.036399,3478.967927,-13027.624579,2374.896044
19794.036732,0.000000,-7772.162391,0.000000
19794.037066,296.082377,-10066.800811,689.485948
19794.037399,-1702.473667,-9252.574275,0.000000
19794.037732,-1406.391290,-9030.512492,842.705048
19794.038065,-2368.659014,-7920.203579,3064.381992
19794.038398,-74.020594,-7994.224174,1762.019645
19794.038732,0.000000,-5403.503377,612.876398
19794.039065,3701.029710,-9474.636058,5439.278036
19794.039398,1924.535449,-4811.338623,2451.505594
19794.039731,3552.988522,-7920.203579,3447.429741
19794.040065,3256.906145,-8956.491898,-1225.752797
19794.040398,296.082377,-11843.295072,-3447.429741
19794.040731,-2072.576638,-12583.501014,-5669.106685
19794.041064,-370.102971,-13619.789333,-4979.620737
19794.041397,-74.020594,-12731.542202,-5592.497135
19794.041731,-2072.576638,-11769.274478,-76.609550
19794.042064,-666.185348,-11843.295072,1149.143247
19794.042397,0.000000,-7179.997637,5209.449386
19794.042730,2886.803174,-7105.977043,7890.783629
19794.043063,1258.350101,-7179.997637,8656.879127
19794.043397,2516.700203,-4663.297435,7584.345430
19794.043730,-666.185348,-6883.915261,3753.867940
19794.044063,-814.226536,-6957.935855,0.000000
19794.044396,-4145.153275,-7179.997637,-5822.325785
19794.044729,-2368.659014,-10436.903782,-4060.306139
19794.045063,-1258.350101,-10362.883188,-5592.497135
19794.045396,-1850.514855,-9992.780217,-8580.269578
19794.045729,-1110.308913,-13027.624579,-4979.620737
19794.046062,-1776.494261,-11621.233289,-2451.505594
19794.046396,1776.494261,-10066.800811,1915.238745
19794.046729,3256.906145,-8364.327145,4903.011187
19794.047062,4885.359217,-8586.388927,5975.544884
19794.047395,4145.153275,-6587.832884,7201.297681
19794.047728,2442.679609,-7550.100608,4366.744339
19794.048062,1998.556043,-7994.224174,1915.238745
19794.048395,-2368.659014,-10584.944971,0.000000
19794.048728,-3552.988522,-10732.986159,-1302.362347
19794.049061,-5403.503377,-10066.800811,-5898.935335
19794.049394,-5921.647536,-9548.656652,-4903.011187
19794.049728,-2368.659014,-8660.409521,-612.876398
19794.050061,296.082377,-6735.874072,1225.752797
19794.050394,5329.482782,-6217.729913,4826.401637
19794.050727,4959.379811,-5847.626942,3830.477490
19794.051061,5181.441594,-8364.327145,2528.115143
19794.051394,4663.297435,-10658.965565,1762.019645
19794.051727,1776.494261,-9548.656652,0.000000
19794.052060,3478.967927,-8956.491898,-4903.011187
19794.052393,296.082377,-13693.809927,-689.485948
19794.052727,-74.020594,-13619.789333,-2528.115143
19794.053060,-740.205942,-11251.130318,-2298.286494
19794.053393,-2146.597232,-11843.295072,-76.609550
19794.053726,-2146.597232,-9696.697840,1608.800546
19794.054059,-1258.350101,-7328.038826,4826.401637
19794.054393,1554.432478,-5551.544565,7048.078582
19794.054726,2368.659014,-4811.338623,9269.755526
19794.055059,1184.329507,-4811.338623,2451.505594
19794.055392,3552.988522,-7402.059420,4826.401637
19794.055726,2294.638420,-5995.668130,-919.314598
19794.056059,0.000000,-9474.636058,-3140.991542
19794.056392,-2442.679609,-13471.748144,-8197.221829
19794.056725,-4367.215058,-14508.036463,-8503.660028
19794.057058,-4071.132681,-13545.768739,-7048.078582
19794.057392,-1258.350101,-13027.624579,-2834.553343
19794.057725,1702.473667,-13027.624579,1149.143247
