#time,accel_x,accel_y,accel_z
21606.044965,5921.647536,-7476.080014,1225.752797
21606.045299,7031.956449,-10658.965565,-1915.238745
21606.045632,4367.215058,-8364.327145,-4290.134789
21606.045965,4959.379811,-10658.965565,-3830.477490
21606.046299,5033.400406,-10140.821405,-3217.601092
21606.046632,6069.688724,-9770.718434,-1762.019645
21606.046966,9918.759623,-8882.471304,2374.896044
21606.047299,11843.295072,-9548.656652,8503.660028
21606.047633,12953.603985,-6661.853478,3677.258390
21606.047966,11547.212695,-7179.997637,2451.505594
21606.048299,12435.459826,-9474.636058,4826.401637
21606.048633,9474.636058,-8364.327145,1991.848295
21606.048966,7698.141797,-11029.068536,-842.705048
21606.049300,2590.720797,-12953.603985,-4979.620737
21606.049633,-1480.411884,-13027.624579,-5898.935335
21606.049966,-1850.514855,-11547.212695,-4366.744339
21606.050300,2294.638420,-10362.883188,-1608.800546
21606.050633,2886.803174,-6439.791695,0.000000
21606.050967,7105.977043,-5551.544565,7124.688131
21606.051300,12361.439231,-7105.977043,10342.289223
21606.051634,13545.768739,-5625.565159,9729.412825
21606.051967,12287.418637,-5477.523971,5362.668486
21606.052300,11917.315666,-7920.203579,1991.848295
21606.052634,10362.883188,-8364.327145,-2451.505594
21606.052967,7698.141797,-9548.656652,-6128.763984
21606.053301,7031.956449,-12509.480420,-9806.022374
21606.053634,3849.070898,-13693.809927,-8580.269578
21606.053968,4885.359217,-15840.407159,-4060.306139
21606.054301,4959.379811,-10732.986159,-4290.134789
21606.054634,7476.080014,-10955.047942,2374.896044
21606.054968,10881.027347,-6291.750507,5822.325785
21606.055301,15914.427753,-4885.359217,10495.508323
21606.055635,17172.777854,-3182.885551,11797.870669
21606.055968,14211.954086,-4811.338623,7967.393179
21606.056302,11769.274478,-7550.100608,2604.724693
21606.056635,7402.059420,-9770.718434,-1302.362347
21606.056968,3923.091493,-11103.089130,-4826.401637
21606.057302,1184.329507,-11621.233289,-7737.564530
21606.057635,0.000000,-9918.759623,-8197.221829
21606.057969,5847.626942,-13027.624579,-2528.115143
21606.058302,7328.038826,-7772.162391,-1838.629195
21606.058636,9770.718434,-7179.997637,0.000000
21606.058969,12139.377449,-10214.842000,3983.696590
21606.059302,10658.965565,-8364.327145,3064.381992
21606.059636,12065.356855,-7328.038826,3907.087040
21606.059969,12139.377449,-7624.121203,2757.943793
21606.060303,12287.418637,-10066.800811,2451.505594
21606.060636,9474.636058,-10732.986159,1225.752797
21606.060970,9400.615463,-8216.285956,-995.924147
21606.061303,9400.615463,-8586.388927,-2451.505594
21606.061636,9770.718434,-7920.203579,995.924147
21606.061970,11769.274478,-7994.224174,-76.609550
21606.062303,12435.459826,-7179.997637,536.266849
21606.062637,12287.418637,-8068.244768,-1302.362347
21606.062970,10510.924376,-11547.212695,-2528.115143
21606.063304,9400.615463,-12731.542202,-2528.115143
21606.063637,9400.615463,-11843.295072,-76.609550
21606.063970,9400.615463,-8364.327145,-2451.505594
21606.064304,13027.624579,-7476.080014,1225.752797
21606.064637,15544.324782,-7698.141797,6665.030833
21606.064971,13027.624579,-4811.338623,4290.134789
21606.065304,12361.439231,-8586.388927,4060.306139
21606.065638,9844.739029,-10140.821405,1762.019645
21606.065971,9252.574275,-9696.697840,383.047749
21606.066304,10066.800811,-8438.347739,-2221.676944
21606.066638,9400.615463,-8882.471304,-3907.087040
21606.066971,8808.450710,-7179.997637,-6741.640382
21606.067305,9474.636058,-11917.315666,-766.095498
21606.067638,11177.109724,-14211.954086,-76.609550
21606.067972,6291.750507,-10140.821405,-1532.190996
21606.068305,9400.615463,-11251.130318,3294.210641
21606.068638,10658.965565,-8068.244768,5822.325785
21606.068972,12953.603985,-5477.523971,6358.592633
21606.069305,10436.903782,-6587.832884,3447.429741
21606.069639,7920.203579,-10658.965565,1762.019645
21606.069972,3552.988522,-10584.944971,0.000000
21606.070306,4959.379811,-7476.080014,-2145.067394
21606.070639,3849.070898,-9252.574275,-2987.772442
21606.070972,1776.494261,-8364.327145,-4290.134789
21606.071306,2960.823768,-11547.212695,-1915.238745
21606.071639,3775.050304,-9104.533087,-2757.943793
21606.071973,5847.626942,-7772.162391,0.000000
21606.072306,6513.812290,-10140.821405,4826.401637
21606.072640,7105.977043,-8956.491898,4060.306139
21606.072973,3552.988522,-7476.080014,1838.629195
21606.073306,3182.885551,-10066.800811,1149.143247
21606.073640,2368.659014,-9104.533087,2221.676944
21606.073973,4071.132681,-8290.306550,1762.019645
21606.074307,2664.741391,-8512.368333,2374.896044
21606.074640,-1850.514855,-7698.141797,-4903.011187
21606.074974,-3552.988522,-7772.162391,-8580.269578
21606.075307,0.000000,-13397.727550,995.924147
21606.075640,4737.318029,-6143.709319,2451.505594
21606.075974,8216.285956,-5921.647536,3983.696590
21606.076307,7328.038826,-5773.606348,5592.497135
21606.076641,7105.977043,-7846.182985,459.657299
21606.076974,2886.803174,-13915.871710,383.047749
21606.077308,6809.894666,-8734.430116,-76.609550
21606.077641,3256.906145,-10732.986159,0.000000
21606.077974,2960.823768,-10955.047942,1149.143247
21606.078308,-2146.597232,-10066.800811,-5132.839837
21606.078641,-666.185348,-11547.212695,-383.047749
21606.078975,4663.297435,-5773.606348,-689.485948
21606.079308,6735.874072,-9178.553681,6052.154434
21606.079642,6439.791695,-4737.318029,6128.763984
21606.079975,0.000000,-7772.162391,1532.190996
21606.080308,5847.626942,-10658.965565,1762.019645
21606.080642,5329.482782,-6587.832884,2451.505594
21606.080975,6809.894666,-8882.471304,4213.525239
21606.081309,1110.308913,-7105.977043,-4903.011187
21606.081642,-6513.812290,-14582.057057,-7354.516781
21606.081976,-2368.659014,-10881.027347,-5592.497135
21606.082309,1628.453072,-13027.624579,-76.609550
21606.082642,2960.823768,-8660.409521,306.438199
21606.082976,-74.020594,-11843.295072,2987.772442
21606.083309,1110.308913,-5403.503377,0.000000
21606.083643,7105.977043,-8512.368333,7277.907231
21606.083976,7031.956449,-8882.471304,6052.154434
21606.084310,2960.823768,-6587.832884,3677.258390
21606.084643,1776.494261,-8364.327145,1838.629195
21606.084976,1480.411884,-8216.285956,-153.219100
21606.085310,1924.535449,-7994.224174,-1762.019645
21606.085643,0.000000,-9548.656652,-2451.505594
21606.085977,-1332.370696,-11843.295072,-2528.115143
21606.086310,-4071.132681,-11917.315666,-4290.134789
21606.086644,-2738.761985,-9622.677246,-2374.896044
21606.086977,-2368.659014,-10066.800811,-689.485948
21606.087310,-888.247130,-7994.224174,2068.457845
21606.087644,1776.494261,-9844.739029,5209.449386
21606.087977,4071.132681,-7105.977043,4826.401637
21606.088311,592.164754,-4811.338623,6741.640382
21606.088644,2294.638420,-8290.306550,2987.772442
21606.088978,814.226536,-7105.977043,1149.143247
21606.089311,-1184.329507,-8956.491898,689.485948
21606.089644,-1850.514855,-9400.615463,-2451.505594
21606.089978,-3701.029710,-7772.162391,-4673.182538
21606.090311,-4811.338623,-11843.295072,-4673.182538
21606.090645,-666.185348,-10658.965565,-2528.115143
21606.090978,-2738.761985,-14211.954086,-2987.772442
21606.091312,-1628.453072,-11473.192101,0.000000
21606.091645,-740.205942,-11843.295072,3600.648841
21606.091978,0.000000,-7179.997637,2604.724693
21606.092312,4367.215058,-7698.141797,6358.592633
21606.092645,1850.514855,-5699.585753,5209.449386
21606.092979,2220.617826,-4737.318029,3064.381992
21606.093312,518.144159,-8882.471304,0.000000
21606.093646,1850.514855,-7105.977043,-2528.115143
21606.093979,1702.473667,-5773.606348,-4903.011187
21606.094312,-296.082377,-10658.965565,-4979.620737
21606.094646,-666.185348,-15988.448347,-3140.991542
21606.094979,-1258.350101,-12213.398043,-4596.572988
21606.095313,4663.297435,-11843.295072,-229.828649
21606.095646,3478.967927,-11843.295072,4136.915689
21606.095980,2812.782580,-9696.697840,4060.306139
21606.096313,1776.494261,-9548.656652,3677.258390
21606.096646,5921.647536,-5107.421000,4903.011187
21606.096980,4145.153275,-5699.585753,4903.011187
21606.097313,5847.626942,-7105.977043,2987.772442
21606.097647,-1628.453072,-7476.080014,0.000000
21606.097980,-3552.988522,-9548.656652,-2451.505594
21606.098314,-74.020594,-10658.965565,-3753.867940
21606.098647,-3627.009116,-8808.450710,-5362.668486
21606.098980,-5403.503377,-12953.603985,-5132.839837
21606.099314,-2812.782580,-11177.109724,-2451.505594
21606.099647,2368.659014,-8068.244768,1225.752797
21606.099981,3849.070898,-9104.533087,5286.058936
21606.100314,3997.112087,-8660.409521,5056.230287
21606.100647,2886.803174,-10362.883188,4519.963438
21606.100981,4663.297435,-9474.636058,2987.772442
21606.101314,4071.132681,-9474.636058,2374.896044
21606.101648,-2368.659014,-6587.832884,0.000000
21606.101981,296.082377,-10955.047942,-76.609550
21606.102315,-1258.350101,-9474.636058,-2528.115143
21606.102648,-518.144159,-9030.512492,-995.924147
21606.102981,-2960.823768,-8512.368333,-1302.362347
21606.103315,-3256.906145,-12213.398043,-689.485948
21606.103648,-296.082377,-9844.739029,1762.019645
21606.103982,-2738.761985,-10214.842000,2681.334243
21606.104315,296.082377,-5699.585753,2987.772442
21606.104649,-4071.132681,-8364.327145,1225.752797
21606.104982,2590.720797,-8290.306550,2374.896044
21606.105315,0.000000,-7179.997637,0.000000
21606.105649,-74.020594,-9178.553681,-76.609550
21606.105982,-222.061783,-8586.388927,-2374.896044
21606.106316,-4885.359217,-11917.315666,-2451.505594
21606.106649,-74.020594,-6513.812290,-3524.039291
21606.106983,-2072.576638,-11991.336260,-766.095498
21606.107316,3478.967927,-9474.636058,1762.019645
21606.107649,-2368.659014,-11621.233289,612.876398
21606.107983,2960.823768,-8364.327145,4826.401637
21606.108316,4663.297435,-12139.377449,3294.210641
21606.108650,3552.988522,-8364.327145,6128.763984
21606.108983,1110.308913,-6957.935855,1991.848295
21606.109317,-1998.556043,-9104.533087,-842.705048
21606.109650,-444.123565,-7920.203579,-2604.724693
21606.109983,-1554.432478,-7105.977043,-1378.971896
21606.110317,-2664.741391,-7179.997637,-4366.744339
21606.110650,-2960.823768,-9252.574275,-689.485948
21606.110984,-74.020594,-11843.295072,-76.609550
21606.111317,74.020594,-4811.338623,0.000000
21606.111651,5921.647536,-7846.182985,3447.429741
21606.111984,296.082377,-9104.533087,842.705048
21606.112317,3923.091493,-12435.459826,2528.115143
21606.112651,4959.379811,-9622.677246,2451.505594
21606.112985,5773.606348,-11695.253884,4136.915689
21606.113318,592.164754,-7179.997637,0.000000
21606.113652,2886.803174,-13619.789333,-76.609550
21606.113985,222.061783,-7476.080014,-4290.134789
21606.114319,0.000000,-7772.162391,0.000000
21606.114652,2294.638420,-9474.636058,-76.609550
21606.114986,-1998.556043,-11843.295072,-383.047749
21606.115319,0.000000,-5107.421000,-1608.800546
21606.115653,1332.370696,-10140.821405,2911.162892
21606.115986,4367.215058,-5181.441594,3907.087040
21606.116320,-2960.823768,-10140.821405,0.000000
21606.116653,-74.020594,-10658.965565,-383.047749
21606.116987,2590.720797,-9326.594869,2298.286494
21606.117320,1480.411884,-8216.285956,1685.410096
21606.117654,1110.308913,-9326.594869,-76.609550
21606.117987,-5403.503377,-11029.068536,-4903.011187
21606.118321,-3552.988522,-9770.718434,-2221.676944
21606.118654,-74.020594,-9474.636058,-1915.238745
21606.118988,-4737.318029,-8956.491898,-2451.505594
21606.119321,-1850.514855,-11843.295072,2374.896044
21606.119655,518.144159,-5773.606348,2451.505594
21606.119988,3404.947333,-9178.553681,7890.783629
21606.120322,3627.009116,-3923.091493,6281.983084
21606.120655,-1628.453072,-7772.162391,2451.505594
21606.120989,-74.020594,-9696.697840,0.000000
21606.121323,-3552.988522,-11843.295072,-383.047749
21606.121656,-4219.173869,-7105.977043,-4903.011187
21606.121990,-9474.636058,-8364.327145,-4290.134789
21606.122323,-6291.750507,-7254.018232,-6205.373534
21606.122657,-3256.906145,-10584.944971,-1685.410096
21606.122990,0.000000,-10066.800811,229.828649
21606.123324,888.247130,-6143.709319,0.000000
21606.123657,296.082377,-11769.274478,2757.943793
21606.123991,5847.626942,-8216.285956,2757.943793
21606.124324,7031.956449,-10658.965565,4826.401637
21606.124658,5847.626942,-6735.874072,4290.134789
21606.124991,2368.659014,-10214.842000,2451.505594
21606.125325,2368.659014,-10881.027347,306.438199
21606.125658,2664.741391,-11621.233289,1532.190996
21606.125992,74.020594,-10955.047942,-383.047749
21606.126325,-1480.411884,-7254.018232,-4366.744339
21606.126659,-2738.761985,-12731.542202,-3140.991542
21606.126992,-1776.494261,-7179.997637,-3370.820191
21606.127326,-74.020594,-10510.924376,1302.362347
21606.127659,1554.432478,-3997.112087,-1838.629195
21606.127993,0.000000,-11177.109724,5286.058936
21606.128326,4071.132681,-5921.647536,4213.525239
21606.128660,3627.009116,-7254.018232,4673.182538
21606.128993,4737.318029,-4071.132681,2757.943793
21606.129327,2368.659014,-8882.471304,-229.828649
21606.129661,888.247130,-11177.109724,-919.314598
21606.129994,2368.659014,-12509.480420,-76.609550
21606.130328,-370.102971,-10140.821405,-3064.381992
21606.130661,-2664.741391,-10288.862594,-4903.011187
21606.130995,-1036.288319,-13323.706956,-2528.115143
21606.131328,-74.020594,-11547.212695,-689.485948
21606.131662,4589.276840,-8882.471304,4826.401637
21606.131995,2738.761985,-7254.018232,5975.544884
21606.132329,3404.947333,-6883.915261,5592.497135
21606.132662,2294.638420,-8438.347739,4366.744339
21606.132996,3256.906145,-9474.636058,4519.963438
21606.133329,1184.329507,-5847.626942,2451.505594
21606.133663,-6661.853478,-11917.315666,-4596.572988
21606.133996,-4959.379811,-9622.677246,-5745.716235
21606.134330,-4515.256246,-9178.553681,-5669.106685
21606.134663,0.000000,-10658.965565,-76.609550
21606.134997,-1258.350101,-11843.295072,-689.485948
21606.135330,-5255.462188,-9548.656652,-2451.505594
21606.135664,-2072.576638,-9252.574275,1302.362347
21606.135997,6735.874072,-7698.141797,4826.401637
21606.136331,4441.235652,-6439.791695,4826.401637
21606.136664,740.205942,-10436.903782,2911.162892
21606.136998,3775.050304,-7624.121203,2987.772442
21606.137331,0.000000,-9548.656652,2451.505594
21606.137665,3552.988522,-7105.977043,4519.963438
21606.137999,-5699.585753,-8956.491898,-3677.258390
21606.138332,-6513.812290,-13101.645173,-1838.629195
21606.138666,-2738.761985,-8290.306550,-3447.429741
21606.138999,-4811.338623,-8068.244768,-2451.505594
21606.139333,-2664.741391,-6513.812290,-1455.581446
21606.139666,-3775.050304,-9992.780217,919.314598
21606.140000,296.082377,-7254.018232,1455.581446
21606.140333,1036.288319,-10066.800811,4596.572988
21606.140667,4293.194464,-9474.636058,4826.401637
21606.141000,0.000000,-6587.832884,612.876398
21606.141334,3108.864956,-10362.883188,3983.696590
21606.141667,4515.256246,-8882.471304,-76.609550
21606.142001,0.000000,-10732.986159,-1225.752797
21606.142334,-1702.473667,-10510.924376,-3600.648841
21606.142668,-2664.741391,-12435.459826,-4213.525239
21606.143001,-370.102971,-14063.912898,-689.485948
21606.143335,2294.638420,-6513.812290,2834.553343
21606.143668,1702.473667,-9474.636058,1149.143247
21606.144002,4959.379811,-4811.338623,3677.258390
21606.144335,6661.853478,-10362.883188,5439.278036
21606.144669,5847.626942,-10658.965565,3294.210641
21606.145002,6439.791695,-6217.729913,4213.525239
21606.145336,-1628.453072,-12953.603985,-1608.800546
21606.145670,888.247130,-6883.915261,-1532.190996
21606.146003,-1850.514855,-10066.800811,-2987.772442
21606.146337,0.000000,-5995.668130,-3064.381992
21606.146670,-1554.432478,-7476.080014,-4903.011187
21606.147004,-592.164754,-13101.645173,-2451.505594
21606.147337,2886.803174,-13027.624579,-76.609550
21606.147671,1776.494261,-8956.491898,2757.943793
21606.148004,5255.462188,-9178.553681,5439.278036
21606.148338,1110.308913,-9474.636058,3064.381992
21606.148671,4885.359217,-7624.121203,1991.848295
21606.149005,2294.638420,-9474.636058,3677.258390
21606.149338,2368.659014,-5403.503377,1838.629195
21606.149672,1702.473667,-8956.491898,76.609550
21606.150005,-1480.411884,-10362.883188,229.828649
21606.150339,-370.102971,-9400.615463,-2757.943793
21606.150672,-3256.906145,-9622.677246,-536.266849
21606.151006,-5921.647536,-7772.162391,-7124.688131
21606.151339,-4811.338623,-14211.954086,-4979.620737
21606.151673,-3108.864956,-8068.244768,0.000000
21606.152006,1110.308913,-10066.800811,4826.401637
21606.152340,1702.473667,-6217.729913,4060.306139
21606.152673,-1628.453072,-10881.027347,4903.011187
21606.153007,3404.947333,-6587.832884,3983.696590
21606.153340,2516.700203,-8956.491898,3907.087040
21606.153674,2886.803174,-7254.018232,0.000000
21606.154008,-3552.988522,-11103.089130,-2451.505594
21606.154341,-3627.009116,-9844.739029,-3677.258390
21606.154675,-2368.659014,-9548.656652,153.219100
21606.155008,-666.185348,-10658.965565,-1608.800546
21606.155342,-3034.844362,-7402.059420,-4213.525239
21606.155675,-3256.906145,-12879.583391,-76.609550
21606.156009,444.123565,-7772.162391,3140.991542
21606.156342,1258.350101,-8068.244768,4979.620737
21606.156676,888.247130,-4811.338623,2451.505594
21606.157009,2294.638420,-10066.800811,4519.963438
21606.157343,-1406.391290,-5995.668130,0.000000
21606.157676,2368.659014,-8438.347739,0.000000
21606.158010,-74.020594,-9474.636058,-3140.991542
21606.158343,-4145.153275,-7772.162391,-6128.763984
21606.158677,-1258.350101,-14063.912898,-1608.800546
21606.159010,1110.308913,-8808.450710,-689.485948
21606.159344,-1332.370696,-11399.171507,-383.047749
21606.159677,-666.185348,-9030.512492,-383.047749
21606.160011,814.226536,-7105.977043,229.828649
21606.160344,0.000000,-7179.997637,5056.230287
21606.160678,7920.203579,-9474.636058,5132.839837
21606.161011,2368.659014,-4811.338623,1225.752797
21606.161345,2368.659014,-9548.656652,2451.505594
21606.161678,4663.297435,-9474.636058,-383.047749
21606.162012,3775.050304,-11399.171507,-76.609550
21606.162346,148.041188,-8142.265362,-2145.067394
21606.162679,-2812.782580,-12065.356855,-4290.134789
21606.163013,-3256.906145,-10658.965565,-4979.620737
21606.163346,-1628.453072,-11547.212695,-1302.362347
21606.163680,2516.700203,-7031.956449,919.314598
21606.164013,2146.597232,-7698.141797,2757.943793
21606.164347,2368.659014,-10436.903782,3830.477490
21606.164680,5255.462188,-8290.306550,3600.648841
21606.165014,2590.720797,-7550.100608,2757.943793
21606.165347,1480.411884,-5995.668130,3294.210641
21606.165681,-666.185348,-11843.295072,-766.095498
21606.166014,296.082377,-7179.997637,-3677.258390
21606.166348,-74.020594,-10362.883188,-995.924147
21606.166681,0.000000,-7846.182985,-2834.553343
21606.167015,-1850.514855,-10955.047942,-3447.429741
21606.167348,-3034.844362,-12731.542202,-2528.115143
21606.167682,1480.411884,-13619.789333,-76.609550
21606.168015,0.000000,-8364.327145,5209.449386
21606.168349,1924.535449,-7994.224174,6052.154434
21606.168682,1110.308913,-9474.636058,2987.772442
21606.169016,2886.803174,-7105.977043,3600.648841
21606.169349,2886.803174,-8290.306550,3524.039291
21606.169683,-962.267725,-7254.018232,995.924147
21606.170016,-2812.782580,-9770.718434,-2528.115143
21606.170350,-6513.812290,-9548.656652,-3524.039291
21606.170684,-74.020594,-10658.965565,-2528.115143
21606.171017,-3552.988522,-7772.162391,2068.457845
21606.171351,-1850.514855,-9474.636058,-4673.182538
21606.171684,-4737.318029,-10732.986159,-3064.381992
21606.172018,0.000000,-6513.812290,2221.676944
21606.172351,3108.864956,-9548.656652,5362.668486
21606.172685,3849.070898,-4737.318029,4749.792088
21606.173018,740.205942,-9844.739029,1838.629195
21606.173352,1480.411884,-10955.047942,2757.943793
21606.173685,4071.132681,-6069.688724,76.609550
21606.174019,666.185348,-10658.965565,-76.609550
21606.174352,-1258.350101,-9474.636058,-4979.620737
21606.174686,-4737.318029,-11325.150913,-3677.258390
21606.175019,-1776.494261,-11325.150913,-3370.820191
21606.175353,0.000000,-9178.553681,-1302.362347
21606.175686,0.000000,-7698.141797,-153.219100
21606.176020,888.247130,-10066.800811,2757.943793
21606.176353,4959.379811,-8882.471304,4826.401637
21606.176687,2368.659014,-6587.832884,4903.011187
21606.177020,4071.132681,-9474.636058,2374.896044
21606.177354,0.000000,-7994.224174,229.828649
21606.177687,1184.329507,-8660.409521,4519.963438
21606.178021,2738.761985,-9104.533087,0.000000
21606.178355,-1480.411884,-9252.574275,-2374.896044
21606.178688,-3182.885551,-9252.574275,-4903.011187
21606.179022,-592.164754,-14211.954086,-2681.334243
21606.179355,666.185348,-12287.418637,-76.609550
21606.179689,0.000000,-7476.080014,306.438199
21606.180022,-740.205942,-8364.327145,919.314598
21606.180356,1258.350101,-8290.306550,2987.772442
21606.180689,3849.070898,-7624.121203,4290.134789
21606.181023,8216.285956,-9178.553681,7277.907231
21606.181356,1776.494261,-5995.668130,3064.381992
21606.181690,1776.494261,-10436.903782,2374.896044
21606.182023,-1258.350101,-8660.409521,-2451.505594
21606.182357,-1480.411884,-11399.171507,-1915.238745
21606.182690,-1850.514855,-9326.594869,-1915.238745
21606.183024,-5107.421000,-12065.356855,-4749.792088
21606.183357,-2146.597232,-9252.574275,-1991.848295
21606.183691,962.267725,-8364.327145,1532.190996
21606.184024,4071.132681,-5329.482782,5286.058936
21606.184358,3849.070898,-2442.679609,3064.381992
21606.184691,3478.967927,-12731.542202,2374.896044
21606.185025,3478.967927,-7179.997637,2451.505594
21606.185358,3701.029710,-11325.150913,3294.210641
21606.185692,3478.967927,-9474.636058,-1915.238745
21606.186025,74.020594,-11695.253884,-1149.143247
21606.186359,-3108.864956,-11103.089130,-3600.648841
21606.186693,296.082377,-10214.842000,-536.266849
21606.187026,-2072.576638,-5403.503377,-1838.629195
21606.187360,-6513.812290,-9548.656652,1225.752797
21606.187693,-74.020594,-7994.224174,-383.047749
21606.188027,-666.185348,-8290.306550,1149.143247
21606.188360,1184.329507,-5107.421000,4903.011187
21606.188694,518.144159,-5403.503377,2757.943793
21606.189027,-74.020594,-9474.636058,689.485948
21606.189361,1036.288319,-9696.697840,995.924147
21606.189694,296.082377,-11103.089130,2298.286494
21606.190028,962.267725,-7920.203579,-76.609550
21606.190361,-5329.482782,-13323.706956,-76.609550
21606.190695,-4219.173869,-12435.459826,-3753.867940
21606.191028,-4441.235652,-7550.100608,-3524.039291
21606.191362,-2368.659014,-5995.668130,0.000000
21606.191695,-2368.659014,-6291.750507,383.047749
21606.192029,-2072.576638,-10288.862594,2451.505594
21606.192362,888.247130,-6291.750507,2451.505594
21606.192696,2516.700203,-7920.203579,4826.401637
21606.193029,1702.473667,-6513.812290,-76.609550
21606.193363,4071.132681,-11843.295072,2374.896044
21606.193696,0.000000,-7772.162391,-2451.505594
21606.194030,1184.329507,-11473.192101,2068.457845
21606.194363,-74.020594,-9178.553681,-2528.115143
21606.194697,-2960.823768,-10732.986159,-2451.505594
21606.195031,-3552.988522,-12879.583391,-1225.752797
21606.195364,-814.226536,-8364.327145,-766.095498
21606.195698,-1850.514855,-7994.224174,-1685.410096
21606.196031,1110.308913,-8586.388927,2374.896044
21606.196365,3478.967927,-8290.306550,4213.525239
21606.196698,1184.329507,-9104.533087,4519.963438
21606.197032,4367.215058,-7179.997637,4979.620737
21606.197365,518.144159,-6513.812290,-459.657299
21606.197699,2886.803174,-11251.130318,2374.896044
21606.198032,3552.988522,-9992.780217,-76.609550
21606.198366,1110.308913,-13101.645173,-1838.629195
21606.198699,1776.494261,-5995.668130,0.000000
21606.199033,-1776.494261,-12065.356855,-2451.505594
21606.199366,-518.144159,-9918.759623,-1838.629195
21606.199700,-1110.308913,-11251.130318,-995.924147
21606.200033,0.000000,-7846.182985,-919.314598
21606.200367,296.082377,-6439.791695,1225.752797
21606.200700,0.000000,-5995.668130,76.609550
21606.201034,5551.544565,-8882.471304,4519.963438
21606.201367,5847.626942,-4811.338623,3677.258390
21606.201701,4145.153275,-7624.121203,4213.525239
21606.202034,2294.638420,-11843.295072,-76.609550
21606.202368,0.000000,-9844.739029,-1225.752797
21606.202701,-222.061783,-10658.965565,-1915.238745
21606.203035,0.000000,-8290.306550,-2757.943793
21606.203369,-5329.482782,-12657.521608,-6435.202183
21606.203702,-3552.988522,-11325.150913,-3677.258390
21606.204036,2294.638420,-11843.295072,-383.047749
21606.204369,2368.659014,-5699.585753,3600.648841
21606.204703,2368.659014,-8660.409521,7277.907231
21606.205036,2294.638420,-8882.471304,2374.896044
21606.205370,4737.318029,-6809.894666,5592.497135
21606.205703,2516.700203,-8068.244768,3447.429741
21606.206037,1702.473667,-6069.688724,1378.971896
21606.206370,-5181.441594,-12065.356855,-3907.087040
21606.206704,-2738.761985,-13027.624579,-4979.620737
21606.207037,-5107.421000,-11325.150913,-4903.011187
21606.207371,-74.020594,-10658.965565,-689.485948
21606.207704,-2442.679609,-11843.295072,-689.485948
21606.208038,-3034.844362,-8290.306550,-1762.019645
21606.208371,444.123565,-9178.553681,4213.525239
21606.208705,888.247130,-6439.791695,4903.011187
21606.209038,3034.844362,-4811.338623,4673.182538
21606.209372,370.102971,-9918.759623,2681.334243
21606.209705,3478.967927,-9252.574275,4060.306139
21606.210039,444.123565,-9474.636058,1991.848295
21606.210372,-1110.308913,-7772.162391,-3217.601092
21606.210706,-2590.720797,-11547.212695,-4443.353888
21606.211040,-5773.606348,-11325.150913,-4596.572988
21606.211373,1184.329507,-10881.027347,-842.705048
21606.211707,-1258.350101,-9622.677246,-536.266849
21606.212040,-74.020594,-5403.503377,-3064.381992
21606.212374,-1776.494261,-10140.821405,3140.991542
21606.212707,4071.132681,-8290.306550,5439.278036
21606.213040,2960.823768,-4811.338623,4903.011187
21606.213373,3478.967927,-6513.812290,2221.676944
21606.213706,1628.453072,-10140.821405,2451.505594
21606.214039,296.082377,-11325.150913,612.876398
21606.214372,74.020594,-10732.986159,1149.143247
21606.214705,-1258.350101,-7179.997637,-5515.887586
21606.215038,-3404.947333,-9844.739029,-7201.297681
21606.215371,-2368.659014,-11917.315666,-383.047749
21606.215704,0.000000,-10436.903782,-2528.115143
21606.216038,4663.297435,-10658.965565,2068.457845
21606.216371,3034.844362,-8068.244768,4290.134789
21606.216704,5551.544565,-8734.430116,6511.811733
21606.217037,5551.544565,-9178.553681,6971.469032
21606.217370,3552.988522,-5403.503377,4826.401637
21606.217703,-1258.350101,-5403.503377,-2451.505594
21606.218036,-296.082377,-11251.130318,-1302.362347
21606.218369,-1258.350101,-12287.418637,-2068.457845
21606.218702,-666.185348,-10362.883188,-689.485948
21606.219035,-1998.556043,-8586.388927,-2987.772442
21606.219368,-3775.050304,-9992.780217,-2298.286494
21606.219702,-370.102971,-9474.636058,383.047749
21606.220035,888.247130,-5995.668130,1991.848295
21606.220368,5255.462188,-5921.647536,4519.963438
21606.220701,0.000000,-7179.997637,0.000000
21606.221034,592.164754,-9844.739029,4213.525239
21606.221367,1406.391290,-10732.986159,0.000000
21606.221700,4071.132681,-8438.347739,1915.238745
21606.222033,740.205942,-7476.080014,689.485948
21606.222366,-962.267725,-12435.459826,-1072.533697
21606.222699,-370.102971,-9030.512492,-2298.286494
21606.223032,-2960.823768,-11917.315666,0.000000
21606.223366,2294.638420,-4737.318029,-3983.696590
21606.223699,-4737.318029,-11991.336260,-76.609550
21606.224032,-1258.350101,-11843.295072,-1302.362347
21606.224365,-3552.988522,-8364.327145,3064.381992
21606.224698,888.247130,-6365.771101,3600.648841
21606.225031,1110.308913,-5107.421000,2145.067394
21606.225364,0.000000,-10288.862594,2911.162892
21606.225697,2146.597232,-9030.512492,2374.896044
21606.226030,0.000000,-9548.656652,2451.505594
21606.226363,-370.102971,-8438.347739,-2911.162892
21606.226696,-3701.029710,-12435.459826,-2834.553343
21606.227029,-2738.761985,-10658.965565,-2451.505594
21606.227363,1258.350101,-11177.109724,76.609550
21606.227696,-2368.659014,-5995.668130,0.000000
21606.228029,-370.102971,-9918.759623,-2987.772442
21606.228362,-2738.761985,-7772.162391,1225.752797
21606.228695,3478.967927,-10658.965565,6052.154434
21606.229028,4663.297435,-5921.647536,6665.030833
21606.229361,0.000000,-6735.874072,3677.258390
21606.229694,-962.267725,-7698.141797,-536.266849
21606.230027,1480.411884,-9400.615463,1378.971896
21606.230360,1258.350101,-8882.471304,0.000000
21606.230693,740.205942,-8216.285956,-1455.581446
21606.231027,-3627.009116,-11547.212695,-5975.544884
21606.231360,-1184.329507,-10732.986159,-5975.544884
21606.231693,0.000000,-12361.439231,1149.143247
21606.232026,1406.391290,-7550.100608,-2374.896044
21606.232359,-1184.329507,-10881.027347,1532.190996
21606.232692,2368.659014,-7920.203579,1991.848295
21606.233025,5329.482782,-10436.903782,6741.640382
21606.233358,5625.565159,-6439.791695,6435.202183
21606.233691,5255.462188,-6365.771101,3907.087040
21606.234024,2886.803174,-8512.368333,0.000000
21606.234357,3552.988522,-11399.171507,1762.019645
21606.234691,1110.308913,-11843.295072,-1302.362347
21606.235024,-3034.844362,-8216.285956,-6128.763984
21606.235357,-1850.514855,-11251.130318,-5592.497135
21606.235690,-3775.050304,-14508.036463,-2221.676944
21606.236023,-1036.288319,-8290.306550,-766.095498
21606.236356,0.000000,-7179.997637,1378.971896
21606.236689,-1184.329507,-6587.832884,2145.067394
21606.237022,3552.988522,-5995.668130,4903.011187
21606.237355,6735.874072,-13915.871710,5439.278036
21606.237688,7179.997637,-5403.503377,5669.106685
21606.238021,148.041188,-6291.750507,1225.752797
21606.238355,1702.473667,-12435.459826,-689.485948
21606.238688,-2072.576638,-10436.903782,-3217.601092
21606.239021,-2294.638420,-11251.130318,-4519.963438
21606.239354,-2368.659014,-8364.327145,-3217.601092
21606.239687,-5921.647536,-11325.150913,-3217.601092
21606.240020,-2368.659014,-9770.718434,-76.609550
21606.240353,0.000000,-10584.944971,5362.668486
21606.240686,4293.194464,-2886.803174,5669.106685
21606.241019,-74.020594,-9400.615463,6052.154434
21606.241352,3478.967927,-9178.553681,2374.896044
21606.241685,0.000000,-8364.327145,2451.505594
21606.242018,2738.761985,-8142.265362,3600.648841
21606.242352,2590.720797,-9474.636058,-76.609550
21606.242685,-4293.194464,-10584.944971,-2451.505594
21606.243018,370.102971,-10214.842000,-2834.553343
21606.243351,-3108.864956,-11769.274478,-536.266849
21606.243684,296.082377,-7179.997637,-5592.497135
21606.244017,-6069.688724,-14211.954086,-3294.210641
21606.244350,-2368.659014,-9548.656652,0.000000
21606.244683,3997.112087,-5995.668130,3677.258390
21606.245016,6809.894666,-9474.636058,10342.289223
21606.245349,5847.626942,-4737.318029,2987.772442
21606.245682,2294.638420,-9474.636058,4826.401637
21606.246016,4885.359217,-7846.182985,2068.457845
21606.246349,2960.823768,-8438.347739,2451.505594
21606.246682,-1554.432478,-8808.450710,-2681.334243
21606.247015,-3627.009116,-11843.295072,-5669.106685
21606.247348,-3034.844362,-13915.871710,-4979.620737
21606.247681,-1776.494261,-12509.480420,0.000000
21606.248014,-518.144159,-8882.471304,-76.609550
21606.248347,-962.267725,-9622.677246,-2451.505594
21606.248680,-2368.659014,-8660.409521,1225.752797
21606.249013,3775.050304,-7105.977043,4596.572988
21606.249346,6513.812290,-4367.215058,8044.002729
21606.249680,4663.297435,-6513.812290,5898.935335
21606.250013,1776.494261,-8512.368333,1378.971896
21606.250346,222.061783,-8734.430116,-1302.362347
21606.250679,1776.494261,-12657.521608,-76.609550
21606.251012,-2442.679609,-9474.636058,-6205.373534
21606.251345,-5921.647536,-12213.398043,-6435.202183
21606.251678,-1184.329507,-12731.542202,-2451.505594
21606.252011,-2368.659014,-11917.315666,0.000000
21606.252344,3182.885551,-6957.935855,1991.848295
21606.252677,592.164754,-8068.244768,3140.991542
21606.253010,2738.761985,-8364.327145,4519.963438
21606.253343,3552.988522,-7179.997637,6128.763984
21606.253677,4663.297435,-10658.965565,7277.907231
21606.254010,1406.391290,-3034.844362,0.000000
21606.254343,-6513.812290,-11917.315666,0.000000
21606.254676,1480.411884,-7994.224174,-2911.162892
21606.255009,-2960.823768,-13101.645173,-2757.943793
21606.255342,-2442.679609,-8142.265362,-3600.648841
21606.255675,-3627.009116,-11547.212695,-4673.182538
21606.256008,-4885.359217,-13397.727550,-2757.943793
21606.256341,1776.494261,-8364.327145,1225.752797
21606.256674,814.226536,-7105.977043,4136.915689
21606.257007,4441.235652,-5699.585753,4903.011187
21606.257341,1628.453072,-9326.594869,4519.963438
21606.257674,5847.626942,-9474.636058,4826.401637
21606.258007,592.164754,-6587.832884,3677.258390
21606.258340,0.000000,-7994.224174,2374.896044
21606.258673,-3034.844362,-9770.718434,-7354.516781
21606.259006,-2812.782580,-10140.821405,-3370.820191
21606.259339,-592.164754,-10436.903782,-76.609550
21606.259672,-2590.720797,-6809.894666,-4673.182538
21606.260005,-2812.782580,-11769.274478,-2757.943793
21606.260338,74.020594,-9548.656652,536.266849
21606.260671,5255.462188,-5773.606348,4060.306139
21606.261005,1702.473667,-3034.844362,1838.629195
21606.261338,2960.823768,-10066.800811,-76.609550
21606.261671,2294.638420,-9474.636058,-76.609550
21606.262004,3552.988522,-11917.315666,4443.353888
21606.262337,8216.285956,-7698.141797,4213.525239
21606.262670,-444.123565,-11695.253884,-76.609550
21606.263003,0.000000,-10436.903782,-3677.258390
21606.263336,-2516.700203,-11177.109724,-3677.258390
21606.263669,1776.494261,-10881.027347,766.095498
21606.264002,-592.164754,-4811.338623,0.000000
21606.264335,-1258.350101,-13027.624579,-76.609550
21606.264669,518.144159,-8586.388927,766.095498
21606.265002,962.267725,-7179.997637,3217.601092
21606.265335,4145.153275,-4811.338623,1991.848295
21606.265668,222.061783,-9474.636058,1915.238745
21606.266001,-1480.411884,-10214.842000,-689.485948
21606.266334,-1406.391290,-9252.574275,0.000000
21606.266667,2294.638420,-9474.636058,-689.485948
21606.267000,-2368.659014,-8660.409521,-2911.162892
21606.267333,-4219.173869,-14211.954086,-2528.115143
21606.267666,-518.144159,-7328.038826,-2451.505594
21606.267999,814.226536,-11843.295072,4826.401637
21606.268332,1702.473667,-7994.224174,1149.143247
21606.268666,-222.061783,-7550.100608,1149.143247
21606.268999,0.000000,-10436.903782,3294.210641
21606.269332,3034.844362,-8512.368333,3830.477490
21606.269665,1406.391290,-5403.503377,2451.505594
21606.269998,-74.020594,-11251.130318,-76.609550
21606.270331,-2294.638420,-7179.997637,0.000000
21606.270664,-2368.659014,-11917.315666,1915.238745
21606.270997,-74.020594,-8290.306550,-1455.581446
21606.271330,-5107.421000,-7772.162391,-2911.162892
21606.271663,-3923.091493,-11103.089130,-3830.477490
21606.271996,-3034.844362,-7105.977043,-842.705048
21606.272330,0.000000,-9252.574275,0.000000
21606.272663,1776.494261,-5403.503377,2451.505594
21606.272996,-74.020594,-10362.883188,-76.609550
21606.273329,888.247130,-10140.821405,1838.629195
21606.273662,3182.885551,-8882.471304,4443.353888
21606.273995,3404.947333,-7105.977043,1685.410096
21606.274328,3330.926739,-7105.977043,-689.485948
21606.274661,592.164754,-13989.892304,1149.143247
21606.274994,3478.967927,-12731.542202,-2681.334243
21606.275327,-2368.659014,-10732.986159,1225.752797
21606.275660,0.000000,-8364.327145,-1838.629195
21606.275994,-3034.844362,-10510.924376,-1915.238745
21606.276327,-2368.659014,-6735.874072,-2987.772442
21606.276660,962.267725,-8808.450710,3524.039291
21606.276993,814.226536,-3701.029710,2911.162892
21606.277326,1184.329507,-5995.668130,0.000000
21606.277659,4367.215058,-11251.130318,6052.154434
21606.277992,3849.070898,-5921.647536,1762.019645
21606.278325,592.164754,-6587.832884,3677.258390
21606.278658,518.144159,-9474.636058,-3753.867940
21606.278991,-3034.844362,-12805.562797,-7967.393179
21606.279324,-962.267725,-14211.954086,-4060.306139
21606.279658,2368.659014,-11103.089130,-842.705048
21606.279991,-74.020594,-10955.047942,-536.266849
21606.280324,1184.329507,-8956.491898,459.657299
21606.280657,5551.544565,-14211.954086,4213.525239
21606.280990,5181.441594,-5403.503377,6435.202183
21606.281323,2368.659014,-3034.844362,6435.202183
21606.281656,1406.391290,-9474.636058,3294.210641
21606.281989,2368.659014,-8364.327145,2987.772442
21606.282322,0.000000,-11325.150913,2987.772442
21606.282655,2664.741391,-7254.018232,-383.047749
21606.282988,-4885.359217,-11769.274478,-3753.867940
21606.283321,-3034.844362,-12435.459826,-4979.620737
21606.283655,-4959.379811,-10658.965565,-4979.620737
21606.283988,-4737.318029,-10140.821405,-1225.752797
21606.284321,-2442.679609,-7994.224174,-2528.115143
21606.284654,-1850.514855,-9178.553681,0.000000
21606.284987,2368.659014,-6883.915261,6665.030833
21606.285320,4219.173869,-8068.244768,8886.707777
21606.285653,3775.050304,-3923.091493,4903.011187
21606.285986,518.144159,-8808.450710,2604.724693
21606.286319,1998.556043,-9474.636058,1762.019645
21606.286652,1776.494261,-10288.862594,1225.752797
21606.286985,-1850.514855,-8438.347739,-3294.210641
21606.287319,-4293.194464,-9844.739029,-6205.373534
21606.287652,-6809.894666,-11325.150913,-6128.763984
21606.287985,-4145.153275,-11325.150913,-1838.629195
21606.288318,-74.020594,-11251.130318,-76.609550
21606.288651,-2220.617826,-3034.844362,-1685.410096
21606.288984,592.164754,-8660.409521,5362.668486
21606.289317,3404.947333,-4219.173869,4519.963438
21606.289650,2960.823768,-8660.409521,7354.516781
21606.289983,4737.318029,-4293.194464,4366.744339
21606.290316,-1480.411884,-10436.903782,-766.095498
21606.290649,-148.041188,-11769.274478,-1838.629195
21606.290983,-1258.350101,-11029.068536,-2528.115143
21606.291316,-74.020594,-8882.471304,-5286.058936
21606.291649,-2072.576638,-8956.491898,-4290.134789
21606.291982,-2072.576638,-12509.480420,-2298.286494
21606.292315,0.000000,-13693.809927,1838.629195
21606.292648,1258.350101,-9474.636058,5439.278036
21606.292981,2738.761985,-5625.565159,2451.505594
21606.293314,148.041188,-7328.038826,3600.648841
21606.293647,3627.009116,-6513.812290,1762.019645
21606.293980,5033.400406,-8660.409521,9193.145976
21606.294313,4663.297435,-2368.659014,842.705048
21606.294647,0.000000,-10140.821405,1072.533697
21606.294980,-2442.679609,-13619.789333,-4366.744339
21606.295313,-74.020594,-11547.212695,-4979.620737
21606.295646,-1924.535449,-11473.192101,-3294.210641
21606.295979,-814.226536,-8734.430116,-4826.401637
21606.296312,-1850.514855,-11843.295072,-2834.553343
21606.296645,2590.720797,-8734.430116,1915.238745
21606.296978,6439.791695,-10658.965565,8503.660028
21606.297311,2368.659014,-2442.679609,4903.011187
21606.297644,3478.967927,-11251.130318,3600.648841
21606.297977,666.185348,-7179.997637,1225.752797
21606.298310,1184.329507,-9548.656652,3064.381992
21606.298644,1554.432478,-5995.668130,306.438199
21606.298977,-3997.112087,-9548.656652,-4136.915689
21606.299310,-2590.720797,-12361.439231,-4673.182538
21606.299643,-3034.844362,-12361.439231,-383.047749
21606.299976,-2664.741391,-6587.832884,-5515.887586
21606.300309,-2960.823768,-9548.656652,-1302.362347
21606.300642,-74.020594,-13027.624579,842.705048
21606.300975,4071.132681,-4811.338623,1838.629195
21606.301308,1184.329507,-9548.656652,9806.022374
21606.301641,2886.803174,-3182.885551,1838.629195
21606.301974,-222.061783,-10807.006753,1762.019645
21606.302308,666.185348,-7920.203579,-383.047749
21606.302641,2294.638420,-13471.748144,-689.485948
21606.302974,-3849.070898,-8364.327145,0.000000
21606.303307,-1998.556043,-7846.182985,-3830.477490
21606.303640,-3034.844362,-12065.356855,-306.438199
21606.303973,1924.535449,-7994.224174,995.924147
21606.304306,-74.020594,-11251.130318,2374.896044
21606.304639,-1850.514855,-5255.462188,-3064.381992
21606.304972,-3256.906145,-9548.656652,-3370.820191
21606.305305,-1554.432478,-9548.656652,2987.772442
21606.305638,4663.297435,-6809.894666,2987.772442
21606.305972,1184.329507,-6587.832884,3217.601092
21606.306305,2368.659014,-7179.997637,0.000000
21606.306638,888.247130,-10214.842000,-689.485948
21606.306971,962.267725,-11695.253884,-76.609550
21606.307304,370.102971,-8290.306550,-3140.991542
21606.307637,-5329.482782,-11325.150913,-3064.381992
21606.307970,-74.020594,-10955.047942,-3753.867940
21606.308303,-2146.597232,-11843.295072,-1915.238745
21606.308636,1184.329507,-7179.997637,3677.258390
21606.308969,2886.803174,-3552.988522,2987.772442
21606.309302,2368.659014,-9622.677246,3983.696590
21606.309635,3256.906145,-7994.224174,5745.716235
21606.309969,2368.659014,-8068.244768,3447.429741
21606.310302,666.185348,-7105.977043,-1378.971896
21606.310635,-1776.494261,-8068.244768,-76.609550
21606.310968,-1258.350101,-11547.212695,-7890.783629
21606.311301,1554.432478,-12213.398043,766.095498
21606.311634,-4145.153275,-10436.903782,-1225.752797
21606.311967,-1480.411884,-9104.533087,-5822.325785
21606.312300,-1332.370696,-12657.521608,-229.828649
21606.312633,3330.926739,-8068.244768,766.095498
21606.312966,5773.606348,-7550.100608,6741.640382
21606.313299,1702.473667,-5329.482782,2374.896044
21606.313633,3108.864956,-9474.636058,3600.648841
21606.313966,0.000000,-6587.832884,306.438199
21606.314299,4737.318029,-10140.821405,7124.688131
21606.314632,1110.308913,-5921.647536,-1302.362347
21606.314965,-2442.679609,-11843.295072,-4979.620737
21606.315298,-3849.070898,-10510.924376,-4290.134789
21606.315631,-3701.029710,-12657.521608,-2528.115143
21606.315964,-222.061783,-8290.306550,-1915.238745
21606.316297,-8290.306550,-8660.409521,-3677.258390
21606.316630,-74.020594,-9474.636058,-1302.362347
21606.316963,0.000000,-8364.327145,5209.449386
21606.317297,8216.285956,-7105.977043,9116.536426
21606.317630,1998.556043,-1850.514855,1225.752797
21606.317963,1554.432478,-11547.212695,3830.477490
21606.318296,3923.091493,-7402.059420,0.000000
21606.318629,2590.720797,-14211.954086,2298.286494
21606.318962,2886.803174,-9474.636058,-536.266849
21606.319295,-5921.647536,-11917.315666,-6741.640382
21606.319628,-2590.720797,-14211.954086,-3753.867940
21606.319961,0.000000,-9918.759623,-153.219100
21606.320294,74.020594,-8364.327145,2145.067394
21606.320627,-1628.453072,-5921.647536,1378.971896
21606.320961,-2812.782580,-7179.997637,0.000000
21606.321294,2886.803174,-7105.977043,4826.401637
21606.321627,1998.556043,-4811.338623,3064.381992
21606.321960,2738.761985,-7994.224174,3600.648841
21606.322293,-74.020594,-10658.965565,2374.896044
21606.322626,-1554.432478,-8068.244768,-2451.505594
21606.322959,1554.432478,-11695.253884,-536.266849
21606.323292,-814.226536,-8956.491898,-2757.943793
21606.323625,-2442.679609,-11547.212695,-3753.867940
21606.323958,-2960.823768,-11917.315666,-2451.505594
21606.324291,-74.020594,-13027.624579,-3140.991542
21606.324624,-1184.329507,-7179.997637,0.000000
21606.324958,2368.659014,-5625.565159,4213.525239
21606.325291,3182.885551,-8290.306550,3600.648841
21606.325624,4737.318029,-5403.503377,6741.640382
21606.325957,5699.585753,-8586.388927,6281.983084
21606.326290,4145.153275,-5773.606348,3140.991542
21606.326623,-222.061783,-11399.171507,-842.705048
21606.326956,-74.020594,-13619.789333,-1302.362347
21606.327289,-2442.679609,-12287.418637,-3907.087040
21606.327622,-4737.318029,-7772.162391,-4213.525239
21606.327955,-2368.659014,-10140.821405,-1302.362347
21606.328288,-3034.844362,-8660.409521,-4903.011187
21606.328622,3701.029710,-10066.800811,3294.210641
21606.328955,666.185348,-8956.491898,5439.278036
21606.329288,2368.659014,-5107.421000,2528.115143
21606.329621,148.041188,-9622.677246,2298.286494
21606.329954,2886.803174,-9474.636058,2834.553343
21606.330287,4737.318029,-5995.668130,1225.752797
21606.330620,3849.070898,-9474.636058,4213.525239
21606.330953,-74.020594,-9548.656652,-2757.943793
21606.331286,-1998.556043,-8956.491898,-6741.640382
21606.331619,1036.288319,-15988.448347,-76.609550
21606.331952,-592.164754,-7476.080014,-2374.896044
21606.332286,-3182.885551,-9548.656652,-3064.381992
21606.332619,-3034.844362,-9548.656652,-1072.533697
21606.332952,0.000000,-6217.729913,229.828649
21606.333285,2072.576638,-6883.915261,6281.983084
21606.333618,1628.453072,-5033.400406,2604.724693
21606.333951,-592.164754,-9548.656652,2298.286494
21606.334284,1184.329507,-8512.368333,3677.258390
21606.334617,2960.823768,-9400.615463,5439.278036
21606.334950,-666.185348,-5477.523971,-4749.792088
21606.335283,-2960.823768,-12435.459826,-2604.724693
21606.335616,-1258.350101,-14211.954086,-4366.744339
21606.335950,1184.329507,-10732.986159,0.000000
21606.336283,74.020594,-10881.027347,612.876398
21606.336616,-3256.906145,-9918.759623,-2987.772442
21606.336949,-814.226536,-10288.862594,1378.971896
21606.337282,3182.885551,-10362.883188,6052.154434
21606.337615,5921.647536,-3923.091493,7584.345430
21606.337948,370.102971,-5107.421000,4903.011187
21606.338281,2368.659014,-7624.121203,4213.525239
21606.338614,814.226536,-11251.130318,-76.609550
21606.338947,1998.556043,-9326.594869,1149.143247
21606.339280,-1258.350101,-8290.306550,-3447.429741
21606.339613,-7179.997637,-13027.624579,-7277.907231
21606.339947,-4367.215058,-10436.903782,-7354.516781
21606.340280,-4293.194464,-14434.015869,-1378.971896
21606.340613,2294.638420,-7105.977043,-76.609550
21606.340946,592.164754,-8734.430116,4826.401637
21606.341279,4367.215058,-10658.965565,4826.401637
21606.341612,2368.659014,-5995.668130,3677.258390
21606.341945,2368.659014,-8364.327145,7354.516781
21606.342278,4663.297435,-3701.029710,1455.581446
21606.342611,296.082377,-10288.862594,2681.334243
21606.342944,1258.350101,-8808.450710,-1225.752797
21606.343277,518.144159,-12435.459826,-2068.457845
21606.343611,-1776.494261,-8660.409521,-2911.162892
21606.343944,-2368.659014,-11251.130318,-3140.991542
21606.344277,-2442.679609,-13027.624579,-3753.867940
21606.344610,-3108.864956,-9548.656652,0.000000
21606.344943,1406.391290,-9474.636058,6052.154434
21606.345276,-1036.288319,-3923.091493,919.314598
21606.345609,-222.061783,-7846.182985,3907.087040
21606.345942,2442.679609,-6143.709319,2681.334243
21606.346275,6365.771101,-9030.512492,6588.421283
21606.346608,1184.329507,-6587.832884,4290.134789
21606.346941,3478.967927,-9474.636058,-3753.867940
21606.347275,-1184.329507,-10732.986159,-2451.505594
21606.347608,0.000000,-12509.480420,-1225.752797
21606.347941,2294.638420,-11251.130318,-2528.115143
21606.348274,-5921.647536,-12509.480420,-4290.134789
21606.348607,-2146.597232,-9326.594869,-4060.306139
21606.348940,222.061783,-11399.171507,2221.676944
21606.349273,6957.935855,-5699.585753,8197.221829
21606.349606,2960.823768,-3034.844362,5056.230287
21606.349939,2072.576638,-10436.903782,3907.087040
21606.350272,5107.421000,-7179.997637,5439.278036
21606.350605,0.000000,-10362.883188,1915.238745
21606.350938,1702.473667,-4737.318029,-3140.991542
21606.351272,-7698.141797,-12361.439231,-6435.202183
21606.351605,-2294.638420,-10658.965565,-2528.115143
21606.351938,-1850.514855,-9104.533087,-2451.505594
21606.352271,-2072.576638,-6587.832884,-2834.553343
21606.352604,-1850.514855,-10362.883188,-1915.238745
21606.352937,-1776.494261,-11843.295072,1302.362347
21606.353270,4885.359217,-7624.121203,2834.553343
21606.353603,3775.050304,-9474.636058,6971.469032
21606.353936,3034.844362,-4811.338623,1225.752797
21606.354269,1184.329507,-7476.080014,2451.505594
21606.354602,2886.803174,-12435.459826,2068.457845
21606.354936,3330.926739,-7105.977043,-76.609550
21606.355269,-2072.576638,-8956.491898,-612.876398
21606.355602,-2146.597232,-11251.130318,-2834.553343
21606.355935,-4737.318029,-11843.295072,-2528.115143
21606.356268,-2220.617826,-9548.656652,-2068.457845
21606.356601,-2516.700203,-7846.182985,-153.219100
21606.356934,-2368.659014,-7772.162391,0.000000
21606.357267,-3552.988522,-7179.997637,612.876398
21606.357600,-74.020594,-10658.965565,1762.019645
21606.357933,1184.329507,-5107.421000,2757.943793
21606.358266,4737.318029,-8142.265362,4826.401637
21606.358600,1776.494261,-10140.821405,2451.505594
21606.358933,2738.761985,-11399.171507,-76.609550
21606.359266,1702.473667,-12805.562797,766.095498
21606.359599,-592.164754,-8660.409521,-2757.943793
21606.359932,-666.185348,-12435.459826,-2528.115143
21606.360265,-2368.659014,-10732.986159,-229.828649
21606.360598,-1554.432478,-8734.430116,-2221.676944
21606.360931,0.000000,-7179.997637,3677.258390
21606.361264,2294.638420,-7105.977043,3600.648841
21606.361597,2294.638420,-7698.141797,4826.401637
21606.361930,2294.638420,-7846.182985,3447.429741
21606.362264,1998.556043,-7476.080014,4213.525239
21606.362597,-1332.370696,-5921.647536,-842.705048
21606.362930,-4367.215058,-10140.821405,-3677.258390
21606.363263,-370.102971,-11251.130318,-2834.553343
21606.363596,-2368.659014,-11917.315666,-1838.629195
21606.363929,-2960.823768,-8364.327145,612.876398
21606.364262,-1258.350101,-11843.295072,-3140.991542
21606.364595,-74.020594,-10510.924376,-689.485948
21606.364928,4367.215058,-8438.347739,3294.210641
21606.365261,3849.070898,-7994.224174,4213.525239
21606.365594,3923.091493,-5921.647536,2834.553343
21606.365927,0.000000,-9548.656652,0.000000
21606.366261,4663.297435,-10658.965565,2681.334243
21606.366594,3627.009116,-8364.327145,3370.820191
21606.366927,1036.288319,-7772.162391,-1149.143247
21606.367260,-296.082377,-10955.047942,-3753.867940
21606.367593,-3034.844362,-11917.315666,-4213.525239
21606.367926,1184.329507,-11843.295072,2987.772442
21606.368259,-370.102971,-7105.977043,-4136.915689
21606.368592,-4441.235652,-8364.327145,-3677.258390
21606.368925,-2960.823768,-11325.150913,1608.800546
21606.369258,2886.803174,-6365.771101,2604.724693
21606.369591,3478.967927,-4737.318029,7277.907231
21606.369925,1998.556043,-3108.864956,76.609550
21606.370258,1998.556043,-10658.965565,2374.896044
21606.370591,1480.411884,-9548.656652,1838.629195
21606.370924,6439.791695,-12731.542202,1149.143247
21606.371257,-1184.329507,-8364.327145,-4290.134789
21606.371590,-3256.906145,-12805.562797,-4060.306139
21606.371923,-1258.350101,-13027.624579,-3140.991542
21606.372256,-3552.988522,-11325.150913,0.000000
21606.372589,1406.391290,-5625.565159,-1225.752797
21606.372922,-1480.411884,-9622.677246,2221.676944
21606.373255,2886.803174,-7402.059420,4519.963438
21606.373589,3404.947333,-7698.141797,9116.536426
21606.373922,4663.297435,-4737.318029,1762.019645
21606.374255,0.000000,-7772.162391,3524.039291
21606.374588,-370.102971,-10658.965565,-76.609550
21606.374921,-74.020594,-11547.212695,-995.924147
21606.375254,-1776.494261,-12139.377449,-383.047749
21606.375587,-1924.535449,-8216.285956,-5898.935335
21606.375920,-4737.318029,-13397.727550,-2834.553343
21606.376253,370.102971,-9992.780217,-1608.800546
21606.376586,1702.473667,-13027.624579,3600.648841
21606.376919,0.000000,-4811.338623,0.000000
21606.377253,0.000000,-5995.668130,3064.381992
21606.377586,1998.556043,-8882.471304,2374.896044
21606.377919,4663.297435,-7179.997637,3064.381992
21606.378252,3849.070898,-7031.956449,6665.030833
21606.378585,-222.061783,-7254.018232,0.000000
21606.378918,-1258.350101,-9622.677246,-459.657299
21606.379251,-1628.453072,-13027.624579,-2451.505594
21606.379584,1406.391290,-10066.800811,536.266849
21606.379917,-4441.235652,-8364.327145,-4213.525239
21606.380250,-2146.597232,-9474.636058,-5592.497135
21606.380583,-3849.070898,-12583.501014,-1608.800546
21606.380916,0.000000,-8660.409521,1838.629195
21606.381250,592.164754,-7328.038826,4826.401637
21606.381583,-74.020594,-7105.977043,1455.581446
21606.381916,592.164754,-7179.997637,1225.752797
21606.382249,5107.421000,-9474.636058,6665.030833
21606.382582,4737.318029,-4811.338623,3677.258390
21606.382916,2368.659014,-8660.409521,1838.629195
21606.383249,148.041188,-12139.377449,-2298.286494
21606.383582,-2220.617826,-11843.295072,-5822.325785
21606.383916,-74.020594,-14211.954086,-1302.362347
21606.384249,-1184.329507,-5995.668130,-4903.011187
21606.384582,-666.185348,-10732.986159,-4903.011187
21606.384916,0.000000,-10436.903782,689.485948
21606.385249,4071.132681,-12139.377449,7277.907231
21606.385583,4663.297435,-3849.070898,5515.887586
21606.385916,1480.411884,-7179.997637,1838.629195
21606.386249,740.205942,-8364.327145,3064.381992
21606.386583,2738.761985,-8068.244768,2911.162892
21606.386916,1406.391290,-7550.100608,1225.752797
21606.387249,1480.411884,-8068.244768,-689.485948
21606.387583,-4737.318029,-11917.315666,-4903.011187
21606.387916,-222.061783,-11843.295072,-2528.115143
21606.388250,-666.185348,-12953.603985,-1991.848295
21606.388583,-3404.947333,-7772.162391,-4290.134789
21606.388916,-3330.926739,-10066.800811,-2451.505594
21606.389250,0.000000,-8734.430116,2298.286494
21606.389583,5995.668130,-6291.750507,8580.269578
21606.389916,5403.503377,-2960.823768,6511.811733
21606.390250,3478.967927,-7105.977043,-76.609550
21606.390583,1184.329507,-11029.068536,3907.087040
21606.390917,4663.297435,-12435.459826,2374.896044
21606.391250,1850.514855,-7476.080014,0.000000
21606.391583,-3552.988522,-11769.274478,-3524.039291
21606.391917,-4293.194464,-11325.150913,-5975.544884
21606.392250,-3627.009116,-12287.418637,-3753.867940
21606.392583,-1332.370696,-12583.501014,612.876398
21606.392917,-1554.432478,-6957.935855,0.000000
21606.393250,-2220.617826,-6735.874072,0.000000
21606.393583,1924.535449,-9178.553681,6052.154434
21606.393917,3478.967927,-5699.585753,5515.887586
21606.394250,2812.782580,-4811.338623,4903.011187
21606.394584,0.000000,-6883.915261,2451.505594
21606.394917,-370.102971,-9252.574275,-842.705048
21606.395250,-74.020594,-12509.480420,0.000000
21606.395584,0.000000,-9178.553681,-1378.971896
21606.395917,-2664.741391,-9400.615463,-6052.154434
21606.396250,-2442.679609,-11029.068536,-3677.258390
21606.396584,-2146.597232,-11547.212695,-1991.848295
21606.396917,518.144159,-8808.450710,1685.410096
21606.397251,-592.164754,-8142.265362,2221.676944
21606.397584,2590.720797,-6513.812290,3294.210641
21606.397917,2294.638420,-7254.018232,1838.629195
21606.398251,4737.318029,-8660.409521,5515.887586
21606.398584,6439.791695,-7105.977043,3600.648841
21606.398917,-1110.308913,-8364.327145,-612.876398
21606.399251,0.000000,-10732.986159,-1455.581446
21606.399584,-3627.009116,-11769.274478,-3524.039291
21606.399918,592.164754,-9696.697840,-1685.410096
21606.400251,-2368.659014,-10066.800811,-3524.039291
21606.400584,-666.185348,-10658.965565,-3140.991542
21606.400918,-1850.514855,-9548.656652,-3064.381992
21606.401251,3701.029710,-10658.965565,5439.278036
21606.401584,4071.132681,-5921.647536,2374.896044
21606.401918,1480.411884,-8364.327145,2757.943793
21606.402251,3478.967927,-11547.212695,3600.648841
21606.402585,2368.659014,-8734.430116,4060.306139
21606.402918,3330.926739,-7846.182985,3294.210641
21606.403251,296.082377,-8142.265362,459.657299
21606.403585,-3256.906145,-10140.821405,-3677.258390
21606.403918,-1998.556043,-9104.533087,-7354.516781
21606.404251,-2220.617826,-12879.583391,-76.609550
21606.404585,-1850.514855,-5921.647536,-4979.620737
21606.404918,-1554.432478,-11695.253884,-689.485948
21606.405252,-1184.329507,-5107.421000,689.485948
21606.405585,4145.153275,-7476.080014,5132.839837
21606.405918,2368.659014,-6661.853478,4366.744339
21606.406252,888.247130,-8068.244768,306.438199
21606.406585,2960.823768,-10955.047942,3830.477490
21606.406918,1480.411884,-10140.821405,4903.011187
21606.407252,4663.297435,-9474.636058,2374.896044
21606.407585,-3552.988522,-6587.832884,-5515.887586
21606.407918,-1628.453072,-15692.365970,-1302.362347
21606.408252,0.000000,-9474.636058,-2451.505594
21606.408585,222.061783,-11843.295072,-1072.533697
21606.408919,-1406.391290,-6883.915261,-1225.752797
21606.409252,-3701.029710,-12139.377449,-1608.800546
21606.409585,2294.638420,-6513.812290,1762.019645
21606.409919,3552.988522,-11473.192101,9116.536426
21606.410252,3849.070898,-3923.091493,3677.258390
21606.410585,0.000000,-7179.997637,2451.505594
21606.410919,-74.020594,-10658.965565,-76.609550
21606.411252,3182.885551,-8882.471304,0.000000
21606.411586,-74.020594,-10658.965565,-689.485948
21606.411919,-1258.350101,-10436.903782,-4979.620737
21606.412252,-3849.070898,-11991.336260,-2911.162892
21606.412586,-666.185348,-9474.636058,-1915.238745
21606.412919,0.000000,-10510.924376,3294.210641
21606.413252,-666.185348,-5107.421000,306.438199
21606.413586,370.102971,-9474.636058,1991.848295
21606.413919,2368.659014,-6587.832884,5439.278036
21606.414253,4663.297435,-9474.636058,4826.401637
21606.414586,2368.659014,-5107.421000,3677.258390
21606.414919,-666.185348,-11843.295072,-76.609550
21606.415253,-3256.906145,-8364.327145,-3524.039291
21606.415586,-1184.329507,-10732.986159,-2451.505594
21606.415919,-74.020594,-11843.295072,-2681.334243
21606.416253,-1258.350101,-9104.533087,-3447.429741
21606.416586,-3849.070898,-13101.645173,-1532.190996
21606.416920,-814.226536,-8734.430116,0.000000
21606.417253,814.226536,-8956.491898,3217.601092
21606.417586,5329.482782,-4663.297435,6052.154434
21606.417920,518.144159,-9474.636058,1149.143247
21606.418253,2368.659014,-8956.491898,5362.668486
21606.418586,4663.297435,-11251.130318,5439.278036
21606.418920,1850.514855,-6291.750507,612.876398
21606.419253,1850.514855,-7846.182985,-1991.848295
21606.419587,-1702.473667,-13323.706956,-4366.744339
21606.419920,666.185348,-12435.459826,-3830.477490
21606.420253,-4737.318029,-14285.974681,0.000000
21606.420587,-370.102971,-7994.224174,-1915.238745
21606.420920,-4811.338623,-11029.068536,-3064.381992
21606.421253,0.000000,-6291.750507,1225.752797
21606.421587,4663.297435,-7105.977043,7277.907231
21606.421920,1776.494261,-2146.597232,4673.182538
21606.422253,888.247130,-9030.512492,2911.162892
21606.422587,814.226536,-8882.471304,1915.238745
21606.422920,2960.823768,-9326.594869,1762.019645
21606.423254,1998.556043,-10658.965565,2374.896044
21606.423587,-2442.679609,-11843.295072,-7431.126331
21606.423920,-4367.215058,-12213.398043,-6741.640382
21606.424254,-1184.329507,-12657.521608,0.000000
21606.424587,1702.473667,-11251.130318,-76.609550
21606.424920,-2368.659014,-7772.162391,1225.752797
21606.425254,-1406.391290,-8438.347739,-919.314598
21606.425587,2220.617826,-7105.977043,3140.991542
21606.425921,6957.935855,-7402.059420,9039.926876
21606.426254,4663.297435,-4219.173869,4366.744339
21606.426587,2368.659014,-7772.162391,612.876398
21606.426921,-74.020594,-9474.636058,-1072.533697
21606.427254,3034.844362,-11103.089130,1455.581446
21606.427587,-1184.329507,-7476.080014,-4213.525239
21606.427921,-3552.988522,-10140.821405,-4903.011187
21606.428254,-2442.679609,-14211.954086,-4979.620737
21606.428588,0.000000,-9548.656652,-1455.581446
21606.428921,0.000000,-8364.327145,3064.381992
21606.429254,-962.267725,-6217.729913,-1302.362347
21606.429588,-1110.308913,-9030.512492,2528.115143
21606.429921,2072.576638,-6069.688724,4596.572988
21606.430254,3256.906145,-9844.739029,8044.002729
21606.430588,2368.659014,-3627.009116,4903.011187
21606.430921,-74.020594,-9474.636058,-459.657299
21606.431255,4367.215058,-11251.130318,-689.485948
21606.431588,0.000000,-13101.645173,1072.533697
21606.431921,-2960.823768,-9548.656652,-2528.115143
21606.432255,-5773.606348,-11029.068536,-6435.202183
21606.432588,-4959.379811,-12435.459826,-5286.058936
21606.432921,-1036.288319,-10214.842000,-1762.019645
21606.433255,1998.556043,-9918.759623,3600.648841
21606.433588,2294.638420,-4737.318029,2374.896044
21606.433922,0.000000,-7772.162391,4903.011187
21606.434255,4071.132681,-8882.471304,4213.525239
21606.434588,2516.700203,-7179.997637,3983.696590
21606.434922,4071.132681,-6809.894666,3217.601092
21606.435255,-74.020594,-9474.636058,-3140.991542
21606.435588,0.000000,-14804.118840,-1608.800546
21606.435922,-2072.576638,-13545.768739,-459.657299
21606.436255,-1480.411884,-9622.677246,-2451.505594
21606.436588,-2294.638420,-8734.430116,-3524.039291
21606.436922,-2960.823768,-12213.398043,-76.609550
21606.437255,296.082377,-4811.338623,612.876398
21606.437589,0.000000,-7179.997637,3983.696590
21606.437922,6439.791695,-5921.647536,1762.019645
21606.438255,-1480.411884,-8956.491898,1378.971896
21606.438589,4663.297435,-7105.977043,3294.210641
21606.438922,3034.844362,-10066.800811,4826.401637
21606.439255,0.000000,-5107.421000,-689.485948
21606.439589,-1184.329507,-11251.130318,-3983.696590
21606.439922,-1554.432478,-11843.295072,-3753.867940
21606.440256,-3404.947333,-10732.986159,-1225.752797
21606.440589,-74.020594,-11103.089130,1762.019645
21606.440922,-1258.350101,-5921.647536,-4366.744339
21606.441256,-5329.482782,-8956.491898,-3677.258390
21606.441589,4071.132681,-7994.224174,1762.019645
21606.441922,3701.029710,-9548.656652,7048.078582
21606.442256,5847.626942,-3256.906145,4826.401637
21606.442589,1998.556043,-8808.450710,2451.505594
21606.442923,3775.050304,-10362.883188,-229.828649
21606.443256,2516.700203,-11251.130318,2298.286494
21606.443589,740.205942,-10066.800811,-2374.896044
21606.443923,-2072.576638,-11325.150913,-5439.278036
21606.444256,-5921.647536,-12509.480420,-3677.258390
21606.444589,2886.803174,-11251.130318,-689.485948
21606.444923,-2072.576638,-6809.894666,842.705048
21606.445256,0.000000,-4811.338623,1378.971896
21606.445590,1258.350101,-9474.636058,4213.525239
21606.445923,1702.473667,-6291.750507,3370.820191
21606.446256,4293.194464,-6513.812290,4826.401637
21606.446590,-148.041188,-8438.347739,1838.629195
21606.446923,888.247130,-7624.121203,-1072.533697
21606.447256,592.164754,-12139.377449,842.705048
21606.447590,1554.432478,-14211.954086,-2528.115143
21606.447923,-4737.318029,-8364.327145,-4903.011187
21606.448257,-8290.306550,-10732.986159,-4903.011187
21606.448590,-74.020594,-11843.295072,-2528.115143
21606.448923,-1776.494261,-10732.986159,1838.629195
21606.449257,2664.741391,-5921.647536,2451.505594
21606.449590,962.267725,-7772.162391,4060.306139
21606.449923,2886.803174,-7994.224174,4519.963438
21606.450257,4071.132681,-6809.894666,3294.210641
21606.450590,3478.967927,-13027.624579,4826.401637
21606.450923,0.000000,-4219.173869,1838.629195
21606.451257,-2442.679609,-11843.295072,-2528.115143
21606.451590,518.144159,-9844.739029,-4290.134789
21606.451924,-74.020594,-13323.706956,-76.609550
21606.452257,-2368.659014,-9252.574275,-1532.190996
21606.452590,-1554.432478,-7698.141797,-2298.286494
21606.452924,-4515.256246,-11621.233289,-1685.410096
21606.453257,0.000000,-6291.750507,612.876398
21606.453590,2294.638420,-6735.874072,3524.039291
21606.453924,0.000000,-5403.503377,4366.744339
21606.454257,3478.967927,-7105.977043,2068.457845
21606.454591,296.082377,-8364.327145,306.438199
21606.454924,3997.112087,-6143.709319,3907.087040
21606.455257,740.205942,-7254.018232,-1072.533697
21606.455591,148.041188,-12805.562797,-3753.867940
21606.455924,-1924.535449,-11251.130318,-3447.429741
21606.456257,1184.329507,-13619.789333,-306.438199
21606.456591,0.000000,-7179.997637,0.000000
21606.456924,-1258.350101,-10510.924376,-1302.362347
21606.457258,-74.020594,-10362.883188,-2374.896044
21606.457591,2368.659014,-8364.327145,5975.544884
21606.457924,5255.462188,-7402.059420,6971.469032
21606.458258,2886.803174,-4515.256246,3294.210641
21606.458591,0.000000,-9030.512492,0.000000
21606.458924,3256.906145,-10510.924376,995.924147
21606.459258,3256.906145,-13915.871710,5515.887586
21606.459591,444.123565,-5107.421000,153.219100
21606.459925,-5329.482782,-7772.162391,-7201.297681
21606.460258,-2368.659014,-12509.480420,-4673.182538
21606.460591,0.000000,-12213.398043,689.485948
21606.460925,-1776.494261,-8364.327145,0.000000
21606.461258,-1850.514855,-5033.400406,-5439.278036
21606.461591,-1776.494261,-12361.439231,2987.772442
21606.461925,4959.379811,-6513.812290,4826.401637
21606.462258,5847.626942,-8290.306550,5439.278036
21606.462592,3849.070898,-5921.647536,4213.525239
21606.462925,2294.638420,-9400.615463,1378.971896
21606.463258,2960.823768,-9548.656652,2681.334243
21606.463592,2368.659014,-10955.047942,2604.724693
21606.463925,-666.185348,-9474.636058,-2528.115143
21606.464258,-5921.647536,-9548.656652,-4903.011187
21606.464592,-2812.782580,-13915.871710,-2528.115143
21606.464925,-74.020594,-9326.594869,-2451.505594
21606.465258,-4737.318029,-7179.997637,0.000000
21606.465592,-666.185348,-7698.141797,995.924147
21606.465925,-518.144159,-5995.668130,2911.162892
21606.466259,2146.597232,-8068.244768,6052.154434
21606.466592,3849.070898,-5921.647536,5056.230287
21606.466925,1702.473667,-6217.729913,383.047749
21606.467259,-2368.659014,-10140.821405,1225.752797
21606.467592,814.226536,-11547.212695,-3140.991542
21606.467925,814.226536,-11917.315666,-2451.505594
21606.468259,0.000000,-9918.759623,-919.314598
21606.468592,-2738.761985,-9548.656652,-5515.887586
21606.468926,-2368.659014,-11399.171507,-2604.724693
21606.469259,1702.473667,-11251.130318,3524.039291
21606.469592,2516.700203,-6365.771101,4443.353888
21606.469926,592.164754,-5107.421000,3677.258390
21606.470259,1184.329507,-6587.832884,5745.716235
21606.470592,4071.132681,-7698.141797,2834.553343
21606.470926,592.164754,-8364.327145,0.000000
21606.471259,592.164754,-7772.162391,-76.609550
21606.471593,-5107.421000,-14285.974681,-3370.820191
21606.471926,-2886.803174,-9474.636058,-4673.182538
21606.472259,-1184.329507,-13471.748144,995.924147
21606.472593,-1258.350101,-5847.626942,-1838.629195
21606.472926,-2072.576638,-7179.997637,-3677.258390
21606.473259,-3627.009116,-10066.800811,-995.924147
21606.473593,2664.741391,-8512.368333,2681.334243
21606.473926,2368.659014,-7402.059420,5515.887586
21606.474260,3478.967927,-6809.894666,2987.772442
21606.474593,2294.638420,-8290.306550,-612.876398
21606.474926,2368.659014,-11917.315666,3294.210641
21606.475260,4663.297435,-12435.459826,3600.648841
21606.475593,0.000000,-5995.668130,-1225.752797
21606.475926,-370.102971,-12139.377449,-2298.286494
21606.476260,-666.185348,-11843.295072,-2528.115143
21606.476593,888.247130,-10807.006753,842.705048
21606.476927,666.185348,-6069.688724,536.266849
21606.477260,-3182.885551,-5477.523971,-1991.848295
21606.477593,-148.041188,-7698.141797,-1302.362347
21606.477927,0.000000,-11325.150913,7048.078582
21606.478260,3478.967927,-6513.812290,4826.401637
21606.478593,-74.020594,-7328.038826,-1838.629195
21606.478927,1998.556043,-11251.130318,-229.828649
21606.479260,2664.741391,-10140.821405,0.000000
21606.479593,2072.576638,-14508.036463,4979.620737
21606.479927,3256.906145,-3775.050304,-842.705048
21606.480260,-4737.318029,-11917.315666,-4903.011187
21606.480594,-74.020594,-9918.759623,-3753.867940
21606.480927,0.000000,-11991.336260,4213.525239
21606.481260,-74.020594,-5921.647536,-1915.238745
21606.481594,-1924.535449,-4811.338623,-1685.410096
21606.481927,-2368.659014,-8364.327145,612.876398
21606.482260,2220.617826,-7179.997637,4290.134789
21606.482594,1184.329507,-7624.121203,3600.648841
21606.482927,1184.329507,-7846.182985,306.438199
21606.483260,-74.020594,-12435.459826,1762.019645
21606.483593,1036.288319,-7179.997637,0.000000
21606.483927,1110.308913,-11251.130318,-76.609550
21606.484260,-1258.350101,-4959.379811,-6128.763984
21606.484593,-4737.318029,-11917.315666,-5745.716235
21606.484926,-74.020594,-13619.789333,-1302.362347
21606.485260,740.205942,-11251.130318,842.705048
21606.485593,2368.659014,-8216.285956,4826.401637
21606.485926,74.020594,-7105.977043,1532.190996
21606.486259,2072.576638,-7698.141797,3524.039291
21606.486593,3849.070898,-7920.203579,8503.660028
21606.486926,4663.297435,-5773.606348,3983.696590
21606.487259,1480.411884,-9104.533087,2451.505594
21606.487592,-666.185348,-11843.295072,-3753.867940
21606.487926,-666.185348,-10658.965565,-2451.505594
21606.488259,0.000000,-12657.521608,995.924147
21606.488592,-1628.453072,-6735.874072,-1838.629195
21606.488925,-3849.070898,-9622.677246,-4443.353888
21606.489259,-4885.359217,-12213.398043,-3294.210641
21606.489592,-1184.329507,-10436.903782,2374.896044
21606.489925,1184.329507,-7254.018232,2911.162892
21606.490258,1110.308913,-8142.265362,3600.648841
21606.490591,2368.659014,-8438.347739,1302.362347
21606.490925,6735.874072,-10362.883188,6665.030833
21606.491258,5921.647536,-7179.997637,7354.516781
21606.491591,7031.956449,-8290.306550,-76.609550
21606.491924,-4441.235652,-10732.986159,-3064.381992
21606.492258,-1776.494261,-12731.542202,-5592.497135
21606.492591,-666.185348,-14211.954086,-1608.800546
21606.492924,-3478.967927,-8734.430116,-4749.792088
21606.493257,-4663.297435,-9474.636058,-5209.449386
21606.493591,-3034.844362,-10362.883188,-1225.752797
21606.493924,2368.659014,-7179.997637,4903.011187
21606.494257,3552.988522,-5107.421000,10112.460574
21606.494590,3478.967927,-4589.276840,4060.306139
21606.494924,-962.267725,-7179.997637,612.876398
21606.495257,1184.329507,-8734.430116,1915.238745
21606.495590,4663.297435,-9178.553681,-1072.533697
21606.495923,0.000000,-9252.574275,-1915.238745
21606.496257,-2368.659014,-11621.233289,-5209.449386
21606.496590,-1258.350101,-12139.377449,-4673.182538
21606.496923,-1628.453072,-13101.645173,-1838.629195
21606.497256,592.164754,-8956.491898,2987.772442
21606.497590,-74.020594,-9474.636058,-1838.629195
21606.497923,2516.700203,-8364.327145,2451.505594
21606.498256,5329.482782,-9474.636058,9729.412825
21606.498589,4737.318029,-4219.173869,7354.516781
21606.498923,1998.556043,-6217.729913,2911.162892
21606.499256,0.000000,-7920.203579,-1378.971896
21606.499589,1110.308913,-10214.842000,-1608.800546
21606.499922,-370.102971,-11843.295072,-1608.800546
21606.500255,-2368.659014,-10362.883188,-4979.620737
21606.500589,-6587.832884,-13397.727550,-6435.202183
21606.500922,-3256.906145,-8660.409521,-2451.505594
21606.501255,-1184.329507,-12731.542202,4213.525239
21606.501588,2886.803174,-4737.318029,3600.648841
21606.501922,-148.041188,-6735.874072,-76.609550
21606.502255,2220.617826,-8364.327145,3370.820191
21606.502588,1480.411884,-10732.986159,5132.839837
21606.502921,5033.400406,-4811.338623,5209.449386
21606.503255,4071.132681,-8882.471304,2451.505594
21606.503588,2960.823768,-8660.409521,0.000000
21606.503921,1110.308913,-15100.201217,-1915.238745
21606.504254,-1850.514855,-10436.903782,-4290.134789
21606.504588,-1850.514855,-9844.739029,-3447.429741
21606.504921,-6143.709319,-12509.480420,-4903.011187
21606.505254,-1184.329507,-8512.368333,-1532.190996
21606.505587,-1184.329507,-10510.924376,2834.553343
21606.505921,2664.741391,-3627.009116,5209.449386
21606.506254,1110.308913,-3034.844362,2451.505594
21606.506587,1702.473667,-9326.594869,2374.896044
21606.506920,3997.112087,-7402.059420,3064.381992
21606.507254,1480.411884,-9104.533087,2681.334243
21606.507587,444.123565,-7105.977043,-3753.867940
21606.507920,-2442.679609,-17764.942608,-4979.620737
21606.508253,-2368.659014,-11029.068536,-3677.258390
21606.508586,444.123565,-12879.583391,1532.190996
21606.508920,2072.576638,-7402.059420,766.095498
21606.509253,-4145.153275,-9548.656652,-1532.190996
21606.509586,-1258.350101,-8512.368333,-383.047749
21606.509919,3552.988522,-7179.997637,5515.887586
21606.510253,1406.391290,-6809.894666,4903.011187
21606.510586,0.000000,-4811.338623,0.000000
21606.510919,-1258.350101,-9474.636058,-1608.800546
21606.511252,814.226536,-7179.997637,0.000000
21606.511586,2664.741391,-11843.295072,2374.896044
21606.511919,-74.020594,-8882.471304,-3140.991542
21606.512252,-1776.494261,-9548.656652,-2987.772442
21606.512585,-1850.514855,-12139.377449,-1378.971896
21606.512919,3330.926739,-11399.171507,2681.334243
21606.513252,-888.247130,-7105.977043,153.219100
21606.513585,1258.350101,-9474.636058,-76.609550
21606.513918,1110.308913,-7254.018232,-1225.752797
21606.514252,3849.070898,-8364.327145,4903.011187
21606.514585,5847.626942,-8290.306550,2374.896044
21606.514918,0.000000,-5995.668130,0.000000
21606.515251,2294.638420,-12435.459826,-1302.362347
21606.515585,370.102971,-13693.809927,2528.115143
21606.515918,2812.782580,-8586.388927,1532.190996
21606.516251,-3552.988522,-6365.771101,-2374.896044
21606.516584,-3034.844362,-7105.977043,-6818.249932
21606.516918,-4663.297435,-10732.986159,-4903.011187
21606.517251,0.000000,-10732.986159,2374.896044
21606.517584,-1258.350101,-9474.636058,-1915.238745
21606.517917,-3552.988522,-4811.338623,0.000000
21606.518250,1554.432478,-8882.471304,2374.896044
21606.518584,2368.659014,-9400.615463,4596.572988
21606.518917,4737.318029,-6143.709319,5592.497135
21606.519250,0.000000,-6883.915261,0.000000
21606.519583,2886.803174,-11843.295072,-76.609550
21606.519917,1332.370696,-11917.315666,2987.772442
21606.520250,1406.391290,-10955.047942,306.438199
21606.520583,-1554.432478,-7772.162391,-2068.457845
21606.520916,-3552.988522,-11029.068536,-4903.011187
21606.521250,-1184.329507,-11991.336260,-1302.362347
21606.521583,518.144159,-9548.656652,612.876398
21606.521916,0.000000,-4219.173869,1532.190996
21606.522249,-74.020594,-6513.812290,1149.143247
21606.522583,0.000000,-6587.832884,0.000000
21606.522916,4589.276840,-7698.141797,5515.887586
21606.523249,2812.782580,-6809.894666,2451.505594
21606.523582,-370.102971,-8586.388927,-1685.410096
21606.523916,-370.102971,-13545.768739,-1302.362347
21606.524249,-148.041188,-14211.954086,-1302.362347
21606.524582,-1776.494261,-9548.656652,1225.752797
21606.524915,296.082377,-7476.080014,-2451.505594
21606.525249,-1258.350101,-12731.542202,-2528.115143
21606.525582,592.164754,-8364.327145,0.000000
21606.525915,2738.761985,-11177.109724,4903.011187
21606.526248,2664.741391,-7254.018232,4749.792088
21606.526582,444.123565,-7772.162391,306.438199
21606.526915,2738.761985,-8882.471304,1149.143247
21606.527248,4441.235652,-12731.542202,6665.030833
21606.527581,0.000000,-4811.338623,7354.516781
21606.527914,-74.020594,-9474.636058,-1915.238745
21606.528248,-4589.276840,-9474.636058,-6205.373534
21606.528581,-2812.782580,-12139.377449,-2528.115143
21606.528914,-666.185348,-7624.121203,-1762.019645
21606.529247,-3108.864956,-7179.997637,-2604.724693
21606.529581,-5255.462188,-8882.471304,-4060.306139
21606.529914,-2368.659014,-8364.327145,0.000000
21606.530247,2886.803174,-8882.471304,2987.772442
21606.530580,4145.153275,-5995.668130,3677.258390
21606.530914,1628.453072,-11843.295072,2068.457845
21606.531247,2368.659014,-6883.915261,306.438199
21606.531580,592.164754,-10140.821405,3064.381992
21606.531913,2072.576638,-10214.842000,536.266849
21606.532247,-592.164754,-9104.533087,-2374.896044
21606.532580,-4293.194464,-11621.233289,-3370.820191
21606.532913,3182.885551,-11547.212695,-76.609550
21606.533246,-2590.720797,-9548.656652,0.000000
21606.533580,0.000000,-7994.224174,-383.047749
21606.533913,-3034.844362,-14211.954086,-76.609550
21606.534246,0.000000,-4811.338623,3983.696590
21606.534579,3552.988522,-6587.832884,4903.011187
21606.534913,1184.329507,-8364.327145,4596.572988
21606.535246,1036.288319,-6883.915261,536.266849
21606.535579,-2442.679609,-10584.944971,-1762.019645
21606.535912,1998.556043,-12731.542202,-76.609550
21606.536245,-2886.803174,-9548.656652,-2451.505594
21606.536579,-5773.606348,-9474.636058,-6435.202183
21606.536912,-2812.782580,-9992.780217,-4060.306139
21606.537245,-1850.514855,-11399.171507,76.609550
21606.537578,3552.988522,-8512.368333,5362.668486
21606.537912,3478.967927,-3034.844362,4979.620737
21606.538245,296.082377,-6291.750507,2451.505594
21606.538578,6439.791695,-9178.553681,3600.648841
21606.538911,2368.659014,-11473.192101,4290.134789
21606.539245,4737.318029,-5995.668130,2834.553343
21606.539578,-1480.411884,-10436.903782,-1608.800546
21606.539911,1554.432478,-10066.800811,-2834.553343
21606.540244,222.061783,-10658.965565,-1915.238745
21606.540578,2294.638420,-10658.965565,-76.609550
21606.540911,-814.226536,-5403.503377,-6128.763984
21606.541244,-2146.597232,-12583.501014,-3064.381992
21606.541577,2516.700203,-10362.883188,2068.457845
21606.541911,3478.967927,-8586.388927,4136.915689
21606.542244,6661.853478,-7105.977043,6052.154434
21606.542577,1776.494261,-7031.956449,1762.019645
21606.542910,4219.173869,-9770.718434,2451.505594
21606.543244,4145.153275,-9622.677246,3140.991542
21606.543577,4589.276840,-6217.729913,76.609550
21606.543910,-4145.153275,-10732.986159,0.000000
21606.544243,-962.267725,-10658.965565,-4979.620737
21606.544577,-1554.432478,-15396.283594,-2528.115143
21606.544910,-1628.453072,-7179.997637,-1225.752797
21606.545243,-74.020594,-5921.647536,-2681.334243
21606.545576,-5995.668130,-11399.171507,-2221.676944
21606.545909,1110.308913,-7624.121203,1225.752797
21606.546243,518.144159,-8068.244768,5822.325785
21606.546576,3552.988522,-5107.421000,3064.381992
21606.546909,1184.329507,-9474.636058,6052.154434
21606.547242,-74.020594,-8882.471304,-2834.553343
21606.547576,0.000000,-11029.068536,1838.629195
21606.547909,-1184.329507,-11843.295072,2987.772442
21606.548242,-666.185348,-7402.059420,-4903.011187
21606.548575,-4145.153275,-13619.789333,-1608.800546
21606.548909,0.000000,-8512.368333,0.000000
21606.549242,-1480.411884,-8216.285956,1762.019645
21606.549575,-3997.112087,-5995.668130,-1225.752797
21606.549908,-296.082377,-8290.306550,1991.848295
21606.550242,-1332.370696,-9400.615463,3294.210641
21606.550575,4737.318029,-6143.709319,5362.668486
21606.550908,-370.102971,-8290.306550,1762.019645
21606.551241,-2368.659014,-8882.471304,-1302.362347
21606.551575,-5921.647536,-10140.821405,919.314598
21606.551908,1702.473667,-10362.883188,-383.047749
21606.552241,-1258.350101,-6587.832884,-3677.258390
21606.552574,-3627.009116,-14804.118840,-1915.238745
21606.552908,148.041188,-7698.141797,-2528.115143
21606.553241,-3330.926739,-12509.480420,-306.438199
21606.553574,2516.700203,-8364.327145,2987.772442
21606.553907,-1184.329507,-5995.668130,1608.800546
21606.554241,-74.020594,-10658.965565,2068.457845
21606.554574,0.000000,-7179.997637,3677.258390
21606.554907,4663.297435,-10362.883188,3600.648841
21606.555240,5329.482782,-7105.977043,2987.772442
21606.555573,592.164754,-7179.997637,2451.505594
21606.555907,1110.308913,-10658.965565,-2374.896044
21606.556240,592.164754,-10807.006753,-766.095498
21606.556573,-814.226536,-10214.842000,-2681.334243
21606.556906,-3330.926739,-8734.430116,-6818.249932
21606.557240,-1554.432478,-11843.295072,-2834.553343
21606.557573,444.123565,-10066.800811,3064.381992
21606.557906,8216.285956,-7105.977043,6052.154434
21606.558239,4145.153275,-3034.844362,4903.011187
21606.558573,3552.988522,-7920.203579,3370.820191
21606.558906,4737.318029,-7179.997637,0.000000
21606.559239,6439.791695,-12583.501014,3294.210641
21606.559572,4737.318029,-9770.718434,-995.924147
21606.559906,3330.926739,-10955.047942,-1302.362347
21606.560239,-3997.112087,-11325.150913,-7354.516781
21606.560572,6143.709319,-11843.295072,-1302.362347
21606.560905,2294.638420,-10658.965565,-76.609550
21606.561239,1184.329507,-7772.162391,-1532.190996
21606.561572,1110.308913,-10066.800811,2374.896044
21606.561905,74.020594,-9030.512492,1991.848295
21606.562238,3849.070898,-7105.977043,5669.106685
21606.562572,-74.020594,-5181.441594,3294.210641
21606.562905,-740.205942,-9178.553681,-1225.752797
21606.563238,-2368.659014,-11621.233289,1532.190996
21606.563571,2294.638420,-8882.471304,-76.609550
21606.563904,-2368.659014,-7476.080014,0.000000
21606.564238,-7105.977043,-8364.327145,-1225.752797
21606.564571,-74.020594,-11547.212695,-1302.362347
21606.564904,-3404.947333,-14582.057057,1225.752797
21606.565237,518.144159,-8142.265362,2987.772442
21606.565571,-5921.647536,-8660.409521,0.000000
21606.565904,-1406.391290,-7920.203579,1455.581446
21606.566237,0.000000,-8660.409521,6128.763984
21606.566570,0.000000,-6365.771101,3830.477490
21606.566904,-296.082377,-5107.421000,1838.629195
21606.567237,-3775.050304,-10881.027347,-536.266849
21606.567570,-222.061783,-9178.553681,0.000000
21606.567903,-3256.906145,-9548.656652,2451.505594
21606.568237,-74.020594,-6957.935855,-2528.115143
21606.568570,-7772.162391,-8364.327145,-8580.269578
21606.568903,-5329.482782,-12435.459826,-2298.286494
21606.569236,-1850.514855,-10658.965565,-76.609550
21606.569570,-2368.659014,-7179.997637,-76.609550
21606.569903,370.102971,-8142.265362,689.485948
21606.570236,666.185348,-9474.636058,3524.039291
21606.570569,2664.741391,-6587.832884,3677.258390
21606.570903,1184.329507,-8660.409521,6128.763984
21606.571236,4071.132681,-6957.935855,-76.609550
21606.571569,0.000000,-10140.821405,-2451.505594
21606.571902,3552.988522,-9474.636058,-76.609550
21606.572236,1998.556043,-9548.656652,-2451.505594
21606.572569,3478.967927,-10807.006753,-76.609550
21606.572902,-962.267725,-9992.780217,-76.609550
21606.573235,-666.185348,-11843.295072,-2374.896044
21606.573568,2590.720797,-9474.636058,2374.896044
21606.573902,0.000000,-7179.997637,2528.115143
21606.574235,1998.556043,-6069.688724,-2298.286494
21606.574568,592.164754,-7476.080014,2221.676944
21606.574901,4071.132681,-9474.636058,2374.896044
21606.575235,6069.688724,-5995.668130,5515.887586
21606.575568,5847.626942,-5551.544565,2145.067394
21606.575901,1480.411884,-10510.924376,-1149.143247
21606.576234,296.082377,-10732.986159,-4673.182538
21606.576568,3478.967927,-11251.130318,-2528.115143
21606.576901,3552.988522,-13027.624579,-76.609550
21606.577234,1850.514855,-9474.636058,-3140.991542
21606.577567,-2368.659014,-11325.150913,-1225.752797
21606.577901,6439.791695,-10362.883188,536.266849
21606.578234,7031.956449,-8290.306550,5439.278036
21606.578567,4071.132681,-7254.018232,3140.991542
21606.578900,3034.844362,-9178.553681,3370.820191
21606.579234,4367.215058,-7328.038826,3524.039291
21606.579567,592.164754,-9548.656652,3064.381992
21606.579900,2294.638420,-7105.977043,-383.047749
21606.580233,-7105.977043,-9548.656652,-4596.572988
21606.580567,-8290.306550,-11917.315666,-4213.525239
21606.580900,-1850.514855,-9474.636058,-1915.238745
21606.581233,-5107.421000,-9474.636058,-3140.991542
21606.581566,-4071.132681,-7402.059420,-1149.143247
21606.581900,-5403.503377,-10584.944971,-459.657299
21606.582233,3182.885551,-7402.059420,4366.744339
21606.582566,296.082377,-7772.162391,8580.269578
21606.582899,1702.473667,-4441.235652,1915.238745
21606.583232,-296.082377,-8660.409521,1915.238745
21606.583565,-2664.741391,-12435.459826,536.266849
21606.583898,1406.391290,-9030.512492,1532.190996
21606.584231,-7698.141797,-7772.162391,-3677.258390
21606.584564,-2738.761985,-11251.130318,-4979.620737
21606.584898,-7772.162391,-10436.903782,-6435.202183
21606.585231,-3552.988522,-11621.233289,612.876398
21606.585564,-1406.391290,-9178.553681,2374.896044
21606.585897,-5107.421000,-5995.668130,-3064.381992
21606.586230,1702.473667,-9178.553681,1455.581446
21606.586563,0.000000,-8364.327145,5515.887586
21606.586896,4589.276840,-4885.359217,5286.058936
21606.587229,1924.535449,-6513.812290,3983.696590
21606.587562,1702.473667,-11547.212695,-1608.800546
21606.587896,1184.329507,-11473.192101,0.000000
21606.588229,2294.638420,-13619.789333,-76.609550
21606.588562,-814.226536,-10584.944971,-3370.820191
21606.588895,-5329.482782,-8956.491898,-3907.087040
21606.589228,-1406.391290,-11843.295072,-3140.991542
21606.589561,1702.473667,-9326.594869,1378.971896
21606.589894,6365.771101,-6439.791695,3064.381992
21606.590227,6143.709319,-10362.883188,6052.154434
21606.590560,5847.626942,-7698.141797,4136.915689
21606.590893,5033.400406,-6883.915261,4903.011187
21606.591227,4071.132681,-11843.295072,3600.648841
21606.591560,2886.803174,-3923.091493,-3983.696590
21606.591893,814.226536,-13027.624579,-3753.867940
21606.592226,-2072.576638,-12583.501014,-5975.544884
21606.592559,1480.411884,-10436.903782,-1072.533697
21606.592892,-1480.411884,-6143.709319,-2451.505594
21606.593225,2960.823768,-4959.379811,-1685.410096
21606.593558,1184.329507,-8364.327145,0.000000
21606.593891,7698.141797,-12435.459826,4519.963438
21606.594225,6439.791695,-9548.656652,3983.696590
21606.594558,3478.967927,-5995.668130,0.000000
21606.594891,4071.132681,-13619.789333,1149.143247
21606.595224,5773.606348,-9474.636058,3294.210641
21606.595557,5921.647536,-9548.656652,3677.258390
21606.595890,2368.659014,-8438.347739,-76.609550
21606.596223,-2960.823768,-10140.821405,-3983.696590
21606.596556,-3034.844362,-10955.047942,-2834.553343
21606.596889,222.061783,-11177.109724,2757.943793
21606.597222,-2294.638420,-5255.462188,153.219100
21606.597556,-4885.359217,-9474.636058,-612.876398
21606.597889,-5107.421000,-11843.295072,-76.609550
21606.598222,-1258.350101,-5699.585753,612.876398
21606.598555,-1184.329507,-8512.368333,6128.763984
21606.598888,-888.247130,-7698.141797,1915.238745
21606.599221,-2960.823768,-8956.491898,-1225.752797
21606.599554,814.226536,-14211.954086,1762.019645
21606.599887,1036.288319,-10955.047942,3677.258390
21606.600220,-2294.638420,-7624.121203,842.705048
21606.600554,-2146.597232,-8290.306550,-3907.087040
21606.600887,-4589.276840,-10881.027347,153.219100
21606.601220,-2442.679609,-7179.997637,-2451.505594
21606.601553,-5921.647536,-8364.327145,995.924147
21606.601886,-3627.009116,-9474.636058,-2834.553343
21606.602219,-3627.009116,-11695.253884,-383.047749
21606.602552,148.041188,-9548.656652,7277.907231
21606.602885,1258.350101,-4441.235652,3370.820191
21606.603218,-1702.473667,-5625.565159,-689.485948
21606.603552,-1332.370696,-9548.656652,-766.095498
21606.603885,1702.473667,-11843.295072,2374.896044
21606.604218,0.000000,-8956.491898,2451.505594
21606.604551,-666.185348,-8882.471304,-3753.867940
21606.604884,-2738.761985,-12805.562797,-4903.011187
21606.605217,0.000000,-9548.656652,-1838.629195
21606.605550,3330.926739,-9548.656652,1532.190996
21606.605883,1258.350101,-7846.182985,-306.438199
21606.606216,1924.535449,-8438.347739,153.219100
21606.606549,2368.659014,-11251.130318,2068.457845
21606.606883,5551.544565,-7328.038826,4060.306139
21606.607216,9178.553681,-9474.636058,7277.907231
21606.607549,5847.626942,-7105.977043,2374.896044
21606.607882,3849.070898,-8660.409521,1838.629195
21606.608215,5255.462188,-11843.295072,1762.019645
21606.608548,2368.659014,-8660.409521,-2451.505594
21606.608881,-2960.823768,-8734.430116,-5286.058936
21606.609214,-3404.947333,-11251.130318,-7584.345430
21606.609547,-2960.823768,-13841.851115,-1915.238745
21606.609881,1184.329507,-8956.491898,3064.381992
21606.610214,5551.544565,-8290.306550,2374.896044
21606.610547,2368.659014,-4811.338623,3064.381992
21606.610880,5921.647536,-9400.615463,6052.154434
21606.611213,7920.203579,-9474.636058,6971.469032
21606.611546,4145.153275,-6587.832884,6128.763984
21606.611879,2294.638420,-7105.977043,76.609550
21606.612212,814.226536,-8882.471304,-4290.134789
21606.612545,-3775.050304,-13693.809927,-6128.763984
21606.612878,0.000000,-11029.068536,-612.876398
21606.613212,-2886.803174,-9770.718434,-4596.572988
21606.613545,-3923.091493,-11177.109724,-4366.744339
21606.613878,-2072.576638,-10510.924376,0.000000
21606.614211,518.144159,-9918.759623,5745.716235
21606.614544,2812.782580,-2442.679609,6435.202183
21606.614877,-592.164754,-7105.977043,5898.935335
21606.615210,1702.473667,-5921.647536,919.314598
21606.615543,-1184.329507,-9548.656652,4596.572988
21606.615876,1702.473667,-9474.636058,2068.457845
21606.616210,-5625.565159,-9770.718434,-4596.572988
21606.616543,-6069.688724,-10807.006753,-7354.516781
21606.616876,-4367.215058,-13027.624579,-4903.011187
21606.617209,-6957.935855,-13101.645173,0.000000
21606.617542,-3552.988522,-3034.844362,0.000000
21606.617875,-2442.679609,-11547.212695,2068.457845
21606.618208,5255.462188,-7105.977043,4826.401637
21606.618541,2294.638420,-7328.038826,6894.859482
21606.618874,2368.659014,-4589.276840,4213.525239
21606.619207,-370.102971,-5995.668130,0.000000
21606.619541,-3478.967927,-11251.130318,-2911.162892
21606.619874,1406.391290,-10436.903782,-1378.971896
21606.620207,-2220.617826,-14211.954086,-842.705048
21606.620540,-4737.318029,-5995.668130,-7354.516781
21606.620873,-2442.679609,-11843.295072,-7431.126331
21606.621206,-2368.659014,-10732.986159,-919.314598
21606.621539,2368.659014,-7476.080014,5132.839837
21606.621872,296.082377,-7624.121203,2451.505594
21606.622205,3775.050304,-5477.523971,1685.410096
21606.622539,2960.823768,-9844.739029,4290.134789
21606.622872,8882.471304,-8438.347739,7431.126331
21606.623205,6439.791695,-9474.636058,3600.648841
21606.623538,2368.659014,-9474.636058,-76.609550
21606.623871,-2294.638420,-13027.624579,-4673.182538
21606.624204,0.000000,-10732.986159,-4290.134789
21606.624537,3923.091493,-9474.636058,-76.609550
21606.624870,2294.638420,-10658.965565,-1302.362347
21606.625203,3552.988522,-7920.203579,229.828649
21606.625536,-74.020594,-9696.697840,1991.848295
21606.625870,4515.256246,-7698.141797,3677.258390
21606.626203,0.000000,-5403.503377,1225.752797
21606.626536,3478.967927,-8290.306550,-76.609550
21606.626869,0.000000,-9696.697840,1225.752797
21606.627202,4737.318029,-10658.965565,6052.154434
21606.627535,2294.638420,-7105.977043,0.000000
21606.627868,1554.432478,-8142.265362,-76.609550
21606.628201,-666.185348,-10584.944971,-3294.210641
21606.628534,-1406.391290,-11473.192101,-2374.896044
21606.628868,518.144159,-10510.924376,842.705048
21606.629201,-3552.988522,-7179.997637,0.000000
21606.629534,-74.020594,-7698.141797,-689.485948
21606.629867,-296.082377,-8512.368333,-459.657299
21606.630200,2294.638420,-10807.006753,4826.401637
21606.630533,222.061783,-7179.997637,2528.115143
21606.630866,-1184.329507,-7328.038826,-1225.752797
21606.631199,-74.020594,-13471.748144,2374.896044
21606.631532,962.267725,-7179.997637,612.876398
21606.631865,666.185348,-9474.636058,2987.772442
21606.632199,-4737.318029,-8660.409521,-1838.629195
21606.632532,-4219.173869,-7772.162391,-4903.011187
21606.632865,-4219.173869,-12139.377449,-383.047749
21606.633198,-962.267725,-8068.244768,1685.410096
21606.633531,-4589.276840,-7179.997637,-1838.629195
21606.633864,-4737.318029,-8956.491898,0.000000
21606.634197,-74.020594,-10658.965565,1149.143247
21606.634530,1184.329507,-7179.997637,2451.505594
21606.634863,1998.556043,-11547.212695,2068.457845
21606.635197,-2442.679609,-10066.800811,-1608.800546
21606.635530,1184.329507,-8512.368333,1455.581446
21606.635863,3478.967927,-9326.594869,5132.839837
21606.636196,3701.029710,-6365.771101,1991.848295
21606.636529,-814.226536,-7105.977043,-2604.724693
21606.636862,-1258.350101,-10658.965565,-3140.991542
21606.637195,-74.020594,-12435.459826,-4826.401637
21606.637528,0.000000,-10140.821405,2451.505594
21606.637861,-1628.453072,-8734.430116,-689.485948
21606.638194,-222.061783,-7550.100608,-2911.162892
21606.638528,1406.391290,-10658.965565,1762.019645
21606.638861,4737.318029,-9030.512492,7048.078582
21606.639194,5033.400406,-5033.400406,4366.744339
21606.639527,3182.885551,-10362.883188,3600.648841
21606.639860,2960.823768,-5699.585753,0.000000
21606.640193,3849.070898,-10140.821405,612.876398
21606.640526,4145.153275,-10658.965565,2987.772442
21606.640859,-1850.514855,-9326.594869,-6894.859482
21606.641192,-2294.638420,-11029.068536,-4903.011187
21606.641526,1110.308913,-10066.800811,-3140.991542
21606.641859,888.247130,-9992.780217,1072.533697
21606.642192,1554.432478,-9400.615463,1532.190996
21606.642525,2368.659014,-5995.668130,1225.752797
21606.642858,4145.153275,-10732.986159,3677.258390
21606.643191,7254.018232,-8808.450710,9422.974625
21606.643524,4737.318029,-5995.668130,3217.601092
21606.643857,370.102971,-8956.491898,-1608.800546
21606.644190,1110.308913,-10658.965565,-2528.115143
21606.644523,-3034.844362,-13619.789333,-5286.058936
21606.644857,-962.267725,-7179.997637,-2911.162892
21606.645190,-4293.194464,-8660.409521,-3753.867940
21606.645523,-2738.761985,-12731.542202,-4366.744339
21606.645856,-1406.391290,-10955.047942,2987.772442
21606.646189,2368.659014,-8290.306550,4826.401637
21606.646522,2664.741391,-3182.885551,4903.011187
21606.646855,592.164754,-7179.997637,3370.820191
21606.647188,592.164754,-9178.553681,3677.258390
21606.647521,592.164754,-8660.409521,5439.278036
21606.647855,0.000000,-7179.997637,2451.505594
21606.648188,814.226536,-11251.130318,-1302.362347
21606.648521,-3034.844362,-11843.295072,-4673.182538
21606.648854,-2294.638420,-13027.624579,-2068.457845
21606.649187,-1258.350101,-10658.965565,-1302.362347
21606.649520,-3849.070898,-8586.388927,-1225.752797
21606.649853,-4219.173869,-8142.265362,-1838.629195
21606.650186,-148.041188,-9992.780217,2757.943793
21606.650519,2294.638420,-8290.306550,6665.030833
21606.650852,1776.494261,-4737.318029,7354.516781
21606.651186,2294.638420,-7105.977043,842.705048
21606.651519,0.000000,-9548.656652,2451.505594
21606.651852,1184.329507,-10732.986159,1225.752797
21606.652185,-370.102971,-8956.491898,-4290.134789
21606.652518,-5995.668130,-11991.336260,-4213.525239
21606.652851,-3627.009116,-9770.718434,-5745.716235
21606.653184,1480.411884,-11547.212695,1302.362347
21606.653517,0.000000,-5995.668130,383.047749
21606.653850,592.164754,-7105.977043,-76.609550
21606.654184,-1850.514855,-11547.212695,1149.143247
21606.654517,2368.659014,-7179.997637,1532.190996
21606.654850,6883.915261,-10658.965565,8503.660028
21606.655183,2664.741391,-6291.750507,2451.505594
21606.655516,1110.308913,-8216.285956,-1608.800546
21606.655849,1480.411884,-10436.903782,-2834.553343
21606.656182,2664.741391,-12731.542202,1072.533697
21606.656515,-2368.659014,-8364.327145,-2145.067394
21606.656848,2294.638420,-9474.636058,-4979.620737
21606.657181,-2960.823768,-10140.821405,-1532.190996
21606.657515,2368.659014,-10140.821405,4060.306139
21606.657848,8216.285956,-9474.636058,8503.660028
21606.658181,296.082377,-7179.997637,2451.505594
21606.658514,3330.926739,-6883.915261,689.485948
21606.658847,222.061783,-12287.418637,2221.676944
21606.659180,4071.132681,-10140.821405,2681.334243
21606.659513,296.082377,-6587.832884,2451.505594
21606.659846,518.144159,-8364.327145,-2451.505594
21606.660179,3478.967927,-10362.883188,0.000000
21606.660513,814.226536,-12287.418637,3294.210641
21606.660846,2886.803174,-8290.306550,1762.019645
21606.661179,-5921.647536,-6587.832884,-2757.943793
21606.661512,-3404.947333,-11843.295072,-2528.115143
21606.661845,-1258.350101,-10658.965565,-2528.115143
21606.662178,-148.041188,-5699.585753,1915.238745
21606.662511,1110.308913,-7624.121203,2987.772442
21606.662844,0.000000,-8068.244768,1532.190996
21606.663177,1332.370696,-10955.047942,1608.800546
21606.663511,3256.906145,-8364.327145,4290.134789
21606.663844,1332.370696,-5551.544565,306.438199
21606.664177,-2368.659014,-6587.832884,0.000000
21606.664510,-74.020594,-11251.130318,-1302.362347
21606.664843,0.000000,-5995.668130,-1302.362347
21606.665176,-2368.659014,-8660.409521,-1991.848295
21606.665509,-2442.679609,-10658.965565,-4060.306139
21606.665842,-3552.988522,-10584.944971,-3217.601092
21606.666175,-296.082377,-12287.418637,1532.190996
21606.666508,3701.029710,-9326.594869,5592.497135
21606.666842,1184.329507,-8142.265362,2604.724693
21606.667175,0.000000,-7772.162391,3830.477490
21606.667508,3478.967927,-7994.224174,995.924147
21606.667841,296.082377,-8660.409521,4979.620737
21606.668174,2294.638420,-9474.636058,2987.772442
21606.668507,-4737.318029,-8364.327145,-4903.011187
21606.668840,-3923.091493,-11547.212695,-4673.182538
21606.669173,-1480.411884,-10658.965565,-76.609550
21606.669506,-370.102971,-6957.935855,-383.047749
21606.669840,-1258.350101,-10066.800811,-1608.800546
21606.670173,-2368.659014,-10732.986159,689.485948
21606.670506,1110.308913,-9474.636058,536.266849
21606.670839,296.082377,-8364.327145,6128.763984
21606.671172,4663.297435,-6365.771101,2374.896044
21606.671505,2886.803174,-8734.430116,2374.896044
21606.671838,2516.700203,-9400.615463,1302.362347
21606.672171,3923.091493,-10288.862594,919.314598
21606.672504,592.164754,-9844.739029,-1072.533697
21606.672837,-2368.659014,-7920.203579,-3370.820191
21606.673171,-74.020594,-11843.295072,-1915.238745
21606.673504,-2072.576638,-9548.656652,306.438199
21606.673837,-3552.988522,-7179.997637,612.876398
21606.674170,-74.020594,-7698.141797,-1915.238745
21606.674503,-814.226536,-8660.409521,995.924147
21606.674836,2294.638420,-9844.739029,2834.553343
21606.675169,3182.885551,-9326.594869,5056.230287
21606.675502,2442.679609,-7105.977043,2911.162892
21606.675835,-1480.411884,-5995.668130,-2451.505594
21606.676169,2294.638420,-11177.109724,-1149.143247
21606.676502,1332.370696,-11621.233289,766.095498
21606.676835,0.000000,-8290.306550,-3064.381992
21606.677168,-2368.659014,-11103.089130,-2298.286494
21606.677501,-1998.556043,-9622.677246,-3677.258390
21606.677834,2738.761985,-10658.965565,4826.401637
21606.678167,5255.462188,-7698.141797,3294.210641
21606.678500,0.000000,-7179.997637,3753.867940
21606.678833,1480.411884,-8882.471304,2298.286494
21606.679166,1702.473667,-8364.327145,2451.505594
21606.679500,4811.338623,-7254.018232,3753.867940
21606.679833,1998.556043,-5921.647536,1072.533697
21606.680166,-1554.432478,-8956.491898,-4596.572988
21606.680499,-3552.988522,-11029.068536,-4290.134789
21606.680832,-74.020594,-13619.789333,-2681.334243
21606.681165,-1184.329507,-6587.832884,-3677.258390
21606.681498,-2960.823768,-10732.986159,-1915.238745
21606.681831,-2590.720797,-11843.295072,-2528.115143
21606.682164,-2368.659014,-9548.656652,3064.381992
21606.682498,5625.565159,-4071.132681,5439.278036
21606.682831,3923.091493,-6069.688724,6205.373534
21606.683164,2294.638420,-8438.347739,3217.601092
21606.683497,4441.235652,-11547.212695,3600.648841
21606.683830,2886.803174,-11843.295072,1762.019645
21606.684163,0.000000,-5995.668130,-1378.971896
21606.684496,-2664.741391,-12065.356855,-1915.238745
21606.684830,-1998.556043,-11399.171507,-4979.620737
21606.685163,-2664.741391,-13027.624579,-995.924147
21606.685496,-2220.617826,-9548.656652,-1608.800546
21606.685829,-2368.659014,-7402.059420,-612.876398
21606.686162,-2664.741391,-8660.409521,0.000000
21606.686495,4663.297435,-9474.636058,5439.278036
21606.686828,1184.329507,-5995.668130,8580.269578
21606.687162,3330.926739,-6513.812290,2374.896044
21606.687495,1110.308913,-8290.306550,1149.143247
21606.687828,0.000000,-9548.656652,1225.752797
21606.688161,5551.544565,-10658.965565,3600.648841
21606.688494,-666.185348,-10807.006753,-2145.067394
21606.688827,-3552.988522,-11399.171507,-5056.230287
21606.689160,-3997.112087,-10807.006753,-3907.087040
21606.689494,-962.267725,-10288.862594,383.047749
21606.689827,2072.576638,-4367.215058,229.828649
21606.690160,-2368.659014,-9696.697840,-153.219100
21606.690493,1332.370696,-6809.894666,536.266849
21606.690826,2664.741391,-11547.212695,5822.325785
21606.691159,5847.626942,-10658.965565,6665.030833
21606.691492,2516.700203,-2738.761985,0.000000
21606.691826,-592.164754,-12731.542202,2374.896044
21606.692159,2886.803174,-8882.471304,-842.705048
21606.692492,1480.411884,-10140.821405,0.000000
21606.692825,-74.020594,-10214.842000,-1762.019645
21606.693158,-3256.906145,-9030.512492,-4290.134789
21606.693491,-1258.350101,-11843.295072,-3524.039291
21606.693824,-74.020594,-11843.295072,1762.019645
21606.694158,0.000000,-6587.832884,1532.190996
21606.694491,1110.308913,-6587.832884,0.000000
21606.694824,-1184.329507,-10436.903782,4213.525239
21606.695157,2294.638420,-8882.471304,3294.210641
21606.695490,3478.967927,-9178.553681,6052.154434
21606.695823,4219.173869,-4737.318029,1762.019645
21606.696156,-1776.494261,-10955.047942,-612.876398
21606.696490,74.020594,-10214.842000,-919.314598
21606.696823,-2442.679609,-10732.986159,-2911.162892
21606.697156,-74.020594,-10658.965565,-76.609550
21606.697489,-2072.576638,-8956.491898,0.000000
21606.697822,-2072.576638,-12139.377449,-76.609550
21606.698155,2590.720797,-7328.038826,1685.410096
21606.698488,0.000000,-5403.503377,1838.629195
21606.698822,2886.803174,-7105.977043,1225.752797
21606.699155,-592.164754,-8660.409521,1149.143247
21606.699488,1332.370696,-10658.965565,1532.190996
21606.699821,1998.556043,-7476.080014,2757.943793
21606.700154,-962.267725,-8290.306550,-76.609550
21606.700487,-1776.494261,-9474.636058,-76.609550
21606.700820,-666.185348,-13027.624579,-76.609550
21606.701154,-1258.350101,-5403.503377,-2451.505594
21606.701487,0.000000,-9992.780217,-1838.629195
21606.701820,-3108.864956,-10732.986159,-2451.505594
21606.702153,-962.267725,-13027.624579,-2834.553343
21606.702486,3404.947333,-9104.533087,5975.544884
21606.702819,3923.091493,-7105.977043,4213.525239
21606.703152,296.082377,-7179.997637,2451.505594
21606.703486,2886.803174,-9474.636058,2374.896044
21606.703819,222.061783,-9844.739029,0.000000
21606.704152,1184.329507,-7179.997637,5515.887586
21606.704485,-1480.411884,-10362.883188,-1149.143247
21606.704818,-3775.050304,-8660.409521,-3677.258390
21606.705151,-2590.720797,-9548.656652,-3370.820191
21606.705484,444.123565,-9400.615463,-459.657299
21606.705818,-444.123565,-6735.874072,-2374.896044
21606.706151,-2664.741391,-7772.162391,-3677.258390
21606.706484,-1036.288319,-10584.944971,0.000000
21606.706817,4219.173869,-8956.491898,4903.011187
21606.707150,4515.256246,-6587.832884,6435.202183
21606.707483,3478.967927,-5921.647536,1762.019645
21606.707816,2590.720797,-8734.430116,306.438199
21606.708150,2368.659014,-11251.130318,4213.525239
21606.708483,4071.132681,-7476.080014,0.000000
21606.708816,-1776.494261,-9918.759623,-995.924147
21606.709149,-1776.494261,-11621.233289,-2528.115143
21606.709482,-1924.535449,-10732.986159,-2451.505594
21606.709815,1110.308913,-10510.924376,1378.971896
21606.710148,0.000000,-7105.977043,1072.533697
21606.710482,-3330.926739,-6513.812290,-1302.362347
21606.710815,2294.638420,-5699.585753,0.000000
21606.711148,1480.411884,-13027.624579,7277.907231
21606.711481,4663.297435,-6513.812290,3600.648841
21606.711814,-740.205942,-7624.121203,0.000000
21606.712147,-1258.350101,-11843.295072,-1302.362347
21606.712480,0.000000,-8660.409521,-1991.848295
21606.712814,-3034.844362,-11399.171507,-1378.971896
21606.713147,-1184.329507,-7772.162391,-4749.792088
21606.713480,-6513.812290,-13101.645173,-4903.011187
21606.713813,-666.185348,-9548.656652,0.000000
21606.714146,3330.926739,-7105.977043,4213.525239
21606.714479,2886.803174,-4885.359217,4290.134789
21606.714812,0.000000,-7179.997637,4903.011187
21606.715146,0.000000,-8364.327145,536.266849
21606.715479,1554.432478,-11473.192101,2681.334243
21606.715812,1258.350101,-8364.327145,153.219100
21606.716145,-1480.411884,-8956.491898,-1685.410096
21606.716478,-1258.350101,-11177.109724,-2834.553343
21606.716811,-3552.988522,-10732.986159,-2298.286494
21606.717144,-666.185348,-10658.965565,-2528.115143
21606.717478,-814.226536,-5551.544565,-1685.410096
21606.717811,-3256.906145,-10881.027347,0.000000
21606.718144,-74.020594,-9474.636058,2451.505594
21606.718477,1332.370696,-9548.656652,7048.078582
21606.718810,6217.729913,-1258.350101,5592.497135
21606.719143,3108.864956,-8956.491898,4519.963438
21606.719476,1554.432478,-8364.327145,153.219100
21606.719810,3849.070898,-10658.965565,-76.609550
21606.720143,-1776.494261,-11325.150913,0.000000
21606.720476,0.000000,-5995.668130,-3677.258390
21606.720809,-3627.009116,-15396.283594,-5286.058936
21606.721142,2294.638420,-12287.418637,-3064.381992
21606.721475,518.144159,-10658.965565,1072.533697
21606.721808,1258.350101,-6291.750507,0.000000
21606.722142,-814.226536,-8068.244768,1455.581446
21606.722475,-1258.350101,-5551.544565,-1302.362347
21606.722808,3849.070898,-11547.212695,4673.182538
21606.723141,2220.617826,-5403.503377,4519.963438
21606.723474,1258.350101,-9474.636058,0.000000
21606.723807,1036.288319,-8290.306550,-536.266849
21606.724140,2294.638420,-11843.295072,536.266849
21606.724474,2664.741391,-8364.327145,3064.381992
21606.724807,-74.020594,-9474.636058,-2528.115143
21606.725140,-4441.235652,-10140.821405,-6128.763984
21606.725473,-3552.988522,-14285.974681,-2145.067394
21606.725806,2294.638420,-10066.800811,-842.705048
21606.726139,-740.205942,-9400.615463,612.876398
21606.726472,2738.761985,-6883.915261,1608.800546
21606.726806,3182.885551,-9474.636058,6052.154434
21606.727139,4293.194464,-6587.832884,5515.887586
21606.727472,7179.997637,-7105.977043,7277.907231
21606.727805,-74.020594,-9474.636058,-76.609550
21606.728138,0.000000,-7772.162391,0.000000
21606.728471,-74.020594,-14211.954086,-76.609550
21606.728804,-1110.308913,-7179.997637,-1838.629195
21606.729138,-3775.050304,-7624.121203,-5439.278036
21606.729471,-4515.256246,-10658.965565,-3753.867940
21606.729804,-2442.679609,-10658.965565,-2221.676944
21606.730137,-2368.659014,-11325.150913,2145.067394
21606.730470,4071.132681,-9474.636058,-76.609550
21606.730803,-2368.659014,-9548.656652,1532.190996
21606.731136,0.000000,-7772.162391,7507.735880
21606.731470,4367.215058,-7105.977043,6358.592633
21606.731803,4737.318029,-5551.544565,7967.393179
21606.732136,-222.061783,-7179.997637,1455.581446
21606.732469,-1924.535449,-8956.491898,-2221.676944
21606.732802,-1850.514855,-11473.192101,-3753.867940
21606.733135,-3034.844362,-12435.459826,-1302.362347
21606.733468,-3034.844362,-8882.471304,-7737.564530
21606.733802,-7105.977043,-11917.315666,-3064.381992
21606.734135,-1554.432478,-11547.212695,-1302.362347
21606.734468,2294.638420,-7402.059420,536.266849
21606.734801,592.164754,-6883.915261,5745.716235
21606.735134,2812.782580,-6439.791695,3447.429741
21606.735467,1110.308913,-8808.450710,3983.696590
21606.735800,4737.318029,-8660.409521,4903.011187
21606.736134,4663.297435,-7402.059420,5439.278036
21606.736467,1554.432478,-7920.203579,-1072.533697
21606.736800,-2146.597232,-12139.377449,-3677.258390
21606.737133,-1554.432478,-11917.315666,-4443.353888
21606.737466,-1924.535449,-10732.986159,-4290.134789
21606.737799,-1776.494261,-8364.327145,-2451.505594
21606.738132,-74.020594,-11251.130318,-2528.115143
21606.738466,3182.885551,-9178.553681,-383.047749
21606.738799,3923.091493,-10288.862594,6435.202183
21606.739132,2886.803174,-6513.812290,6741.640382
21606.739465,-666.185348,-7179.997637,2451.505594
21606.739798,1776.494261,-4219.173869,1685.410096
21606.740131,1702.473667,-10288.862594,2681.334243
21606.740464,4145.153275,-5773.606348,3830.477490
21606.740798,-1258.350101,-7550.100608,-2451.505594
21606.741131,-2442.679609,-11843.295072,-8350.440928
21606.741464,-4145.153275,-11917.315666,-3064.381992
21606.741797,0.000000,-10140.821405,-306.438199
21606.742130,592.164754,-8660.409521,0.000000
21606.742463,-1036.288319,-9992.780217,-153.219100
21606.742796,2072.576638,-9622.677246,2451.505594
21606.743130,6217.729913,-7105.977043,5822.325785
21606.743463,6439.791695,-7105.977043,4826.401637
21606.743796,0.000000,-8956.491898,2451.505594
21606.744129,-814.226536,-8290.306550,-2451.505594
21606.744462,-1776.494261,-10881.027347,0.000000
21606.744795,1702.473667,-11547.212695,-76.609550
21606.745128,-666.185348,-9178.553681,-4979.620737
21606.745462,-2664.741391,-11251.130318,-1455.581446
21606.745795,-1258.350101,-8586.388927,-1685.410096
21606.746128,296.082377,-6883.915261,3064.381992
21606.746461,-296.082377,-6735.874072,-2451.505594
21606.746794,1110.308913,-12287.418637,4213.525239
21606.747127,0.000000,-9548.656652,1225.752797
21606.747460,2368.659014,-9548.656652,7660.954980
21606.747794,2294.638420,-6365.771101,1225.752797
21606.748127,0.000000,-4811.338623,-2987.772442
21606.748460,-1850.514855,-13915.871710,-689.485948
21606.748793,1036.288319,-9770.718434,459.657299
21606.749126,740.205942,-8882.471304,153.219100
21606.749459,-2664.741391,-8068.244768,-2221.676944
21606.749792,-1554.432478,-8586.388927,-3140.991542
21606.750126,-7105.977043,-11917.315666,306.438199
21606.750459,3478.967927,-7994.224174,2987.772442
21606.750792,-1850.514855,-6291.750507,0.000000
21606.751125,0.000000,-7179.997637,0.000000
21606.751458,-2442.679609,-11843.295072,0.000000
21606.751791,888.247130,-10436.903782,842.705048
21606.752124,1480.411884,-5551.544565,995.924147
21606.752458,666.185348,-10362.883188,995.924147
21606.752791,2886.803174,-7994.224174,-1838.629195
21606.753124,1924.535449,-11695.253884,1455.581446
21606.753457,2220.617826,-8438.347739,1149.143247
21606.753790,-444.123565,-7031.956449,-1532.190996
21606.754123,-2960.823768,-12213.398043,0.000000
21606.754456,1702.473667,-9474.636058,-383.047749
21606.754790,296.082377,-9548.656652,1838.629195
21606.755123,3552.988522,-6143.709319,4826.401637
21606.755456,1110.308913,-7920.203579,1378.971896
21606.755789,0.000000,-6291.750507,0.000000
21606.756122,3478.967927,-10658.965565,3294.210641
21606.756455,1406.391290,-7476.080014,0.000000
21606.756788,-2516.700203,-10807.006753,-4060.306139
21606.757122,-2442.679609,-13027.624579,-4366.744339
21606.757455,-74.020594,-11843.295072,-3140.991542
21606.757788,592.164754,-5995.668130,0.000000
21606.758121,0.000000,-9548.656652,1685.410096
21606.758454,2294.638420,-11251.130318,3294.210641
21606.758787,2368.659014,-7476.080014,4290.134789
21606.759120,3404.947333,-9992.780217,6818.249932
21606.759454,2960.823768,-4885.359217,2604.724693
21606.759787,-74.020594,-8290.306550,-383.047749
21606.760120,814.226536,-11547.212695,842.705048
21606.760453,2886.803174,-9178.553681,-383.047749
21606.760786,592.164754,-8364.327145,1149.143247
21606.761119,-2442.679609,-9178.553681,-4979.620737
21606.761452,-3627.009116,-7772.162391,-6741.640382
21606.761786,-1850.514855,-14211.954086,-1302.362347
21606.762119,592.164754,-8660.409521,1838.629195
21606.762452,-3404.947333,-8290.306550,-2145.067394
21606.762785,-2146.597232,-9770.718434,-229.828649
21606.763118,0.000000,-7179.997637,2757.943793
21606.763451,4663.297435,-5847.626942,5056.230287
21606.763784,5329.482782,-4811.338623,8044.002729
21606.764117,3182.885551,-7105.977043,536.266849
21606.764451,0.000000,-11029.068536,-4290.134789
21606.764784,296.082377,-11473.192101,-1915.238745
21606.765117,814.226536,-9474.636058,-2604.724693
21606.765450,-2886.803174,-10214.842000,-5286.058936
21606.765783,-2442.679609,-13915.871710,-2451.505594
21606.766116,-74.020594,-10658.965565,-383.047749
21606.766449,0.000000,-7179.997637,3677.258390
21606.766783,3478.967927,-5329.482782,2374.896044
21606.767116,222.061783,-5995.668130,3677.258390
21606.767449,4663.297435,-9474.636058,4826.401637
21606.767782,2516.700203,-8512.368333,4136.915689
21606.768115,962.267725,-5847.626942,1149.143247
21606.768448,-1850.514855,-9622.677246,-2451.505594
21606.768781,-2738.761985,-11399.171507,-4060.306139
21606.769115,-370.102971,-12583.501014,-1455.581446
21606.769448,-3256.906145,-8734.430116,-3370.820191
21606.769781,-2442.679609,-9696.697840,-1608.800546
21606.770114,-740.205942,-9104.533087,1072.533697
21606.770447,444.123565,-9030.512492,3447.429741
21606.770780,6809.894666,-7772.162391,7967.393179
21606.771113,0.000000,-5995.668130,2451.505594
21606.771447,-74.020594,-10658.965565,-76.609550
21606.771780,0.000000,-9548.656652,1225.752797
21606.772113,1850.514855,-10955.047942,1149.143247
21606.772446,5255.462188,-5921.647536,3600.648841
21606.772779,-1184.329507,-8956.491898,-2145.067394
21606.773112,-370.102971,-8290.306550,-4979.620737
21606.773445,-3330.926739,-12361.439231,-2911.162892
21606.773779,1702.473667,-10066.800811,-689.485948
21606.774112,-3552.988522,-7772.162391,-1838.629195
21606.774445,-4737.318029,-11621.233289,1072.533697
21606.774778,1998.556043,-6809.894666,-1072.533697
21606.775111,2368.659014,-7179.997637,6128.763984
21606.775444,7031.956449,-3552.988522,3217.601092
21606.775777,2960.823768,-10214.842000,2987.772442
21606.776111,1036.288319,-12583.501014,1838.629195
21606.776444,888.247130,-10362.883188,766.095498
21606.776777,-962.267725,-9252.574275,-2451.505594
21606.777110,-2960.823768,-8364.327145,-2068.457845
21606.777443,-1850.514855,-11695.253884,-2528.115143
21606.777776,-370.102971,-8290.306550,-2528.115143
21606.778109,1850.514855,-7328.038826,1762.019645
21606.778443,-1406.391290,-9548.656652,-1762.019645
21606.778776,2960.823768,-10140.821405,4903.011187
21606.779109,148.041188,-8068.244768,3983.696590
21606.779442,3108.864956,-8734.430116,4443.353888
21606.779775,296.082377,-7179.997637,0.000000
21606.780108,1628.453072,-13915.871710,2374.896044
21606.780441,1702.473667,-7994.224174,-1685.410096
21606.780775,-1776.494261,-8364.327145,-3677.258390
21606.781108,1628.453072,-8586.388927,-76.609550
21606.781441,-3108.864956,-7179.997637,-2145.067394
21606.781774,666.185348,-8290.306550,-2374.896044
21606.782107,222.061783,-12731.542202,1149.143247
21606.782440,1850.514855,-7550.100608,689.485948
21606.782773,0.000000,-9844.739029,0.000000
21606.783106,518.144159,-12583.501014,1762.019645
21606.783439,1184.329507,-10436.903782,4136.915689
21606.783773,2886.803174,-8216.285956,4060.306139
21606.784106,5847.626942,-7105.977043,3600.648841
21606.784439,518.144159,-9548.656652,612.876398
21606.784772,1184.329507,-7698.141797,1762.019645
21606.785105,-1554.432478,-10658.965565,-1915.238745
21606.785438,-3849.070898,-7476.080014,-2451.505594
21606.785771,-1998.556043,-9474.636058,-2681.334243
21606.786104,-4293.194464,-10214.842000,-2451.505594
21606.786437,-3701.029710,-7772.162391,-2145.067394
21606.786770,-962.267725,-8586.388927,459.657299
21606.787103,0.000000,-5403.503377,2451.505594
21606.787436,3775.050304,-7772.162391,76.609550
21606.787769,3552.988522,-15100.201217,4826.401637
21606.788102,4663.297435,-9326.594869,5132.839837
21606.788436,1554.432478,-5995.668130,0.000000
21606.788769,814.226536,-7550.100608,-76.609550
21606.789102,-3552.988522,-10732.986159,-2451.505594
21606.789435,-962.267725,-9178.553681,-2987.772442
21606.789768,-2590.720797,-8586.388927,-995.924147
21606.790101,-4737.318029,-9992.780217,-2451.505594
21606.790434,-2442.679609,-7402.059420,-2374.896044
21606.790767,-74.020594,-12731.542202,4826.401637
21606.791100,4663.297435,-6217.729913,5056.230287
21606.791433,296.082377,-8512.368333,3217.601092
21606.791766,0.000000,-8808.450710,612.876398
21606.792099,-592.164754,-11621.233289,1685.410096
21606.792432,1776.494261,-8216.285956,2298.286494
21606.792765,3552.988522,-5995.668130,689.485948
21606.793099,-74.020594,-11843.295072,-2528.115143
21606.793432,0.000000,-9548.656652,-2451.505594
21606.793765,-74.020594,-11251.130318,-2604.724693
21606.794098,2886.803174,-8586.388927,-2451.505594
21606.794431,-3849.070898,-11325.150913,-1608.800546
21606.794764,-74.020594,-10362.883188,-76.609550
21606.795097,2442.679609,-10955.047942,3447.429741
21606.795430,5551.544565,-7254.018232,5056.230287
21606.795763,4293.194464,-6365.771101,1762.019645
21606.796096,2220.617826,-10732.986159,3907.087040
21606.796429,2960.823768,-8956.491898,4826.401637
21606.796762,2294.638420,-8142.265362,0.000000
21606.797095,0.000000,-7476.080014,-3677.258390
21606.797428,-3923.091493,-14211.954086,-5592.497135
21606.797761,-2442.679609,-11547.212695,-3753.867940
21606.798095,-2220.617826,-11547.212695,-1915.238745
21606.798428,518.144159,-6587.832884,536.266849
21606.798761,370.102971,-7624.121203,1685.410096
21606.799094,2072.576638,-7254.018232,3370.820191
21606.799427,4145.153275,-11547.212695,4826.401637
21606.799760,5329.482782,-8956.491898,5209.449386
21606.800093,3997.112087,-8882.471304,3370.820191
21606.800426,-666.185348,-10807.006753,-766.095498
21606.800759,962.267725,-9622.677246,-2221.676944
21606.801092,-888.247130,-11177.109724,-919.314598
21606.801425,2886.803174,-11843.295072,-383.047749
21606.801758,-4737.318029,-8364.327145,-2145.067394
21606.802091,-1998.556043,-10066.800811,-1915.238745
21606.802424,-666.185348,-10658.965565,-689.485948
21606.802758,1998.556043,-9326.594869,4366.744339
21606.803091,-444.123565,-6809.894666,2374.896044
21606.803424,962.267725,-7698.141797,2987.772442
21606.803757,-2960.823768,-9844.739029,1225.752797
21606.804090,1184.329507,-9104.533087,5439.278036
21606.804423,-1702.473667,-5403.503377,-1838.629195
21606.804756,-3552.988522,-8364.327145,0.000000
21606.805089,444.123565,-11177.109724,-1915.238745
21606.805422,-74.020594,-11029.068536,306.438199
21606.805755,1110.308913,-5921.647536,383.047749
21606.806088,-3627.009116,-9844.739029,-2681.334243
21606.806421,-2368.659014,-9400.615463,-1455.581446
21606.806754,-888.247130,-10214.842000,612.876398
21606.807087,2960.823768,-10807.006753,7890.783629
21606.807421,2294.638420,-4515.256246,1838.629195
21606.807754,-1480.411884,-9548.656652,0.000000
21606.808087,2368.659014,-9326.594869,4060.306139
21606.808420,592.164754,-9548.656652,2757.943793
21606.808753,1628.453072,-6883.915261,-919.314598
21606.809086,-1776.494261,-10955.047942,-1991.848295
21606.809419,-3923.091493,-11177.109724,-4443.353888
21606.809752,-1258.350101,-9474.636058,-1915.238745
21606.810085,1998.556043,-8882.471304,-689.485948
21606.810418,-1184.329507,-5403.503377,0.000000
21606.810751,592.164754,-9400.615463,1455.581446
21606.811084,4663.297435,-11843.295072,2987.772442
21606.811417,4663.297435,-10362.883188,5439.278036
21606.811750,2368.659014,-9104.533087,919.314598
21606.812084,888.247130,-11769.274478,306.438199
21606.812417,1332.370696,-10066.800811,383.047749
21606.812750,1480.411884,-9548.656652,1378.971896
21606.813083,2294.638420,-7031.956449,-4290.134789
21606.813416,-1184.329507,-11917.315666,-2451.505594
21606.813749,-1776.494261,-9474.636058,-76.609550
21606.814082,518.144159,-6143.709319,-1532.190996
21606.814415,444.123565,-9030.512492,3600.648841
21606.814748,-1776.494261,-7920.203579,-2757.943793
21606.815081,-888.247130,-9548.656652,1608.800546
21606.815414,0.000000,-10436.903782,1762.019645
21606.815747,1184.329507,-4811.338623,612.876398
21606.816080,1850.514855,-8734.430116,1532.190996
21606.816413,2368.659014,-7254.018232,1149.143247
21606.816747,3627.009116,-7179.997637,689.485948
21606.817080,962.267725,-12361.439231,-842.705048
21606.817413,592.164754,-6291.750507,-4060.306139
21606.817746,-1258.350101,-16580.613101,-1915.238745
21606.818079,2442.679609,-6587.832884,0.000000
21606.818412,-518.144159,-14211.954086,2451.505594
21606.818745,3775.050304,-7105.977043,1991.848295
21606.819078,0.000000,-9548.656652,2451.505594
21606.819411,518.144159,-10066.800811,2374.896044
21606.819744,4737.318029,-7476.080014,5362.668486
21606.820077,1036.288319,-9844.739029,5822.325785
21606.820410,1184.329507,-5995.668130,1225.752797
21606.820743,-3627.009116,-7698.141797,-2757.943793
21606.821076,-3552.988522,-8364.327145,306.438199
21606.821409,-1554.432478,-8882.471304,-2528.115143
21606.821743,-4811.338623,-7698.141797,-6205.373534
21606.822076,-4145.153275,-10510.924376,-1608.800546
21606.822409,-4737.318029,-9992.780217,-1532.190996
21606.822742,1702.473667,-7920.203579,1149.143247
21606.823075,1554.432478,-9474.636058,4749.792088
21606.823408,2886.803174,-11251.130318,3600.648841
21606.823741,666.185348,-7179.997637,3064.381992
21606.824074,4515.256246,-11843.295072,5898.935335
21606.824407,6439.791695,-7698.141797,2987.772442
21606.824740,-4145.153275,-7476.080014,0.000000
21606.825073,-370.102971,-9474.636058,-2834.553343
21606.825406,-3256.906145,-8808.450710,-2911.162892
21606.825739,-1258.350101,-9918.759623,-1302.362347
21606.826072,-1776.494261,-7328.038826,-1685.410096
21606.826406,-4219.173869,-11843.295072,-3753.867940
21606.826739,-4441.235652,-5995.668130,-2451.505594
21606.827072,-296.082377,-11843.295072,3600.648841
21606.827405,4071.132681,-7105.977043,3600.648841
21606.827738,-1776.494261,-7179.997637,2451.505594
21606.828071,2294.638420,-6809.894666,-76.609550
21606.828404,2664.741391,-11843.295072,2528.115143
21606.828737,4589.276840,-7846.182985,4903.011187
21606.829070,2294.638420,-7624.121203,0.000000
21606.829403,-2738.761985,-10658.965565,-4366.744339
21606.829736,-2368.659014,-11547.212695,-4443.353888
21606.830069,-740.205942,-10288.862594,-2528.115143
21606.830402,2072.576638,-8438.347739,-76.609550
21606.830735,0.000000,-9548.656652,-612.876398
21606.831069,2886.803174,-13027.624579,2987.772442
21606.831402,2590.720797,-6735.874072,3217.601092
21606.831735,3404.947333,-5995.668130,4903.011187
21606.832068,1628.453072,-8290.306550,2068.457845
21606.832401,0.000000,-8364.327145,-2451.505594
21606.832734,1998.556043,-10658.965565,2068.457845
21606.833067,2220.617826,-6587.832884,536.266849
21606.833400,-888.247130,-8068.244768,-459.657299
21606.833733,-1258.350101,-8882.471304,-2528.115143
21606.834066,-1850.514855,-10658.965565,-1302.362347
21606.834399,0.000000,-8364.327145,1225.752797
21606.834732,370.102971,-11473.192101,-76.609550
21606.835065,-74.020594,-10362.883188,-2528.115143
21606.835398,370.102971,-14211.954086,2451.505594
21606.835732,6883.915261,-8216.285956,4903.011187
21606.836065,6883.915261,-8290.306550,7124.688131
21606.836398,5551.544565,-5625.565159,2451.505594
21606.836731,962.267725,-8364.327145,0.000000
21606.837064,-74.020594,-11547.212695,-1302.362347
21606.837397,0.000000,-9548.656652,2604.724693
