#time,accel_x,accel_y,accel_z
19827.648073,9400.615463,-7846.182985,2221.676944
19827.648406,7105.977043,-7476.080014,2451.505594
19827.648740,6143.709319,-8512.368333,-1838.629195
19827.649074,5551.544565,-10066.800811,-3753.867940
19827.649407,4293.194464,-9400.615463,-4596.572988
19827.649741,5329.482782,-10140.821405,-3677.258390
19827.650075,5699.585753,-7772.162391,-3830.477490
19827.650408,9474.636058,-10214.842000,2374.896044
19827.650742,13545.768739,-10362.883188,6052.154434
19827.651076,11769.274478,-5699.585753,3370.820191
19827.651409,15322.262999,-10658.965565,6665.030833
19827.651743,12435.459826,-8512.368333,3983.696590
19827.652076,10214.842000,-9548.656652,1225.752797
19827.652410,7105.977043,-11177.109724,-842.705048
19827.652744,1702.473667,-12583.501014,-4213.525239
19827.653077,-2368.659014,-13101.645173,-4903.011187
19827.653411,-2220.617826,-13027.624579,-1915.238745
19827.653745,-1850.514855,-8808.450710,-1685.410096
19827.654078,-1258.350101,-6587.832884,0.000000
19827.654412,2072.576638,-6291.750507,6281.983084
19827.654746,4737.318029,-4959.379811,9039.926876
19827.655079,6809.894666,-4219.173869,8427.050478
19827.655413,6735.874072,-6143.709319,5362.668486
19827.655747,6069.688724,-7698.141797,1762.019645
19827.656080,1480.411884,-8364.327145,-2451.505594
19827.656414,2294.638420,-10362.883188,-6435.202183
19827.656748,-1406.391290,-13693.809927,-8810.098227
19827.657081,-2738.761985,-14285.974681,-8963.317327
19827.657415,-2442.679609,-13915.871710,-6205.373534
19827.657749,-2442.679609,-10732.986159,-4290.134789
19827.658082,0.000000,-9548.656652,0.000000
19827.658416,3849.070898,-7772.162391,8350.440928
19827.658750,7920.203579,-5329.482782,10189.070123
19827.659083,9474.636058,-4219.173869,13406.671215
19827.659417,7698.141797,-4959.379811,9039.926876
19827.659751,7105.977043,-7105.977043,4826.401637
19827.660084,6217.729913,-7550.100608,1149.143247
19827.660418,3478.967927,-6809.894666,-4903.011187
19827.660752,-74.020594,-10214.842000,-11031.775171
19827.661085,-3034.844362,-15988.448347,-9882.631924
19827.661419,-4811.338623,-17764.942608,-8656.879127
19827.661753,-4811.338623,-13767.830521,-6894.859482
19827.662086,-4367.215058,-15396.283594,-689.485948
19827.662420,-4293.194464,-10732.986159,2374.896044
19827.662754,-962.267725,-8586.388927,7584.345430
19827.663087,4885.359217,-2442.679609,11414.822920
19827.663421,7402.059420,-1850.514855,14096.157163
19827.663755,8512.368333,-1258.350101,7354.516781
19827.664088,9474.636058,-5329.482782,7890.783629
19827.664422,7031.956449,-3775.050304,0.000000
19827.664755,4737.318029,-7179.997637,-4749.792088
19827.665089,2368.659014,-10140.821405,-9959.241474
19827.665423,-370.102971,-14730.098246,-12257.527968
19827.665756,-2220.617826,-15766.386565,-11414.822920
19827.666090,-1258.350101,-16728.654289,-8273.831378
19827.666424,2294.638420,-15988.448347,-1915.238745
19827.666757,2368.659014,-12213.398043,5209.449386
19827.667091,7920.203579,-10658.965565,11568.042020
19827.667425,6439.791695,-5773.606348,9422.974625
19827.667758,7994.224174,-4811.338623,12257.527968
19827.668092,10066.800811,-2960.823768,11338.213370
19827.668426,6735.874072,-2664.741391,6741.640382
19827.668759,3404.947333,-4663.297435,459.657299
19827.669093,74.020594,-6883.915261,-5822.325785
19827.669427,-1258.350101,-9474.636058,-9499.584175
19827.669760,-296.082377,-14211.954086,-7431.126331
19827.670094,-370.102971,-13175.665768,-8656.879127
19827.670428,-1258.350101,-14285.974681,-9499.584175
19827.670761,-2368.659014,-16802.674883,-2451.505594
19827.671095,148.041188,-14878.139434,1838.629195
19827.671429,1110.308913,-11473.192101,4290.134789
19827.671762,3404.947333,-8290.306550,8197.221829
19827.672096,3775.050304,-5699.585753,9959.241474
19827.672430,2294.638420,-3404.947333,8810.098227
19827.672763,1036.288319,-3997.112087,6971.469032
19827.673097,-2368.659014,-5181.441594,2451.505594
19827.673431,-5033.400406,-6661.853478,-1532.190996
19827.673764,-7105.977043,-8660.409521,-4903.011187
19827.674098,-7179.997637,-10658.965565,-5592.497135
19827.674432,-8290.306550,-11325.150913,-6128.763984
19827.674765,-2442.679609,-13915.871710,-3140.991542
19827.675099,-2368.659014,-9696.697840,-2298.286494
19827.675433,0.000000,-9548.656652,2451.505594
19827.675766,2886.803174,-10658.965565,2374.896044
19827.676100,1850.514855,-7994.224174,3140.991542
19827.676434,1480.411884,-7846.182985,2068.457845
19827.676767,518.144159,-6661.853478,1225.752797
19827.677101,-518.144159,-5995.668130,0.000000
19827.677435,0.000000,-8660.409521,1149.143247
19827.677768,-1036.288319,-10658.965565,-76.609550
19827.678102,-2738.761985,-8512.368333,-3370.820191
19827.678435,-1776.494261,-13397.727550,1762.019645
19827.678769,-74.020594,-10807.006753,1225.752797
19827.679103,740.205942,-9992.780217,3217.601092
19827.679436,1628.453072,-9622.677246,3753.867940
19827.679770,3478.967927,-8586.388927,3753.867940
19827.680104,1776.494261,-6587.832884,3064.381992
19827.680437,3552.988522,-7476.080014,4213.525239
19827.680771,1998.556043,-6365.771101,-2451.505594
19827.681105,0.000000,-4811.338623,-3677.258390
19827.681438,1702.473667,-9474.636058,-4979.620737
19827.681772,0.000000,-9548.656652,-4290.134789
19827.682106,0.000000,-10658.965565,-3983.696590
19827.682439,1850.514855,-12583.501014,-689.485948
19827.682773,3849.070898,-12065.356855,2451.505594
19827.683107,4811.338623,-11547.212695,5975.544884
19827.683440,5847.626942,-12731.542202,6052.154434
19827.683774,3775.050304,-8956.491898,3064.381992
19827.684108,1184.329507,-8364.327145,4903.011187
19827.684441,2294.638420,-9474.636058,3600.648841
19827.684775,-2220.617826,-5995.668130,1225.752797
19827.685109,-1036.288319,-6217.729913,-1225.752797
19827.685442,-1406.391290,-7179.997637,-1838.629195
19827.685776,740.205942,-5995.668130,-2528.115143
19827.686110,1776.494261,-7772.162391,-2451.505594
19827.686443,3478.967927,-8290.306550,-3447.429741
19827.686777,3404.947333,-11103.089130,-1608.800546
19827.687111,3182.885551,-12879.583391,-766.095498
19827.687444,2664.741391,-12657.521608,-2987.772442
19827.687778,3478.967927,-13915.871710,0.000000
19827.688112,0.000000,-13101.645173,2528.115143
19827.688445,-148.041188,-12731.542202,4826.401637
19827.688779,-3627.009116,-7772.162391,306.438199
19827.689113,-2442.679609,-7698.141797,2374.896044
19827.689446,-4219.173869,-4959.379811,2451.505594
19827.689780,-3256.906145,-4219.173869,3140.991542
19827.690114,-3108.864956,-4515.256246,2834.553343
19827.690447,0.000000,-5403.503377,1225.752797
19827.690781,3182.885551,-4885.359217,0.000000
19827.691115,2368.659014,-10066.800811,2987.772442
19827.691448,1110.308913,-9474.636058,-2834.553343
19827.691782,-74.020594,-11843.295072,-5286.058936
19827.692115,-4441.235652,-12509.480420,-6435.202183
19827.692449,-3256.906145,-13989.892304,-3907.087040
19827.692783,-3627.009116,-12435.459826,-3140.991542
19827.693116,-3849.070898,-11325.150913,-919.314598
19827.693450,-1110.308913,-8882.471304,4060.306139
19827.693784,-666.185348,-5699.585753,3064.381992
19827.694117,2294.638420,-8290.306550,6052.154434
19827.694451,1110.308913,-5921.647536,3907.087040
19827.694785,888.247130,-6587.832884,6894.859482
19827.695118,962.267725,-7476.080014,3677.258390
19827.695452,1110.308913,-9030.512492,842.705048
19827.695786,3034.844362,-8882.471304,306.438199
19827.696119,1480.411884,-9844.739029,-1838.629195
19827.696453,3478.967927,-9474.636058,-3140.991542
19827.696787,0.000000,-9548.656652,-4290.134789
19827.697120,1110.308913,-13027.624579,-4979.620737
19827.697454,-74.020594,-12435.459826,-6205.373534
19827.697788,0.000000,-11917.315666,-2604.724693
19827.698121,2294.638420,-11547.212695,-383.047749
19827.698455,2516.700203,-10658.965565,2374.896044
19827.698789,2812.782580,-9474.636058,5132.839837
19827.699122,3997.112087,-7402.059420,7354.516781
19827.699455,4145.153275,-7031.956449,7354.516781
19827.699788,4959.379811,-9474.636058,9422.974625
19827.700121,2590.720797,-4811.338623,2451.505594
19827.700455,1184.329507,-7476.080014,0.000000
19827.700788,1110.308913,-7994.224174,-3064.381992
19827.701121,-74.020594,-11251.130318,-2528.115143
19827.701454,-666.185348,-9474.636058,-7737.564530
19827.701787,-1776.494261,-10140.821405,-4213.525239
19827.702120,-888.247130,-10658.965565,-4979.620737
19827.702454,-1258.350101,-10510.924376,-3830.477490
19827.702787,1110.308913,-11843.295072,-689.485948
19827.703120,1628.453072,-9030.512492,2145.067394
19827.703453,3256.906145,-8808.450710,5132.839837
19827.703786,3775.050304,-8660.409521,6894.859482
19827.704120,2368.659014,-5995.668130,5209.449386
19827.704453,1184.329507,-8216.285956,5592.497135
19827.704786,-1258.350101,-8290.306550,-383.047749
19827.705119,-4737.318029,-10140.821405,-76.609550
19827.705452,-4811.338623,-10066.800811,-4366.744339
19827.705785,-4811.338623,-8586.388927,-5669.106685
19827.706119,-4885.359217,-10066.800811,-2911.162892
19827.706452,-2294.638420,-8956.491898,-1685.410096
19827.706785,1184.329507,-7846.182985,2298.286494
19827.707118,2960.823768,-6883.915261,3830.477490
19827.707451,4737.318029,-9474.636058,4826.401637
19827.707784,3775.050304,-7550.100608,1225.752797
19827.708118,0.000000,-7179.997637,0.000000
19827.708451,1110.308913,-10955.047942,-1302.362347
19827.708784,-2960.823768,-10732.986159,-3370.820191
19827.709117,-2368.659014,-12287.418637,-1991.848295
19827.709450,-4441.235652,-11251.130318,-1685.410096
19827.709784,-4071.132681,-9770.718434,-2068.457845
19827.710117,-2590.720797,-10658.965565,1149.143247
19827.710450,1702.473667,-9474.636058,4826.401637
19827.710783,1110.308913,-4811.338623,4903.011187
19827.711116,2368.659014,-4811.338623,6128.763984
19827.711449,5551.544565,-7698.141797,4826.401637
19827.711783,5329.482782,-6883.915261,5439.278036
19827.712116,4367.215058,-7624.121203,1455.581446
19827.712449,2664.741391,-7550.100608,-3064.381992
19827.712782,-148.041188,-11399.171507,-6818.249932
19827.713115,-3256.906145,-11769.274478,-9193.145976
19827.713449,-3034.844362,-13915.871710,-7431.126331
19827.713782,-2442.679609,-10140.821405,-6741.640382
19827.714115,-1776.494261,-12065.356855,-766.095498
19827.714448,1702.473667,-10658.965565,1149.143247
19827.714781,2886.803174,-10066.800811,6358.592633
19827.715114,4441.235652,-7105.977043,7967.393179
19827.715448,3775.050304,-6883.915261,7354.516781
19827.715781,2368.659014,-7328.038826,5669.106685
19827.716114,1776.494261,-6883.915261,4903.011187
19827.716447,0.000000,-5107.421000,612.876398
19827.716780,296.082377,-8364.327145,0.000000
19827.717114,-592.164754,-9474.636058,-2528.115143
19827.717447,-1258.350101,-8364.327145,-6128.763984
19827.717780,-74.020594,-10362.883188,-4979.620737
19827.718113,0.000000,-11843.295072,-4060.306139
19827.718446,0.000000,-11991.336260,-3907.087040
19827.718779,296.082377,-12805.562797,-1685.410096
19827.719113,2368.659014,-10732.986159,1838.629195
19827.719446,2368.659014,-10436.903782,4290.134789
19827.719779,2368.659014,-10288.862594,5515.887586
19827.720112,888.247130,-8068.244768,4903.011187
19827.720445,-222.061783,-7254.018232,4290.134789
19827.720778,-2368.659014,-5699.585753,2451.505594
19827.721112,-3701.029710,-3923.091493,-1225.752797
19827.721445,-3552.988522,-7624.121203,2374.896044
19827.721778,-3775.050304,-4811.338623,-2451.505594
19827.722111,-370.102971,-8882.471304,-76.609550
19827.722444,-1184.329507,-9548.656652,-1072.533697
19827.722778,222.061783,-9918.759623,-1149.143247
19827.723111,74.020594,-9918.759623,-2374.896044
19827.723444,0.000000,-11325.150913,-2451.505594
19827.723777,1480.411884,-12287.418637,-76.609550
19827.724110,-1258.350101,-9548.656652,0.000000
19827.724443,0.000000,-8364.327145,3064.381992
19827.724777,1998.556043,-9474.636058,1149.143247
19827.725110,-1184.329507,-6143.709319,1225.752797
19827.725443,-74.020594,-8290.306550,2987.772442
19827.725776,-1628.453072,-7846.182985,383.047749
19827.726109,-3034.844362,-9400.615463,306.438199
19827.726443,-3330.926739,-8808.450710,-842.705048
19827.726776,-370.102971,-9474.636058,1149.143247
19827.727109,-2664.741391,-6587.832884,0.000000
19827.727442,2220.617826,-8956.491898,0.000000
19827.727775,5847.626942,-9474.636058,2374.896044
19827.728108,2368.659014,-5995.668130,0.000000
19827.728442,4663.297435,-8216.285956,-1302.362347
19827.728775,2368.659014,-9622.677246,-2604.724693
19827.729108,666.185348,-10510.924376,-4290.134789
19827.729441,-592.164754,-11473.192101,-3447.429741
19827.729774,0.000000,-10955.047942,-4366.744339
19827.730108,-4737.318029,-10732.986159,0.000000
19827.730441,-74.020594,-11103.089130,-383.047749
19827.730774,0.000000,-8364.327145,1915.238745
19827.731107,0.000000,-7772.162391,7967.393179
19827.731440,3478.967927,-5921.647536,5209.449386
19827.731773,3775.050304,-6365.771101,6971.469032
19827.732107,2886.803174,-5255.462188,5745.716235
19827.732440,1776.494261,-6291.750507,2528.115143
19827.732773,1406.391290,-7105.977043,-1302.362347
19827.733106,-814.226536,-9178.553681,-3830.477490
19827.733439,-2072.576638,-9548.656652,-6511.811733
19827.733772,-1850.514855,-10510.924376,-7124.688131
19827.734106,-2368.659014,-13619.789333,-5592.497135
19827.734439,-1850.514855,-13619.789333,-4979.620737
19827.734772,-1110.308913,-11029.068536,-1838.629195
19827.735105,1184.329507,-9548.656652,4903.011187
19827.735438,5477.523971,-9474.636058,7277.907231
19827.735772,3552.988522,-7772.162391,6128.763984
19827.736105,4367.215058,-6365.771101,6665.030833
19827.736438,1628.453072,-8290.306550,4979.620737
19827.736771,592.164754,-7550.100608,1915.238745
19827.737104,-2442.679609,-8882.471304,-1302.362347
19827.737437,-4737.318029,-11251.130318,-3753.867940
19827.737771,-7105.977043,-8364.327145,-3677.258390
19827.738104,-1554.432478,-10658.965565,-2528.115143
19827.738437,1110.308913,-9474.636058,-2834.553343
19827.738770,2738.761985,-9178.553681,1608.800546
19827.739103,3775.050304,-8586.388927,1072.533697
19827.739437,3849.070898,-9474.636058,2374.896044
19827.739770,2664.741391,-10288.862594,1838.629195
19827.740103,1184.329507,-7179.997637,76.609550
19827.740436,3182.885551,-11843.295072,1149.143247
19827.740769,-3552.988522,-9548.656652,1225.752797
19827.741102,-2442.679609,-11251.130318,-1302.362347
19827.741436,-5921.647536,-7476.080014,-2911.162892
19827.741769,-3701.029710,-8142.265362,-76.609550
19827.742102,-3849.070898,-7179.997637,1225.752797
19827.742435,-1036.288319,-6143.709319,2604.724693
19827.742768,1332.370696,-6661.853478,4673.182538
19827.743102,3552.988522,-7179.997637,5515.887586
19827.743435,5699.585753,-5921.647536,1838.629195
19827.743768,4885.359217,-9474.636058,4826.401637
19827.744101,3478.967927,-7698.141797,-4060.306139
19827.744434,0.000000,-11325.150913,-3294.210641
19827.744767,-1776.494261,-12213.398043,-5822.325785
19827.745101,-3552.988522,-13101.645173,-5669.106685
19827.745434,-2664.741391,-11621.233289,-4366.744339
19827.745767,-592.164754,-10732.986159,-1072.533697
19827.746100,1110.308913,-10658.965565,2374.896044
19827.746433,0.000000,-5995.668130,3677.258390
19827.746767,4663.297435,-9474.636058,5439.278036
19827.747100,3627.009116,-5921.647536,4826.401637
19827.747433,2368.659014,-8068.244768,8503.660028
19827.747766,1776.494261,-8660.409521,4749.792088
19827.748099,592.164754,-7772.162391,1685.410096
19827.748432,0.000000,-7550.100608,-459.657299
19827.748766,296.082377,-8586.388927,-2221.676944
19827.749099,-666.185348,-9474.636058,-3140.991542
19827.749432,-2072.576638,-7772.162391,-4903.011187
19827.749765,-222.061783,-9474.636058,-4596.572988
19827.750098,-592.164754,-11843.295072,-3753.867940
19827.750431,-1184.329507,-11103.089130,-2451.505594
19827.750765,2886.803174,-12879.583391,1762.019645
19827.751098,1258.350101,-10140.821405,3064.381992
19827.751431,0.000000,-9844.739029,8197.221829
19827.751764,-74.020594,-8882.471304,3370.820191
19827.752097,592.164754,-7179.997637,5669.106685
19827.752431,148.041188,-7698.141797,6052.154434
19827.752764,0.000000,-5995.668130,3830.477490
19827.753097,-2294.638420,-6365.771101,306.438199
19827.753430,-2886.803174,-7624.121203,-2221.676944
19827.753763,-1850.514855,-8290.306550,-2681.334243
19827.754096,-1998.556043,-7772.162391,-4290.134789
19827.754430,-74.020594,-9474.636058,-1915.238745
19827.754763,-74.020594,-11843.295072,-3753.867940
19827.755096,0.000000,-9548.656652,-2451.505594
19827.755429,2146.597232,-11843.295072,-383.047749
19827.755762,1406.391290,-11251.130318,1225.752797
19827.756096,2442.679609,-10362.883188,2757.943793
19827.756429,1776.494261,-9252.574275,3753.867940
19827.756762,1332.370696,-5995.668130,2145.067394
19827.757095,-2812.782580,-5403.503377,2451.505594
19827.757428,-74.020594,-9474.636058,-76.609550
19827.757761,-2442.679609,-7698.141797,-1915.238745
19827.758095,-4737.318029,-8512.368333,-1838.629195
19827.758428,-1554.432478,-6439.791695,-3447.429741
19827.758761,-370.102971,-10066.800811,995.924147
19827.759094,2368.659014,-7328.038826,1608.800546
19827.759427,4293.194464,-7624.121203,2374.896044
19827.759761,4737.318029,-7476.080014,2451.505594
19827.760094,5921.647536,-9474.636058,4213.525239
19827.760427,5551.544565,-9474.636058,-995.924147
19827.760760,0.000000,-9844.739029,-2451.505594
19827.761093,-2220.617826,-11621.233289,-2528.115143
19827.761426,-666.185348,-10881.027347,-5745.716235
19827.761760,-962.267725,-11473.192101,-2068.457845
19827.762093,-2960.823768,-11103.089130,-766.095498
19827.762426,-1258.350101,-8068.244768,689.485948
19827.762759,74.020594,-9400.615463,4443.353888
19827.763092,3775.050304,-6143.709319,7431.126331
19827.763425,3775.050304,-5255.462188,7431.126331
19827.763759,3478.967927,-5995.668130,5669.106685
19827.764092,4367.215058,-7105.977043,3600.648841
19827.764425,1332.370696,-5921.647536,-689.485948
19827.764758,592.164754,-7772.162391,-1225.752797
19827.765091,-74.020594,-10066.800811,-6818.249932
19827.765425,-3034.844362,-11917.315666,-10418.898773
19827.765758,-3034.844362,-13471.748144,-7431.126331
19827.766091,-4071.132681,-14063.912898,-5669.106685
19827.766424,-2072.576638,-11103.089130,-2834.553343
19827.766757,1776.494261,-10881.027347,2834.553343
19827.767090,3552.988522,-7846.182985,7354.516781
19827.767424,4663.297435,-7624.121203,10801.946522
19827.767757,1184.329507,-5995.668130,10112.460574
19827.768090,4071.132681,-7105.977043,5898.935335
19827.768423,-666.185348,-7105.977043,2987.772442
19827.768756,-2960.823768,-6069.688724,0.000000
19827.769090,-5107.421000,-8142.265362,-5669.106685
19827.769423,-5403.503377,-8512.368333,-7354.516781
19827.769756,-3330.926739,-9474.636058,-4366.744339
19827.770089,-518.144159,-9474.636058,-2374.896044
19827.770422,-370.102971,-9474.636058,-2834.553343
19827.770755,1702.473667,-11843.295072,-76.609550
19827.771089,3182.885551,-11251.130318,1149.143247
19827.771422,1850.514855,-8364.327145,1838.629195
19827.771755,2960.823768,-10140.821405,4290.134789
19827.772088,3108.864956,-9622.677246,3983.696590
19827.772421,0.000000,-9400.615463,3140.991542
19827.772755,-1924.535449,-9252.574275,612.876398
19827.773088,-4441.235652,-8660.409521,0.000000
19827.773421,-4737.318029,-7179.997637,-1838.629195
19827.773754,-1258.350101,-8290.306550,-76.609550
19827.774087,-2516.700203,-5921.647536,-689.485948
19827.774420,-2072.576638,-6291.750507,2451.505594
19827.774754,4367.215058,-9474.636058,4826.401637
19827.775087,3701.029710,-7772.162391,3294.210641
19827.775420,4293.194464,-7476.080014,1072.533697
19827.775753,3330.926739,-9918.759623,-1302.362347
19827.776086,2590.720797,-11399.171507,-2604.724693
19827.776419,0.000000,-11917.315666,-2757.943793
19827.776753,2294.638420,-11843.295072,-5286.058936
19827.777086,-1776.494261,-11917.315666,-766.095498
19827.777419,2886.803174,-14211.954086,-76.609550
19827.777752,2294.638420,-9474.636058,1762.019645
19827.778085,0.000000,-9104.533087,3600.648841
19827.778419,888.247130,-7994.224174,2604.724693
19827.778752,814.226536,-9400.615463,4826.401637
19827.779085,962.267725,-7624.121203,4903.011187
19827.779418,0.000000,-5995.668130,4290.134789
19827.779751,1110.308913,-8882.471304,2374.896044
19827.780084,1628.453072,-7476.080014,1608.800546
19827.780418,1554.432478,-7402.059420,842.705048
19827.780751,1998.556043,-6513.812290,-2298.286494
19827.781084,-2072.576638,-9548.656652,-3983.696590
19827.781417,-222.061783,-11695.253884,-2528.115143
19827.781750,-74.020594,-11251.130318,-6358.592633
19827.782084,-2960.823768,-11325.150913,-3524.039291
19827.782417,-74.020594,-14211.954086,-689.485948
19827.782750,-518.144159,-11621.233289,612.876398
19827.783083,2072.576638,-9548.656652,5209.449386
19827.783416,1036.288319,-7772.162391,6435.202183
19827.783749,1480.411884,-7179.997637,5209.449386
19827.784083,0.000000,-4811.338623,6741.640382
19827.784416,2294.638420,-5921.647536,3447.429741
19827.784749,0.000000,-4811.338623,0.000000
19827.785082,-1480.411884,-7179.997637,-306.438199
19827.785415,-1258.350101,-7402.059420,-3753.867940
19827.785749,-1480.411884,-9474.636058,-3753.867940
19827.786082,-1776.494261,-9992.780217,-5898.935335
19827.786415,-2368.659014,-12361.439231,-6358.592633
19827.786748,-592.164754,-13323.706956,-3677.258390
19827.787081,-1036.288319,-11325.150913,1072.533697
19827.787414,4071.132681,-9474.636058,1149.143247
19827.787748,2960.823768,-8956.491898,4903.011187
19827.788081,7031.956449,-10362.883188,9729.412825
19827.788414,2368.659014,-7179.997637,6128.763984
19827.788747,2886.803174,-7402.059420,4519.963438
19827.789080,-592.164754,-8142.265362,2298.286494
19827.789413,-3404.947333,-8660.409521,-536.266849
19827.789747,-4219.173869,-7994.224174,-3140.991542
19827.790080,-4737.318029,-9400.615463,-1608.800546
19827.790413,-3923.091493,-7698.141797,-4060.306139
19827.790746,-2220.617826,-8364.327145,0.000000
19827.791079,3256.906145,-8882.471304,3600.648841
19827.791413,5255.462188,-8290.306550,1762.019645
19827.791746,4959.379811,-8808.450710,1608.800546
19827.792079,4441.235652,-9548.656652,1072.533697
19827.792412,3997.112087,-10584.944971,919.314598
19827.792745,1480.411884,-9548.656652,0.000000
19827.793078,1998.556043,-14211.954086,-1302.362347
19827.793412,-3404.947333,-10732.986159,-1838.629195
19827.793745,-2960.823768,-10881.027347,-76.609550
19827.794078,-1850.514855,-9474.636058,-689.485948
19827.794411,-962.267725,-8142.265362,3217.601092
19827.794744,-222.061783,-7698.141797,4060.306139
19827.795078,2072.576638,-6069.688724,6511.811733
19827.795411,2664.741391,-5255.462188,5975.544884
19827.795744,2368.659014,-5995.668130,3677.258390
19827.796077,4663.297435,-7994.224174,1762.019645
19827.796410,1924.535449,-7994.224174,-689.485948
19827.796743,518.144159,-9326.594869,-4903.011187
19827.797077,-3478.967927,-12287.418637,-7507.735880
19827.797410,-4885.359217,-11473.192101,-8503.660028
19827.797743,-3627.009116,-13027.624579,-3753.867940
19827.798076,-666.185348,-12435.459826,-2834.553343
19827.798409,-1776.494261,-9548.656652,1225.752797
19827.798743,2368.659014,-9474.636058,7354.516781
19827.799073,4663.297435,-5625.565159,7660.954980
19827.799406,4515.256246,-7105.977043,8810.098227
19827.799739,2812.782580,-8290.306550,6511.811733
19827.800073,962.267725,-7994.224174,3907.087040
19827.800406,-2368.659014,-7179.997637,0.000000
19827.800739,-74.020594,-8882.471304,-2528.115143
19827.801073,-3552.988522,-7772.162391,-5515.887586
19827.801406,-2368.659014,-9030.512492,-2451.505594
19827.801739,-370.102971,-8882.471304,-4979.620737
19827.802072,0.000000,-7772.162391,-2451.505594
19827.802406,-1554.432478,-10955.047942,-3830.477490
19827.802739,444.123565,-10140.821405,-1991.848295
19827.803072,2146.597232,-11103.089130,1149.143247
19827.803406,4885.359217,-11399.171507,4826.401637
19827.803739,4663.297435,-14211.954086,4826.401637
19827.804072,592.164754,-7772.162391,4903.011187
19827.804405,666.185348,-9252.574275,6052.154434
19827.804739,1110.308913,-8882.471304,2068.457845
19827.805072,-2960.823768,-7476.080014,2757.943793
19827.805405,-3478.967927,-7031.956449,-536.266849
19827.805739,-2664.741391,-6809.894666,-383.047749
19827.806072,-1480.411884,-7254.018232,-536.266849
19827.806405,-74.020594,-8290.306550,76.609550
19827.806738,2886.803174,-9474.636058,-995.924147
19827.807072,1702.473667,-6587.832884,-2451.505594
19827.807405,1184.329507,-10732.986159,-76.609550
19827.807738,1110.308913,-13027.624579,-1302.362347
19827.808072,1406.391290,-11843.295072,-76.609550
19827.808405,592.164754,-9844.739029,76.609550
19827.808738,1850.514855,-9844.739029,689.485948
19827.809071,296.082377,-10214.842000,1455.581446
19827.809405,0.000000,-8364.327145,1225.752797
19827.809738,-74.020594,-7328.038826,0.000000
19827.810071,-148.041188,-10436.903782,1225.752797
19827.810405,-74.020594,-10658.965565,-76.609550
19827.810738,-2146.597232,-8660.409521,306.438199
19827.811071,1110.308913,-8512.368333,3447.429741
19827.811404,962.267725,-8660.409521,2757.943793
19827.811738,2146.597232,-8660.409521,2757.943793
19827.812071,3627.009116,-7254.018232,2451.505594
19827.812404,1480.411884,-5403.503377,612.876398
19827.812738,2294.638420,-7476.080014,-1225.752797
19827.813071,0.000000,-9992.780217,-3677.258390
19827.813404,-1480.411884,-11473.192101,-4290.134789
19827.813738,-1924.535449,-11547.212695,-4443.353888
19827.814071,-4145.153275,-11917.315666,-4903.011187
19827.814404,-2738.761985,-11843.295072,-3140.991542
19827.814737,-4145.153275,-10436.903782,1838.629195
19827.815071,2294.638420,-8290.306550,4826.401637
19827.815404,4071.132681,-7698.141797,8656.879127
19827.815737,1776.494261,-6587.832884,8427.050478
19827.816071,3627.009116,-5921.647536,7124.688131
19827.816404,1184.329507,-6069.688724,4290.134789
19827.816737,1480.411884,-6661.853478,1608.800546
19827.817070,0.000000,-8364.327145,-2451.505594
19827.817404,-1850.514855,-7772.162391,-7048.078582
19827.817737,-4737.318029,-9548.656652,-6128.763984
19827.818070,-74.020594,-13027.624579,-7431.126331
19827.818404,-3034.844362,-13027.624579,-7124.688131
19827.818737,-1702.473667,-12583.501014,-2834.553343
19827.819070,592.164754,-11399.171507,612.876398
19827.819403,2294.638420,-9474.636058,4366.744339
19827.819737,4959.379811,-7624.121203,7354.516781
19827.820070,5847.626942,-8882.471304,9729.412825
19827.820403,2368.659014,-4811.338623,7354.516781
19827.820737,3034.844362,-8882.471304,6665.030833
19827.821070,-74.020594,-8882.471304,-842.705048
19827.821403,-6513.812290,-7179.997637,-3064.381992
19827.821736,-4219.173869,-10658.965565,-5362.668486
19827.822070,-2220.617826,-8956.491898,-3983.696590
19827.822403,-1628.453072,-9992.780217,-1991.848295
19827.822736,1480.411884,-8364.327145,-919.314598
19827.823070,3478.967927,-7994.224174,536.266849
19827.823403,0.000000,-8364.327145,3064.381992
19827.823736,4663.297435,-10362.883188,1608.800546
19827.824069,2516.700203,-9548.656652,0.000000
19827.824403,1184.329507,-8364.327145,2451.505594
19827.824736,2294.638420,-10658.965565,-76.609550
19827.825069,-1776.494261,-10510.924376,-459.657299
19827.825403,-3108.864956,-10066.800811,-1532.190996
19827.825736,-3923.091493,-9696.697840,-1149.143247
19827.826069,-3034.844362,-9474.636058,-76.609550
19827.826402,-3552.988522,-8438.347739,995.924147
19827.826736,-1332.370696,-7179.997637,2528.115143
19827.827069,2368.659014,-6439.791695,4060.306139
19827.827402,3552.988522,-7179.997637,6281.983084
19827.827736,6439.791695,-8290.306550,2068.457845
19827.828069,4737.318029,-5995.668130,0.000000
19827.828402,0.000000,-9548.656652,-459.657299
19827.828736,962.267725,-11843.295072,-5898.935335
19827.829069,-5921.647536,-12213.398043,-9499.584175
19827.829402,-3923.091493,-13175.665768,-6358.592633
19827.829735,-1850.514855,-11843.295072,-2374.896044
19827.830069,-74.020594,-10436.903782,995.924147
19827.830402,962.267725,-9178.553681,3600.648841
19827.830735,814.226536,-9474.636058,4826.401637
19827.831069,296.082377,-5995.668130,8580.269578
19827.831402,3182.885551,-7698.141797,8503.660028
19827.831735,2294.638420,-7994.224174,3294.210641
19827.832068,592.164754,-7550.100608,2757.943793
19827.832402,-1850.514855,-8142.265362,-612.876398
19827.832735,-296.082377,-7994.224174,-1915.238745
19827.833068,-666.185348,-8808.450710,-3677.258390
19827.833402,-814.226536,-7179.997637,-4903.011187
19827.833735,518.144159,-11843.295072,-3753.867940
19827.834068,0.000000,-10140.821405,-2068.457845
19827.834401,-74.020594,-12435.459826,-3140.991542
19827.834735,370.102971,-9548.656652,-3294.210641
19827.835068,1998.556043,-12731.542202,2987.772442
19827.835401,1850.514855,-9844.739029,3753.867940
19827.835735,2294.638420,-9992.780217,4290.134789
19827.836068,1110.308913,-8882.471304,5209.449386
19827.836401,0.000000,-7179.997637,5515.887586
19827.836734,1998.556043,-6513.812290,2987.772442
19827.837068,-444.123565,-8586.388927,5209.449386
19827.837401,-666.185348,-7105.977043,-1302.362347
19827.837734,-3849.070898,-7328.038826,-2145.067394
19827.838068,-1776.494261,-7179.997637,-2451.505594
19827.838401,-1036.288319,-9696.697840,-2834.553343
19827.838734,370.102971,-9770.718434,-4596.572988
19827.839067,1036.288319,-11547.212695,-2757.943793
19827.839401,2294.638420,-13027.624579,-689.485948
19827.839734,222.061783,-9844.739029,0.000000
19827.840067,4663.297435,-11843.295072,2374.896044
19827.840401,2664.741391,-8364.327145,2451.505594
19827.840734,5033.400406,-10066.800811,6665.030833
19827.841067,3182.885551,-7698.141797,4060.306139
19827.841400,296.082377,-7920.203579,2757.943793
19827.841734,-1554.432478,-9474.636058,-76.609550
19827.842067,-3404.947333,-9178.553681,-2374.896044
19827.842400,-3923.091493,-11843.295072,-383.047749
19827.842734,-4441.235652,-8068.244768,-1685.410096
19827.843067,74.020594,-7920.203579,995.924147
19827.843400,2368.659014,-7179.997637,2911.162892
19827.843734,4663.297435,-7254.018232,2911.162892
19827.844067,6957.935855,-8290.306550,4213.525239
19827.844400,2738.761985,-7772.162391,306.438199
19827.844733,0.000000,-10140.821405,-76.609550
19827.845067,-74.020594,-11843.295072,-5132.839837
19827.845400,-2368.659014,-11917.315666,-4903.011187
19827.845733,-2960.823768,-12879.583391,-1608.800546
19827.846067,-2960.823768,-11843.295072,-1915.238745
19827.846400,-3701.029710,-11029.068536,0.000000
19827.846733,-1702.473667,-8586.388927,2068.457845
19827.847066,1702.473667,-8882.471304,7277.907231
19827.847400,1554.432478,-3330.926739,6128.763984
19827.847733,3701.029710,-7105.977043,9422.974625
19827.848066,5847.626942,-5625.565159,5439.278036
19827.848400,1776.494261,-6587.832884,3677.258390
19827.848733,3182.885551,-8734.430116,-689.485948
19827.849066,-1332.370696,-9992.780217,-4979.620737
19827.849399,-4145.153275,-11029.068536,-9346.365076
19827.849733,-5255.462188,-13693.809927,-8810.098227
19827.850066,-4959.379811,-11991.336260,-8963.317327
19827.850399,-5921.647536,-9548.656652,-4903.011187
19827.850733,-74.020594,-11843.295072,1762.019645
19827.851066,4071.132681,-11843.295072,5439.278036
19827.851399,3552.988522,-5995.668130,9806.022374
19827.851732,5847.626942,-7105.977043,8197.221829
19827.852066,3256.906145,-7772.162391,7431.126331
19827.852399,1702.473667,-7105.977043,5132.839837
19827.852732,-1036.288319,-7179.997637,1225.752797
19827.853066,-2886.803174,-8364.327145,-2451.505594
19827.853399,-4737.318029,-10510.924376,-2834.553343
19827.853732,-2442.679609,-10658.965565,-6588.421283
19827.854065,-2516.700203,-7772.162391,-4903.011187
19827.854399,0.000000,-8364.327145,-153.219100
19827.854732,3478.967927,-9326.594869,-2757.943793
19827.855065,3330.926739,-10140.821405,1455.581446
19827.855399,4663.297435,-9622.677246,1991.848295
19827.855732,4737.318029,-9548.656652,2987.772442
19827.856065,4737.318029,-11325.150913,4290.134789
19827.856399,3404.947333,-10881.027347,3753.867940
19827.856732,1702.473667,-9326.594869,2068.457845
19827.857065,-1036.288319,-8586.388927,153.219100
19827.857398,-1258.350101,-10362.883188,-383.047749
19827.857732,-3256.906145,-8290.306550,-842.705048
19827.858065,-4737.318029,-7179.997637,1225.752797
19827.858398,-1554.432478,-9178.553681,-76.609550
19827.858732,1110.308913,-7698.141797,-229.828649
19827.859065,2886.803174,-8882.471304,3600.648841
19827.859398,4589.276840,-8142.265362,2528.115143
19827.859731,3997.112087,-7031.956449,0.000000
19827.860065,3627.009116,-9992.780217,-689.485948
19827.860398,1998.556043,-10807.006753,-1915.238745
19827.860731,296.082377,-11473.192101,-1915.238745
19827.861065,-3552.988522,-10732.986159,-2451.505594
19827.861398,-74.020594,-13027.624579,-1915.238745
19827.861731,-2072.576638,-9474.636058,-383.047749
19827.862064,-888.247130,-8660.409521,0.000000
19827.862398,-666.185348,-9178.553681,1762.019645
19827.862731,0.000000,-8216.285956,2987.772442
19827.863064,0.000000,-7846.182985,4673.182538
19827.863398,814.226536,-6661.853478,3753.867940
19827.863731,1110.308913,-8290.306550,2374.896044
19827.864064,2516.700203,-8882.471304,6052.154434
19827.864397,3182.885551,-6809.894666,0.000000
19827.864731,1184.329507,-6735.874072,306.438199
19827.865064,296.082377,-8364.327145,-2451.505594
19827.865397,-370.102971,-9844.739029,-6435.202183
19827.865731,-1924.535449,-11769.274478,-5669.106685
19827.866064,-1480.411884,-11917.315666,-5669.106685
19827.866397,-666.185348,-12139.377449,-3140.991542
19827.866730,-1628.453072,-9548.656652,-1838.629195
19827.867064,2294.638420,-13619.789333,4213.525239
19827.867397,592.164754,-5403.503377,3370.820191
19827.867730,1184.329507,-8364.327145,7890.783629
19827.868064,4663.297435,-9474.636058,8503.660028
19827.868397,296.082377,-4811.338623,6128.763984
19827.868730,-444.123565,-6069.688724,3140.991542
19827.869063,-74.020594,-7105.977043,842.705048
19827.869397,-2220.617826,-8216.285956,-2451.505594
19827.869730,-2960.823768,-8660.409521,-3064.381992
19827.870063,-74.020594,-9474.636058,-6205.373534
19827.870397,-3997.112087,-10732.986159,-5975.544884
19827.870730,-4737.318029,-10732.986159,-4290.134789
19827.871063,-74.020594,-14211.954086,-1302.362347
19827.871397,0.000000,-9844.739029,459.657299
19827.871730,2442.679609,-9622.677246,2681.334243
19827.872063,3182.885551,-10436.903782,6128.763984
19827.872396,2812.782580,-7328.038826,6052.154434
19827.872730,1184.329507,-5995.668130,6281.983084
19827.873063,1554.432478,-7624.121203,2757.943793
19827.873396,-962.267725,-8586.388927,1302.362347
19827.873730,-3923.091493,-9178.553681,-2221.676944
19827.874063,-4811.338623,-8734.430116,-4673.182538
19827.874396,-6809.894666,-9548.656652,-3217.601092
19827.874729,-666.185348,-10658.965565,-76.609550
19827.875063,2294.638420,-8882.471304,383.047749
19827.875396,1776.494261,-5995.668130,2451.505594
19827.875729,4663.297435,-8586.388927,3600.648841
19827.876063,4663.297435,-8068.244768,2374.896044
19827.876396,3182.885551,-8882.471304,383.047749
19827.876729,1184.329507,-9844.739029,-1915.238745
19827.877062,0.000000,-9548.656652,-4903.011187
19827.877396,-4441.235652,-11917.315666,-3677.258390
19827.877729,-1850.514855,-11547.212695,-3140.991542
19827.878062,-3849.070898,-7772.162391,-3064.381992
19827.878396,-4145.153275,-9548.656652,612.876398
19827.878729,-74.020594,-7698.141797,2374.896044
19827.879062,2146.597232,-6291.750507,6741.640382
19827.879395,2960.823768,-5403.503377,6818.249932
19827.879729,4367.215058,-6069.688724,4596.572988
19827.880062,4737.318029,-8142.265362,4290.134789
19827.880395,1850.514855,-7179.997637,2451.505594
19827.880729,4663.297435,-7105.977043,-4826.401637
19827.881062,0.000000,-11325.150913,-5132.839837
19827.881395,-3552.988522,-12657.521608,-7124.688131
19827.881728,-5033.400406,-13101.645173,-8580.269578
19827.882062,-2442.679609,-12435.459826,-4979.620737
19827.882395,-2072.576638,-11769.274478,-1378.971896
19827.882728,814.226536,-9696.697840,1991.848295
19827.883062,4663.297435,-8882.471304,7277.907231
19827.883395,3849.070898,-6291.750507,9959.241474
19827.883728,4071.132681,-8290.306550,7890.783629
19827.884061,592.164754,-6587.832884,6128.763984
19827.884395,2294.638420,-8290.306550,3600.648841
19827.884728,-296.082377,-7920.203579,0.000000
19827.885061,-2146.597232,-9696.697840,-1762.019645
19827.885395,-3256.906145,-8808.450710,-4979.620737
19827.885728,-2886.803174,-9252.574275,-6128.763984
19827.886061,-666.185348,-8290.306550,-4979.620737
19827.886395,1480.411884,-12361.439231,-1302.362347
19827.886728,-74.020594,-10732.986159,-2451.505594
19827.887061,-1776.494261,-9548.656652,0.000000
19827.887394,3330.926739,-10658.965565,2068.457845
19827.887728,4663.297435,-11251.130318,4290.134789
19827.888061,2590.720797,-10214.842000,4596.572988
19827.888394,1036.288319,-8438.347739,4290.134789
19827.888728,-74.020594,-7031.956449,1608.800546
19827.889061,-1110.308913,-7402.059420,1532.190996
19827.889394,-1998.556043,-8586.388927,842.705048
19827.889727,-2442.679609,-7105.977043,-2221.676944
19827.890061,-2368.659014,-7698.141797,-1302.362347
19827.890394,-1480.411884,-8512.368333,-842.705048
19827.890727,1110.308913,-8290.306550,-1302.362347
19827.891061,2072.576638,-9474.636058,2987.772442
19827.891394,2886.803174,-8882.471304,-2528.115143
19827.891727,0.000000,-9548.656652,-1532.190996
19827.892060,1480.411884,-11621.233289,0.000000
19827.892394,-74.020594,-11251.130318,-689.485948
19827.892727,444.123565,-9918.759623,-153.219100
19827.893060,814.226536,-10955.047942,-383.047749
19827.893394,444.123565,-9252.574275,1762.019645
19827.893727,-1702.473667,-7179.997637,306.438199
19827.894060,2146.597232,-9474.636058,1762.019645
19827.894393,-2812.782580,-7402.059420,-1149.143247
19827.894727,-2368.659014,-8364.327145,1302.362347
19827.895060,1110.308913,-10658.965565,3294.210641
19827.895393,-1184.329507,-6883.915261,1838.629195
19827.895727,1036.288319,-7920.203579,766.095498
19827.896060,3478.967927,-7698.141797,1915.238745
19827.896393,3182.885551,-7624.121203,1608.800546
19827.896726,5847.626942,-8882.471304,1762.019645
19827.897060,4071.132681,-9474.636058,-3753.867940
19827.897393,-1776.494261,-10288.862594,-3370.820191
19827.897726,-148.041188,-12509.480420,-1302.362347
19827.898060,-370.102971,-11103.089130,-4749.792088
19827.898393,-2368.659014,-13693.809927,-995.924147
19827.898726,-1258.350101,-9918.759623,-1532.190996
19827.899059,-740.205942,-9474.636058,2681.334243
19827.899392,1258.350101,-8142.265362,5439.278036
19827.899726,2368.659014,-7179.997637,9729.412825
19827.900059,2590.720797,-4515.256246,5822.325785
19827.900392,1554.432478,-3701.029710,2987.772442
19827.900725,0.000000,-5995.668130,4290.134789
19827.901058,1406.391290,-8142.265362,-689.485948
19827.901391,-1036.288319,-9252.574275,-2681.334243
19827.901724,-3182.885551,-9548.656652,-6741.640382
19827.902058,-3034.844362,-9548.656652,-9576.193725
19827.902391,-2664.741391,-13397.727550,-5745.716235
19827.902724,-3849.070898,-10732.986159,-6435.202183
19827.903057,-74.020594,-11843.295072,-2221.676944
19827.903390,2368.659014,-8364.327145,2451.505594
19827.903723,6069.688724,-11251.130318,8503.660028
19827.904056,3627.009116,-7179.997637,6894.859482
19827.904390,4589.276840,-7179.997637,8120.612279
19827.904723,1332.370696,-8142.265362,4519.963438
19827.905056,444.123565,-8512.368333,2374.896044
19827.905389,-4589.276840,-8734.430116,-1532.190996
19827.905722,-6587.832884,-7772.162391,-5209.449386
19827.906055,-4811.338623,-9326.594869,-5439.278036
19827.906388,-3404.947333,-9474.636058,-3140.991542
19827.906721,0.000000,-8142.265362,-1378.971896
19827.907055,1628.453072,-8216.285956,536.266849
19827.907388,4071.132681,-8882.471304,1149.143247
19827.907721,4737.318029,-9548.656652,4673.182538
19827.908054,4663.297435,-9474.636058,766.095498
19827.908387,2368.659014,-7476.080014,0.000000
19827.908720,2368.659014,-11917.315666,2604.724693
19827.909053,0.000000,-10288.862594,-766.095498
19827.909387,-2516.700203,-11325.150913,-995.924147
19827.909720,-4293.194464,-9622.677246,-2298.286494
19827.910053,-2738.761985,-9770.718434,-689.485948
19827.910386,-4737.318029,-5995.668130,0.000000
19827.910719,-74.020594,-7105.977043,2374.896044
19827.911052,1702.473667,-4219.173869,2757.943793
19827.911385,2960.823768,-6883.915261,6052.154434
19827.911719,7031.956449,-7994.224174,3600.648841
19827.912052,2664.741391,-7920.203579,2911.162892
19827.912385,2590.720797,-8438.347739,-1915.238745
19827.912718,0.000000,-10510.924376,-5132.839837
19827.913051,-2368.659014,-13027.624579,-6818.249932
19827.913384,-4145.153275,-13545.768739,-4903.011187
19827.913717,-2442.679609,-10955.047942,-6128.763984
19827.914050,-888.247130,-9548.656652,-2068.457845
19827.914384,0.000000,-9548.656652,4290.134789
19827.914717,1702.473667,-6809.894666,3600.648841
19827.915050,2368.659014,-7994.224174,7584.345430
19827.915383,2368.659014,-7328.038826,7584.345430
19827.915716,1110.308913,-6439.791695,4979.620737
19827.916049,-222.061783,-8660.409521,3907.087040
19827.916382,-74.020594,-7698.141797,1149.143247
19827.916716,-666.185348,-6661.853478,-3064.381992
19827.917049,0.000000,-8438.347739,-1455.581446
19827.917382,-74.020594,-11251.130318,-2528.115143
19827.917715,-666.185348,-7402.059420,-6665.030833
19827.918048,1110.308913,-11843.295072,-3447.429741
19827.918381,-592.164754,-11843.295072,-3907.087040
19827.918714,-592.164754,-10732.986159,-2911.162892
19827.919048,2146.597232,-11843.295072,459.657299
19827.919381,6439.791695,-10658.965565,6358.592633
19827.919714,3849.070898,-9400.615463,6588.421283
19827.920047,2812.782580,-9400.615463,5592.497135
19827.920380,2442.679609,-6587.832884,4673.182538
19827.920713,0.000000,-7179.997637,2757.943793
19827.921046,1184.329507,-7105.977043,4060.306139
19827.921379,-1850.514855,-6735.874072,-1838.629195
19827.921713,-2738.761985,-5995.668130,-4290.134789
19827.922046,-2072.576638,-9252.574275,-2374.896044
19827.922379,74.020594,-9474.636058,-2528.115143
19827.922712,592.164754,-8068.244768,-2145.067394
19827.923045,1480.411884,-9844.739029,-1991.848295
19827.923378,2072.576638,-10436.903782,-1685.410096
19827.923711,1480.411884,-11473.192101,0.000000
19827.924045,3552.988522,-10732.986159,4519.963438
19827.924378,3478.967927,-8882.471304,612.876398
19827.924711,2516.700203,-8364.327145,0.000000
19827.925044,2072.576638,-9770.718434,3600.648841
19827.925377,-888.247130,-8660.409521,0.000000
19827.925710,-2072.576638,-8660.409521,0.000000
19827.926043,-2664.741391,-9400.615463,-383.047749
19827.926377,-5255.462188,-9548.656652,-1685.410096
19827.926710,-2146.597232,-8290.306550,-76.609550
19827.927043,-1776.494261,-8956.491898,2834.553343
19827.927376,1998.556043,-4811.338623,612.876398
19827.927709,4145.153275,-6439.791695,3064.381992
19827.928042,6661.853478,-7994.224174,4826.401637
19827.928375,5255.462188,-7402.059420,1685.410096
19827.928708,4663.297435,-7772.162391,-1225.752797
19827.929042,2886.803174,-10807.006753,-3294.210641
19827.929375,0.000000,-11325.150913,-4749.792088
19827.929708,-2442.679609,-13323.706956,-7048.078582
19827.930041,-74.020594,-10658.965565,-5669.106685
19827.930374,-2442.679609,-14804.118840,-76.609550
19827.930707,-74.020594,-7994.224174,-1149.143247
19827.931040,-2368.659014,-9548.656652,5669.106685
19827.931374,296.082377,-6587.832884,6894.859482
19827.931707,2960.823768,-4219.173869,9039.926876
19827.932040,2146.597232,-5403.503377,7354.516781
19827.932373,4071.132681,-5329.482782,5592.497135
19827.932706,1702.473667,-7698.141797,1762.019645
19827.933039,-1924.535449,-5403.503377,-3677.258390
19827.933372,-1258.350101,-10658.965565,-7124.688131
19827.933705,-4219.173869,-14211.954086,-9269.755526
19827.934039,-7105.977043,-11325.150913,-9193.145976
19827.934372,-7105.977043,-14285.974681,-7967.393179
19827.934705,-3330.926739,-11917.315666,-3753.867940
19827.935038,-1036.288319,-11991.336260,1915.238745
19827.935371,3478.967927,-8068.244768,6128.763984
19827.935704,4071.132681,-8290.306550,8503.660028
19827.936037,1184.329507,-6883.915261,7660.954980
19827.936371,2590.720797,-6291.750507,6128.763984
19827.936704,-740.205942,-7698.141797,4826.401637
19827.937037,-1480.411884,-7920.203579,1149.143247
19827.937370,-3330.926739,-9474.636058,-689.485948
19827.937703,-5403.503377,-8734.430116,-5975.544884
19827.938036,-5921.647536,-9548.656652,-2451.505594
19827.938369,-666.185348,-11251.130318,-2681.334243
19827.938703,-888.247130,-8364.327145,-2911.162892
19827.939036,0.000000,-10140.821405,842.705048
19827.939369,1776.494261,-8512.368333,1149.143247
19827.939702,2590.720797,-9178.553681,1991.848295
19827.940035,3330.926739,-9474.636058,2757.943793
19827.940368,4071.132681,-11251.130318,3600.648841
19827.940701,1110.308913,-7328.038826,1225.752797
19827.941034,1332.370696,-9474.636058,3600.648841
19827.941368,-74.020594,-8882.471304,-1302.362347
19827.941701,-1702.473667,-8364.327145,-1225.752797
19827.942034,518.144159,-9474.636058,-76.609550
19827.942367,-1036.288319,-8512.368333,766.095498
19827.942700,962.267725,-7179.997637,153.219100
19827.943033,2590.720797,-9400.615463,2834.553343
19827.943366,4145.153275,-5699.585753,1532.190996
19827.943700,2664.741391,-4811.338623,1225.752797
19827.944033,6439.791695,-9474.636058,-76.609550
19827.944366,1998.556043,-9178.553681,-3140.991542
19827.944699,0.000000,-10140.821405,-2451.505594
19827.945032,-74.020594,-11843.295072,-4903.011187
19827.945365,-1258.350101,-11103.089130,-2528.115143
19827.945698,-962.267725,-11769.274478,-689.485948
19827.946032,592.164754,-8512.368333,766.095498
19827.946365,0.000000,-7772.162391,1838.629195
19827.946698,2516.700203,-8290.306550,5439.278036
19827.947031,3478.967927,-9178.553681,3294.210641
19827.947364,0.000000,-8364.327145,5362.668486
19827.947697,-74.020594,-8586.388927,4826.401637
19827.948030,-74.020594,-7698.141797,0.000000
19827.948363,1702.473667,-8882.471304,842.705048
19827.948697,1776.494261,-7031.956449,1608.800546
19827.949030,2220.617826,-9104.533087,-383.047749
19827.949363,0.000000,-7772.162391,-3524.039291
19827.949696,-888.247130,-11177.109724,-3294.210641
19827.950029,-1184.329507,-10066.800811,-4443.353888
19827.950362,-2442.679609,-11843.295072,-3907.087040
19827.950695,-1702.473667,-11843.295072,-2528.115143
19827.951029,-2368.659014,-11843.295072,536.266849
19827.951362,0.000000,-8364.327145,4903.011187
19827.951695,2146.597232,-7698.141797,4826.401637
19827.952028,814.226536,-7328.038826,4903.011187
19827.952361,2886.803174,-7994.224174,6052.154434
19827.952694,-518.144159,-6735.874072,4366.744339
19827.953027,0.000000,-5995.668130,2451.505594
19827.953361,-1850.514855,-7031.956449,-842.705048
19827.953694,-1628.453072,-8438.347739,-2451.505594
19827.954027,-74.020594,-8734.430116,-1991.848295
19827.954360,-4737.318029,-9548.656652,-3370.820191
19827.954693,-74.020594,-10510.924376,-6511.811733
19827.955026,-1776.494261,-10140.821405,-6128.763984
19827.955359,370.102971,-10362.883188,-1685.410096
19827.955692,2590.720797,-10214.842000,536.266849
19827.956026,3256.906145,-11029.068536,3907.087040
19827.956359,4737.318029,-9252.574275,5515.887586
19827.956692,3552.988522,-7698.141797,5439.278036
19827.957025,2886.803174,-9474.636058,3600.648841
19827.957358,-148.041188,-10362.883188,3983.696590
19827.957691,-666.185348,-8882.471304,-2221.676944
19827.958024,-4737.318029,-8512.368333,-766.095498
19827.958358,-4145.153275,-8808.450710,-1991.848295
19827.958691,-3182.885551,-7179.997637,-2987.772442
19827.959024,814.226536,-9178.553681,919.314598
19827.959357,2812.782580,-7920.203579,1762.019645
19827.959690,4071.132681,-6809.894666,1225.752797
19827.960023,3552.988522,-6587.832884,0.000000
19827.960356,6143.709319,-11843.295072,-76.609550
19827.960690,2886.803174,-9474.636058,-2528.115143
19827.961023,0.000000,-11325.150913,-1225.752797
19827.961356,1110.308913,-14211.954086,-1915.238745
19827.961689,-2368.659014,-12657.521608,-1225.752797
19827.962022,-2220.617826,-10584.944971,-1302.362347
19827.962355,-3330.926739,-9474.636058,0.000000
19827.962688,-1702.473667,-8586.388927,2068.457845
19827.963021,0.000000,-7920.203579,7201.297681
19827.963355,3478.967927,-6513.812290,6052.154434
19827.963688,0.000000,-3923.091493,6741.640382
19827.964021,4663.297435,-9474.636058,6665.030833
19827.964354,3478.967927,-5921.647536,2374.896044
19827.964687,1184.329507,-7402.059420,1149.143247
19827.965020,-222.061783,-7920.203579,-5515.887586
19827.965353,-3182.885551,-12435.459826,-8350.440928
19827.965687,-4885.359217,-13619.789333,-8197.221829
19827.966020,-5625.565159,-12509.480420,-6435.202183
19827.966353,-3034.844362,-11177.109724,-3983.696590
19827.966686,-666.185348,-11251.130318,229.828649
19827.967019,1628.453072,-9548.656652,4903.011187
19827.967352,4663.297435,-5921.647536,7277.907231
19827.967685,2664.741391,-5551.544565,9193.145976
19827.968019,4367.215058,-9178.553681,7277.907231
19827.968352,2294.638420,-5107.421000,2451.505594
19827.968685,0.000000,-8512.368333,3447.429741
19827.969018,-74.020594,-9178.553681,-689.485948
19827.969351,-3849.070898,-9474.636058,-4673.182538
19827.969684,-2738.761985,-9474.636058,-5975.544884
19827.970017,-1924.535449,-10214.842000,-4443.353888
19827.970350,0.000000,-8364.327145,-4903.011187
19827.970684,-1776.494261,-9844.739029,-2451.505594
19827.971017,2590.720797,-11843.295072,-76.609550
19827.971350,3478.967927,-10658.965565,1149.143247
19827.971683,2368.659014,-7772.162391,4290.134789
19827.972016,4441.235652,-11251.130318,4826.401637
19827.972349,2516.700203,-8512.368333,4979.620737
19827.972682,0.000000,-8882.471304,2451.505594
19827.973016,-740.205942,-8438.347739,1149.143247
19827.973349,-1776.494261,-8956.491898,919.314598
19827.973682,-3552.988522,-6883.915261,306.438199
19827.974015,-74.020594,-8882.471304,-1915.238745
19827.974348,-2960.823768,-7179.997637,-1532.190996
19827.974681,0.000000,-8364.327145,689.485948
19827.975014,1480.411884,-8512.368333,0.000000
19827.975348,3330.926739,-7402.059420,153.219100
19827.975681,3404.947333,-8142.265362,-842.705048
19827.976014,3182.885551,-11029.068536,0.000000
19827.976347,2294.638420,-11251.130318,-76.609550
19827.976680,0.000000,-11473.192101,766.095498
19827.977013,-444.123565,-8364.327145,-3983.696590
19827.977346,0.000000,-13027.624579,2374.896044
19827.977679,-1406.391290,-7476.080014,0.000000
19827.978013,-666.185348,-9030.512492,2374.896044
19827.978346,-3034.844362,-8734.430116,0.000000
19827.978679,-2146.597232,-8586.388927,995.924147
19827.979012,-3404.947333,-8512.368333,3677.258390
19827.979345,-3404.947333,-5403.503377,1838.629195
19827.979678,1702.473667,-8290.306550,2068.457845
19827.980011,0.000000,-7179.997637,4290.134789
19827.980345,1184.329507,-7179.997637,4826.401637
19827.980678,2886.803174,-5921.647536,-1149.143247
19827.981011,1110.308913,-9178.553681,-1991.848295
19827.981344,-666.185348,-10881.027347,-5515.887586
19827.981677,-2738.761985,-11473.192101,-5822.325785
19827.982010,-1184.329507,-11769.274478,-4903.011187
19827.982343,-2368.659014,-10140.821405,-3064.381992
19827.982676,1110.308913,-11843.295072,536.266849
19827.983010,0.000000,-10362.883188,3447.429741
19827.983343,1850.514855,-7624.121203,5975.544884
19827.983676,2738.761985,-7402.059420,6511.811733
19827.984009,2886.803174,-5625.565159,6052.154434
19827.984342,4589.276840,-6513.812290,8503.660028
19827.984675,3478.967927,-4737.318029,2068.457845
19827.985008,2368.659014,-8364.327145,2374.896044
19827.985342,0.000000,-8956.491898,-2987.772442
19827.985675,-74.020594,-8956.491898,-7201.297681
19827.986008,-74.020594,-9844.739029,-6818.249932
19827.986341,-370.102971,-12583.501014,-6052.154434
19827.986674,-1332.370696,-12065.356855,-5822.325785
19827.987007,0.000000,-10732.986159,-2451.505594
19827.987340,5847.626942,-11251.130318,2374.896044
19827.987674,4737.318029,-7476.080014,4366.744339
19827.988007,4145.153275,-8364.327145,7660.954980
19827.988340,5847.626942,-8882.471304,6665.030833
19827.988673,592.164754,-5995.668130,4903.011187
19827.989006,2294.638420,-7846.182985,2987.772442
19827.989339,-1702.473667,-8882.471304,229.828649
19827.989672,-4441.235652,-9178.553681,-2528.115143
19827.990005,-4145.153275,-9474.636058,-2987.772442
19827.990339,-1258.350101,-11843.295072,-3753.867940
19827.990672,-2368.659014,-7476.080014,-1838.629195
19827.991005,0.000000,-8364.327145,2451.505594
19827.991338,5107.421000,-7105.977043,2374.896044
19827.991671,4737.318029,-8512.368333,3600.648841
19827.992004,4441.235652,-8512.368333,2604.724693
19827.992337,4367.215058,-9770.718434,995.924147
19827.992671,2812.782580,-9548.656652,0.000000
19827.993004,2886.803174,-12731.542202,-383.047749
19827.993337,-1850.514855,-9474.636058,-3447.429741
19827.993670,-4737.318029,-11917.315666,-1149.143247
19827.994003,-2146.597232,-9474.636058,-1302.362347
19827.994336,-3627.009116,-9622.677246,-1991.848295
19827.994669,-2368.659014,-8512.368333,3907.087040
19827.995003,-1628.453072,-6883.915261,5209.449386
19827.995336,1110.308913,-5773.606348,5745.716235
19827.995669,3404.947333,-4737.318029,6358.592633
19827.996002,4367.215058,-6217.729913,5439.278036
19827.996335,3108.864956,-6143.709319,2374.896044
19827.996668,0.000000,-7920.203579,-2374.896044
19827.997001,-1332.370696,-11029.068536,-6128.763984
19827.997334,-7105.977043,-12213.398043,-9193.145976
19827.997668,-7994.224174,-13101.645173,-7048.078582
19827.998001,-2442.679609,-12731.542202,-5592.497135
19827.998334,-4737.318029,-10732.986159,-3064.381992
19827.998667,-2220.617826,-8956.491898,2911.162892
19827.999000,0.000000,-7476.080014,5515.887586
19827.999334,3108.864956,-6143.709319,9193.145976
19827.999667,1554.432478,-5995.668130,8427.050478
19828.000000,1110.308913,-7105.977043,6205.373534
19828.000333,888.247130,-7846.182985,5515.887586
19828.000667,-1850.514855,-6587.832884,-306.438199
19828.001000,-74.020594,-9474.636058,-3140.991542
19828.001333,-5921.647536,-8660.409521,-4290.134789
19828.001667,-3552.988522,-8956.491898,-4443.353888
19828.002000,-2368.659014,-9770.718434,-4903.011187
19828.002333,1110.308913,-14211.954086,-3140.991542
19828.002667,-1776.494261,-11103.089130,-3370.820191
19828.003000,0.000000,-11325.150913,-766.095498
19828.003333,3182.885551,-10658.965565,2068.457845
19828.003666,1776.494261,-9548.656652,5822.325785
19828.004000,1480.411884,-7179.997637,2451.505594
19828.004333,2368.659014,-8068.244768,7277.907231
19828.004666,2294.638420,-7254.018232,3447.429741
19828.005000,3330.926739,-7105.977043,4519.963438
19828.005333,1332.370696,-7550.100608,1762.019645
19828.005666,-444.123565,-7994.224174,-536.266849
19828.005999,-666.185348,-8586.388927,-2145.067394
19828.006333,444.123565,-9474.636058,-2757.943793
19828.006666,3478.967927,-10066.800811,-383.047749
19828.006999,740.205942,-8068.244768,-1838.629195
19828.007333,592.164754,-8364.327145,0.000000
19828.007666,3478.967927,-11843.295072,-995.924147
19828.007999,1184.329507,-9548.656652,-1762.019645
19828.008332,2590.720797,-10658.965565,1149.143247
19828.008666,3256.906145,-9548.656652,3294.210641
19828.008999,3034.844362,-8512.368333,2604.724693
19828.009332,1702.473667,-8290.306550,2681.334243
19828.009666,1702.473667,-7994.224174,-76.609550
19828.009999,-2368.659014,-8364.327145,1838.629195
19828.010332,-666.185348,-10658.965565,-76.609550
19828.010666,-1258.350101,-10658.965565,-2528.115143
19828.010999,-4737.318029,-7179.997637,-2145.067394
19828.011332,-370.102971,-9326.594869,459.657299
19828.011665,2738.761985,-7328.038826,1915.238745
19828.011999,3997.112087,-7179.997637,3753.867940
19828.012332,3701.029710,-6957.935855,2451.505594
19828.012665,4663.297435,-8586.388927,-76.609550
19828.012999,2072.576638,-10066.800811,-1608.800546
19828.013332,-1110.308913,-11547.212695,-2987.772442
19828.013665,-2516.700203,-11769.274478,-3753.867940
19828.013998,-2960.823768,-11325.150913,-3370.820191
19828.014332,-3034.844362,-13619.789333,-1455.581446
19828.014665,-4441.235652,-7772.162391,-2451.505594
19828.014998,-3552.988522,-10436.903782,4826.401637
19828.015332,-666.185348,-7698.141797,4903.011187
19828.015665,0.000000,-3775.050304,6435.202183
19828.015998,1110.308913,-5329.482782,6435.202183
19828.016331,2294.638420,-4737.318029,5592.497135
19828.016665,888.247130,-7031.956449,3600.648841
19828.016998,2812.782580,-7698.141797,1685.410096
19828.017331,-74.020594,-9474.636058,-4060.306139
19828.017665,-4145.153275,-9548.656652,-7048.078582
19828.017998,-5625.565159,-10732.986159,-7354.516781
19828.018331,-4071.132681,-15026.180623,-6511.811733
19828.018665,-4441.235652,-11917.315666,-4903.011187
19828.018998,-962.267725,-11621.233289,-995.924147
19828.019331,3627.009116,-10066.800811,4749.792088
19828.019664,4959.379811,-7105.977043,8120.612279
19828.019998,4663.297435,-6809.894666,8503.660028
19828.020331,6439.791695,-5329.482782,6052.154434
19828.020664,0.000000,-7179.997637,6435.202183
19828.020998,1998.556043,-8290.306550,2374.896044
19828.021331,-3627.009116,-8364.327145,-2987.772442
19828.021664,-3627.009116,-10362.883188,-4979.620737
19828.021997,-4737.318029,-9992.780217,-5439.278036
19828.022331,-1702.473667,-9326.594869,-3907.087040
19828.022664,296.082377,-9548.656652,-2221.676944
19828.022997,1184.329507,-7772.162391,-1225.752797
19828.023331,5551.544565,-7772.162391,0.000000
19828.023664,2368.659014,-8956.491898,3983.696590
19828.023997,7031.956449,-11251.130318,2374.896044
19828.024330,4071.132681,-8364.327145,689.485948
19828.024664,2368.659014,-10288.862594,1762.019645
19828.024997,740.205942,-10288.862594,383.047749
19828.025330,-3182.885551,-9696.697840,-1072.533697
19828.025664,-3034.844362,-9918.759623,-995.924147
19828.025997,-2368.659014,-9474.636058,919.314598
19828.026330,-4737.318029,-7179.997637,1225.752797
19828.026664,-814.226536,-7105.977043,4213.525239
19828.026997,1702.473667,-7105.977043,2068.457845
19828.027330,2664.741391,-7179.997637,6358.592633
19828.027663,4219.173869,-5921.647536,2987.772442
19828.027997,2442.679609,-8290.306550,1302.362347
19828.028330,1406.391290,-8734.430116,-2528.115143
19828.028663,-666.185348,-11843.295072,-4519.963438
19828.028997,-592.164754,-13619.789333,-4596.572988
19828.029330,-4737.318029,-12509.480420,-3677.258390
19828.029663,-3034.844362,-11029.068536,-3753.867940
19828.029996,-518.144159,-10658.965565,842.705048
19828.030330,-666.185348,-9326.594869,2681.334243
19828.030663,0.000000,-7031.956449,3677.258390
19828.030996,0.000000,-5403.503377,3217.601092
19828.031330,1776.494261,-7772.162391,8810.098227
19828.031663,814.226536,-6217.729913,4519.963438
19828.031996,-74.020594,-8734.430116,2374.896044
19828.032329,0.000000,-8512.368333,995.924147
19828.032663,-740.205942,-8364.327145,-842.705048
19828.032996,814.226536,-8586.388927,-2221.676944
19828.033329,-1480.411884,-9178.553681,-4366.744339
19828.033663,-74.020594,-11251.130318,-3140.991542
19828.033996,-2368.659014,-9548.656652,-3677.258390
19828.034329,-2072.576638,-11029.068536,-2451.505594
19828.034663,1110.308913,-11251.130318,-2528.115143
19828.034996,0.000000,-9548.656652,612.876398
19828.035329,3478.967927,-10658.965565,4213.525239
19828.035662,1036.288319,-8068.244768,5056.230287
19828.035996,888.247130,-8364.327145,5056.230287
19828.036329,2146.597232,-7698.141797,5669.106685
19828.036662,666.185348,-7105.977043,4213.525239
19828.036996,0.000000,-5995.668130,4596.572988
19828.037329,-666.185348,-6513.812290,-689.485948
19828.037662,-74.020594,-8290.306550,-4213.525239
19828.037995,0.000000,-8956.491898,-1532.190996
19828.038329,1110.308913,-9104.533087,-4673.182538
19828.038662,0.000000,-9992.780217,-3983.696590
19828.038995,666.185348,-11177.109724,-3524.039291
19828.039329,1184.329507,-11621.233289,-1378.971896
19828.039662,740.205942,-8956.491898,0.000000
19828.039995,1184.329507,-11325.150913,4826.401637
19828.040329,4663.297435,-9474.636058,3217.601092
19828.040662,3552.988522,-7179.997637,4903.011187
19828.040995,2368.659014,-9400.615463,7048.078582
19828.041328,518.144159,-6809.894666,995.924147
19828.041662,-2442.679609,-9770.718434,0.000000
19828.041995,-4293.194464,-9252.574275,-1378.971896
19828.042328,-5403.503377,-8660.409521,-2604.724693
19828.042662,-5329.482782,-7254.018232,-3830.477490
19828.042995,-2368.659014,-9104.533087,-76.609550
19828.043328,0.000000,-7254.018232,1225.752797
19828.043661,3108.864956,-5699.585753,1838.629195
19828.043995,6735.874072,-8290.306550,4213.525239
19828.044328,6439.791695,-8290.306550,229.828649
19828.044661,2368.659014,-8956.491898,612.876398
19828.044995,4663.297435,-13027.624579,-76.609550
19828.045328,222.061783,-11917.315666,-4596.572988
19828.045661,0.000000,-14211.954086,-1838.629195
19828.045994,-1258.350101,-11917.315666,-2145.067394
19828.046328,-3256.906145,-11177.109724,-995.924147
19828.046661,-3108.864956,-9326.594869,0.000000
19828.046994,-1258.350101,-9326.594869,3600.648841
19828.047328,2072.576638,-5921.647536,7277.907231
19828.047661,2368.659014,-3923.091493,10495.508323
19828.047994,4071.132681,-4145.153275,5822.325785
19828.048328,3404.947333,-4811.338623,3983.696590
19828.048661,3182.885551,-7105.977043,1762.019645
19828.048994,888.247130,-7476.080014,-3983.696590
19828.049327,-2442.679609,-10881.027347,-8427.050478
19828.049661,-3330.926739,-13323.706956,-9269.755526
19828.049994,-5625.565159,-12509.480420,-9193.145976
19828.050327,-2442.679609,-14211.954086,-6971.469032
19828.050661,0.000000,-11325.150913,-76.609550
19828.050994,4367.215058,-11547.212695,3447.429741
19828.051327,4885.359217,-4885.359217,6435.202183
19828.051660,4737.318029,-5995.668130,8733.488677
19828.051994,4737.318029,-6143.709319,7507.735880
19828.052327,4071.132681,-8142.265362,6588.421283
19828.052660,814.226536,-8290.306550,2987.772442
19828.052994,-74.020594,-9326.594869,1608.800546
19828.053327,-4219.173869,-7179.997637,-4903.011187
19828.053660,-666.185348,-9474.636058,-3753.867940
19828.053993,-1258.350101,-10658.965565,-4979.620737
19828.054327,0.000000,-7772.162391,-3064.381992
19828.054660,592.164754,-10436.903782,-919.314598
19828.054993,2886.803174,-11251.130318,-153.219100
19828.055327,3923.091493,-8586.388927,1302.362347
19828.055660,3034.844362,-9548.656652,2451.505594
19828.055993,5255.462188,-9474.636058,1762.019645
19828.056327,2368.659014,-8660.409521,5822.325785
19828.056660,5847.626942,-8586.388927,1915.238745
19828.056993,2368.659014,-7179.997637,0.000000
19828.057326,0.000000,-11843.295072,1455.581446
19828.057660,-1554.432478,-11251.130318,-1762.019645
19828.057993,-3108.864956,-9474.636058,-1685.410096
19828.058326,-1480.411884,-8142.265362,-995.924147
19828.058660,-1924.535449,-7920.203579,383.047749
19828.058993,2294.638420,-8290.306550,2374.896044
19828.059326,2960.823768,-6143.709319,5056.230287
19828.059659,4737.318029,-5995.668130,2604.724693
19828.059993,4219.173869,-8882.471304,1608.800546
19828.060326,148.041188,-11103.089130,-1225.752797
19828.060659,-1258.350101,-11843.295072,-3140.991542
19828.060993,-4737.318029,-10436.903782,-5439.278036
19828.061326,-3552.988522,-13101.645173,-995.924147
19828.061659,-2590.720797,-9548.656652,-2451.505594
19828.061992,-2368.659014,-10436.903782,1838.629195
19828.062326,-1406.391290,-11251.130318,2374.896044
19828.062659,-2072.576638,-8586.388927,3294.210641
19828.062992,-1332.370696,-8142.265362,4673.182538
19828.063326,-74.020594,-6587.832884,5439.278036
19828.063659,-666.185348,-5329.482782,2604.724693
19828.063992,-2960.823768,-7179.997637,2451.505594
19828.064326,-74.020594,-7624.121203,-76.609550
19828.064659,-3256.906145,-5403.503377,0.000000
19828.064992,-370.102971,-8808.450710,-1915.238745
19828.065325,-2442.679609,-10658.965565,-5286.058936
19828.065659,-3478.967927,-10362.883188,-4979.620737
19828.065992,-3775.050304,-11103.089130,-4366.744339
19828.066325,-2960.823768,-10732.986159,-1455.581446
19828.066659,-2368.659014,-9844.739029,0.000000
19828.066992,-4737.318029,-10140.821405,4903.011187
19828.067325,2294.638420,-7994.224174,2681.334243
19828.067658,0.000000,-4811.338623,3064.381992
19828.067992,1776.494261,-8808.450710,7277.907231
19828.068325,2590.720797,-4219.173869,4903.011187
19828.068658,2664.741391,-6143.709319,4443.353888
19828.068992,2590.720797,-6661.853478,1991.848295
19828.069325,888.247130,-8586.388927,-1149.143247
19828.069658,2146.597232,-9474.636058,-3140.991542
19828.069991,296.082377,-10584.944971,-2528.115143
19828.070325,2294.638420,-11843.295072,-6358.592633
19828.070658,-962.267725,-11325.150913,-5822.325785
19828.070991,0.000000,-12509.480420,-1685.410096
19828.071325,1776.494261,-9844.739029,612.876398
19828.071658,4515.256246,-9030.512492,3370.820191
19828.071991,6143.709319,-9104.533087,5515.887586
19828.072325,7254.018232,-7105.977043,7431.126331
19828.072658,5551.544565,-7105.977043,6052.154434
19828.072991,6439.791695,-8290.306550,3600.648841
19828.073324,0.000000,-7179.997637,0.000000
19828.073658,-2960.823768,-9844.739029,-1072.533697
19828.073991,-2442.679609,-11251.130318,-3140.991542
19828.074324,-4441.235652,-9548.656652,-4290.134789
19828.074658,-2294.638420,-9844.739029,-3140.991542
19828.074991,888.247130,-8438.347739,76.609550
19828.075324,4959.379811,-7550.100608,2604.724693
19828.075657,5255.462188,-6513.812290,2681.334243
19828.075991,6069.688724,-9918.759623,3064.381992
19828.076324,3627.009116,-9252.574275,1532.190996
19828.076657,2072.576638,-10807.006753,536.266849
19828.076991,1184.329507,-9696.697840,-1225.752797
19828.077324,-962.267725,-14063.912898,-689.485948
19828.077657,-4737.318029,-11917.315666,-76.609550
19828.077990,-4811.338623,-9548.656652,-4290.134789
19828.078324,-6365.771101,-10510.924376,-2298.286494
19828.078657,-4737.318029,-7772.162391,1838.629195
19828.078990,-2738.761985,-6587.832884,3677.258390
19828.079324,0.000000,-4959.379811,7124.688131
19828.079657,1406.391290,-4145.153275,6971.469032
19828.079990,2368.659014,-5699.585753,5439.278036
19828.080324,1850.514855,-3923.091493,1149.143247
19828.080657,2294.638420,-8882.471304,-76.609550
19828.080990,-74.020594,-10658.965565,-5898.935335
19828.081323,-7105.977043,-13101.645173,-7967.393179
19828.081657,-4811.338623,-14804.118840,-7507.735880
19828.081990,-5773.606348,-11917.315666,-5975.544884
19828.082323,-1998.556043,-11621.233289,-2221.676944
19828.082657,-740.205942,-10066.800811,2604.724693
19828.082990,1110.308913,-9030.512492,5898.935335
19828.083323,2368.659014,-4811.338623,7354.516781
19828.083656,4663.297435,-7105.977043,7890.783629
19828.083990,1184.329507,-5403.503377,4903.011187
19828.084323,592.164754,-6587.832884,6128.763984
19828.084656,-74.020594,-8290.306550,-76.609550
19828.084990,-1184.329507,-8808.450710,-1455.581446
19828.085323,-2220.617826,-9696.697840,-4519.963438
19828.085656,-1702.473667,-10362.883188,-6511.811733
19828.085989,-518.144159,-9474.636058,-5132.839837
19828.086323,3256.906145,-11843.295072,-2528.115143
19828.086656,4071.132681,-10658.965565,-3753.867940
19828.086989,2664.741391,-10140.821405,612.876398
19828.087323,7624.121203,-12731.542202,5439.278036
19828.087656,5847.626942,-9474.636058,2374.896044
19828.087989,4737.318029,-11251.130318,5745.716235
19828.088323,3034.844362,-8660.409521,3677.258390
19828.088656,1998.556043,-8734.430116,2987.772442
19828.088989,1702.473667,-8586.388927,2298.286494
19828.089322,-592.164754,-8512.368333,3600.648841
19828.089656,-2146.597232,-7624.121203,-612.876398
19828.089989,-2368.659014,-8290.306550,-995.924147
19828.090322,-1776.494261,-7994.224174,-1225.752797
19828.090656,-814.226536,-6587.832884,-2451.505594
19828.090989,296.082377,-8068.244768,612.876398
19828.091322,4071.132681,-7994.224174,-383.047749
19828.091655,2294.638420,-7846.182985,-2451.505594
19828.091989,592.164754,-11325.150913,-306.438199
19828.092322,-74.020594,-13027.624579,-76.609550
19828.092655,0.000000,-9918.759623,-919.314598
19828.092989,74.020594,-10436.903782,0.000000
19828.093322,-740.205942,-10288.862594,1149.143247
19828.093655,-2368.659014,-8364.327145,1225.752797
19828.093988,-3552.988522,-7179.997637,3370.820191
19828.094322,-2442.679609,-8586.388927,0.000000
19828.094655,-3552.988522,-8364.327145,0.000000
19828.094988,-4145.153275,-9548.656652,2374.896044
19828.095322,-3404.947333,-5995.668130,0.000000
19828.095655,0.000000,-7402.059420,2068.457845
19828.095988,962.267725,-7105.977043,2451.505594
19828.096322,2590.720797,-6735.874072,2681.334243
19828.096655,3478.967927,-7698.141797,1455.581446
19828.096988,1184.329507,-9548.656652,-76.609550
19828.097321,-74.020594,-10066.800811,-5286.058936
19828.097655,-2072.576638,-11917.315666,-2528.115143
19828.097988,-74.020594,-13027.624579,-2528.115143
19828.098321,-2294.638420,-12509.480420,-2451.505594
19828.098655,-2442.679609,-10732.986159,-1532.190996
19828.098988,-2368.659014,-10732.986159,1838.629195
19828.099321,740.205942,-7920.203579,5515.887586
19828.099654,1406.391290,-6809.894666,6358.592633
19828.099988,2072.576638,-7698.141797,8503.660028
19828.100321,1480.411884,-1850.514855,3677.258390
19828.100654,2368.659014,-6143.709319,6052.154434
19828.100988,2886.803174,-6143.709319,306.438199
19828.101321,0.000000,-8142.265362,-3140.991542
19828.101654,-1628.453072,-9696.697840,-6894.859482
19828.101988,-2072.576638,-10881.027347,-8427.050478
19828.102321,-1850.514855,-14211.954086,-7814.174080
19828.102654,-3849.070898,-13101.645173,-6435.202183
19828.102988,-962.267725,-13027.624579,-2528.115143
19828.103321,2294.638420,-10658.965565,1378.971896
19828.103654,3552.988522,-7772.162391,4903.011187
19828.103988,5329.482782,-8364.327145,10648.727422
19828.104321,5255.462188,-5255.462188,6971.469032
19828.104654,3182.885551,-5403.503377,3983.696590
19828.104987,2294.638420,-8290.306550,3753.867940
19828.105321,-2220.617826,-8364.327145,383.047749
19828.105654,-4293.194464,-8808.450710,-3983.696590
19828.105987,-3923.091493,-9326.594869,-6665.030833
19828.106321,-2590.720797,-9992.780217,-4596.572988
19828.106654,-1850.514855,-9474.636058,-3217.601092
19828.106987,2072.576638,-8734.430116,-995.924147
19828.107321,5477.523971,-8956.491898,4060.306139
19828.107654,5847.626942,-8882.471304,2528.115143
19828.107987,3108.864956,-7772.162391,0.000000
19828.108321,4737.318029,-11843.295072,3600.648841
19828.108654,3182.885551,-11251.130318,1149.143247
19828.108987,0.000000,-9548.656652,1225.752797
19828.109320,-666.185348,-10362.883188,-229.828649
19828.109654,-2220.617826,-9770.718434,-1455.581446
19828.109987,-1850.514855,-9474.636058,-76.609550
19828.110320,-1554.432478,-9474.636058,-76.609550
19828.110654,-74.020594,-8882.471304,-76.609550
19828.110987,-2368.659014,-7476.080014,3677.258390
19828.111320,2368.659014,-7179.997637,6665.030833
19828.111654,4367.215058,-6513.812290,2987.772442
19828.111987,5847.626942,-8068.244768,5669.106685
19828.112320,4737.318029,-6365.771101,995.924147
19828.112654,2368.659014,-9844.739029,-1532.190996
19828.112987,1184.329507,-10881.027347,-4826.401637
19828.113320,-4145.153275,-12213.398043,-7507.735880
19828.113654,-1850.514855,-10881.027347,-9806.022374
19828.113987,-1184.329507,-12879.583391,-1302.362347
19828.114320,-74.020594,-12139.377449,-76.609550
19828.114653,-370.102971,-6883.915261,1225.752797
19828.114987,1110.308913,-9474.636058,4826.401637
19828.115320,2960.823768,-7031.956449,7814.174080
19828.115653,888.247130,-5995.668130,7354.516781
19828.115987,-74.020594,-7550.100608,4060.306139
19828.116320,296.082377,-6143.709319,2757.943793
19828.116653,-666.185348,-7179.997637,0.000000
19828.116987,4737.318029,-8364.327145,2374.896044
19828.117320,814.226536,-9918.759623,-4136.915689
19828.117653,0.000000,-7179.997637,-7354.516781
19828.117987,-1184.329507,-11325.150913,-7048.078582
19828.118320,1036.288319,-11843.295072,-5286.058936
19828.118653,0.000000,-11917.315666,-3907.087040
19828.118986,1184.329507,-10510.924376,-919.314598
19828.119320,5847.626942,-11843.295072,4213.525239
19828.119653,1184.329507,-10140.821405,8427.050478
19828.119986,3478.967927,-6957.935855,4213.525239
19828.120320,222.061783,-5995.668130,4903.011187
19828.120653,2294.638420,-9474.636058,4673.182538
19828.120986,0.000000,-4811.338623,1378.971896
19828.121320,-2294.638420,-7994.224174,1762.019645
19828.121653,-3552.988522,-6587.832884,-1302.362347
19828.121986,-4589.276840,-8956.491898,-2451.505594
19828.122320,-74.020594,-9474.636058,-2528.115143
19828.122653,-2960.823768,-9548.656652,-1991.848295
19828.122986,-2294.638420,-9918.759623,-3753.867940
19828.123320,-814.226536,-10807.006753,-2528.115143
19828.123653,-1184.329507,-10732.986159,-1225.752797
19828.123986,2590.720797,-12361.439231,2987.772442
19828.124319,1184.329507,-8364.327145,612.876398
19828.124653,1184.329507,-9844.739029,5822.325785
19828.124986,1702.473667,-8290.306550,2451.505594
19828.125319,-1702.473667,-7328.038826,2068.457845
19828.125653,-962.267725,-10066.800811,995.924147
19828.125986,-3552.988522,-8882.471304,-76.609550
19828.126319,-5477.523971,-8808.450710,-1378.971896
19828.126653,-5477.523971,-8290.306550,-1455.581446
19828.126986,-3034.844362,-9474.636058,-689.485948
19828.127319,-2368.659014,-8364.327145,3753.867940
19828.127653,2368.659014,-6883.915261,4519.963438
19828.127986,2886.803174,-5921.647536,306.438199
19828.128319,2368.659014,-5995.668130,2451.505594
19828.128652,4367.215058,-9474.636058,0.000000
19828.128986,2516.700203,-10881.027347,-1302.362347
19828.129319,-666.185348,-13027.624579,-3600.648841
19828.129652,-1406.391290,-13175.665768,-4673.182538
19828.129986,-2072.576638,-11917.315666,-4290.134789
19828.130319,-3552.988522,-11325.150913,536.266849
19828.130652,-222.061783,-9178.553681,1149.143247
19828.130986,1110.308913,-8290.306550,2145.067394
19828.131319,4071.132681,-7846.182985,8503.660028
19828.131652,3034.844362,-4219.173869,7354.516781
19828.131986,4145.153275,-6143.709319,6281.983084
19828.132319,4811.338623,-5699.585753,4213.525239
19828.132652,4071.132681,-7476.080014,2145.067394
19828.132986,3997.112087,-7920.203579,-1838.629195
19828.133319,3108.864956,-11843.295072,-3140.991542
19828.133652,-74.020594,-10584.944971,-9039.926876
19828.133985,-3404.947333,-11917.315666,-9806.022374
19828.134319,-74.020594,-15396.283594,-3753.867940
19828.134652,-2146.597232,-11325.150913,-4290.134789
19828.134985,1628.453072,-10510.924376,919.314598
19828.135319,5107.421000,-8808.450710,7431.126331
19828.135652,5847.626942,-5921.647536,9269.755526
19828.135985,5921.647536,-5995.668130,7967.393179
19828.136319,5255.462188,-6513.812290,6511.811733
19828.136652,2072.576638,-7846.182985,4749.792088
19828.136985,-1480.411884,-9178.553681,536.266849
19828.137319,-3627.009116,-10658.965565,-4979.620737
19828.137652,-5403.503377,-8660.409521,-7354.516781
19828.137985,-4737.318029,-11029.068536,-4060.306139
19828.138318,-74.020594,-11251.130318,-1302.362347
19828.138652,-962.267725,-8512.368333,-3064.381992
19828.138985,3182.885551,-10066.800811,-76.609550
19828.139318,3108.864956,-7920.203579,1838.629195
19828.139652,4071.132681,-9030.512492,2987.772442
19828.139985,3330.926739,-8364.327145,2451.505594
19828.140318,1184.329507,-9548.656652,1685.410096
19828.140652,962.267725,-9548.656652,-1838.629195
19828.140985,-1480.411884,-11843.295072,1762.019645
19828.141318,-3923.091493,-9548.656652,-2451.505594
19828.141652,-6513.812290,-9844.739029,0.000000
19828.141985,-4811.338623,-7994.224174,76.609550
19828.142318,-4441.235652,-6587.832884,459.657299
19828.142652,-2738.761985,-6809.894666,1532.190996
19828.142985,-518.144159,-6883.915261,3370.820191
19828.143318,2368.659014,-6143.709319,4903.011187
19828.143651,3182.885551,-5403.503377,536.266849
19828.143985,3478.967927,-10362.883188,-76.609550
19828.144318,1110.308913,-9696.697840,-4443.353888
19828.144651,0.000000,-12287.418637,-4290.134789
19828.144985,0.000000,-13101.645173,-3983.696590
19828.145318,-2590.720797,-12953.603985,-3370.820191
19828.145651,-962.267725,-12435.459826,-1532.190996
19828.145985,0.000000,-10362.883188,536.266849
19828.146318,1110.308913,-9474.636058,2987.772442
19828.146651,0.000000,-5995.668130,4903.011187
19828.146985,3478.967927,-7550.100608,4673.182538
19828.147318,2886.803174,-3627.009116,4903.011187
19828.147651,2886.803174,-7698.141797,4826.401637
19828.147984,2294.638420,-9178.553681,2068.457845
19828.148318,1628.453072,-9326.594869,842.705048
19828.148651,1036.288319,-8290.306550,-689.485948
19828.148984,1998.556043,-8290.306550,-2604.724693
19828.149318,666.185348,-8956.491898,-4443.353888
19828.149651,1924.535449,-12509.480420,-1302.362347
19828.149984,814.226536,-9844.739029,-4903.011187
19828.150318,0.000000,-11917.315666,-3677.258390
19828.150651,2294.638420,-13027.624579,-1608.800546
19828.150984,3478.967927,-11843.295072,1915.238745
19828.151318,2516.700203,-10362.883188,4826.401637
19828.151651,1332.370696,-7179.997637,5132.839837
19828.151984,1480.411884,-8734.430116,5132.839837
19828.152318,2294.638420,-7402.059420,6588.421283
19828.152651,296.082377,-7994.224174,6665.030833
19828.152984,0.000000,-5995.668130,2528.115143
19828.153317,-1554.432478,-7624.121203,-383.047749
19828.153651,-814.226536,-8734.430116,-2221.676944
19828.153984,-1258.350101,-7994.224174,-3753.867940
19828.154317,-1776.494261,-9696.697840,-4366.744339
19828.154651,-1332.370696,-12361.439231,-3753.867940
19828.154984,-2442.679609,-11029.068536,-6741.640382
19828.155317,-2220.617826,-11695.253884,-1455.581446
19828.155651,1406.391290,-10658.965565,842.705048
19828.155984,1332.370696,-9770.718434,3600.648841
19828.156317,4071.132681,-8882.471304,7354.516781
19828.156651,3108.864956,-7476.080014,7277.907231
19828.156984,1184.329507,-5699.585753,4903.011187
19828.157317,-2368.659014,-8660.409521,4596.572988
19828.157650,-2146.597232,-9326.594869,-1991.848295
19828.157984,-5847.626942,-7772.162391,-4903.011187
19828.158317,-5921.647536,-9548.656652,-4213.525239
19828.158650,-4219.173869,-8290.306550,-5515.887586
19828.158984,-2368.659014,-9918.759623,-1072.533697
19828.159317,1258.350101,-7105.977043,1378.971896
19828.159650,3182.885551,-6217.729913,2451.505594
19828.159984,4737.318029,-7920.203579,3677.258390
19828.160317,5921.647536,-8956.491898,7277.907231
19828.160650,4367.215058,-8438.347739,0.000000
19828.160984,1776.494261,-10140.821405,0.000000
19828.161317,444.123565,-13323.706956,-1915.238745
19828.161650,-2812.782580,-12213.398043,-2451.505594
19828.161984,-2294.638420,-11325.150913,-2451.505594
19828.162317,-3478.967927,-10066.800811,-2298.286494
19828.162650,-2442.679609,-9474.636058,153.219100
19828.162983,-74.020594,-9474.636058,5439.278036
19828.163317,4071.132681,-6513.812290,8197.221829
19828.163650,4071.132681,-3034.844362,6128.763984
19828.163983,3849.070898,-6291.750507,6894.859482
19828.164317,5255.462188,-8290.306550,3600.648841
19828.164650,4071.132681,-8438.347739,1149.143247
19828.164983,1480.411884,-8956.491898,-4213.525239
19828.165317,-1776.494261,-11695.253884,-7814.174080
19828.165650,-2664.741391,-14434.015869,-8044.002729
19828.165983,-5329.482782,-11917.315666,-7354.516781
19828.166317,-1850.514855,-12065.356855,-6741.640382
19828.166650,-1184.329507,-12213.398043,0.000000
19828.166983,3775.050304,-11843.295072,4826.401637
19828.167316,3330.926739,-5995.668130,7354.516781
19828.167650,6143.709319,-6883.915261,10342.289223
19828.167983,3034.844362,-7772.162391,7507.735880
19828.168316,2368.659014,-6883.915261,5898.935335
19828.168650,-592.164754,-8364.327145,2221.676944
19828.168983,-2368.659014,-7179.997637,0.000000
19828.169316,-3330.926739,-9104.533087,-4903.011187
19828.169650,-3997.112087,-9548.656652,-6665.030833
19828.169983,-1554.432478,-9918.759623,-4979.620737
19828.170316,0.000000,-9326.594869,-4213.525239
19828.170650,0.000000,-10658.965565,-2221.676944
19828.170983,2886.803174,-13027.624579,-76.609550
19828.171316,1702.473667,-10288.862594,0.000000
19828.171650,3552.988522,-8068.244768,2757.943793
19828.171983,6069.688724,-11251.130318,7431.126331
19828.172316,3034.844362,-7772.162391,5822.325785
19828.172649,1702.473667,-7846.182985,3294.210641
19828.172983,370.102971,-7994.224174,2068.457845
19828.173316,-1628.453072,-10140.821405,383.047749
19828.173649,-4145.153275,-8364.327145,-1838.629195
19828.173983,-3627.009116,-7846.182985,-4290.134789
19828.174316,-3552.988522,-5995.668130,-2451.505594
19828.174649,-74.020594,-10658.965565,-76.609550
19828.174983,3182.885551,-8290.306550,-76.609550
19828.175316,4145.153275,-8142.265362,2374.896044
19828.175649,2960.823768,-7476.080014,0.000000
19828.175983,3627.009116,-10288.862594,76.609550
19828.176316,1850.514855,-10584.944971,-383.047749
19828.176649,2886.803174,-11695.253884,-76.609550
19828.176982,2294.638420,-9548.656652,-3064.381992
19828.177316,592.164754,-11917.315666,0.000000
19828.177649,1110.308913,-11843.295072,1762.019645
19828.177982,-1702.473667,-7772.162391,0.000000
19828.178316,-370.102971,-10362.883188,-76.609550
19828.178649,-3108.864956,-10066.800811,1302.362347
19828.178982,-2960.823768,-9474.636058,2374.896044
19828.179316,-148.041188,-6809.894666,3294.210641
19828.179649,1702.473667,-7105.977043,2374.896044
19828.179982,222.061783,-5995.668130,2451.505594
19828.180316,5551.544565,-7698.141797,3447.429741
19828.180649,4071.132681,-9474.636058,-76.609550
19828.180982,1184.329507,-4811.338623,-2451.505594
19828.181316,2294.638420,-11843.295072,-3140.991542
19828.181649,-888.247130,-11473.192101,-5362.668486
19828.181982,74.020594,-12287.418637,-4443.353888
19828.182315,-2072.576638,-14285.974681,-4290.134789
19828.182649,-370.102971,-11843.295072,-1302.362347
19828.182982,-2368.659014,-12879.583391,1378.971896
19828.183315,1406.391290,-7402.059420,4443.353888
19828.183649,592.164754,-7179.997637,6894.859482
19828.183982,1184.329507,-7179.997637,8580.269578
19828.184315,6143.709319,-4737.318029,9116.536426
19828.184649,0.000000,-5107.421000,6435.202183
19828.184982,2368.659014,-6291.750507,5439.278036
19828.185315,-1850.514855,-8290.306550,-2987.772442
19828.185649,-2368.659014,-10214.842000,-6741.640382
19828.185982,-3849.070898,-10510.924376,-7431.126331
19828.186315,-3627.009116,-13027.624579,-8427.050478
19828.186648,-3627.009116,-13915.871710,-7737.564530
19828.186982,-3034.844362,-13619.789333,-4979.620737
19828.187315,0.000000,-10658.965565,-76.609550
19828.187648,0.000000,-8364.327145,7354.516781
19828.187982,5847.626942,-8882.471304,9422.974625
19828.188315,3478.967927,-6069.688724,6435.202183
19828.188648,1998.556043,-7105.977043,4826.401637
19828.188982,1110.308913,-6439.791695,3677.258390
19828.189315,-1702.473667,-9326.594869,1149.143247
19828.189648,-5921.647536,-8364.327145,-1532.190996
19828.189982,-8734.430116,-9548.656652,-6741.640382
19828.190315,-4219.173869,-10658.965565,-6511.811733
19828.190648,-4737.318029,-9548.656652,-995.924147
19828.190982,962.267725,-9178.553681,-995.924147
19828.191315,1776.494261,-4811.338623,0.000000
19828.191648,3552.988522,-7772.162391,3064.381992
19828.191981,3849.070898,-8216.285956,2298.286494
19828.192315,3923.091493,-9696.697840,1225.752797
19828.192648,3478.967927,-9474.636058,0.000000
19828.192981,3478.967927,-13027.624579,2374.896044
19828.193315,-74.020594,-10436.903782,-3064.381992
19828.193648,-1258.350101,-12435.459826,-1302.362347
19828.193981,-2590.720797,-8364.327145,-3983.696590
19828.194315,-2072.576638,-10436.903782,1608.800546
19828.194648,740.205942,-9474.636058,4519.963438
19828.194981,0.000000,-7624.121203,5209.449386
19828.195315,2960.823768,-4515.256246,4903.011187
19828.195648,4071.132681,-5477.523971,4903.011187
19828.195981,5403.503377,-6809.894666,3217.601092
19828.196314,4737.318029,-7179.997637,3677.258390
19828.196648,4071.132681,-8882.471304,-1608.800546
19828.196981,0.000000,-11325.150913,-6741.640382
19828.197314,-3256.906145,-13841.851115,-5592.497135
19828.197648,-1258.350101,-15396.283594,-6205.373534
19828.197981,-1184.329507,-11769.274478,-2757.943793
19828.198314,592.164754,-11325.150913,459.657299
19828.198648,3478.967927,-9474.636058,3217.601092
19828.198981,2664.741391,-7550.100608,5056.230287
19828.199314,4441.235652,-6439.791695,8503.660028
19828.199647,3108.864956,-7105.977043,5745.716235
19828.199981,592.164754,-8216.285956,3983.696590
19828.200314,222.061783,-7920.203579,1762.019645
19828.200647,-1850.514855,-8290.306550,-1608.800546
19828.200981,444.123565,-9474.636058,-689.485948
19828.201314,-1850.514855,-11843.295072,-3140.991542
19828.201647,-1776.494261,-7179.997637,-4596.572988
19828.201980,-1628.453072,-10436.903782,-3064.381992
19828.202314,1998.556043,-11251.130318,-2834.553343
19828.202647,-518.144159,-10732.986159,-1532.190996
19828.202980,0.000000,-10066.800811,-1532.190996
19828.203313,3108.864956,-10807.006753,3907.087040
19828.203647,0.000000,-9844.739029,3447.429741
19828.203980,296.082377,-8364.327145,4596.572988
19828.204313,0.000000,-9548.656652,6665.030833
19828.204647,-74.020594,-8290.306550,2068.457845
19828.204980,-1776.494261,-7179.997637,2451.505594
19828.205313,-2442.679609,-6069.688724,612.876398
19828.205646,-1998.556043,-6957.935855,-76.609550
19828.205980,-3923.091493,-8438.347739,-1991.848295
19828.206313,-1332.370696,-7698.141797,-2221.676944
19828.206646,-2368.659014,-8956.491898,-2145.067394
19828.206979,-4737.318029,-7772.162391,-919.314598
19828.207313,962.267725,-9474.636058,-3447.429741
19828.207646,-370.102971,-10658.965565,-2528.115143
19828.207979,0.000000,-10288.862594,0.000000
19828.208313,888.247130,-8660.409521,1532.190996
19828.208646,2590.720797,-10214.842000,2374.896044
19828.208979,2960.823768,-10510.924376,3447.429741
19828.209312,1998.556043,-9326.594869,2374.896044
19828.209646,2294.638420,-10658.965565,2374.896044
19828.209979,0.000000,-10510.924376,3600.648841
19828.210312,-370.102971,-9474.636058,-1608.800546
19828.210646,-3552.988522,-8660.409521,153.219100
19828.210979,-1184.329507,-10510.924376,2374.896044
19828.211312,888.247130,-7772.162391,2604.724693
19828.211645,2220.617826,-7994.224174,2374.896044
19828.211979,3552.988522,-6883.915261,3064.381992
19828.212312,6291.750507,-6439.791695,2681.334243
19828.212645,4737.318029,-7994.224174,1149.143247
19828.212978,5847.626942,-10066.800811,-1762.019645
19828.213312,0.000000,-11917.315666,-4903.011187
19828.213645,2146.597232,-14211.954086,-4979.620737
19828.213978,-1480.411884,-12509.480420,-4903.011187
19828.214312,-1776.494261,-12509.480420,-229.828649
19828.214645,-3034.844362,-10362.883188,-1455.581446
19828.214978,-1702.473667,-8956.491898,1225.752797
19828.215311,2368.659014,-7846.182985,6205.373534
19828.215645,2294.638420,-5329.482782,7431.126331
19828.215978,3923.091493,-5625.565159,6894.859482
19828.216311,3404.947333,-5033.400406,5745.716235
19828.216644,2664.741391,-6735.874072,3983.696590
19828.216978,1998.556043,-6883.915261,153.219100
19828.217311,-370.102971,-9474.636058,-4060.306139
19828.217644,-1184.329507,-12583.501014,-5286.058936
19828.217978,-4811.338623,-12287.418637,-10265.679673
19828.218311,-4737.318029,-14285.974681,-9193.145976
19828.218644,-4737.318029,-13397.727550,-4290.134789
19828.218977,-1850.514855,-9548.656652,-1838.629195
19828.219311,1036.288319,-10214.842000,4060.306139
19828.219644,4071.132681,-6513.812290,8120.612279
19828.219977,4515.256246,-5995.668130,8580.269578
19828.220310,1776.494261,-3923.091493,6818.249932
19828.220644,3478.967927,-7105.977043,5439.278036
19828.220977,-74.020594,-7105.977043,306.438199
19828.221310,-3552.988522,-10584.944971,-76.609550
19828.221644,-3627.009116,-11843.295072,-4060.306139
19828.221977,-6809.894666,-10732.986159,-7048.078582
19828.222310,-3627.009116,-9400.615463,-4903.011187
19828.222643,-2072.576638,-9252.574275,-2757.943793
19828.222977,888.247130,-8068.244768,-995.924147
19828.223310,2664.741391,-8660.409521,2451.505594
19828.223643,5255.462188,-8734.430116,2374.896044
19828.223976,2738.761985,-7179.997637,1378.971896
19828.224310,2368.659014,-8660.409521,4826.401637
19828.224643,3478.967927,-9474.636058,-383.047749
19828.224976,0.000000,-10214.842000,1762.019645
19828.225310,-1924.535449,-10362.883188,-1302.362347
19828.225643,-3330.926739,-9548.656652,-2451.505594
19828.225976,-2738.761985,-11103.089130,-842.705048
19828.226309,-1258.350101,-9474.636058,-76.609550
19828.226643,-3034.844362,-7624.121203,-1685.410096
19828.226976,0.000000,-7772.162391,3140.991542
19828.227309,5847.626942,-9178.553681,6052.154434
19828.227642,4663.297435,-5625.565159,2987.772442
19828.227976,4737.318029,-7105.977043,2987.772442
19828.228309,4441.235652,-8586.388927,-689.485948
19828.228642,1258.350101,-9918.759623,-3677.258390
19828.228976,0.000000,-12139.377449,-4749.792088
19828.229309,-666.185348,-13841.851115,-3907.087040
19828.229642,-2442.679609,-12953.603985,-5822.325785
19828.229975,-370.102971,-13027.624579,-1302.362347
19828.230309,0.000000,-10288.862594,766.095498
19828.230642,-2368.659014,-7476.080014,2451.505594
19828.230975,296.082377,-8068.244768,6052.154434
19828.231309,2886.803174,-6513.812290,6052.154434
19828.231642,0.000000,-3627.009116,4903.011187
19828.231975,296.082377,-7031.956449,3983.696590
19828.232308,1998.556043,-5921.647536,1762.019645
19828.232642,888.247130,-8586.388927,995.924147
19828.232975,1776.494261,-7550.100608,-1378.971896
19828.233308,-888.247130,-9548.656652,-4060.306139
19828.233641,0.000000,-10807.006753,-5975.544884
19828.233975,-1184.329507,-12509.480420,-2528.115143
19828.234308,-74.020594,-11695.253884,-6741.640382
19828.234641,-1776.494261,-9844.739029,-4903.011187
19828.234975,888.247130,-10807.006753,1762.019645
19828.235308,2368.659014,-10732.986159,3677.258390
19828.235641,3034.844362,-7698.141797,6358.592633
19828.235974,2368.659014,-7179.997637,5975.544884
19828.236308,2146.597232,-7624.121203,6128.763984
19828.236641,3182.885551,-8290.306550,6052.154434
19828.236974,0.000000,-6883.915261,4826.401637
19828.237307,-666.185348,-5699.585753,-2451.505594
19828.237641,-1480.411884,-9400.615463,-1915.238745
19828.237974,-74.020594,-11843.295072,-2528.115143
19828.238307,1702.473667,-8882.471304,-3907.087040
19828.238641,-962.267725,-10288.862594,-5209.449386
19828.238974,444.123565,-10288.862594,-4979.620737
19828.239307,1036.288319,-11399.171507,-1991.848295
19828.239640,0.000000,-8956.491898,-919.314598
19828.239974,5551.544565,-10658.965565,2068.457845
19828.240307,2664.741391,-10140.821405,4903.011187
19828.240640,7624.121203,-9474.636058,4826.401637
19828.240973,1776.494261,-6587.832884,5209.449386
19828.241307,0.000000,-7846.182985,1685.410096
19828.241640,-1184.329507,-9548.656652,0.000000
19828.241973,-4071.132681,-11251.130318,-1915.238745
19828.242307,-4737.318029,-9548.656652,-2604.724693
19828.242640,-6513.812290,-9696.697840,-1838.629195
19828.242973,-666.185348,-7550.100608,-3217.601092
19828.243306,1776.494261,-8808.450710,4826.401637
19828.243640,5847.626942,-8290.306550,6052.154434
19828.243973,4367.215058,-5107.421000,1532.190996
19828.244306,3552.988522,-6143.709319,1838.629195
19828.244639,3182.885551,-8808.450710,0.000000
19828.244973,444.123565,-11177.109724,-3140.991542
19828.245306,0.000000,-11695.253884,-4673.182538
19828.245639,-3552.988522,-14582.057057,-3677.258390
19828.245973,-1258.350101,-10881.027347,-3677.258390
19828.246306,-2294.638420,-12731.542202,-842.705048
19828.246639,-3849.070898,-9548.656652,229.828649
19828.246972,0.000000,-8660.409521,4519.963438
19828.247306,0.000000,-5995.668130,7354.516781
19828.247639,4071.132681,-4145.153275,7890.783629
19828.247972,3182.885551,-4293.194464,5056.230287
19828.248305,3849.070898,-6735.874072,6971.469032
19828.248639,4663.297435,-8882.471304,3600.648841
19828.248972,0.000000,-7179.997637,-2451.505594
19828.249305,-1924.535449,-10955.047942,-7890.783629
19828.249639,-5107.421000,-14137.933492,-9576.193725
19828.249972,-6291.750507,-14434.015869,-9652.803275
19828.250305,-5033.400406,-14878.139434,-5362.668486
19828.250638,-2442.679609,-11547.212695,-4213.525239
19828.250972,0.000000,-10732.986159,1225.752797
19828.251305,3849.070898,-9474.636058,9116.536426
19828.251638,5255.462188,-5033.400406,9039.926876
19828.251972,4145.153275,-6735.874072,10801.946522
19828.252305,2812.782580,-6587.832884,7507.735880
19828.252638,518.144159,-6735.874072,3370.820191
19828.252971,-1628.453072,-8882.471304,-76.609550
19828.253305,-2442.679609,-11251.130318,-3753.867940
19828.253638,-4219.173869,-8364.327145,-9193.145976
19828.253971,-3034.844362,-13027.624579,-4979.620737
19828.254304,-74.020594,-11547.212695,-3753.867940
19828.254638,-666.185348,-8734.430116,-3370.820191
19828.254971,3404.947333,-10510.924376,-76.609550
19828.255304,1998.556043,-10066.800811,1762.019645
19828.255638,3478.967927,-8142.265362,2834.553343
19828.255971,3849.070898,-8956.491898,4290.134789
19828.256304,2368.659014,-9844.739029,4673.182538
19828.256637,296.082377,-8364.327145,2451.505594
19828.256971,74.020594,-10066.800811,2374.896044
19828.257304,-1850.514855,-8956.491898,-1225.752797
19828.257637,-2738.761985,-7772.162391,0.000000
19828.257970,-666.185348,-10658.965565,-383.047749
19828.258304,-1480.411884,-8068.244768,-306.438199
19828.258637,-666.185348,-8438.347739,0.000000
19828.258970,2368.659014,-8438.347739,1225.752797
19828.259304,3627.009116,-5403.503377,1915.238745
19828.259637,3775.050304,-7328.038826,153.219100
19828.259970,3552.988522,-8216.285956,-1225.752797
19828.260303,2442.679609,-11917.315666,-919.314598
19828.260637,1184.329507,-11177.109724,-306.438199
19828.260970,2294.638420,-12731.542202,-383.047749
19828.261303,-666.185348,-9844.739029,-3677.258390
19828.261636,1776.494261,-11695.253884,2987.772442
19828.261970,2294.638420,-9474.636058,2068.457845
19828.262303,740.205942,-7328.038826,1838.629195
19828.262636,0.000000,-9474.636058,2681.334243
19828.262970,-962.267725,-8956.491898,2451.505594
19828.263303,-592.164754,-7328.038826,2834.553343
19828.263636,-1036.288319,-7105.977043,1762.019645
19828.263969,-2220.617826,-7772.162391,919.314598
19828.264303,1702.473667,-4811.338623,0.000000
19828.264636,4589.276840,-8734.430116,3294.210641
19828.264969,3478.967927,-8290.306550,-76.609550
19828.265302,1702.473667,-11251.130318,-1915.238745
19828.265636,-592.164754,-11843.295072,-4366.744339
19828.265969,-2072.576638,-11843.295072,-4366.744339
19828.266302,-1258.350101,-11547.212695,-4673.182538
19828.266636,-2960.823768,-11843.295072,-2145.067394
19828.266969,-74.020594,-11843.295072,2068.457845
19828.267302,-1776.494261,-8364.327145,6128.763984
19828.267635,1998.556043,-7994.224174,4213.525239
19828.267969,0.000000,-7179.997637,5515.887586
19828.268302,1184.329507,-5181.441594,7048.078582
19828.268635,1110.308913,-5921.647536,3677.258390
19828.268968,1702.473667,-6291.750507,2681.334243
19828.269302,740.205942,-8586.388927,229.828649
19828.269635,-740.205942,-8956.491898,-2298.286494
19828.269968,-74.020594,-9474.636058,-4979.620737
19828.270302,-1776.494261,-11029.068536,-4749.792088
19828.270635,-888.247130,-13249.686362,-4443.353888
19828.270968,-1258.350101,-11473.192101,-6741.640382
19828.271301,-2368.659014,-11325.150913,-1838.629195
19828.271635,2146.597232,-8068.244768,1225.752797
19828.271968,4219.173869,-10214.842000,5439.278036
19828.272301,4589.276840,-8290.306550,7584.345430
19828.272635,3404.947333,-6809.894666,6588.421283
19828.272968,888.247130,-5699.585753,2451.505594
19828.273301,888.247130,-10658.965565,4826.401637
19828.273634,-2442.679609,-8068.244768,-1685.410096
19828.273968,-6365.771101,-8364.327145,-3677.258390
19828.274301,-5921.647536,-8660.409521,-3370.820191
19828.274634,-3923.091493,-9696.697840,-4290.134789
19828.274967,-962.267725,-9696.697840,-1455.581446
19828.275301,2220.617826,-7772.162391,842.705048
19828.275634,2664.741391,-6883.915261,1225.752797
19828.275967,4367.215058,-7624.121203,766.095498
19828.276301,4441.235652,-9104.533087,2221.676944
19828.276634,3330.926739,-10066.800811,1149.143247
19828.276967,2664.741391,-10584.944971,-229.828649
19828.277300,1110.308913,-14211.954086,-76.609550
19828.277634,-2738.761985,-10807.006753,-3370.820191
19828.277967,-4441.235652,-11621.233289,-1838.629195
19828.278300,-2590.720797,-11843.295072,-689.485948
19828.278633,-3627.009116,-8512.368333,306.438199
19828.278967,-3552.988522,-7179.997637,4903.011187
19828.279300,518.144159,-4663.297435,5669.106685
19828.279633,1850.514855,-5329.482782,5975.544884
19828.279967,2812.782580,-6143.709319,4443.353888
19828.280300,5255.462188,-6513.812290,2374.896044
19828.280633,2886.803174,-6365.771101,-2145.067394
19828.280966,1184.329507,-10436.903782,-2834.553343
19828.281300,-1258.350101,-15396.283594,-7431.126331
19828.281633,-4219.173869,-13101.645173,-9652.803275
19828.281966,-3034.844362,-15100.201217,-4979.620737
19828.282299,-2812.782580,-12805.562797,-3064.381992
19828.282633,-1332.370696,-11177.109724,1532.190996
19828.282966,2368.659014,-7328.038826,4213.525239
19828.283299,3256.906145,-4811.338623,7660.954980
19828.283633,5847.626942,-4219.173869,6128.763984
19828.283966,7031.956449,-9178.553681,8503.660028
19828.284299,1628.453072,-5995.668130,4290.134789
19828.284632,-592.164754,-6587.832884,306.438199
19828.284966,-1850.514855,-9178.553681,-3140.991542
19828.285299,-2072.576638,-11177.109724,-4673.182538
19828.285632,-3108.864956,-10140.821405,-7048.078582
19828.285965,-2294.638420,-10658.965565,-5515.887586
19828.286299,1184.329507,-11251.130318,-3677.258390
19828.286632,0.000000,-9844.739029,-1225.752797
19828.286965,2960.823768,-10955.047942,1762.019645
19828.287299,3478.967927,-8882.471304,612.876398
19828.287632,4145.153275,-7772.162391,2757.943793
19828.287965,4145.153275,-9548.656652,4903.011187
19828.288298,2294.638420,-9474.636058,4826.401637
19828.288632,1036.288319,-7994.224174,2528.115143
19828.288965,0.000000,-9178.553681,1915.238745
19828.289298,-74.020594,-10362.883188,1762.019645
19828.289631,-2960.823768,-9548.656652,1149.143247
19828.289965,-3330.926739,-7846.182985,-3677.258390
19828.290298,-2146.597232,-5995.668130,-4290.134789
19828.290631,-296.082377,-10362.883188,-76.609550
19828.290965,1776.494261,-7772.162391,0.000000
19828.291298,2072.576638,-7846.182985,229.828649
19828.291631,814.226536,-8956.491898,-1225.752797
19828.291964,1036.288319,-9622.677246,-1302.362347
19828.292298,1998.556043,-11843.295072,-76.609550
19828.292631,1628.453072,-10140.821405,1455.581446
19828.292964,1406.391290,-11399.171507,383.047749
19828.293298,-444.123565,-11843.295072,995.924147
19828.293631,-666.185348,-9252.574275,1225.752797
19828.293964,-370.102971,-11251.130318,1762.019645
19828.294297,-2368.659014,-8956.491898,2451.505594
19828.294631,-3108.864956,-10955.047942,2374.896044
19828.294964,-2738.761985,-6883.915261,0.000000
19828.295297,-2368.659014,-4811.338623,2757.943793
19828.295630,1702.473667,-7994.224174,2374.896044
19828.295964,2294.638420,-7476.080014,2374.896044
19828.296297,3108.864956,-7105.977043,1915.238745
19828.296630,3627.009116,-7402.059420,459.657299
19828.296964,3182.885551,-9326.594869,-2068.457845
19828.297297,0.000000,-11621.233289,-1762.019645
19828.297630,-74.020594,-14211.954086,-3140.991542
19828.297963,-1850.514855,-10732.986159,-6128.763984
19828.298297,0.000000,-14285.974681,-1838.629195
19828.298630,-1258.350101,-10955.047942,-1685.410096
19828.298963,-962.267725,-9474.636058,1302.362347
19828.299296,296.082377,-7179.997637,5209.449386
19828.299630,3404.947333,-6365.771101,7507.735880
19828.299963,2368.659014,-4219.173869,7354.516781
19828.300296,4737.318029,-6661.853478,9729.412825
19828.300630,1702.473667,-4219.173869,1838.629195
19828.300963,0.000000,-7476.080014,1532.190996
19828.301296,2294.638420,-11843.295072,-2528.115143
19828.301629,-1776.494261,-9548.656652,-7354.516781
19828.301963,-1702.473667,-11843.295072,-7737.564530
19828.302296,-592.164754,-13767.830521,-7201.297681
19828.302629,-1924.535449,-13323.706956,-5056.230287
19828.302962,-1184.329507,-11917.315666,-2451.505594
19828.303295,4663.297435,-13027.624579,2374.896044
19828.303628,2368.659014,-7179.997637,7660.954980
19828.303962,7031.956449,-7105.977043,9729.412825
19828.304295,4737.318029,-6439.791695,9499.584175
19828.304628,2368.659014,-5995.668130,7201.297681
19828.304961,0.000000,-8364.327145,5515.887586
19828.305294,-74.020594,-9474.636058,-689.485948
19828.305627,-5773.606348,-10140.821405,-4136.915689
19828.305961,-6513.812290,-11473.192101,-7354.516781
19828.306294,-4515.256246,-9918.759623,-5975.544884
19828.306627,-2664.741391,-9474.636058,-3064.381992
19828.306960,2294.638420,-7328.038826,-306.438199
19828.307293,3182.885551,-7105.977043,1149.143247
19828.307626,2886.803174,-6587.832884,2451.505594
19828.307960,3849.070898,-9474.636058,3600.648841
19828.308293,3478.967927,-9474.636058,-76.609550
19828.308626,1480.411884,-9548.656652,2451.505594
19828.308959,1702.473667,-11843.295072,-76.609550
19828.309292,-3108.864956,-11621.233289,-1838.629195
19828.309625,-5107.421000,-11473.192101,-2911.162892
19828.309959,-4515.256246,-10807.006753,-1149.143247
19828.310292,-4441.235652,-9548.656652,612.876398
19828.310625,-1554.432478,-7105.977043,0.000000
19828.310958,0.000000,-7698.141797,5439.278036
19828.311291,1110.308913,-5033.400406,3140.991542
19828.311624,1998.556043,-3627.009116,3064.381992
19828.311958,2960.823768,-6291.750507,1532.190996
19828.312291,2664.741391,-7550.100608,995.924147
19828.312624,-296.082377,-10362.883188,-3294.210641
19828.312957,-2220.617826,-11843.295072,-6128.763984
19828.313290,-3034.844362,-15396.283594,-5286.058936
19828.313623,-3182.885551,-10732.986159,-6128.763984
19828.313957,-74.020594,-14211.954086,-76.609550
19828.314290,518.144159,-9992.780217,0.000000
19828.314623,0.000000,-8956.491898,3677.258390
19828.314956,2738.761985,-8586.388927,5898.935335
19828.315289,3182.885551,-6661.853478,5822.325785
19828.315622,1776.494261,-6513.812290,6665.030833
19828.315956,1554.432478,-7105.977043,3677.258390
19828.316289,740.205942,-7105.977043,1762.019645
19828.316622,0.000000,-7772.162391,1225.752797
19828.316955,518.144159,-6883.915261,-3064.381992
19828.317288,-2960.823768,-8364.327145,-3064.381992
19828.317621,-74.020594,-10955.047942,-4979.620737
19828.317955,-666.185348,-11251.130318,-5592.497135
19828.318288,518.144159,-11547.212695,-4673.182538
19828.318621,-888.247130,-11251.130318,-2987.772442
19828.318954,1110.308913,-9548.656652,-1072.533697
19828.319287,3182.885551,-11399.171507,3600.648841
19828.319620,3997.112087,-11251.130318,7277.907231
19828.319954,666.185348,-5995.668130,3677.258390
19828.320287,2368.659014,-9474.636058,7277.907231
19828.320620,4663.297435,-7994.224174,4213.525239
19828.320953,2294.638420,-6439.791695,4519.963438
19828.321286,1998.556043,-8882.471304,2068.457845
19828.321619,-1258.350101,-8216.285956,-2068.457845
19828.321953,-2294.638420,-10288.862594,-3294.210641
19828.322286,-444.123565,-8660.409521,-3524.039291
19828.322619,888.247130,-11251.130318,-2528.115143
19828.322952,296.082377,-8660.409521,-3524.039291
19828.323285,1258.350101,-10658.965565,-1915.238745
19828.323618,962.267725,-9252.574275,0.000000
19828.323952,370.102971,-8660.409521,0.000000
19828.324285,2368.659014,-9844.739029,3907.087040
19828.324618,5551.544565,-11843.295072,6052.154434
19828.324951,740.205942,-5995.668130,3983.696590
19828.325284,2294.638420,-9474.636058,3600.648841
19828.325618,-74.020594,-8882.471304,-383.047749
19828.325951,-1924.535449,-11251.130318,-383.047749
19828.326284,-4663.297435,-9844.739029,-2911.162892
19828.326617,-7179.997637,-10732.986159,-3983.696590
19828.326950,-6513.812290,-8956.491898,-3677.258390
19828.327283,-2072.576638,-9696.697840,3907.087040
19828.327617,2294.638420,-5107.421000,2604.724693
19828.327950,2368.659014,-3627.009116,4903.011187
19828.328283,6143.709319,-7105.977043,4673.182538
19828.328616,3330.926739,-7179.997637,1225.752797
19828.328949,2294.638420,-9770.718434,-1608.800546
19828.329282,-814.226536,-12805.562797,-3907.087040
19828.329616,-1184.329507,-12435.459826,-4979.620737
19828.329949,-1258.350101,-14508.036463,-1915.238745
19828.330282,-666.185348,-15396.283594,-689.485948
19828.330615,-3923.091493,-8956.491898,-2145.067394
19828.330948,-2368.659014,-9104.533087,1225.752797
19828.331281,444.123565,-8882.471304,7277.907231
19828.331615,740.205942,-4811.338623,8733.488677
19828.331948,2368.659014,-4071.132681,6741.640382
19828.332281,3552.988522,-3923.091493,5898.935335
19828.332614,3256.906145,-6513.812290,3524.039291
19828.332947,2516.700203,-6883.915261,-383.047749
19828.333280,1998.556043,-10658.965565,-5286.058936
19828.333614,-4293.194464,-10140.821405,-9193.145976
19828.333947,-4367.215058,-15840.407159,-8656.879127
19828.334280,-3034.844362,-15396.283594,-8656.879127
19828.334613,-3034.844362,-13471.748144,-3907.087040
19828.334946,592.164754,-10584.944971,1378.971896
19828.335279,3997.112087,-9474.636058,5745.716235
19828.335613,5181.441594,-6365.771101,9269.755526
19828.335946,3849.070898,-4811.338623,8580.269578
19828.336279,3478.967927,-5403.503377,6741.640382
19828.336612,3701.029710,-7698.141797,8503.660028
19828.336945,1702.473667,-8290.306550,1455.581446
19828.337278,-2960.823768,-7772.162391,-3370.820191
19828.337612,-4219.173869,-11547.212695,-5592.497135
19828.337945,-5033.400406,-11399.171507,-6894.859482
19828.338278,-2442.679609,-9622.677246,-5822.325785
19828.338611,-592.164754,-9622.677246,-3753.867940
19828.338944,296.082377,-8364.327145,-2451.505594
19828.339277,2738.761985,-9030.512492,1532.190996
19828.339611,4441.235652,-7624.121203,3370.820191
19828.339944,5107.421000,-7846.182985,4213.525239
19828.340277,4811.338623,-10881.027347,4213.525239
19828.340610,1258.350101,-8364.327145,1838.629195
19828.340943,-74.020594,-11843.295072,-76.609550
19828.341276,-3552.988522,-9548.656652,0.000000
19828.341610,-1850.514855,-11843.295072,-306.438199
19828.341943,-2442.679609,-10658.965565,-76.609550
19828.342276,-4145.153275,-7772.162391,0.000000
19828.342609,-3404.947333,-8364.327145,-536.266849
19828.342942,-1628.453072,-7476.080014,766.095498
19828.343275,444.123565,-6661.853478,2987.772442
19828.343609,2368.659014,-5699.585753,3064.381992
19828.343942,2294.638420,-4811.338623,0.000000
19828.344275,0.000000,-7179.997637,0.000000
19828.344608,518.144159,-11695.253884,-1302.362347
19828.344941,-666.185348,-10362.883188,-4060.306139
19828.345274,-1184.329507,-13619.789333,-1915.238745
19828.345608,-2220.617826,-12361.439231,-1302.362347
19828.345941,-1998.556043,-10510.924376,-76.609550
19828.346274,-370.102971,-9474.636058,536.266849
19828.346607,-74.020594,-9474.636058,3294.210641
19828.346940,-666.185348,-5995.668130,2451.505594
19828.347273,2146.597232,-8290.306550,6665.030833
19828.347607,-74.020594,-6513.812290,1915.238745
19828.347940,0.000000,-6587.832884,2451.505594
19828.348273,3478.967927,-8290.306550,383.047749
19828.348606,1776.494261,-7772.162391,842.705048
19828.348939,2664.741391,-8290.306550,-459.657299
19828.349272,1406.391290,-9252.574275,-3677.258390
19828.349606,1702.473667,-11251.130318,-4366.744339
19828.349939,-1776.494261,-9548.656652,-3677.258390
19828.350272,1850.514855,-12435.459826,-2528.115143
19828.350605,-74.020594,-12731.542202,-2528.115143
19828.350938,0.000000,-8364.327145,0.000000
19828.351271,1998.556043,-10955.047942,2987.772442
19828.351605,0.000000,-8216.285956,4290.134789
19828.351938,1258.350101,-8216.285956,4366.744339
19828.352271,1850.514855,-8290.306550,6741.640382
19828.352604,1998.556043,-7105.977043,5745.716235
19828.352937,666.185348,-6735.874072,4213.525239
19828.353270,-1036.288319,-7105.977043,153.219100
19828.353604,-1258.350101,-9030.512492,-2681.334243
19828.353937,-2960.823768,-9548.656652,-3064.381992
19828.354270,962.267725,-10658.965565,-4979.620737
19828.354603,-2886.803174,-9844.739029,-6128.763984
19828.354936,-3552.988522,-10140.821405,-4290.134789
19828.355269,-74.020594,-12435.459826,-1608.800546
19828.355603,0.000000,-7476.080014,0.000000
19828.355936,3330.926739,-10510.924376,2987.772442
19828.356269,3552.988522,-9696.697840,5745.716235
19828.356602,2368.659014,-7476.080014,5286.058936
19828.356935,4071.132681,-8290.306550,6052.154434
19828.357268,518.144159,-10658.965565,3600.648841
19828.357602,-4737.318029,-8364.327145,1838.629195
19828.357935,-3775.050304,-10066.800811,-76.609550
19828.358268,-5107.421000,-9474.636058,-4826.401637
19828.358601,-4885.359217,-9474.636058,-4290.134789
19828.358934,-3330.926739,-8882.471304,-2145.067394
19828.359267,666.185348,-7105.977043,1302.362347
19828.359601,2886.803174,-5847.626942,2681.334243
19828.359934,3923.091493,-5921.647536,1149.143247
19828.360267,6365.771101,-9474.636058,3294.210641
19828.360600,0.000000,-9548.656652,2451.505594
19828.360933,3775.050304,-12731.542202,-689.485948
19828.361266,0.000000,-10732.986159,-3983.696590
19828.361600,-1258.350101,-13471.748144,-3140.991542
19828.361933,-2664.741391,-11177.109724,-2604.724693
19828.362266,-2516.700203,-10510.924376,-1455.581446
19828.362599,-2886.803174,-9326.594869,536.266849
19828.362932,-1776.494261,-7179.997637,3677.258390
19828.363265,2294.638420,-5921.647536,5132.839837
19828.363599,2960.823768,-4219.173869,7354.516781
19828.363932,4959.379811,-7105.977043,6052.154434
19828.364265,3552.988522,-4811.338623,4290.134789
19828.364598,2664.741391,-5995.668130,612.876398
19828.364931,2664.741391,-8882.471304,-2528.115143
19828.365264,-814.226536,-11991.336260,-6818.249932
19828.365598,-3404.947333,-13693.809927,-9422.974625
19828.365931,-1850.514855,-15988.448347,-6511.811733
19828.366264,-2368.659014,-10732.986159,-6128.763984
19828.366597,3478.967927,-13027.624579,-76.609550
19828.366930,3478.967927,-7402.059420,2068.457845
19828.367263,4737.318029,-7772.162391,9499.584175
19828.367597,5033.400406,-5107.421000,7660.954980
19828.367930,4145.153275,-7402.059420,8656.879127
19828.368263,2072.576638,-7179.997637,5822.325785
19828.368596,222.061783,-6883.915261,2528.115143
19828.368929,-814.226536,-9474.636058,-76.609550
19828.369262,-4367.215058,-8956.491898,-3677.258390
19828.369596,-4959.379811,-9474.636058,-6358.592633
19828.369929,-3404.947333,-10732.986159,-6281.983084
19828.370262,-1480.411884,-9696.697840,-4826.401637
19828.370595,2072.576638,-12435.459826,-76.609550
19828.370928,962.267725,-8956.491898,-1149.143247
19828.371261,0.000000,-10140.821405,2451.505594
19828.371595,4367.215058,-8290.306550,2374.896044
19828.371928,2664.741391,-9548.656652,4903.011187
19828.372261,2368.659014,-10140.821405,6971.469032
19828.372594,1702.473667,-7031.956449,3140.991542
19828.372927,-74.020594,-9474.636058,2374.896044
19828.373260,-962.267725,-9696.697840,766.095498
19828.373594,-2738.761985,-9474.636058,-689.485948
19828.373927,-4219.173869,-8068.244768,-3677.258390
19828.374260,-3108.864956,-9474.636058,-1302.362347
19828.374593,-1258.350101,-10658.965565,-2528.115143
19828.374926,-1480.411884,-6291.750507,0.000000
19828.375259,3775.050304,-8290.306550,1762.019645
19828.375593,2294.638420,-6439.791695,766.095498
19828.375926,3182.885551,-9252.574275,536.266849
19828.376259,1480.411884,-10510.924376,153.219100
19828.376592,-814.226536,-9548.656652,-2221.676944
19828.376925,-2368.659014,-8364.327145,0.000000
19828.377258,814.226536,-13619.789333,-76.609550
19828.377592,-1110.308913,-9474.636058,-842.705048
19828.377925,-2368.659014,-9548.656652,1225.752797
19828.378258,-74.020594,-8290.306550,0.000000
19828.378591,-3552.988522,-10066.800811,1378.971896
19828.378924,-2368.659014,-7105.977043,995.924147
19828.379257,-1036.288319,-7698.141797,3294.210641
19828.379591,0.000000,-5551.544565,2451.505594
19828.379924,2072.576638,-7994.224174,4826.401637
19828.380257,4663.297435,-7105.977043,2374.896044
19828.380590,2368.659014,-5699.585753,1225.752797
19828.380923,1480.411884,-8364.327145,1608.800546
19828.381256,1998.556043,-11251.130318,-5515.887586
19828.381590,-1258.350101,-12287.418637,-5822.325785
19828.381923,-2590.720797,-13027.624579,-5362.668486
19828.382256,-1184.329507,-12435.459826,-3753.867940
19828.382589,-1480.411884,-11917.315666,-1225.752797
19828.382922,0.000000,-9474.636058,1455.581446
19828.383255,222.061783,-7920.203579,4979.620737
19828.383589,2220.617826,-6217.729913,6358.592633
19828.383922,3478.967927,-7105.977043,7890.783629
19828.384255,3256.906145,-6513.812290,7277.907231
19828.384588,1924.535449,-4811.338623,4903.011187
19828.384921,2738.761985,-8882.471304,2068.457845
19828.385254,222.061783,-9178.553681,-3677.258390
19828.385588,-1258.350101,-10658.965565,-5286.058936
19828.385921,-1554.432478,-11621.233289,-7431.126331
19828.386254,-2072.576638,-11325.150913,-6818.249932
19828.386587,-2368.659014,-13545.768739,-5362.668486
19828.386920,-2368.659014,-11103.089130,-3983.696590
19828.387253,1184.329507,-11103.089130,2374.896044
19828.387587,1184.329507,-7179.997637,7354.516781
19828.387920,7031.956449,-8290.306550,7584.345430
19828.388253,3552.988522,-5921.647536,6665.030833
19828.388586,2368.659014,-4811.338623,4213.525239
19828.388919,1702.473667,-9326.594869,2987.772442
19828.389252,0.000000,-9400.615463,1378.971896
19828.389586,-5033.400406,-10140.821405,-3370.820191
19828.389919,-6217.729913,-10807.006753,-5822.325785
19828.390252,-5403.503377,-11251.130318,-5592.497135
19828.390585,-2442.679609,-11843.295072,-1225.752797
19828.390918,1258.350101,-8882.471304,-76.609550
19828.391251,1998.556043,-5699.585753,1225.752797
19828.391585,2960.823768,-7179.997637,4290.134789
19828.391918,3552.988522,-5995.668130,1991.848295
19828.392251,2886.803174,-10362.883188,1378.971896
19828.392584,3182.885551,-8882.471304,383.047749
19828.392917,1628.453072,-12435.459826,459.657299
19828.393250,-1628.453072,-10732.986159,-2451.505594
19828.393584,-1406.391290,-14211.954086,-1302.362347
19828.393917,-4515.256246,-10658.965565,-2528.115143
19828.394250,-4145.153275,-9548.656652,612.876398
19828.394583,-74.020594,-9474.636058,3600.648841
19828.394916,0.000000,-6291.750507,3983.696590
19828.395249,592.164754,-5107.421000,4903.011187
19828.395583,2738.761985,-4885.359217,4673.182538
19828.395916,3552.988522,-5477.523971,2987.772442
19828.396249,3552.988522,-6291.750507,2451.505594
19828.396582,4071.132681,-8882.471304,-3140.991542
19828.396915,0.000000,-10288.862594,-4903.011187
19828.397248,-4145.153275,-13101.645173,-4903.011187
19828.397582,-1258.350101,-15396.283594,-4979.620737
19828.397915,-2960.823768,-12657.521608,-3830.477490
19828.398248,148.041188,-11473.192101,-842.705048
19828.398581,888.247130,-9474.636058,2834.553343
19828.398914,2368.659014,-6883.915261,5132.839837
19828.399247,1480.411884,-5995.668130,7660.954980
19828.399581,3182.885551,-6291.750507,6894.859482
19828.399914,1998.556043,-6365.771101,5286.058936
19828.400247,222.061783,-7920.203579,3524.039291
19828.400580,-370.102971,-7698.141797,-995.924147
19828.400913,-2368.659014,-8364.327145,-1225.752797
19828.401246,-74.020594,-10362.883188,-1302.362347
19828.401580,-666.185348,-8882.471304,-5975.544884
19828.401913,-1776.494261,-9844.739029,-4290.134789
19828.402246,2146.597232,-12287.418637,-1302.362347
19828.402579,-592.164754,-11029.068536,-2528.115143
19828.402912,-74.020594,-11177.109724,-1762.019645
19828.403245,1554.432478,-10140.821405,842.705048
19828.403579,2368.659014,-7179.997637,2451.505594
19828.403912,814.226536,-5995.668130,4903.011187
19828.404245,3182.885551,-10658.965565,4826.401637
19828.404578,2960.823768,-9844.739029,7277.907231
19828.404911,-370.102971,-7476.080014,2451.505594
19828.405244,-74.020594,-8364.327145,612.876398
19828.405577,-2072.576638,-9474.636058,1762.019645
19828.405911,-2590.720797,-8882.471304,-2834.553343
19828.406244,-2664.741391,-8882.471304,-2757.943793
19828.406577,-3997.112087,-7772.162391,-3677.258390
19828.406910,-1258.350101,-5995.668130,-6128.763984
19828.407243,-74.020594,-11103.089130,-1302.362347
19828.407576,518.144159,-8290.306550,-2145.067394
19828.407909,0.000000,-8364.327145,612.876398
19828.408243,1184.329507,-9548.656652,1608.800546
19828.408576,3478.967927,-9474.636058,2834.553343
19828.408909,2368.659014,-10288.862594,4290.134789
19828.409242,1776.494261,-9400.615463,2681.334243
19828.409575,1110.308913,-10288.862594,2374.896044
19828.409908,-3552.988522,-9548.656652,306.438199
19828.410241,-1258.350101,-11843.295072,-689.485948
19828.410575,-5107.421000,-8956.491898,-3370.820191
19828.410908,-4145.153275,-8068.244768,-3064.381992
19828.411241,0.000000,-8216.285956,1838.629195
19828.411574,1258.350101,-6735.874072,2451.505594
19828.411907,2886.803174,-6217.729913,2068.457845
19828.412240,4663.297435,-5995.668130,2451.505594
19828.412574,4663.297435,-7994.224174,536.266849
19828.412907,5329.482782,-11177.109724,1762.019645
19828.413240,740.205942,-10732.986159,-3677.258390
19828.413573,0.000000,-11917.315666,-2834.553343
19828.413906,-74.020594,-13619.789333,-4979.620737
19828.414239,-1406.391290,-12213.398043,-2451.505594
19828.414572,-1628.453072,-10362.883188,-1455.581446
19828.414906,-1184.329507,-9326.594869,1685.410096
19828.415239,296.082377,-8216.285956,5286.058936
19828.415572,1998.556043,-5329.482782,6665.030833
19828.415905,3404.947333,-5329.482782,7584.345430
19828.416238,2664.741391,-5107.421000,6358.592633
19828.416571,3034.844362,-5995.668130,3677.258390
19828.416904,2072.576638,-7179.997637,612.876398
19828.417238,2294.638420,-8882.471304,-3140.991542
19828.417571,-2368.659014,-10732.986159,-5515.887586
19828.417904,-2442.679609,-14656.077652,-8044.002729
19828.418237,-3330.926739,-12509.480420,-7814.174080
19828.418570,-4737.318029,-12509.480420,-4903.011187
19828.418903,-666.185348,-11843.295072,-2528.115143
19828.419237,1850.514855,-9918.759623,3983.696590
19828.419570,5255.462188,-7105.977043,8044.002729
19828.419903,5033.400406,-5107.421000,9806.022374
19828.420236,3330.926739,-4811.338623,6588.421283
19828.420569,2368.659014,-8956.491898,7277.907231
19828.420902,-74.020594,-11843.295072,4519.963438
19828.421235,-4737.318029,-7772.162391,-1838.629195
19828.421569,-4219.173869,-11843.295072,-2528.115143
19828.421902,-5107.421000,-8808.450710,-6741.640382
19828.422235,-3034.844362,-9474.636058,-4366.744339
19828.422568,-888.247130,-8882.471304,-1915.238745
19828.422901,814.226536,-7402.059420,-1072.533697
19828.423234,1776.494261,-8364.327145,612.876398
19828.423567,5477.523971,-10658.965565,4213.525239
19828.423901,4071.132681,-7476.080014,1225.752797
19828.424234,0.000000,-8364.327145,2757.943793
19828.424567,4663.297435,-11843.295072,2068.457845
19828.424900,0.000000,-9844.739029,1532.190996
19828.425233,-962.267725,-10732.986159,-383.047749
19828.425566,-2368.659014,-9030.512492,-1532.190996
19828.425899,-2664.741391,-10658.965565,0.000000
19828.426233,-518.144159,-7994.224174,2987.772442
19828.426566,-666.185348,-9474.636058,-76.609550
19828.426899,-2368.659014,-4811.338623,1838.629195
19828.427232,2294.638420,-7698.141797,5745.716235
19828.427565,4663.297435,-5921.647536,1762.019645
19828.427898,2960.823768,-5551.544565,1225.752797
19828.428232,3404.947333,-7772.162391,-842.705048
19828.428565,1628.453072,-11029.068536,-2374.896044
19828.428898,1036.288319,-12361.439231,-2757.943793
19828.429231,962.267725,-13915.871710,-2757.943793
19828.429564,-370.102971,-12731.542202,-3064.381992
19828.429897,592.164754,-12213.398043,459.657299
19828.430230,1406.391290,-9992.780217,1762.019645
19828.430564,-1110.308913,-6587.832884,1225.752797
19828.430897,-1480.411884,-5995.668130,3677.258390
19828.431230,-74.020594,-9474.636058,5745.716235
19828.431563,-74.020594,-5921.647536,4213.525239
19828.431896,-2368.659014,-4219.173869,3370.820191
19828.432229,-74.020594,-7105.977043,2374.896044
19828.432562,0.000000,-5403.503377,153.219100
19828.432896,962.267725,-7772.162391,-995.924147
19828.433229,2368.659014,-9104.533087,-2834.553343
19828.433562,0.000000,-10140.821405,-5822.325785
19828.433895,-74.020594,-13175.665768,-7354.516781
19828.434228,0.000000,-13619.789333,-4060.306139
19828.434561,-370.102971,-13471.748144,-3753.867940
19828.434894,1702.473667,-10658.965565,-1149.143247
19828.435228,1776.494261,-10214.842000,4290.134789
19828.435561,3701.029710,-7994.224174,7277.907231
19828.435894,2516.700203,-6661.853478,6741.640382
19828.436227,1998.556043,-8216.285956,6358.592633
19828.436560,2886.803174,-7994.224174,7277.907231
19828.436893,-2738.761985,-5699.585753,3064.381992
19828.437227,-1258.350101,-6513.812290,-1302.362347
19828.437560,-6513.812290,-8068.244768,-2451.505594
19828.437893,-2294.638420,-10066.800811,-2757.943793
19828.438226,-2072.576638,-9918.759623,-3217.601092
19828.438559,-2368.659014,-10362.883188,-4366.744339
19828.438892,-2886.803174,-9992.780217,-5132.839837
19828.439225,-1924.535449,-11843.295072,-2604.724693
19828.439559,-74.020594,-9474.636058,-383.047749
