#time,accel_x,accel_y,accel_z
21166.748519,2812.782580,-11177.109724,-3370.820191
21166.748853,6217.729913,-11843.295072,-76.609550
21166.749187,7328.038826,-8364.327145,2451.505594
21166.749520,10362.883188,-10214.842000,5439.278036
21166.749854,9622.677246,-8956.491898,4290.134789
21166.750188,11177.109724,-8882.471304,4749.792088
21166.750521,10362.883188,-8068.244768,3294.210641
21166.750855,10066.800811,-7402.059420,383.047749
21166.751189,8808.450710,-5995.668130,-4903.011187
21166.751522,8290.306550,-10658.965565,-1608.800546
21166.751856,9400.615463,-11547.212695,-1302.362347
21166.752190,7624.121203,-9474.636058,-3677.258390
21166.752523,8216.285956,-10066.800811,-3753.867940
21166.752857,7920.203579,-11103.089130,0.000000
21166.753190,6735.874072,-10732.986159,2451.505594
21166.753524,5255.462188,-10436.903782,2068.457845
21166.753858,4737.318029,-9548.656652,2757.943793
21166.754191,6513.812290,-9104.533087,6128.763984
21166.754525,9400.615463,-8290.306550,5439.278036
21166.754859,6513.812290,-4811.338623,3677.258390
21166.755192,4737.318029,-6883.915261,4136.915689
21166.755526,6735.874072,-6513.812290,-2068.457845
21166.755860,6957.935855,-6735.874072,-1685.410096
21166.756193,7846.182985,-8068.244768,-3370.820191
21166.756527,7105.977043,-9918.759623,-4136.915689
21166.756861,7105.977043,-10732.986159,-4903.011187
21166.757194,9474.636058,-12435.459826,-1762.019645
21166.757528,10214.842000,-12139.377449,0.000000
21166.757862,10732.986159,-12361.439231,1225.752797
21166.758195,11473.192101,-12435.459826,3600.648841
21166.758529,11473.192101,-11843.295072,5745.716235
21166.758863,10584.944971,-6291.750507,2451.505594
21166.759196,10066.800811,-7179.997637,7048.078582
21166.759530,11177.109724,-6513.812290,2374.896044
21166.759864,9844.739029,-6217.729913,2757.943793
21166.760197,5921.647536,-7698.141797,-689.485948
21166.760531,4663.297435,-9474.636058,-3140.991542
21166.760864,3478.967927,-10584.944971,-3064.381992
21166.761198,5181.441594,-10066.800811,-2068.457845
21166.761532,5329.482782,-10140.821405,459.657299
21166.761865,5033.400406,-7179.997637,612.876398
21166.762199,11029.068536,-10362.883188,4519.963438
21166.762533,12953.603985,-9178.553681,4826.401637
21166.762866,11177.109724,-6957.935855,2221.676944
21166.763200,11177.109724,-8586.388927,229.828649
21166.763534,9548.656652,-8068.244768,-1302.362347
21166.763867,9548.656652,-8068.244768,-3217.601092
21166.764201,6883.915261,-11029.068536,-3983.696590
21166.764535,6439.791695,-13619.789333,-3753.867940
21166.764868,5921.647536,-12065.356855,0.000000
21166.765202,12139.377449,-11843.295072,6052.154434
21166.765536,13545.768739,-7846.182985,5822.325785
21166.765869,12435.459826,-4811.338623,4903.011187
21166.766203,13545.768739,-7254.018232,4290.134789
21166.766537,11621.233289,-6365.771101,1762.019645
21166.766870,10214.842000,-9474.636058,-612.876398
21166.767204,4293.194464,-11843.295072,-4136.915689
21166.767538,0.000000,-11325.150913,-8963.317327
21166.767871,-1184.329507,-12657.521608,-5592.497135
21166.768205,4071.132681,-13619.789333,-1608.800546
21166.768539,4663.297435,-7105.977043,0.000000
21166.768872,9770.718434,-7105.977043,6971.469032
21166.769206,8586.388927,-6291.750507,7660.954980
21166.769539,9474.636058,-6661.853478,6588.421283
21166.769873,7772.162391,-9474.636058,4136.915689
21166.770207,6809.894666,-9992.780217,2987.772442
21166.770540,4737.318029,-8364.327145,0.000000
21166.770874,5329.482782,-10955.047942,-689.485948
21166.771208,2886.803174,-8364.327145,-5515.887586
21166.771541,-666.185348,-9548.656652,-6128.763984
21166.771875,1628.453072,-11843.295072,-1302.362347
21166.772209,-1184.329507,-10732.986159,-2145.067394
21166.772542,370.102971,-9548.656652,0.000000
21166.772876,5255.462188,-6809.894666,3830.477490
21166.773210,9252.574275,-7105.977043,9116.536426
21166.773543,8438.347739,-3627.009116,7967.393179
21166.773877,9252.574275,-7031.956449,4060.306139
21166.774211,6439.791695,-12065.356855,2604.724693
21166.774544,2886.803174,-10362.883188,-689.485948
21166.774878,2886.803174,-9474.636058,-3753.867940
21166.775212,-74.020594,-8068.244768,-5975.544884
21166.775545,0.000000,-9104.533087,-5209.449386
21166.775879,-74.020594,-11251.130318,-5132.839837
21166.776213,-962.267725,-10436.903782,-3677.258390
21166.776546,444.123565,-14285.974681,2374.896044
21166.776880,74.020594,-9548.656652,3370.820191
21166.777213,4441.235652,-7624.121203,6665.030833
21166.777547,7254.018232,-5107.421000,7967.393179
21166.777881,7179.997637,-3627.009116,5362.668486
21166.778214,6439.791695,-5995.668130,2451.505594
21166.778548,4663.297435,-12435.459826,2987.772442
21166.778882,-74.020594,-14211.954086,-1608.800546
21166.779215,-4959.379811,-9548.656652,-7354.516781
21166.779549,-4737.318029,-12435.459826,-7431.126331
21166.779883,-3552.988522,-8216.285956,-6205.373534
21166.780216,-740.205942,-7994.224174,-4749.792088
21166.780550,-1480.411884,-12435.459826,229.828649
21166.780884,-2368.659014,-11325.150913,3064.381992
21166.781217,0.000000,-7179.997637,4903.011187
21166.781551,7624.121203,-8290.306550,7890.783629
21166.781885,7179.997637,-3627.009116,6281.983084
21166.782218,2960.823768,-4811.338623,7354.516781
21166.782552,3330.926739,-7179.997637,689.485948
21166.782886,1258.350101,-8216.285956,-1302.362347
21166.783219,0.000000,-11029.068536,-3370.820191
21166.783553,592.164754,-11251.130318,-3677.258390
21166.783887,-1258.350101,-10658.965565,-6205.373534
21166.784220,-4145.153275,-10881.027347,-6511.811733
21166.784554,-2442.679609,-15100.201217,-3753.867940
21166.784887,-1258.350101,-9696.697840,-2298.286494
21166.785221,2368.659014,-9474.636058,7660.954980
21166.785555,6883.915261,-8290.306550,9039.926876
21166.785888,5625.565159,-6365.771101,7201.297681
21166.786222,5847.626942,-6957.935855,6358.592633
21166.786556,3849.070898,-10362.883188,5822.325785
21166.786889,518.144159,-6809.894666,1302.362347
21166.787223,2442.679609,-11251.130318,1762.019645
21166.787557,-1850.514855,-7179.997637,-3677.258390
21166.787890,-3256.906145,-4811.338623,-7354.516781
21166.788224,-4737.318029,-12509.480420,-7431.126331
21166.788558,-3034.844362,-14211.954086,-5209.449386
21166.788891,-5255.462188,-11695.253884,-3830.477490
21166.789225,-518.144159,-11399.171507,1455.581446
21166.789559,2590.720797,-9326.594869,6894.859482
21166.789892,222.061783,-6513.812290,3753.867940
21166.790226,2590.720797,-7994.224174,4826.401637
21166.790560,1036.288319,-7624.121203,5286.058936
21166.790893,4515.256246,-6069.688724,5669.106685
21166.791227,3256.906145,-6883.915261,5132.839837
21166.791561,518.144159,-9030.512492,-383.047749
21166.791894,-4737.318029,-7624.121203,-4903.011187
21166.792228,-3627.009116,-13915.871710,-9882.631924
21166.792561,-7550.100608,-12805.562797,-8580.269578
21166.792895,-4737.318029,-11325.150913,-3524.039291
21166.793229,-74.020594,-10214.842000,0.000000
21166.793562,1480.411884,-9178.553681,4519.963438
21166.793896,2220.617826,-7105.977043,4290.134789
21166.794230,3330.926739,-9178.553681,6741.640382
21166.794563,2664.741391,-6143.709319,6128.763984
21166.794897,5329.482782,-7105.977043,7890.783629
21166.795231,4663.297435,-8882.471304,4519.963438
21166.795564,0.000000,-5403.503377,0.000000
21166.795898,-666.185348,-10658.965565,-4060.306139
21166.796232,-3775.050304,-11325.150913,-8886.707777
21166.796565,-4811.338623,-12879.583391,-7660.954980
21166.796899,-2886.803174,-11103.089130,-4213.525239
21166.797233,0.000000,-11843.295072,689.485948
21166.797566,1184.329507,-7772.162391,2451.505594
21166.797900,2368.659014,-11843.295072,4826.401637
21166.798234,3923.091493,-8660.409521,6128.763984
21166.798567,2368.659014,-7179.997637,9806.022374
21166.798901,4663.297435,-5921.647536,5439.278036
21166.799235,2664.741391,-5995.668130,3677.258390
21166.799568,-1036.288319,-7179.997637,-1838.629195
21166.799902,-1924.535449,-8364.327145,-5362.668486
21166.800235,-2590.720797,-12213.398043,-5669.106685
21166.800569,-2146.597232,-13027.624579,-3753.867940
21166.800903,-74.020594,-13027.624579,-3753.867940
21166.801236,74.020594,-10732.986159,0.000000
21166.801570,2812.782580,-9474.636058,4213.525239
21166.801904,4071.132681,-10066.800811,-1149.143247
21166.802237,4145.153275,-11621.233289,6894.859482
21166.802571,4663.297435,-7698.141797,7277.907231
21166.802905,4959.379811,-6217.729913,7124.688131
21166.803238,2812.782580,-6587.832884,3983.696590
21166.803571,-74.020594,-5625.565159,-1915.238745
21166.803905,-2738.761985,-7698.141797,-5209.449386
21166.804238,-3256.906145,-10807.006753,-3753.867940
21166.804571,-5921.647536,-9548.656652,-6358.592633
21166.804905,-4589.276840,-7772.162391,-4596.572988
21166.805238,-2146.597232,-8956.491898,-1225.752797
21166.805571,1924.535449,-9474.636058,-76.609550
21166.805905,1554.432478,-11843.295072,536.266849
21166.806238,592.164754,-10732.986159,4290.134789
21166.806571,4071.132681,-7105.977043,4519.963438
21166.806905,3552.988522,-10066.800811,5592.497135
21166.807238,3182.885551,-5403.503377,2451.505594
21166.807571,-1924.535449,-7624.121203,-1685.410096
21166.807905,-2960.823768,-10288.862594,-2451.505594
21166.808238,-2442.679609,-9696.697840,-4903.011187
21166.808571,-3182.885551,-11843.295072,-1915.238745
21166.808905,222.061783,-7105.977043,0.000000
21166.809238,-2368.659014,-7179.997637,1225.752797
21166.809571,-1184.329507,-6587.832884,0.000000
21166.809905,1110.308913,-10288.862594,842.705048
21166.810238,-370.102971,-11473.192101,1838.629195
21166.810571,0.000000,-8956.491898,766.095498
21166.810905,1110.308913,-11251.130318,2987.772442
21166.811238,592.164754,-7179.997637,0.000000
21166.811571,-74.020594,-9474.636058,-3753.867940
21166.811905,-2294.638420,-11473.192101,-1225.752797
21166.812238,-1332.370696,-11251.130318,2987.772442
21166.812571,-74.020594,-7105.977043,-76.609550
21166.812905,3108.864956,-7698.141797,3907.087040
21166.813238,2812.782580,-7328.038826,3753.867940
21166.813571,3108.864956,-5255.462188,1455.581446
21166.813905,1332.370696,-11177.109724,1378.971896
21166.814238,2960.823768,-10140.821405,2374.896044
21166.814571,2294.638420,-9770.718434,153.219100
21166.814905,1110.308913,-7772.162391,0.000000
21166.815238,-74.020594,-11843.295072,-4060.306139
21166.815571,-5403.503377,-10436.903782,-5898.935335
21166.815905,-2738.761985,-12139.377449,-2604.724693
21166.816238,-2664.741391,-7920.203579,-459.657299
21166.816571,666.185348,-6365.771101,2911.162892
21166.816905,2442.679609,-5921.647536,4826.401637
21166.817238,4071.132681,-5921.647536,4826.401637
21166.817571,592.164754,-6587.832884,2451.505594
21166.817905,1998.556043,-11251.130318,2451.505594
21166.818238,3478.967927,-11251.130318,-383.047749
21166.818571,1184.329507,-8660.409521,0.000000
21166.818905,1110.308913,-10510.924376,-842.705048
21166.819238,-2294.638420,-10955.047942,-4443.353888
21166.819571,-4441.235652,-12509.480420,-5439.278036
21166.819905,-4663.297435,-12879.583391,-2681.334243
21166.820238,-1850.514855,-10658.965565,-76.609550
21166.820571,-1110.308913,-6661.853478,2451.505594
21166.820905,1924.535449,-7031.956449,4673.182538
21166.821238,2738.761985,-4441.235652,3907.087040
21166.821571,2960.823768,-5995.668130,4903.011187
21166.821905,4663.297435,-9474.636058,3600.648841
21166.822238,740.205942,-6587.832884,-2145.067394
21166.822571,1480.411884,-11325.150913,1762.019645
21166.822905,-814.226536,-9178.553681,-4366.744339
21166.823238,-2442.679609,-9844.739029,-8580.269578
21166.823571,-2960.823768,-13915.871710,-4979.620737
21166.823905,-2368.659014,-12805.562797,-995.924147
21166.824238,1702.473667,-9474.636058,1762.019645
21166.824571,1776.494261,-9548.656652,4903.011187
21166.824905,4071.132681,-9474.636058,4826.401637
21166.825238,0.000000,-4811.338623,3677.258390
21166.825571,1184.329507,-5403.503377,4903.011187
21166.825905,4663.297435,-8882.471304,3447.429741
21166.826238,296.082377,-8068.244768,3983.696590
21166.826571,2886.803174,-7624.121203,2451.505594
21166.826905,-666.185348,-7402.059420,-1072.533697
21166.827238,-1628.453072,-9030.512492,-5592.497135
21166.827571,-4811.338623,-14063.912898,-3753.867940
21166.827905,-3923.091493,-11843.295072,-4979.620737
21166.828238,-4737.318029,-8364.327145,-919.314598
21166.828571,-888.247130,-10658.965565,2374.896044
21166.828905,-74.020594,-5625.565159,-1532.190996
21166.829238,-74.020594,-11103.089130,4213.525239
21166.829571,370.102971,-7772.162391,2451.505594
21166.829905,444.123565,-9178.553681,2834.553343
21166.830238,3849.070898,-6587.832884,4903.011187
21166.830571,4145.153275,-6291.750507,3677.258390
21166.830905,2294.638420,-5921.647536,-1072.533697
21166.831238,-2368.659014,-10732.986159,-612.876398
21166.831571,-1702.473667,-13619.789333,-3140.991542
21166.831905,-2590.720797,-9548.656652,-4290.134789
21166.832238,-1110.308913,-9992.780217,-1608.800546
21166.832571,1036.288319,-10362.883188,-76.609550
21166.832905,-2072.576638,-7476.080014,-2451.505594
21166.833238,0.000000,-10140.821405,0.000000
21166.833571,2368.659014,-9844.739029,4903.011187
21166.833905,592.164754,-5995.668130,3983.696590
21166.834238,4663.297435,-8882.471304,7277.907231
21166.834571,1702.473667,-6661.853478,1838.629195
21166.834905,-1776.494261,-4811.338623,-612.876398
21166.835238,-1332.370696,-10066.800811,-1302.362347
21166.835571,-2664.741391,-9992.780217,-383.047749
21166.835905,-1776.494261,-7772.162391,-1838.629195
21166.836238,370.102971,-10955.047942,-76.609550
21166.836571,-148.041188,-10288.862594,-766.095498
21166.836905,-3404.947333,-8364.327145,-4903.011187
21166.837238,962.267725,-11917.315666,0.000000
21166.837571,2960.823768,-11251.130318,2528.115143
21166.837905,3478.967927,-9030.512492,4443.353888
21166.838238,3552.988522,-8364.327145,7354.516781
21166.838571,888.247130,-4811.338623,0.000000
21166.838905,1184.329507,-8586.388927,2374.896044
21166.839238,-962.267725,-9548.656652,0.000000
21166.839571,-3923.091493,-7772.162391,-2834.553343
21166.839905,-2442.679609,-8290.306550,-2834.553343
21166.840238,-2072.576638,-9104.533087,-1991.848295
21166.840571,-3330.926739,-7772.162391,-3830.477490
21166.840905,-2516.700203,-9030.512492,-3600.648841
21166.841238,-666.185348,-11251.130318,-1915.238745
21166.841571,0.000000,-10436.903782,3294.210641
21166.841905,5847.626942,-11843.295072,4826.401637
21166.842238,4367.215058,-7179.997637,3677.258390
21166.842571,4737.318029,-8068.244768,4136.915689
21166.842905,4367.215058,-8142.265362,1225.752797
21166.843238,2886.803174,-11251.130318,2604.724693
21166.843571,-962.267725,-9252.574275,383.047749
21166.843905,-666.185348,-8142.265362,-1608.800546
21166.844238,-2368.659014,-8364.327145,-1532.190996
21166.844571,-2368.659014,-8660.409521,-689.485948
21166.844905,-1850.514855,-8586.388927,-3830.477490
21166.845238,-666.185348,-10362.883188,-2145.067394
21166.845571,0.000000,-9474.636058,3524.039291
21166.845905,1332.370696,-6587.832884,3677.258390
21166.846238,2886.803174,-8512.368333,3140.991542
21166.846571,1258.350101,-7031.956449,995.924147
21166.846905,592.164754,-9178.553681,-995.924147
21166.847238,0.000000,-13693.809927,1838.629195
21166.847571,-74.020594,-11843.295072,-76.609550
21166.847905,-1702.473667,-9548.656652,0.000000
21166.848238,0.000000,-8512.368333,1225.752797
21166.848571,-74.020594,-9474.636058,-1302.362347
21166.848905,-3404.947333,-10140.821405,-1225.752797
21166.849238,444.123565,-8512.368333,2221.676944
21166.849571,2590.720797,-9252.574275,4213.525239
21166.849905,5847.626942,-6217.729913,5669.106685
21166.850238,2368.659014,-10140.821405,3064.381992
21166.850571,-74.020594,-6439.791695,-3217.601092
21166.850905,-666.185348,-12583.501014,-1149.143247
21166.851238,-2072.576638,-11843.295072,-1149.143247
21166.851571,-962.267725,-7105.977043,-2221.676944
21166.851905,-1258.350101,-8660.409521,0.000000
21166.852238,592.164754,-7550.100608,-76.609550
21166.852571,-1258.350101,-9474.636058,-2528.115143
21166.852905,0.000000,-8364.327145,0.000000
21166.853238,2294.638420,-10658.965565,-76.609550
21166.853571,3478.967927,-8660.409521,4519.963438
21166.853905,5551.544565,-7031.956449,4903.011187
21166.854238,3478.967927,-9474.636058,2987.772442
21166.854571,592.164754,-7476.080014,-2145.067394
21166.854905,-74.020594,-13027.624579,-3677.258390
21166.855238,-444.123565,-13619.789333,-76.609550
21166.855571,-1998.556043,-8512.368333,-1685.410096
21166.855905,-1554.432478,-7772.162391,-1225.752797
21166.856238,-1776.494261,-5403.503377,-919.314598
21166.856571,-888.247130,-7476.080014,76.609550
21166.856905,1554.432478,-8660.409521,1532.190996
21166.857238,1998.556043,-9622.677246,2451.505594
21166.857571,4367.215058,-9474.636058,6052.154434
21166.857905,1258.350101,-7920.203579,1225.752797
21166.858238,-666.185348,-11843.295072,-2528.115143
21166.858571,-3478.967927,-7772.162391,-3064.381992
21166.858905,-518.144159,-13027.624579,-76.609550
21166.859238,-74.020594,-10362.883188,1532.190996
21166.859571,888.247130,-8586.388927,2068.457845
21166.859905,518.144159,-9770.718434,2374.896044
21166.860238,-592.164754,-6143.709319,-842.705048
21166.860571,-222.061783,-8290.306550,-2681.334243
21166.860905,0.000000,-10732.986159,1378.971896
21166.861238,1702.473667,-7698.141797,0.000000
21166.861571,0.000000,-7179.997637,3677.258390
21166.861905,4071.132681,-9474.636058,842.705048
21166.862238,1702.473667,-7698.141797,-2834.553343
21166.862571,1850.514855,-12435.459826,383.047749
21166.862905,592.164754,-11399.171507,1608.800546
21166.863238,-74.020594,-8734.430116,-76.609550
21166.863571,-962.267725,-10658.965565,536.266849
21166.863905,1110.308913,-8290.306550,-76.609550
21166.864238,-2368.659014,-5403.503377,0.000000
21166.864571,1702.473667,-10658.965565,-76.609550
21166.864904,-74.020594,-9474.636058,-2221.676944
21166.865238,-962.267725,-10140.821405,1608.800546
21166.865571,3182.885551,-8882.471304,4213.525239
21166.865904,1628.453072,-7254.018232,2374.896044
21166.866238,2146.597232,-7846.182985,459.657299
21166.866571,1406.391290,-10510.924376,1072.533697
21166.866904,1628.453072,-10658.965565,1455.581446
21166.867238,296.082377,-9548.656652,1838.629195
21166.867571,-666.185348,-10362.883188,919.314598
21166.867904,-1850.514855,-7994.224174,-2298.286494
21166.868238,-4145.153275,-7179.997637,-4290.134789
21166.868571,-1332.370696,-10658.965565,-383.047749
21166.868904,-2590.720797,-7105.977043,-1302.362347
21166.869238,0.000000,-7179.997637,4596.572988
21166.869571,3775.050304,-6513.812290,3294.210641
21166.869904,1998.556043,-6587.832884,-1225.752797
21166.870238,1110.308913,-10658.965565,-1915.238745
21166.870571,296.082377,-12731.542202,-689.485948
21166.870904,0.000000,-10436.903782,-612.876398
21166.871238,2368.659014,-9992.780217,2604.724693
21166.871571,1184.329507,-12435.459826,3600.648841
21166.871904,222.061783,-7179.997637,-1838.629195
21166.872238,-2960.823768,-9548.656652,0.000000
21166.872571,1110.308913,-11251.130318,-76.609550
21166.872904,-2368.659014,-6587.832884,0.000000
21166.873238,1702.473667,-7920.203579,2145.067394
21166.873571,2368.659014,-7105.977043,3064.381992
21166.873904,518.144159,-7179.997637,306.438199
21166.874238,-74.020594,-11843.295072,-76.609550
21166.874571,-74.020594,-14211.954086,-76.609550
21166.874904,-2368.659014,-8364.327145,612.876398
21166.875238,2368.659014,-7698.141797,2451.505594
21166.875571,1406.391290,-11843.295072,-76.609550
21166.875904,-592.164754,-8364.327145,-1072.533697
21166.876238,-2738.761985,-11325.150913,-1685.410096
21166.876571,-2146.597232,-9548.656652,-1532.190996
21166.876904,740.205942,-7772.162391,536.266849
21166.877238,888.247130,-8364.327145,2681.334243
21166.877571,4663.297435,-6217.729913,2145.067394
21166.877904,-2368.659014,-7179.997637,1225.752797
21166.878238,2294.638420,-11547.212695,-995.924147
21166.878571,296.082377,-9548.656652,612.876398
21166.878904,962.267725,-9474.636058,1762.019645
21166.879238,1184.329507,-10140.821405,0.000000
21166.879571,-1702.473667,-11695.253884,-2068.457845
21166.879904,-444.123565,-8808.450710,-2681.334243
21166.880238,592.164754,-10436.903782,2528.115143
21166.880571,592.164754,-7179.997637,1838.629195
21166.880904,1110.308913,-9178.553681,3600.648841
21166.881238,3478.967927,-7105.977043,-229.828649
21166.881571,0.000000,-8660.409521,842.705048
21166.881904,-592.164754,-9474.636058,-76.609550
21166.882238,-2072.576638,-10436.903782,-612.876398
21166.882571,-1110.308913,-8808.450710,0.000000
21166.882904,-1036.288319,-7698.141797,1915.238745
21166.883238,1776.494261,-8068.244768,1838.629195
21166.883571,814.226536,-8364.327145,0.000000
21166.883904,444.123565,-9474.636058,-2374.896044
21166.884238,148.041188,-11843.295072,-612.876398
21166.884571,-1036.288319,-9918.759623,153.219100
21166.884904,0.000000,-7772.162391,0.000000
21166.885238,2294.638420,-9474.636058,-76.609550
21166.885571,0.000000,-5995.668130,612.876398
21166.885904,3034.844362,-9918.759623,1149.143247
21166.886238,-74.020594,-12435.459826,2374.896044
21166.886571,592.164754,-8956.491898,4290.134789
21166.886904,444.123565,-8364.327145,2451.505594
21166.887238,2072.576638,-7254.018232,2068.457845
21166.887571,-2146.597232,-8660.409521,-3370.820191
21166.887904,-666.185348,-10658.965565,-1608.800546
21166.888238,-4293.194464,-9548.656652,-2451.505594
21166.888571,-1184.329507,-10140.821405,-76.609550
21166.888904,-74.020594,-8734.430116,-995.924147
21166.889238,-1776.494261,-7476.080014,612.876398
21166.889571,1702.473667,-9178.553681,-383.047749
21166.889904,1036.288319,-9622.677246,1608.800546
21166.890238,2146.597232,-10510.924376,2987.772442
21166.890571,4441.235652,-7624.121203,4136.915689
21166.890904,5699.585753,-9474.636058,4826.401637
21166.891238,592.164754,-5995.668130,2451.505594
21166.891571,1110.308913,-10658.965565,-2221.676944
21166.891904,-1258.350101,-9548.656652,-4596.572988
21166.892238,-2368.659014,-10732.986159,-612.876398
21166.892571,-962.267725,-7402.059420,-2911.162892
21166.892904,-518.144159,-7772.162391,0.000000
21166.893238,-370.102971,-7328.038826,-1225.752797
21166.893571,-74.020594,-8586.388927,-689.485948
21166.893904,0.000000,-9548.656652,0.000000
21166.894238,0.000000,-10732.986159,4826.401637
21166.894571,3775.050304,-8882.471304,3600.648841
21166.894904,1184.329507,-7179.997637,1225.752797
21166.895238,2368.659014,-8142.265362,3983.696590
21166.895571,518.144159,-8142.265362,-3447.429741
21166.895904,518.144159,-11473.192101,-383.047749
21166.896238,-666.185348,-10288.862594,-153.219100
21166.896571,-592.164754,-8808.450710,-1378.971896
21166.896904,-2664.741391,-8364.327145,-2757.943793
21166.897238,-2072.576638,-9104.533087,-2374.896044
21166.897571,-1036.288319,-10214.842000,-383.047749
21166.897904,1036.288319,-9548.656652,2145.067394
21166.898238,2886.803174,-10362.883188,4826.401637
21166.898571,3478.967927,-7698.141797,3600.648841
21166.898904,1184.329507,-7772.162391,5745.716235
21166.899238,814.226536,-8290.306550,-689.485948
21166.899571,-3256.906145,-9548.656652,-2145.067394
21166.899904,-1184.329507,-10436.903782,-1838.629195
21166.900238,-2442.679609,-9770.718434,-3370.820191
21166.900571,-148.041188,-8438.347739,-2068.457845
21166.900904,-370.102971,-11251.130318,-842.705048
21166.901238,-1258.350101,-7994.224174,-3140.991542
21166.901571,1184.329507,-9844.739029,-383.047749
21166.901904,1776.494261,-11621.233289,6052.154434
21166.902238,3775.050304,-5921.647536,2374.896044
21166.902571,4071.132681,-9474.636058,3983.696590
21166.902904,4071.132681,-7698.141797,4213.525239
21166.903238,888.247130,-5995.668130,-919.314598
21166.903571,370.102971,-12139.377449,-689.485948
21166.903904,-592.164754,-9030.512492,-2451.505594
21166.904238,-3552.988522,-10140.821405,-3524.039291
21166.904571,-74.020594,-9474.636058,-2987.772442
21166.904904,-4145.153275,-10140.821405,-1072.533697
21166.905238,-370.102971,-8290.306550,-3447.429741
21166.905571,-814.226536,-10658.965565,995.924147
21166.905904,0.000000,-8956.491898,2451.505594
21166.906238,1184.329507,-7328.038826,3907.087040
21166.906571,4515.256246,-7105.977043,4749.792088
21166.906904,2590.720797,-7994.224174,2834.553343
21166.907237,1110.308913,-8882.471304,2068.457845
21166.907571,-666.185348,-10140.821405,0.000000
21166.907904,-2590.720797,-11843.295072,-76.609550
21166.908237,-2960.823768,-5995.668130,-2145.067394
21166.908570,-1258.350101,-10214.842000,-3217.601092
21166.908903,-1480.411884,-8068.244768,-1302.362347
21166.909237,-1776.494261,-11843.295072,-2528.115143
21166.909570,-1850.514855,-13619.789333,-76.609550
21166.909903,740.205942,-8512.368333,2911.162892
21166.910236,370.102971,-8808.450710,3753.867940
21166.910570,4959.379811,-9104.533087,7277.907231
21166.910903,1702.473667,-5403.503377,612.876398
21166.911236,1184.329507,-7772.162391,0.000000
21166.911569,3404.947333,-13619.789333,2374.896044
21166.911903,-74.020594,-9474.636058,-1608.800546
21166.912236,-666.185348,-11473.192101,-1302.362347
21166.912569,-1702.473667,-8956.491898,-2145.067394
21166.912902,-3256.906145,-9696.697840,-4903.011187
21166.913235,-2590.720797,-10955.047942,-3677.258390
21166.913569,1184.329507,-11843.295072,3907.087040
21166.913902,1776.494261,-6883.915261,3830.477490
21166.914235,5625.565159,-7846.182985,6588.421283
21166.914568,4811.338623,-7328.038826,6128.763984
21166.914902,2294.638420,-5255.462188,153.219100
21166.915235,2368.659014,-8660.409521,1149.143247
21166.915568,1110.308913,-14211.954086,-1915.238745
21166.915901,-2368.659014,-8364.327145,-612.876398
21166.916234,1110.308913,-9474.636058,-1991.848295
21166.916568,1110.308913,-10658.965565,-3753.867940
21166.916901,-3552.988522,-10436.903782,-4826.401637
21166.917234,-1554.432478,-11547.212695,-2911.162892
21166.917567,0.000000,-11843.295072,1991.848295
21166.917901,2368.659014,-4811.338623,4903.011187
21166.918234,6513.812290,-7772.162391,9729.412825
21166.918567,5847.626942,-5995.668130,4903.011187
21166.918900,1776.494261,-4811.338623,3064.381992
21166.919233,3478.967927,-11251.130318,-76.609550
21166.919567,2294.638420,-9548.656652,-2145.067394
21166.919900,-1258.350101,-10214.842000,-4673.182538
21166.920233,-2294.638420,-12287.418637,-4826.401637
21166.920566,-1776.494261,-8808.450710,-5209.449386
21166.920900,-1924.535449,-12139.377449,-3064.381992
21166.921233,666.185348,-14063.912898,3600.648841
21166.921566,-962.267725,-10140.821405,2451.505594
21166.921899,2072.576638,-5403.503377,5515.887586
21166.922232,4367.215058,-8586.388927,7277.907231
21166.922566,1776.494261,-5403.503377,6128.763984
21166.922899,1702.473667,-6661.853478,1915.238745
21166.923232,-518.144159,-9178.553681,842.705048
21166.923565,-2368.659014,-9252.574275,-2068.457845
21166.923899,-4811.338623,-10658.965565,-2528.115143
21166.924232,-2442.679609,-10658.965565,-4366.744339
21166.924565,-6883.915261,-9844.739029,-7354.516781
21166.924898,-4737.318029,-11399.171507,-2834.553343
21166.925231,-4737.318029,-12805.562797,-76.609550
21166.925565,1702.473667,-7994.224174,4826.401637
21166.925898,1184.329507,-6439.791695,7048.078582
21166.926231,4071.132681,-7179.997637,8503.660028
21166.926564,1036.288319,-7031.956449,4443.353888
21166.926898,0.000000,-5699.585753,612.876398
21166.927231,518.144159,-7772.162391,0.000000
21166.927564,-296.082377,-11251.130318,-76.609550
21166.927897,-74.020594,-8290.306550,-4596.572988
21166.928230,-5921.647536,-11029.068536,-3677.258390
21166.928564,-3034.844362,-11843.295072,-4979.620737
21166.928897,-4885.359217,-11325.150913,-4749.792088
21166.929230,-1258.350101,-11843.295072,-306.438199
21166.929563,1258.350101,-8364.327145,3830.477490
21166.929897,3849.070898,-4811.338623,6128.763984
21166.930230,5847.626942,-5403.503377,5822.325785
21166.930563,4145.153275,-7624.121203,3600.648841
21166.930896,4071.132681,-9548.656652,2834.553343
21166.931229,2072.576638,-8882.471304,1455.581446
21166.931563,0.000000,-7179.997637,-2451.505594
21166.931896,-1258.350101,-9474.636058,-3753.867940
21166.932229,-3552.988522,-10140.821405,-3524.039291
21166.932562,-1258.350101,-9474.636058,-6818.249932
21166.932896,-740.205942,-14508.036463,-1302.362347
21166.933229,-3552.988522,-11029.068536,0.000000
21166.933562,1776.494261,-7476.080014,2681.334243
21166.933895,3997.112087,-7698.141797,6665.030833
21166.934228,4885.359217,-4589.276840,4979.620737
21166.934562,4737.318029,-6735.874072,3677.258390
21166.934895,4071.132681,-7772.162391,2451.505594
21166.935228,1184.329507,-8364.327145,4290.134789
21166.935561,2294.638420,-8290.306550,-1149.143247
21166.935895,-1258.350101,-8808.450710,-3600.648841
21166.936228,-3552.988522,-11473.192101,-6205.373534
21166.936561,-3108.864956,-10510.924376,-6894.859482
21166.936894,-3034.844362,-12805.562797,-2604.724693
21166.937227,-3108.864956,-11103.089130,-306.438199
21166.937561,2294.638420,-9474.636058,4826.401637
21166.937894,2738.761985,-5403.503377,6128.763984
21166.938227,4885.359217,-3923.091493,4903.011187
21166.938560,7031.956449,-8290.306550,2987.772442
21166.938894,2664.741391,-7772.162391,2451.505594
21166.939227,3997.112087,-7994.224174,2068.457845
21166.939560,2220.617826,-9548.656652,842.705048
21166.939893,666.185348,-8660.409521,-2757.943793
21166.940226,-3478.967927,-10584.944971,-7660.954980
21166.940560,-3330.926739,-11251.130318,-8197.221829
21166.940893,-7105.977043,-14285.974681,-3677.258390
21166.941226,-592.164754,-12879.583391,-1455.581446
21166.941559,3404.947333,-8364.327145,4136.915689
21166.941893,4737.318029,-5995.668130,11031.775171
21166.942226,6439.791695,-3478.967927,5592.497135
21166.942559,3923.091493,-8290.306550,4826.401637
21166.942892,2960.823768,-7179.997637,2757.943793
21166.943225,-222.061783,-8882.471304,689.485948
21166.943559,444.123565,-9474.636058,-76.609550
21166.943892,-5181.441594,-8438.347739,-5209.449386
21166.944225,-7105.977043,-11251.130318,-8350.440928
21166.944558,-5107.421000,-11251.130318,-5669.106685
21166.944892,-6513.812290,-14285.974681,-2681.334243
21166.945225,-2442.679609,-10658.965565,-689.485948
21166.945558,-1998.556043,-6439.791695,2451.505594
21166.945891,0.000000,-5995.668130,7354.516781
21166.946224,3923.091493,-5329.482782,4826.401637
21166.946558,2960.823768,-8364.327145,4903.011187
21166.946891,2960.823768,-8290.306550,4519.963438
21166.947224,1776.494261,-8660.409521,1915.238745
21166.947557,1850.514855,-7920.203579,0.000000
21166.947891,-3627.009116,-11251.130318,-5286.058936
21166.948224,-4737.318029,-11843.295072,-6818.249932
21166.948557,-6513.812290,-12509.480420,-3677.258390
21166.948890,-1258.350101,-13323.706956,-1302.362347
21166.949223,-370.102971,-7698.141797,229.828649
21166.949557,2146.597232,-10066.800811,6052.154434
21166.949890,2590.720797,-4663.297435,4290.134789
21166.950223,3478.967927,-5033.400406,3524.039291
21166.950556,3552.988522,-7920.203579,4673.182538
21166.950890,2516.700203,-5403.503377,3983.696590
21166.951223,5255.462188,-9178.553681,2987.772442
21166.951556,0.000000,-9548.656652,2451.505594
21166.951889,-74.020594,-9474.636058,-6358.592633
21166.952222,-4737.318029,-10140.821405,-9116.536426
21166.952556,-3849.070898,-13027.624579,-4519.963438
21166.952889,-2812.782580,-10807.006753,-2374.896044
21166.953222,-444.123565,-9992.780217,1762.019645
21166.953555,4071.132681,-8216.285956,5822.325785
21166.953889,4737.318029,-6957.935855,7354.516781
21166.954222,5551.544565,-5181.441594,2451.505594
21166.954555,4219.173869,-12435.459826,6052.154434
21166.954888,5255.462188,-8290.306550,4213.525239
21166.955221,0.000000,-7179.997637,3677.258390
21166.955555,2146.597232,-7624.121203,76.609550
21166.955888,-4145.153275,-10362.883188,-5056.230287
21166.956221,-4441.235652,-12805.562797,-6971.469032
21166.956554,-3849.070898,-13397.727550,-4060.306139
21166.956888,-4219.173869,-13619.789333,-3140.991542
21166.957221,-2960.823768,-7179.997637,0.000000
21166.957554,-74.020594,-9474.636058,2374.896044
21166.957887,2590.720797,-3256.906145,1149.143247
21166.958220,2368.659014,-7476.080014,7354.516781
21166.958554,4293.194464,-9548.656652,6281.983084
21166.958887,5625.565159,-7105.977043,5898.935335
21166.959220,1258.350101,-9326.594869,2757.943793
21166.959553,592.164754,-7328.038826,-1991.848295
21166.959887,-5329.482782,-10658.965565,-6818.249932
21166.960220,-3552.988522,-11029.068536,-4903.011187
21166.960553,-3701.029710,-11991.336260,-2681.334243
21166.960886,-3849.070898,-9918.759623,-1455.581446
21166.961219,0.000000,-9178.553681,1685.410096
21166.961553,1702.473667,-9474.636058,4213.525239
21166.961886,2664.741391,-5699.585753,3677.258390
21166.962219,2960.823768,-8068.244768,8503.660028
21166.962552,3478.967927,-9326.594869,2604.724693
21166.962886,2368.659014,-6291.750507,4903.011187
21166.963219,4367.215058,-8142.265362,3600.648841
21166.963552,1776.494261,-7328.038826,-383.047749
21166.963885,-2590.720797,-10807.006753,-6358.592633
21166.964219,-2368.659014,-13249.686362,-5898.935335
21166.964552,-3034.844362,-12583.501014,-4673.182538
21166.964885,0.000000,-7476.080014,-2451.505594
21166.965218,2886.803174,-13027.624579,3600.648841
21166.965551,4663.297435,-7105.977043,2068.457845
21166.965885,2664.741391,-6587.832884,4903.011187
21166.966218,4663.297435,-9474.636058,4826.401637
21166.966551,5403.503377,-7994.224174,6052.154434
21166.966884,3775.050304,-7402.059420,4826.401637
21166.967218,3256.906145,-6735.874072,1225.752797
21166.967551,-2368.659014,-5995.668130,-4903.011187
21166.967884,-7105.977043,-10732.986159,-4903.011187
21166.968217,-2442.679609,-13915.871710,-6358.592633
21166.968550,-5403.503377,-11843.295072,-4979.620737
21166.968884,-4145.153275,-9696.697840,-2451.505594
21166.969217,-1924.535449,-7179.997637,612.876398
21166.969550,888.247130,-6735.874072,1378.971896
21166.969883,3775.050304,-7698.141797,5439.278036
21166.970217,4367.215058,-8512.368333,6665.030833
21166.970550,4441.235652,-8734.430116,6665.030833
21166.970883,2516.700203,-9474.636058,7277.907231
21166.971216,2886.803174,-7105.977043,-1302.362347
21166.971549,-2960.823768,-9548.656652,-2757.943793
21166.971883,-2368.659014,-12361.439231,-4060.306139
21166.972216,-7105.977043,-15766.386565,-3524.039291
21166.972549,-6883.915261,-8586.388927,-5745.716235
21166.972882,-2294.638420,-11251.130318,306.438199
21166.973216,-2886.803174,-7550.100608,2068.457845
21166.973549,222.061783,-6365.771101,3294.210641
21166.973882,2294.638420,-6513.812290,4826.401637
21166.974215,2072.576638,-5995.668130,4213.525239
21166.974548,3552.988522,-5995.668130,7737.564530
21166.974882,4663.297435,-7698.141797,5286.058936
21166.975215,0.000000,-7179.997637,-1072.533697
21166.975548,-2442.679609,-11399.171507,-6358.592633
21166.975881,-4663.297435,-14582.057057,-7660.954980
21166.976215,-4589.276840,-13249.686362,-4979.620737
21166.976548,-3034.844362,-10510.924376,-1915.238745
21166.976881,1110.308913,-11103.089130,1149.143247
21166.977214,0.000000,-7402.059420,2298.286494
21166.977547,2368.659014,-5921.647536,3600.648841
21166.977881,3849.070898,-7105.977043,5822.325785
21166.978214,5847.626942,-7105.977043,7277.907231
21166.978547,2960.823768,-5995.668130,8350.440928
21166.978880,5847.626942,-8290.306550,3600.648841
21166.979214,1776.494261,-5995.668130,0.000000
21166.979547,-2960.823768,-9548.656652,-6435.202183
21166.979880,-2294.638420,-12657.521608,-7354.516781
21166.980213,-4219.173869,-15396.283594,-4979.620737
21166.980546,-3330.926739,-11843.295072,-3447.429741
21166.980880,-1554.432478,-10436.903782,-1378.971896
21166.981213,-3552.988522,-7179.997637,-3524.039291
21166.981546,4071.132681,-7698.141797,1762.019645
21166.981879,2886.803174,-4811.338623,4903.011187
21166.982213,7402.059420,-6217.729913,8963.317327
21166.982546,8216.285956,-7105.977043,7890.783629
21166.982879,4145.153275,-8956.491898,5822.325785
21166.983212,2442.679609,-5995.668130,-1762.019645
21166.983545,-1850.514855,-13323.706956,-4596.572988
21166.983879,-2812.782580,-13101.645173,-5439.278036
21166.984212,-4737.318029,-12805.562797,-4290.134789
21166.984545,-1258.350101,-11843.295072,-4060.306139
21166.984878,-2368.659014,-8364.327145,-2068.457845
21166.985212,-4737.318029,-7772.162391,-76.609550
21166.985545,-74.020594,-9178.553681,1762.019645
21166.985878,1628.453072,-7920.203579,6052.154434
21166.986211,2886.803174,-5847.626942,6435.202183
21166.986544,4293.194464,-4441.235652,5975.544884
21166.986878,3552.988522,-6587.832884,4366.744339
21166.987211,2294.638420,-9178.553681,-76.609550
21166.987544,-74.020594,-8438.347739,-4749.792088
21166.987877,-4589.276840,-13101.645173,-4290.134789
21166.988211,-4737.318029,-11917.315666,-5209.449386
21166.988544,-1258.350101,-12879.583391,-4979.620737
21166.988877,-740.205942,-11177.109724,-2528.115143
21166.989210,888.247130,-9474.636058,-1149.143247
21166.989543,4293.194464,-9844.739029,3217.601092
21166.989877,4293.194464,-9252.574275,7354.516781
21166.990210,7624.121203,-5921.647536,9116.536426
21166.990543,4885.359217,-5995.668130,5898.935335
21166.990876,1924.535449,-6291.750507,1838.629195
21166.991210,518.144159,-8734.430116,-1685.410096
21166.991543,-2960.823768,-9548.656652,-3370.820191
21166.991876,-3256.906145,-13101.645173,-1302.362347
21166.992209,-1554.432478,-10066.800811,-3140.991542
21166.992542,-3034.844362,-9548.656652,-4749.792088
21166.992876,-5625.565159,-9548.656652,-4443.353888
21166.993209,-3627.009116,-9474.636058,-3753.867940
21166.993542,-1924.535449,-9844.739029,536.266849
21166.993875,1554.432478,-7772.162391,4903.011187
21166.994209,3923.091493,-6143.709319,6358.592633
21166.994542,2960.823768,-9474.636058,6128.763984
21166.994875,2368.659014,-5995.668130,5822.325785
21166.995208,1110.308913,-8364.327145,-2298.286494
21166.995541,-1184.329507,-11917.315666,-2451.505594
21166.995875,-3552.988522,-10140.821405,-2528.115143
21166.996208,-3108.864956,-11029.068536,-4903.011187
21166.996541,-888.247130,-8660.409521,-76.609550
21166.996874,-3701.029710,-10066.800811,-2757.943793
21166.997208,-1332.370696,-9548.656652,-1072.533697
21166.997541,-74.020594,-9474.636058,1149.143247
21166.997874,1184.329507,-9252.574275,4826.401637
21166.998207,5551.544565,-2442.679609,3677.258390
21166.998540,2368.659014,-9252.574275,5745.716235
21166.998874,4663.297435,-9178.553681,1762.019645
21166.999207,1702.473667,-10510.924376,-76.609550
21166.999540,1110.308913,-12435.459826,-1149.143247
21166.999873,814.226536,-8808.450710,-1378.971896
21167.000207,666.185348,-11843.295072,-995.924147
21167.000540,-1480.411884,-7772.162391,-2298.286494
21167.000873,-74.020594,-9474.636058,-3140.991542
21167.001206,0.000000,-9548.656652,-2451.505594
21167.001539,1184.329507,-11325.150913,3600.648841
21167.001873,1110.308913,-7179.997637,2451.505594
21167.002206,2368.659014,-5403.503377,4060.306139
21167.002539,-592.164754,-8512.368333,2221.676944
21167.002872,1332.370696,-4219.173869,229.828649
21167.003206,592.164754,-11769.274478,1838.629195
21167.003539,1184.329507,-10140.821405,766.095498
21167.003872,-666.185348,-9178.553681,-3677.258390
21167.004205,-3256.906145,-11325.150913,-1302.362347
21167.004538,-74.020594,-12435.459826,-76.609550
21167.004872,-2442.679609,-7179.997637,-4596.572988
21167.005205,-2220.617826,-9548.656652,-919.314598
21167.005538,-1924.535449,-8142.265362,306.438199
21167.005871,2738.761985,-8586.388927,3600.648841
21167.006205,2812.782580,-8512.368333,5898.935335
21167.006538,2368.659014,-8068.244768,3064.381992
21167.006871,-666.185348,-8364.327145,-1532.190996
21167.007204,-74.020594,-11251.130318,229.828649
21167.007537,0.000000,-8882.471304,842.705048
21167.007870,0.000000,-8512.368333,383.047749
21167.008203,0.000000,-8364.327145,306.438199
21167.008536,-1850.514855,-8882.471304,-3753.867940
21167.008869,-1850.514855,-12879.583391,-1915.238745
21167.009202,-4145.153275,-8660.409521,-612.876398
21167.009535,-444.123565,-11843.295072,-76.609550
21167.009868,1184.329507,-7179.997637,4903.011187
21167.010201,2960.823768,-7179.997637,3677.258390
21167.010534,3478.967927,-7105.977043,2068.457845
21167.010867,3775.050304,-7772.162391,3294.210641
21167.011200,1036.288319,-12065.356855,3600.648841
21167.011533,2294.638420,-7994.224174,-1762.019645
21167.011866,0.000000,-10732.986159,-2451.505594
21167.012199,2886.803174,-11843.295072,-1915.238745
21167.012532,-1110.308913,-8364.327145,-3983.696590
21167.012865,1184.329507,-12361.439231,-76.609550
21167.013198,148.041188,-10807.006753,-536.266849
21167.013531,1332.370696,-8068.244768,0.000000
21167.013864,3997.112087,-9548.656652,3294.210641
21167.014197,4071.132681,-8290.306550,2374.896044
21167.014531,2294.638420,-7179.997637,0.000000
21167.014864,3108.864956,-11843.295072,4213.525239
21167.015197,1702.473667,-11251.130318,2987.772442
21167.015530,1258.350101,-5181.441594,1225.752797
21167.015863,2294.638420,-9474.636058,1149.143247
21167.016196,-2960.823768,-9030.512492,-2451.505594
21167.016529,-4367.215058,-7920.203579,-4979.620737
21167.016862,-4293.194464,-10732.986159,-3447.429741
21167.017195,-3552.988522,-7772.162391,-4136.915689
21167.017528,0.000000,-8364.327145,0.000000
21167.017861,1036.288319,-11251.130318,3600.648841
21167.018194,-740.205942,-5403.503377,153.219100
21167.018527,0.000000,-9548.656652,1225.752797
21167.018860,4663.297435,-10658.965565,2681.334243
21167.019193,2516.700203,-10214.842000,4826.401637
21167.019526,3108.864956,-6587.832884,3064.381992
21167.019859,444.123565,-12139.377449,1455.581446
21167.020192,-2812.782580,-6291.750507,-3064.381992
21167.020525,-4737.318029,-10955.047942,-3677.258390
21167.020858,-2886.803174,-11325.150913,-2298.286494
21167.021191,-3478.967927,-8142.265362,-2757.943793
21167.021524,-2294.638420,-10362.883188,1762.019645
21167.021857,2886.803174,-9326.594869,4826.401637
21167.022190,-666.185348,-5477.523971,0.000000
21167.022523,592.164754,-9548.656652,2451.505594
21167.022856,2590.720797,-11103.089130,3294.210641
21167.023190,1480.411884,-8808.450710,3830.477490
21167.023523,2368.659014,-6883.915261,3140.991542
21167.023856,888.247130,-9104.533087,306.438199
21167.024189,-1628.453072,-8808.450710,-3370.820191
21167.024522,-1850.514855,-11843.295072,-4060.306139
21167.024855,0.000000,-9548.656652,-1532.190996
21167.025188,-4515.256246,-8364.327145,-3677.258390
21167.025521,-592.164754,-8586.388927,995.924147
21167.025854,1332.370696,-9400.615463,3600.648841
21167.026187,-74.020594,-6513.812290,-76.609550
21167.026520,4663.297435,-7031.956449,2987.772442
21167.026853,2960.823768,-11177.109724,4903.011187
21167.027186,5255.462188,-6291.750507,3907.087040
21167.027519,3552.988522,-9622.677246,2528.115143
21167.027852,3478.967927,-10510.924376,-689.485948
21167.028185,-1776.494261,-10732.986159,-4903.011187
21167.028518,-74.020594,-14211.954086,-3753.867940
21167.028851,-814.226536,-9548.656652,-2451.505594
21167.029184,-2368.659014,-9548.656652,-1838.629195
21167.029517,1554.432478,-8512.368333,0.000000
21167.029850,1332.370696,-9696.697840,2757.943793
21167.030183,1776.494261,-6883.915261,2374.896044
21167.030516,2442.679609,-8438.347739,4136.915689
21167.030849,74.020594,-8142.265362,2374.896044
21167.031182,3849.070898,-5847.626942,4060.306139
21167.031515,2886.803174,-9474.636058,3600.648841
21167.031848,370.102971,-6587.832884,-1532.190996
21167.032182,0.000000,-8586.388927,-2451.505594
21167.032515,-4515.256246,-14878.139434,-4596.572988
21167.032848,-962.267725,-10658.965565,-2987.772442
21167.033181,-3552.988522,-9992.780217,-1762.019645
21167.033514,-666.185348,-8882.471304,-689.485948
21167.033847,0.000000,-8364.327145,2451.505594
21167.034180,3478.967927,-8882.471304,2374.896044
21167.034513,1184.329507,-7476.080014,6128.763984
21167.034846,1184.329507,-6069.688724,7277.907231
21167.035179,4663.297435,-7698.141797,3753.867940
21167.035512,1480.411884,-5995.668130,2757.943793
21167.035845,1036.288319,-10288.862594,-1455.581446
21167.036178,-962.267725,-8512.368333,-5439.278036
21167.036511,-740.205942,-14359.995275,-1915.238745
21167.036844,-3997.112087,-9548.656652,-4903.011187
21167.037177,814.226536,-11547.212695,-766.095498
21167.037510,-3552.988522,-11769.274478,-1532.190996
21167.037843,888.247130,-7550.100608,-1608.800546
21167.038176,3182.885551,-9474.636058,2374.896044
21167.038509,3108.864956,-9548.656652,5515.887586
21167.038842,3849.070898,-7476.080014,9806.022374
21167.039175,7031.956449,-5921.647536,7277.907231
21167.039508,1184.329507,-7179.997637,4903.011187
21167.039841,740.205942,-7254.018232,-76.609550
21167.040174,-3552.988522,-9770.718434,-4826.401637
21167.040507,-4959.379811,-10510.924376,-6205.373534
21167.040841,-3330.926739,-10436.903782,-4749.792088
21167.041174,-4071.132681,-9548.656652,-4596.572988
21167.041507,-3923.091493,-8956.491898,-2451.505594
21167.041840,-3034.844362,-9474.636058,-2528.115143
21167.042173,1110.308913,-13027.624579,2374.896044
21167.042506,444.123565,-5995.668130,4903.011187
21167.042839,4367.215058,-7105.977043,6971.469032
21167.043172,4145.153275,-6291.750507,8197.221829
21167.043505,2072.576638,-8216.285956,4060.306139
21167.043838,2146.597232,-6291.750507,76.609550
21167.044171,-2072.576638,-12213.398043,-919.314598
21167.044504,-2294.638420,-9548.656652,-4903.011187
21167.044837,-1258.350101,-9474.636058,-5592.497135
21167.045170,-3034.844362,-11029.068536,-4749.792088
21167.045503,-3997.112087,-7179.997637,-3064.381992
21167.045836,-3849.070898,-10881.027347,-3064.381992
21167.046169,1332.370696,-9992.780217,2528.115143
21167.046502,814.226536,-7179.997637,3677.258390
21167.046835,3478.967927,-6735.874072,4826.401637
21167.047168,5847.626942,-7105.977043,8197.221829
21167.047501,1776.494261,-5995.668130,4213.525239
21167.047834,4663.297435,-10658.965565,-76.609550
21167.048167,-888.247130,-9548.656652,0.000000
21167.048500,-74.020594,-11769.274478,-3677.258390
21167.048833,-962.267725,-11843.295072,-1608.800546
21167.049166,-2442.679609,-11843.295072,-5669.106685
21167.049499,-3256.906145,-11251.130318,-4060.306139
21167.049833,-444.123565,-10066.800811,-689.485948
21167.050166,1850.514855,-8956.491898,3064.381992
21167.050499,5255.462188,-9474.636058,7277.907231
21167.050832,4737.318029,-5107.421000,6435.202183
21167.051165,2368.659014,-7179.997637,8350.440928
21167.051498,4071.132681,-4737.318029,459.657299
21167.051831,3182.885551,-9474.636058,1072.533697
21167.052164,-370.102971,-10362.883188,-1915.238745
21167.052497,-1702.473667,-9030.512492,-4903.011187
21167.052830,-2368.659014,-9548.656652,-3677.258390
21167.053163,-4145.153275,-10732.986159,-4443.353888
21167.053496,-3923.091493,-11547.212695,-5745.716235
21167.053829,-3701.029710,-13027.624579,-1991.848295
21167.054162,-1258.350101,-9474.636058,1838.629195
21167.054495,1776.494261,-5847.626942,5132.839837
21167.054828,4959.379811,-4293.194464,6205.373534
21167.055161,5033.400406,-8142.265362,9729.412825
21167.055494,4663.297435,-2368.659014,1378.971896
21167.055827,592.164754,-11621.233289,1608.800546
21167.056160,-1480.411884,-12361.439231,-2221.676944
21167.056493,-1406.391290,-8882.471304,-5515.887586
21167.056826,-444.123565,-10732.986159,-3753.867940
21167.057159,-1184.329507,-11325.150913,-3140.991542
21167.057492,-3330.926739,-11177.109724,-4290.134789
21167.057825,-1776.494261,-10732.986159,0.000000
21167.058158,4071.132681,-9474.636058,4826.401637
21167.058491,4219.173869,-5921.647536,4213.525239
21167.058825,1776.494261,-8956.491898,9499.584175
21167.059158,4663.297435,-6809.894666,4826.401637
21167.059491,0.000000,-7772.162391,0.000000
21167.059824,3330.926739,-9474.636058,995.924147
21167.060157,-962.267725,-10584.944971,-1532.190996
21167.060490,-1184.329507,-9844.739029,-3064.381992
21167.060823,-444.123565,-11103.089130,-1685.410096
21167.061156,-74.020594,-13027.624579,-5286.058936
21167.061489,-2072.576638,-9548.656652,-2451.505594
21167.061822,-2368.659014,-12509.480420,3064.381992
21167.062155,3182.885551,-9178.553681,4213.525239
21167.062488,2664.741391,-6587.832884,7584.345430
21167.062821,3182.885551,-8216.285956,6205.373534
21167.063154,1258.350101,-5699.585753,2911.162892
21167.063487,592.164754,-7698.141797,1455.581446
21167.063820,814.226536,-9474.636058,995.924147
21167.064153,-1998.556043,-7994.224174,-2528.115143
21167.064486,-3552.988522,-8956.491898,-536.266849
21167.064819,-1258.350101,-10066.800811,-3140.991542
21167.065152,-2442.679609,-7920.203579,-7354.516781
21167.065485,-2960.823768,-12583.501014,-1915.238745
21167.065818,-962.267725,-11917.315666,76.609550
21167.066151,1110.308913,-8290.306550,2528.115143
21167.066484,2960.823768,-7476.080014,5209.449386
21167.066817,2886.803174,-9474.636058,5439.278036
21167.067150,2516.700203,-5699.585753,3064.381992
21167.067484,2146.597232,-9548.656652,3217.601092
21167.067817,1480.411884,-9030.512492,2298.286494
21167.068150,-2368.659014,-7179.997637,-2451.505594
21167.068483,-1776.494261,-8956.491898,153.219100
21167.068816,1702.473667,-7698.141797,-2221.676944
21167.069149,-4145.153275,-9548.656652,-7048.078582
21167.069482,-2368.659014,-11029.068536,-2911.162892
21167.069815,-4737.318029,-13101.645173,-3677.258390
21167.070148,0.000000,-8142.265362,919.314598
21167.070481,2220.617826,-7476.080014,4290.134789
21167.070814,2590.720797,-8142.265362,4979.620737
21167.071147,4959.379811,-6513.812290,4826.401637
21167.071480,1110.308913,-8364.327145,4826.401637
21167.071813,5847.626942,-7105.977043,536.266849
21167.072146,-1480.411884,-9548.656652,306.438199
21167.072479,592.164754,-11325.150913,-76.609550
21167.072812,-1702.473667,-9918.759623,-4290.134789
21167.073145,-3256.906145,-12065.356855,-6205.373534
21167.073478,-2664.741391,-12287.418637,-3217.601092
21167.073811,-1628.453072,-10658.965565,0.000000
21167.074144,3256.906145,-7624.121203,3907.087040
21167.074477,2960.823768,-7772.162391,7507.735880
21167.074810,1184.329507,-5995.668130,1225.752797
21167.075143,4145.153275,-8068.244768,5439.278036
21167.075476,2590.720797,-8364.327145,2757.943793
21167.075809,2590.720797,-7105.977043,2374.896044
21167.076142,296.082377,-9030.512492,0.000000
21167.076476,0.000000,-9622.677246,-2451.505594
21167.076809,-3997.112087,-10955.047942,-7354.516781
21167.077142,-4441.235652,-12953.603985,-5745.716235
21167.077475,-3034.844362,-14211.954086,-2528.115143
21167.077808,-2960.823768,-8364.327145,0.000000
21167.078141,0.000000,-8956.491898,7048.078582
21167.078474,4367.215058,-6513.812290,5362.668486
21167.078807,296.082377,-3627.009116,4903.011187
21167.079140,4071.132681,-5551.544565,3983.696590
21167.079473,3849.070898,-9252.574275,4673.182538
21167.079806,2960.823768,-8068.244768,2604.724693
21167.080139,740.205942,-7994.224174,-1455.581446
21167.080472,-3034.844362,-11917.315666,-5745.716235
21167.080805,-4737.318029,-11029.068536,-4979.620737
21167.081138,-5995.668130,-13027.624579,-6205.373534
21167.081471,-2442.679609,-9548.656652,-4290.134789
21167.081804,0.000000,-5995.668130,2451.505594
21167.082137,2294.638420,-9178.553681,5515.887586
21167.082470,5847.626942,-3108.864956,5898.935335
21167.082803,148.041188,-7846.182985,2987.772442
21167.083136,2812.782580,-8438.347739,3370.820191
21167.083469,1702.473667,-7550.100608,995.924147
21167.083802,962.267725,-8808.450710,-689.485948
21167.084135,-740.205942,-9400.615463,-2068.457845
21167.084468,-3997.112087,-10881.027347,-6358.592633
21167.084801,-888.247130,-10732.986159,-4060.306139
21167.085135,-1258.350101,-13323.706956,-2834.553343
21167.085468,-2368.659014,-10140.821405,-3370.820191
21167.085801,592.164754,-8956.491898,4519.963438
21167.086134,4367.215058,-8586.388927,5439.278036
21167.086467,2368.659014,-3034.844362,6128.763984
21167.086800,3849.070898,-5847.626942,3064.381992
21167.087133,3256.906145,-8438.347739,2911.162892
21167.087466,1036.288319,-8956.491898,919.314598
21167.087799,2294.638420,-9178.553681,-383.047749
21167.088132,-74.020594,-11251.130318,-4366.744339
21167.088465,-2960.823768,-11029.068536,-3140.991542
21167.088798,-1850.514855,-13323.706956,-3140.991542
21167.089131,-1554.432478,-12435.459826,-3140.991542
21167.089464,-962.267725,-10881.027347,1762.019645
21167.089797,0.000000,-8142.265362,1225.752797
21167.090130,2294.638420,-7698.141797,4366.744339
21167.090463,2368.659014,-6069.688724,3677.258390
21167.090796,1776.494261,-5995.668130,2987.772442
21167.091129,4515.256246,-7179.997637,1608.800546
21167.091462,1184.329507,-8660.409521,4673.182538
21167.091795,2886.803174,-7105.977043,0.000000
21167.092128,-666.185348,-10658.965565,-2451.505594
21167.092461,-4737.318029,-9548.656652,-5592.497135
21167.092794,-3330.926739,-13471.748144,-4366.744339
21167.093127,-4145.153275,-12879.583391,-2374.896044
21167.093460,-3108.864956,-8660.409521,0.000000
21167.093793,1702.473667,-9178.553681,4060.306139
21167.094127,592.164754,-6587.832884,4903.011187
21167.094460,2886.803174,-7105.977043,3294.210641
21167.094793,0.000000,-7476.080014,4903.011187
21167.095126,4663.297435,-7698.141797,3600.648841
21167.095459,3478.967927,-9474.636058,3064.381992
21167.095792,2442.679609,-7920.203579,-76.609550
21167.096125,-1184.329507,-11843.295072,-2528.115143
21167.096458,-3034.844362,-10510.924376,-7277.907231
21167.096791,-4145.153275,-11325.150913,-4903.011187
21167.097124,-962.267725,-13027.624579,-1302.362347
21167.097457,-2072.576638,-6291.750507,0.000000
21167.097790,0.000000,-7772.162391,3830.477490
21167.098123,3478.967927,-7698.141797,2681.334243
21167.098456,3775.050304,-5625.565159,2987.772442
21167.098789,3775.050304,-10807.006753,4519.963438
21167.099122,2960.823768,-7031.956449,3217.601092
21167.099455,3701.029710,-8364.327145,4749.792088
21167.099788,888.247130,-8364.327145,612.876398
21167.100121,814.226536,-9474.636058,-3447.429741
21167.100454,-3404.947333,-11177.109724,-5669.106685
21167.100787,-3552.988522,-13989.892304,-3830.477490
21167.101120,-3478.967927,-11473.192101,-3524.039291
21167.101453,-4293.194464,-9548.656652,-1685.410096
21167.101786,-74.020594,-8882.471304,4826.401637
21167.102119,3182.885551,-5625.565159,3600.648841
21167.102452,3108.864956,-3923.091493,5209.449386
21167.102785,4441.235652,-7994.224174,5822.325785
21167.103119,1924.535449,-7328.038826,2451.505594
21167.103452,1332.370696,-6587.832884,1685.410096
21167.103785,1110.308913,-11029.068536,-76.609550
21167.104118,-2590.720797,-10732.986159,-5822.325785
21167.104451,-4737.318029,-14285.974681,-4903.011187
21167.104784,-2442.679609,-13915.871710,-4979.620737
21167.105117,-1776.494261,-9548.656652,-2451.505594
21167.105450,592.164754,-8956.491898,4596.572988
21167.105783,2294.638420,-8882.471304,2987.772442
21167.106116,592.164754,-4367.215058,4290.134789
21167.106449,1110.308913,-7402.059420,2757.943793
21167.106782,1776.494261,-7698.141797,4979.620737
21167.107115,296.082377,-6291.750507,3064.381992
21167.107448,4071.132681,-7105.977043,2068.457845
21167.107781,2886.803174,-7698.141797,-1838.629195
21167.108114,0.000000,-10732.986159,-3140.991542
21167.108447,-74.020594,-17468.860231,-1302.362347
21167.108780,-3923.091493,-12509.480420,-4596.572988
21167.109113,-74.020594,-10436.903782,-4673.182538
21167.109446,-2368.659014,-10140.821405,3217.601092
21167.109779,4071.132681,-9030.512492,4519.963438
21167.110112,2294.638420,-5329.482782,1915.238745
21167.110446,4145.153275,-5403.503377,3983.696590
21167.110779,4071.132681,-5995.668130,3677.258390
21167.111112,4219.173869,-8290.306550,6128.763984
21167.111445,4663.297435,-9474.636058,2374.896044
21167.111778,-2960.823768,-9548.656652,-3370.820191
21167.112111,-3256.906145,-10362.883188,-7277.907231
21167.112444,-3478.967927,-13989.892304,-5669.106685
21167.112777,-2886.803174,-11917.315666,-4136.915689
21167.113110,-1184.329507,-10288.862594,76.609550
21167.113443,-148.041188,-9844.739029,2757.943793
21167.113776,0.000000,-5107.421000,2451.505594
21167.114109,2886.803174,-6809.894666,3600.648841
21167.114442,4663.297435,-5329.482782,2298.286494
21167.114775,2960.823768,-8660.409521,7277.907231
21167.115108,4663.297435,-6809.894666,3600.648841
21167.115441,2516.700203,-9104.533087,2374.896044
21167.115774,-740.205942,-9548.656652,-2911.162892
21167.116107,-2590.720797,-12139.377449,-6511.811733
21167.116440,-3849.070898,-14730.098246,-4290.134789
21167.116774,-4737.318029,-10140.821405,-2757.943793
21167.117107,-1406.391290,-9622.677246,-995.924147
21167.117440,0.000000,-8142.265362,2221.676944
21167.117773,592.164754,-6809.894666,2298.286494
21167.118106,1184.329507,-6587.832884,3677.258390
21167.118439,2294.638420,-5329.482782,2987.772442
21167.118772,296.082377,-5995.668130,5209.449386
21167.119105,2294.638420,-7698.141797,2068.457845
21167.119438,-666.185348,-8882.471304,-1378.971896
21167.119771,-1184.329507,-10584.944971,-1302.362347
21167.120104,-4589.276840,-12361.439231,-4596.572988
21167.120437,-2442.679609,-12435.459826,-3677.258390
21167.120770,-3330.926739,-9548.656652,-919.314598
21167.121103,1702.473667,-9474.636058,1762.019645
21167.121436,-2960.823768,-6291.750507,0.000000
21167.121769,0.000000,-8364.327145,919.314598
21167.122102,1998.556043,-8586.388927,766.095498
21167.122435,1184.329507,-5995.668130,4903.011187
21167.122768,4663.297435,-8290.306550,3294.210641
21167.123101,2960.823768,-10066.800811,3830.477490
21167.123435,3849.070898,-8734.430116,1915.238745
21167.123768,0.000000,-9030.512492,-2298.286494
21167.124101,518.144159,-13027.624579,-3294.210641
21167.124434,-4737.318029,-11917.315666,-306.438199
21167.124767,-666.185348,-10362.883188,-76.609550
21167.125100,1998.556043,-7994.224174,-2221.676944
21167.125433,-2368.659014,-9844.739029,612.876398
21167.125766,-1258.350101,-6291.750507,-3370.820191
21167.126099,0.000000,-8290.306550,1302.362347
21167.126432,3108.864956,-6957.935855,3907.087040
21167.126765,3552.988522,-7105.977043,4903.011187
21167.127098,2960.823768,-6291.750507,4903.011187
21167.127431,2960.823768,-9252.574275,3600.648841
21167.127764,-74.020594,-10658.965565,-3677.258390
21167.128097,-2072.576638,-12213.398043,-2451.505594
21167.128430,-2368.659014,-13101.645173,-76.609550
21167.128763,-1554.432478,-8068.244768,-3524.039291
21167.129096,-1036.288319,-9844.739029,-842.705048
21167.129429,-1110.308913,-7476.080014,-689.485948
21167.129763,740.205942,-5403.503377,612.876398
21167.130096,592.164754,-8364.327145,2451.505594
21167.130429,2738.761985,-6365.771101,3830.477490
21167.130762,1702.473667,-7846.182985,1532.190996
21167.131095,1628.453072,-9622.677246,1991.848295
21167.131428,2294.638420,-10658.965565,-76.609550
21167.131761,-74.020594,-11251.130318,-2298.286494
21167.132094,-2368.659014,-12509.480420,-153.219100
21167.132427,-1258.350101,-13027.624579,-1915.238745
21167.132760,-1850.514855,-8512.368333,-919.314598
21167.133093,-74.020594,-8364.327145,306.438199
21167.133426,-1628.453072,-7179.997637,-689.485948
21167.133759,0.000000,-7846.182985,0.000000
21167.134092,1702.473667,-7624.121203,2145.067394
21167.134425,3478.967927,-6513.812290,3294.210641
21167.134758,3997.112087,-8142.265362,2221.676944
21167.135091,2368.659014,-11029.068536,4826.401637
21167.135424,-74.020594,-8734.430116,-2834.553343
21167.135757,-666.185348,-11325.150913,-4290.134789
21167.136090,-1110.308913,-12879.583391,-1915.238745
21167.136424,-2368.659014,-8956.491898,-919.314598
21167.136757,-592.164754,-9548.656652,383.047749
21167.137090,0.000000,-7920.203579,-153.219100
21167.137423,-1776.494261,-7772.162391,0.000000
21167.137756,1110.308913,-7994.224174,229.828649
21167.138089,4071.132681,-9474.636058,6052.154434
21167.138422,1406.391290,-4811.338623,306.438199
21167.138755,4071.132681,-7624.121203,2451.505594
21167.139088,0.000000,-9548.656652,0.000000
21167.139421,0.000000,-9474.636058,-3983.696590
21167.139754,-74.020594,-14211.954086,-383.047749
21167.140087,-370.102971,-11029.068536,-919.314598
21167.140420,-74.020594,-10658.965565,-76.609550
21167.140753,-2072.576638,-8364.327145,0.000000
21167.141086,-74.020594,-7698.141797,-1302.362347
21167.141419,-2442.679609,-5107.421000,-3677.258390
21167.141752,1184.329507,-11547.212695,1762.019645
21167.142085,2294.638420,-8290.306550,3447.429741
21167.142418,3256.906145,-7698.141797,4519.963438
21167.142752,2368.659014,-7772.162391,3753.867940
21167.143085,1110.308913,-9474.636058,306.438199
21167.143418,1184.329507,-9474.636058,-1072.533697
21167.143751,0.000000,-12509.480420,2374.896044
21167.144084,-666.185348,-9548.656652,-3064.381992
21167.144417,0.000000,-9696.697840,0.000000
21167.144750,-74.020594,-11843.295072,-76.609550
21167.145083,-74.020594,-6809.894666,-689.485948
21167.145416,-1184.329507,-8882.471304,-2068.457845
21167.145749,-370.102971,-9696.697840,-842.705048
21167.146082,1406.391290,-8438.347739,1532.190996
21167.146415,4071.132681,-7624.121203,4213.525239
21167.146748,3552.988522,-8586.388927,4519.963438
21167.147081,888.247130,-9548.656652,-612.876398
21167.147414,1406.391290,-12065.356855,536.266849
21167.147747,-222.061783,-11547.212695,842.705048
21167.148080,1110.308913,-10362.883188,-995.924147
21167.148413,-1184.329507,-9844.739029,2145.067394
21167.148746,-74.020594,-9474.636058,-76.609550
21167.149079,-2960.823768,-5403.503377,0.000000
21167.149413,-962.267725,-9474.636058,689.485948
21167.149746,-74.020594,-8882.471304,842.705048
21167.150079,-666.185348,-6513.812290,1072.533697
21167.150412,1406.391290,-8364.327145,2068.457845
21167.150745,-74.020594,-9474.636058,153.219100
21167.151078,-1184.329507,-7179.997637,-2451.505594
21167.151411,0.000000,-11325.150913,1838.629195
21167.151744,1702.473667,-10658.965565,-383.047749
21167.152077,-74.020594,-8660.409521,-1532.190996
21167.152410,0.000000,-9548.656652,1915.238745
21167.152743,-666.185348,-6735.874072,-2374.896044
21167.153076,1110.308913,-6957.935855,-2374.896044
21167.153409,0.000000,-10436.903782,153.219100
21167.153742,-666.185348,-7920.203579,0.000000
21167.154075,2368.659014,-7846.182985,3677.258390
21167.154408,2368.659014,-9844.739029,7277.907231
21167.154741,1332.370696,-4811.338623,0.000000
21167.155074,592.164754,-10658.965565,1762.019645
21167.155407,1110.308913,-12731.542202,-1455.581446
21167.155741,-3552.988522,-8364.327145,0.000000
21167.156074,-296.082377,-9844.739029,0.000000
21167.156407,1036.288319,-9474.636058,1762.019645
21167.156740,-2664.741391,-7772.162391,-1225.752797
21167.157073,1110.308913,-7698.141797,-1915.238745
21167.157406,-74.020594,-12435.459826,1762.019645
21167.157739,-74.020594,-5699.585753,-2451.505594
21167.158072,1184.329507,-9844.739029,4519.963438
21167.158405,2294.638420,-9474.636058,2374.896044
21167.158738,1998.556043,-6513.812290,1149.143247
21167.159071,1850.514855,-11991.336260,689.485948
21167.159404,2516.700203,-11325.150913,2987.772442
21167.159737,-444.123565,-9474.636058,689.485948
21167.160070,1332.370696,-8068.244768,0.000000
21167.160403,-74.020594,-9770.718434,-2298.286494
21167.160736,-2368.659014,-9844.739029,-1838.629195
21167.161069,-74.020594,-10658.965565,-689.485948
21167.161402,-4219.173869,-8364.327145,-2145.067394
21167.161735,-74.020594,-9178.553681,2068.457845
21167.162068,1258.350101,-7624.121203,3677.258390
21167.162402,2368.659014,-7698.141797,3064.381992
21167.162735,888.247130,-6143.709319,-919.314598
21167.163068,0.000000,-11325.150913,0.000000
21167.163401,1110.308913,-9696.697840,459.657299
21167.163734,1628.453072,-8438.347739,612.876398
21167.164067,1258.350101,-12065.356855,1991.848295
21167.164400,-1332.370696,-10510.924376,229.828649
21167.164733,-1480.411884,-6069.688724,-2528.115143
21167.165066,3478.967927,-12731.542202,-76.609550
21167.165399,0.000000,-7772.162391,612.876398
21167.165732,1924.535449,-7105.977043,2757.943793
21167.166065,2590.720797,-9104.533087,3677.258390
21167.166398,444.123565,-7179.997637,1225.752797
21167.166731,370.102971,-7179.997637,-1378.971896
21167.167064,74.020594,-12731.542202,229.828649
21167.167397,-148.041188,-9326.594869,-229.828649
21167.167730,0.000000,-10436.903782,0.000000
21167.168063,1998.556043,-8512.368333,383.047749
21167.168396,-3552.988522,-8068.244768,1532.190996
21167.168730,-370.102971,-7994.224174,-3140.991542
21167.169063,-1258.350101,-9474.636058,-2528.115143
21167.169396,-2072.576638,-10436.903782,-76.609550
21167.169729,444.123565,-7105.977043,153.219100
21167.170062,962.267725,-9030.512492,2298.286494
21167.170395,2886.803174,-8586.388927,2221.676944
21167.170728,3182.885551,-9474.636058,1762.019645
21167.171061,1702.473667,-10732.986159,0.000000
21167.171394,2294.638420,-10658.965565,2374.896044
21167.171727,1702.473667,-9622.677246,0.000000
21167.172060,0.000000,-8364.327145,2757.943793
21167.172393,-666.185348,-9474.636058,-2221.676944
21167.172726,-1258.350101,-10066.800811,-1762.019645
21167.173059,-888.247130,-9474.636058,612.876398
21167.173392,-370.102971,-7698.141797,1149.143247
21167.173725,-74.020594,-7698.141797,842.705048
21167.174058,-3552.988522,-5995.668130,2451.505594
21167.174391,2294.638420,-7698.141797,-689.485948
21167.174724,592.164754,-5403.503377,-2451.505594
21167.175057,0.000000,-12213.398043,2911.162892
21167.175391,2886.803174,-7994.224174,459.657299
21167.175724,1480.411884,-10214.842000,1991.848295
21167.176057,-814.226536,-10732.986159,0.000000
21167.176390,370.102971,-8216.285956,-2374.896044
21167.176723,-962.267725,-13027.624579,-76.609550
21167.177056,1258.350101,-7476.080014,689.485948
21167.177389,-370.102971,-9252.574275,1378.971896
21167.177722,1110.308913,-6439.791695,2374.896044
21167.178055,0.000000,-7624.121203,2451.505594
21167.178388,1184.329507,-9474.636058,-76.609550
21167.178721,1036.288319,-8364.327145,0.000000
21167.179054,-3552.988522,-10732.986159,3370.820191
21167.179387,3478.967927,-6513.812290,-76.609550
21167.179720,0.000000,-9844.739029,306.438199
21167.180053,1554.432478,-9844.739029,76.609550
21167.180386,-814.226536,-9178.553681,-2528.115143
21167.180719,-1554.432478,-12731.542202,-1302.362347
21167.181052,-1258.350101,-9474.636058,-689.485948
21167.181385,-1924.535449,-10658.965565,2068.457845
21167.181719,-2368.659014,-5995.668130,612.876398
21167.182052,-74.020594,-9178.553681,2374.896044
21167.182385,-74.020594,-5773.606348,-1532.190996
21167.182718,2368.659014,-10288.862594,5056.230287
21167.183051,1850.514855,-9252.574275,1532.190996
21167.183384,3997.112087,-8068.244768,2911.162892
21167.183717,2368.659014,-10881.027347,3447.429741
21167.184050,814.226536,-7550.100608,-2911.162892
21167.184383,814.226536,-12435.459826,-2528.115143
21167.184716,-4737.318029,-12509.480420,0.000000
21167.185049,1110.308913,-8882.471304,-1302.362347
21167.185382,-1554.432478,-10658.965565,-689.485948
21167.185715,0.000000,-8438.347739,612.876398
21167.186048,-1184.329507,-7624.121203,1762.019645
21167.186381,888.247130,-7179.997637,1838.629195
21167.186714,1480.411884,-7994.224174,2987.772442
21167.187047,0.000000,-8660.409521,1838.629195
21167.187380,4663.297435,-6439.791695,2374.896044
21167.187713,1184.329507,-9992.780217,3983.696590
21167.188046,3478.967927,-10658.965565,-1302.362347
21167.188380,-3478.967927,-11029.068536,-3064.381992
21167.188713,-3552.988522,-11917.315666,-3677.258390
21167.189046,-1480.411884,-9400.615463,-1915.238745
21167.189379,-592.164754,-10066.800811,-536.266849
21167.189712,148.041188,-8808.450710,-76.609550
21167.190045,1110.308913,-8882.471304,-76.609550
21167.190378,592.164754,-8364.327145,3064.381992
21167.190711,3330.926739,-10658.965565,4826.401637
21167.191044,1480.411884,-4811.338623,2451.505594
21167.191377,4367.215058,-11251.130318,6052.154434
21167.191710,1554.432478,-6587.832884,1225.752797
21167.192043,0.000000,-7328.038826,-919.314598
21167.192376,-3330.926739,-9918.759623,-2987.772442
21167.192709,-2442.679609,-9770.718434,-5209.449386
21167.193042,-2442.679609,-12435.459826,-2528.115143
21167.193375,-1628.453072,-10140.821405,0.000000
21167.193708,-2516.700203,-10288.862594,-2528.115143
21167.194041,592.164754,-10140.821405,-766.095498
21167.194374,1776.494261,-11473.192101,3294.210641
21167.194708,4663.297435,-8290.306550,6665.030833
21167.195041,4737.318029,-4811.338623,5822.325785
21167.195374,2368.659014,-8660.409521,9039.926876
21167.195707,4071.132681,-7550.100608,1149.143247
21167.196040,148.041188,-7846.182985,0.000000
21167.196373,-1776.494261,-11473.192101,-1915.238745
21167.196706,-2220.617826,-11325.150913,-2451.505594
21167.197039,-2812.782580,-9844.739029,-1762.019645
21167.197372,-3108.864956,-9474.636058,-3677.258390
21167.197705,-3627.009116,-9474.636058,-3907.087040
21167.198038,-3108.864956,-8364.327145,-1838.629195
21167.198371,2294.638420,-9474.636058,5669.106685
21167.198704,4663.297435,-7105.977043,4826.401637
21167.199037,2220.617826,-6883.915261,3830.477490
21167.199370,4663.297435,-9474.636058,4826.401637
21167.199703,1628.453072,-7476.080014,2221.676944
21167.200036,814.226536,-8956.491898,-1685.410096
21167.200369,-2368.659014,-12287.418637,-2528.115143
21167.200702,-3552.988522,-9548.656652,-5515.887586
21167.201035,-4145.153275,-8364.327145,0.000000
21167.201369,1702.473667,-11251.130318,-689.485948
21167.201702,-1258.350101,-9474.636058,-2528.115143
21167.202035,-1184.329507,-8364.327145,919.314598
21167.202368,962.267725,-8364.327145,1838.629195
21167.202701,2220.617826,-7254.018232,3447.429741
21167.203034,4663.297435,-6587.832884,5362.668486
21167.203367,2664.741391,-7920.203579,3064.381992
21167.203700,3256.906145,-7772.162391,1225.752797
21167.204033,1184.329507,-11843.295072,-76.609550
21167.204366,-370.102971,-10658.965565,-4826.401637
21167.204699,-2368.659014,-9548.656652,-2681.334243
21167.205032,0.000000,-11473.192101,-76.609550
21167.205365,-74.020594,-8438.347739,-3064.381992
21167.205698,-666.185348,-10214.842000,-1915.238745
21167.206031,148.041188,-11769.274478,689.485948
21167.206364,444.123565,-8660.409521,3753.867940
21167.206698,5625.565159,-6513.812290,8273.831378
21167.207031,5033.400406,-6957.935855,7354.516781
21167.207364,3775.050304,-6883.915261,3907.087040
21167.207697,-962.267725,-8068.244768,0.000000
21167.208030,-1850.514855,-10955.047942,-2221.676944
21167.208363,-3552.988522,-8364.327145,-4213.525239
21167.208696,-4145.153275,-9548.656652,-1608.800546
21167.209029,-3034.844362,-9474.636058,-4290.134789
21167.209363,-4515.256246,-6587.832884,-6741.640382
21167.209696,-5625.565159,-12509.480420,-3064.381992
21167.210029,-222.061783,-13619.789333,3600.648841
21167.210362,666.185348,-5995.668130,3983.696590
21167.210695,4071.132681,-6513.812290,5515.887586
21167.211028,3404.947333,-8142.265362,5745.716235
21167.211361,2886.803174,-8290.306550,3600.648841
21167.211694,3034.844362,-9326.594869,3600.648841
21167.212028,4071.132681,-9474.636058,-689.485948
21167.212361,0.000000,-10140.821405,-919.314598
21167.212694,-1184.329507,-10140.821405,-2757.943793
21167.213027,-2590.720797,-12435.459826,-3753.867940
21167.213360,-3330.926739,-10955.047942,-4979.620737
21167.213693,-3034.844362,-12213.398043,-2221.676944
21167.214026,-814.226536,-9992.780217,1455.581446
21167.214359,2590.720797,-4737.318029,3600.648841
21167.214693,4737.318029,-5699.585753,10265.679673
21167.215026,5921.647536,-7179.997637,9116.536426
21167.215359,4663.297435,-4293.194464,1225.752797
21167.215692,2960.823768,-10436.903782,3064.381992
21167.216025,1998.556043,-10066.800811,-1838.629195
21167.216358,-74.020594,-9474.636058,-3830.477490
21167.216691,-888.247130,-12065.356855,-3753.867940
21167.217024,-2368.659014,-11843.295072,-4060.306139
21167.217358,-3256.906145,-7179.997637,-6741.640382
21167.217691,0.000000,-14211.954086,-76.609550
21167.218024,-74.020594,-11547.212695,2374.896044
21167.218357,3478.967927,-5477.523971,2604.724693
21167.218690,4737.318029,-7105.977043,7890.783629
21167.219023,4737.318029,-5107.421000,7048.078582
21167.219356,4219.173869,-6513.812290,2834.553343
21167.219689,3182.885551,-9104.533087,3064.381992
21167.220023,1258.350101,-7624.121203,-842.705048
21167.220356,-2072.576638,-12657.521608,-2604.724693
21167.220689,-1258.350101,-14211.954086,-4979.620737
21167.221022,-6957.935855,-10732.986159,-6741.640382
21167.221355,-4367.215058,-12435.459826,-4366.744339
21167.221688,-1258.350101,-12435.459826,-76.609550
21167.222021,-3997.112087,-9548.656652,3064.381992
21167.222354,3775.050304,-3701.029710,6281.983084
21167.222688,3404.947333,-7994.224174,9269.755526
21167.223021,3997.112087,-3627.009116,4596.572988
21167.223354,3849.070898,-8512.368333,3983.696590
21167.223687,1776.494261,-9400.615463,306.438199
21167.224020,-1184.329507,-12139.377449,-1378.971896
21167.224353,-3701.029710,-10881.027347,-4519.963438
21167.224686,-2590.720797,-11251.130318,-5286.058936
21167.225019,-4811.338623,-9548.656652,-6435.202183
21167.225353,-148.041188,-13323.706956,-1915.238745
21167.225686,-2442.679609,-15100.201217,-76.609550
21167.226019,-1258.350101,-7031.956449,919.314598
21167.226352,2886.803174,-5329.482782,6971.469032
21167.226685,4145.153275,-5551.544565,8427.050478
21167.227018,4515.256246,-2590.720797,3983.696590
21167.227351,1628.453072,-8364.327145,3370.820191
21167.227684,0.000000,-9548.656652,0.000000
21167.228018,1406.391290,-9326.594869,-3677.258390
21167.228351,-666.185348,-14211.954086,-3140.991542
21167.228684,-3256.906145,-10732.986159,-4903.011187
21167.229017,-5921.647536,-10140.821405,-5822.325785
21167.229350,-2812.782580,-12213.398043,-3677.258390
21167.229683,-1924.535449,-10140.821405,919.314598
21167.230016,518.144159,-7920.203579,3830.477490
21167.230349,5625.565159,-5255.462188,8197.221829
21167.230683,6735.874072,-7105.977043,9116.536426
21167.231016,3182.885551,-3182.885551,2451.505594
21167.231349,3478.967927,-11843.295072,1149.143247
21167.231682,0.000000,-7772.162391,0.000000
21167.232015,2738.761985,-10658.965565,-76.609550
21167.232348,1998.556043,-10807.006753,-689.485948
21167.232681,-2368.659014,-10732.986159,-5132.839837
21167.233014,-3256.906145,-12065.356855,-6971.469032
21167.233348,-2812.782580,-13471.748144,-3524.039291
21167.233681,-2442.679609,-11177.109724,-459.657299
21167.234014,592.164754,-7476.080014,5439.278036
21167.234347,3775.050304,-4811.338623,5515.887586
21167.234680,2220.617826,-3034.844362,3677.258390
21167.235013,5255.462188,-7105.977043,3907.087040
21167.235346,3478.967927,-8142.265362,2681.334243
21167.235679,4071.132681,-9474.636058,2374.896044
21167.236013,2368.659014,-10140.821405,1149.143247
21167.236346,-1628.453072,-12287.418637,-3447.429741
21167.236679,-4737.318029,-11991.336260,-7507.735880
21167.237012,-3330.926739,-14211.954086,-4979.620737
21167.237345,-4737.318029,-10732.986159,-2451.505594
21167.237678,-3404.947333,-9992.780217,0.000000
21167.238011,3478.967927,-8290.306550,3600.648841
21167.238344,666.185348,-5403.503377,6435.202183
21167.238678,4663.297435,-4441.235652,5898.935335
21167.239011,2442.679609,-5181.441594,3677.258390
21167.239344,1406.391290,-9474.636058,2145.067394
21167.239677,1850.514855,-7105.977043,229.828649
21167.240010,1702.473667,-12435.459826,-76.609550
21167.240343,-888.247130,-11843.295072,-2834.553343
21167.240676,-3182.885551,-10214.842000,-6894.859482
21167.241009,-3552.988522,-13989.892304,-4979.620737
21167.241343,-2368.659014,-9548.656652,-4596.572988
21167.241676,-1702.473667,-13027.624579,-76.609550
21167.242009,3775.050304,-5921.647536,5439.278036
21167.242342,592.164754,-5995.668130,7660.954980
21167.242675,7698.141797,-2590.720797,7277.907231
21167.243008,3478.967927,-6957.935855,1838.629195
21167.243341,6143.709319,-7994.224174,3983.696590
21167.243674,2812.782580,-6883.915261,689.485948
21167.244008,666.185348,-13619.789333,-1915.238745
21167.244341,-1776.494261,-11621.233289,-4213.525239
21167.244674,-6735.874072,-15396.283594,-8656.879127
21167.245007,-4145.153275,-11325.150913,-4903.011187
21167.245340,-5921.647536,-11917.315666,-76.609550
21167.245673,1702.473667,-7105.977043,1455.581446
21167.246006,0.000000,-5995.668130,7354.516781
21167.246340,2812.782580,-5033.400406,6511.811733
21167.246673,4441.235652,-4441.235652,5745.716235
21167.247006,1776.494261,-8808.450710,4519.963438
21167.247339,4663.297435,-8290.306550,3294.210641
21167.247672,-666.185348,-13619.789333,-76.609550
21167.248005,0.000000,-8660.409521,-1149.143247
21167.248338,-3330.926739,-13619.789333,-4979.620737
21167.248671,-74.020594,-11843.295072,-6358.592633
21167.249005,-2442.679609,-15396.283594,-1302.362347
21167.249338,-3997.112087,-9400.615463,-2221.676944
21167.249671,-3627.009116,-9992.780217,995.924147
21167.250004,888.247130,-5551.544565,4596.572988
21167.250337,1776.494261,-3627.009116,5362.668486
21167.250670,5255.462188,-2960.823768,4060.306139
21167.251003,1184.329507,-5995.668130,4903.011187
21167.251336,2886.803174,-10658.965565,1149.143247
21167.251670,2368.659014,-6809.894666,0.000000
21167.252003,-2368.659014,-12139.377449,-2528.115143
21167.252336,-592.164754,-12139.377449,-6205.373534
21167.252669,-4885.359217,-13619.789333,-7431.126331
21167.253002,-2516.700203,-14211.954086,-3983.696590
21167.253335,-1036.288319,-9326.594869,-612.876398
21167.253668,-2368.659014,-7179.997637,3064.381992
21167.254001,5255.462188,-7105.977043,7124.688131
21167.254335,4663.297435,-6513.812290,6052.154434
21167.254668,3552.988522,-4219.173869,4903.011187
21167.255001,1184.329507,-8586.388927,4826.401637
21167.255334,3330.926739,-7105.977043,3600.648841
21167.255667,1850.514855,-9770.718434,2374.896044
21167.256000,148.041188,-8808.450710,-1225.752797
21167.256333,-2812.782580,-10436.903782,-7967.393179
21167.256666,-5625.565159,-14285.974681,-6741.640382
21167.257000,-4219.173869,-14063.912898,-4596.572988
21167.257333,-3108.864956,-11029.068536,-1915.238745
21167.257666,-1184.329507,-7772.162391,1838.629195
21167.257999,0.000000,-7476.080014,3677.258390
21167.258332,1628.453072,-1480.411884,2221.676944
21167.258665,2368.659014,-5995.668130,6741.640382
21167.258998,4071.132681,-8290.306550,4519.963438
21167.259331,4367.215058,-5329.482782,4826.401637
21167.259665,2960.823768,-11843.295072,3600.648841
21167.259998,0.000000,-10732.986159,-1378.971896
21167.260331,-2590.720797,-10658.965565,-8044.002729
21167.260664,-4293.194464,-13619.789333,-7048.078582
21167.260997,-1850.514855,-13027.624579,-3753.867940
21167.261330,-4737.318029,-10732.986159,-2451.505594
21167.261663,-2368.659014,-7179.997637,2451.505594
21167.261996,962.267725,-9178.553681,3294.210641
21167.262330,1184.329507,-4811.338623,3064.381992
21167.262663,6883.915261,-5921.647536,5898.935335
21167.262996,2960.823768,-8512.368333,4596.572988
21167.263329,5181.441594,-6883.915261,3830.477490
21167.263662,3182.885551,-10510.924376,2221.676944
21167.263995,2886.803174,-9030.512492,-2374.896044
21167.264328,-2368.659014,-9548.656652,-3677.258390
21167.264661,-74.020594,-14211.954086,-3907.087040
21167.264995,-1258.350101,-14211.954086,-4979.620737
21167.265328,592.164754,-9548.656652,-1225.752797
21167.265661,-370.102971,-12583.501014,2987.772442
21167.265994,2664.741391,-2516.700203,2068.457845
21167.266327,4145.153275,-6661.853478,5592.497135
21167.266660,3404.947333,-5773.606348,6052.154434
21167.266993,5033.400406,-3034.844362,4290.134789
21167.267326,2960.823768,-10732.986159,6665.030833
21167.267660,2886.803174,-9252.574275,0.000000
21167.267993,-4737.318029,-9548.656652,-6128.763984
21167.268326,-3552.988522,-15100.201217,-4366.744339
21167.268659,-3034.844362,-10881.027347,-6665.030833
21167.268992,-3478.967927,-12657.521608,-2528.115143
21167.269325,1184.329507,-9252.574275,1685.410096
21167.269658,-1628.453072,-9252.574275,1838.629195
21167.269991,0.000000,-5403.503377,0.000000
21167.270325,2294.638420,-7698.141797,4826.401637
21167.270658,3627.009116,-6809.894666,5209.449386
21167.270991,2368.659014,-7031.956449,3983.696590
21167.271324,4663.297435,-9474.636058,4826.401637
21167.271657,-1258.350101,-9770.718434,-2451.505594
21167.271990,-2368.659014,-7179.997637,-4136.915689
21167.272323,-74.020594,-16432.571912,-1302.362347
21167.272656,-3627.009116,-12435.459826,-4903.011187
21167.272990,-1850.514855,-11843.295072,-459.657299
21167.273323,-4515.256246,-10732.986159,-2451.505594
21167.273656,-1110.308913,-7550.100608,-153.219100
21167.273989,-1702.473667,-7105.977043,919.314598
21167.274322,2072.576638,-3849.070898,4443.353888
21167.274655,3034.844362,-6365.771101,3600.648841
21167.274988,2960.823768,-8586.388927,6665.030833
21167.275321,2886.803174,-5995.668130,3064.381992
21167.275655,0.000000,-9548.656652,1532.190996
21167.275988,518.144159,-8882.471304,-4979.620737
21167.276321,-4737.318029,-14730.098246,-5056.230287
21167.276654,-3478.967927,-12287.418637,-5286.058936
21167.276987,-3182.885551,-11029.068536,-2528.115143
21167.277320,-1184.329507,-11473.192101,1225.752797
21167.277653,-74.020594,-5551.544565,-1225.752797
21167.277986,1776.494261,-10362.883188,4826.401637
21167.278320,4071.132681,-5329.482782,4749.792088
21167.278653,1480.411884,-5403.503377,6128.763984
21167.278986,4737.318029,-5107.421000,6128.763984
21167.279319,2886.803174,-8512.368333,3524.039291
21167.279652,888.247130,-8438.347739,-842.705048
21167.279985,0.000000,-9474.636058,-4213.525239
21167.280318,-2442.679609,-16580.613101,-6205.373534
21167.280651,-4737.318029,-11917.315666,-4903.011187
21167.280985,-1258.350101,-11843.295072,-3753.867940
21167.281318,2294.638420,-8882.471304,-2068.457845
21167.281651,-1628.453072,-8364.327145,-76.609550
21167.281984,4663.297435,-10658.965565,3600.648841
21167.282317,3701.029710,-7328.038826,7507.735880
21167.282650,5847.626942,-5107.421000,6971.469032
21167.282983,5403.503377,-7179.997637,5975.544884
21167.283316,3404.947333,-9178.553681,3677.258390
21167.283650,3330.926739,-9104.533087,2068.457845
21167.283983,-2442.679609,-10436.903782,-4903.011187
21167.284316,-2072.576638,-12805.562797,-4903.011187
21167.284649,-3923.091493,-14211.954086,-4979.620737
21167.284982,-666.185348,-9474.636058,-3294.210641
21167.285315,-1776.494261,-11843.295072,-76.609550
21167.285648,-3552.988522,-8216.285956,-842.705048
21167.285981,814.226536,-7105.977043,1762.019645
21167.286315,74.020594,-8734.430116,4979.620737
21167.286648,5477.523971,-3701.029710,7507.735880
21167.286981,3034.844362,-7179.997637,6128.763984
21167.287314,3108.864956,-8142.265362,2145.067394
21167.287647,444.123565,-8956.491898,-1455.581446
21167.287980,-814.226536,-11843.295072,-4060.306139
21167.288313,-1480.411884,-10584.944971,-3064.381992
21167.288647,-1258.350101,-14211.954086,-6205.373534
21167.288980,-2442.679609,-12509.480420,-2451.505594
21167.289313,-2368.659014,-10140.821405,-459.657299
21167.289646,-74.020594,-8734.430116,-1302.362347
21167.289979,3034.844362,-7698.141797,5592.497135
21167.290312,2516.700203,-5773.606348,5822.325785
21167.290645,4959.379811,-3701.029710,6052.154434
21167.290978,592.164754,-7179.997637,3983.696590
21167.291312,592.164754,-9104.533087,1608.800546
21167.291645,518.144159,-8956.491898,-2451.505594
21167.291978,-2368.659014,-11917.315666,-612.876398
21167.292311,-1850.514855,-13027.624579,-4366.744339
21167.292644,-2442.679609,-9548.656652,-4903.011187
21167.292977,-1258.350101,-11769.274478,-1991.848295
21167.293310,-1332.370696,-8512.368333,-2145.067394
21167.293643,-592.164754,-8956.491898,1532.190996
21167.293977,592.164754,-8660.409521,3983.696590
21167.294310,4441.235652,-9178.553681,7277.907231
21167.294643,2738.761985,-5107.421000,5515.887586
21167.294976,2960.823768,-6883.915261,6128.763984
21167.295309,3478.967927,-8290.306550,1149.143247
21167.295642,-2368.659014,-8956.491898,-1225.752797
21167.295975,-592.164754,-11177.109724,-3294.210641
21167.296308,-4071.132681,-13101.645173,-3600.648841
21167.296642,-2368.659014,-11325.150913,-3140.991542
21167.296975,-3034.844362,-11251.130318,-1302.362347
21167.297308,-666.185348,-9474.636058,-2528.115143
21167.297641,-666.185348,-7031.956449,-3064.381992
21167.297974,-888.247130,-9178.553681,4213.525239
21167.298307,2886.803174,-7105.977043,3600.648841
21167.298640,4071.132681,-8882.471304,7890.783629
21167.298973,1776.494261,-6883.915261,2834.553343
21167.299307,2516.700203,-7624.121203,0.000000
21167.299640,592.164754,-10140.821405,383.047749
21167.299973,0.000000,-10436.903782,0.000000
21167.300306,-74.020594,-8660.409521,-4290.134789
21167.300639,0.000000,-12879.583391,-2451.505594
21167.300972,-296.082377,-13027.624579,-76.609550
21167.301305,-370.102971,-7698.141797,-4060.306139
21167.301638,-74.020594,-11251.130318,-76.609550
21167.301972,444.123565,-8586.388927,1532.190996
21167.302305,2368.659014,-6735.874072,4519.963438
21167.302638,1628.453072,-7179.997637,4903.011187
21167.302971,1184.329507,-5107.421000,1225.752797
21167.303304,74.020594,-8142.265362,306.438199
21167.303637,1702.473667,-8512.368333,-1302.362347
21167.303970,0.000000,-11917.315666,919.314598
21167.304303,962.267725,-10658.965565,459.657299
21167.304637,0.000000,-9548.656652,0.000000
21167.304970,-666.185348,-9474.636058,-2528.115143
21167.305303,-2960.823768,-7772.162391,-3064.381992
21167.305636,-1258.350101,-11843.295072,-76.609550
21167.305969,-74.020594,-8882.471304,-76.609550
21167.306302,0.000000,-8068.244768,3370.820191
21167.306635,814.226536,-6883.915261,3064.381992
21167.306969,444.123565,-8364.327145,1302.362347
21167.307302,1850.514855,-7254.018232,1532.190996
21167.307635,0.000000,-10436.903782,1225.752797
21167.307968,-666.185348,-8068.244768,0.000000
21167.308301,-3552.988522,-7772.162391,1225.752797
21167.308634,-74.020594,-11547.212695,-1302.362347
21167.308967,-814.226536,-7254.018232,-2987.772442
21167.309301,-888.247130,-11843.295072,-1915.238745
21167.309634,-2368.659014,-8364.327145,-2451.505594
21167.309967,-74.020594,-8882.471304,-306.438199
21167.310300,2072.576638,-9326.594869,2528.115143
21167.310633,3182.885551,-9474.636058,3600.648841
21167.310966,0.000000,-7179.997637,0.000000
21167.311299,3256.906145,-10658.965565,3600.648841
21167.311633,2294.638420,-9474.636058,1762.019645
21167.311966,592.164754,-5403.503377,2451.505594
21167.312299,2294.638420,-8290.306550,-383.047749
21167.312632,370.102971,-10807.006753,-1838.629195
21167.312965,-888.247130,-8808.450710,-3447.429741
21167.313298,-222.061783,-10658.965565,-3370.820191
21167.313632,-740.205942,-9918.759623,-2987.772442
21167.313965,0.000000,-8364.327145,919.314598
21167.314298,4663.297435,-10658.965565,536.266849
21167.314631,1924.535449,-9548.656652,2451.505594
21167.314964,2368.659014,-9548.656652,3064.381992
21167.315297,4367.215058,-8290.306550,2298.286494
21167.315630,1480.411884,-9992.780217,3907.087040
21167.315964,3552.988522,-5773.606348,3217.601092
21167.316297,222.061783,-9252.574275,1225.752797
21167.316630,0.000000,-7105.977043,-2528.115143
21167.316963,-4367.215058,-10658.965565,-3907.087040
21167.317296,-4737.318029,-10288.862594,-4673.182538
21167.317629,-4293.194464,-8808.450710,-3983.696590
21167.317963,-3552.988522,-11769.274478,-459.657299
21167.318296,3478.967927,-9474.636058,3600.648841
21167.318629,-2294.638420,-6587.832884,2451.505594
21167.318962,0.000000,-7179.997637,3064.381992
21167.319295,2886.803174,-10066.800811,2834.553343
21167.319628,592.164754,-10436.903782,2451.505594
21167.319961,5847.626942,-5625.565159,4060.306139
21167.320295,-1628.453072,-12435.459826,612.876398
21167.320628,-962.267725,-9104.533087,-3830.477490
21167.320961,-4219.173869,-11547.212695,-4366.744339
21167.321294,-4737.318029,-9474.636058,-4979.620737
21167.321627,-3552.988522,-8956.491898,-76.609550
21167.321960,-666.185348,-10362.883188,1149.143247
21167.322293,1702.473667,-8142.265362,1991.848295
21167.322627,1998.556043,-7105.977043,3907.087040
21167.322960,1998.556043,-9918.759623,2451.505594
21167.323293,1554.432478,-7846.182985,3830.477490
21167.323626,1332.370696,-7920.203579,2757.943793
21167.323959,592.164754,-6291.750507,1838.629195
21167.324292,1110.308913,-11547.212695,-229.828649
21167.324626,-3552.988522,-7772.162391,-2451.505594
21167.324959,-370.102971,-11843.295072,-2528.115143
21167.325292,-1850.514855,-9474.636058,-4673.182538
21167.325625,-2368.659014,-8882.471304,-1915.238745
21167.325958,-1776.494261,-11325.150913,766.095498
21167.326291,222.061783,-8512.368333,1225.752797
21167.326624,592.164754,-8586.388927,1455.581446
21167.326958,2368.659014,-9622.677246,3064.381992
21167.327291,2294.638420,-7105.977043,1532.190996
21167.327624,5625.565159,-8586.388927,6741.640382
21167.327957,7031.956449,-9474.636058,4826.401637
21167.328290,888.247130,-7179.997637,1225.752797
21167.328623,0.000000,-9548.656652,-3064.381992
21167.328957,-2146.597232,-11029.068536,-4519.963438
21167.329290,-2294.638420,-10584.944971,-3983.696590
21167.329623,-2516.700203,-11029.068536,-2528.115143
21167.329956,-1554.432478,-11843.295072,-1608.800546
21167.330289,-2368.659014,-6587.832884,0.000000
21167.330622,4367.215058,-9474.636058,842.705048
21167.330955,2368.659014,-7772.162391,3064.381992
21167.331289,5255.462188,-8882.471304,6052.154434
21167.331622,1480.411884,-7476.080014,4903.011187
21167.331955,5477.523971,-6365.771101,4826.401637
21167.332288,296.082377,-10732.986159,-919.314598
21167.332621,1258.350101,-9104.533087,-3064.381992
21167.332954,-1776.494261,-11547.212695,-4060.306139
21167.333288,-4145.153275,-11917.315666,-4136.915689
21167.333621,1110.308913,-8586.388927,-766.095498
21167.333954,-2072.576638,-13027.624579,383.047749
21167.334287,2590.720797,-6735.874072,459.657299
21167.334620,2294.638420,-11251.130318,3907.087040
21167.334953,592.164754,-8512.368333,3677.258390
21167.335286,2368.659014,-5403.503377,8503.660028
21167.335620,2294.638420,-4293.194464,1991.848295
21167.335953,2664.741391,-8068.244768,2145.067394
21167.336286,296.082377,-10955.047942,-689.485948
21167.336619,-592.164754,-9548.656652,-4596.572988
21167.336952,-2442.679609,-12139.377449,-4213.525239
21167.337285,518.144159,-11325.150913,-2757.943793
21167.337618,-962.267725,-11399.171507,-2604.724693
21167.337952,296.082377,-9548.656652,0.000000
21167.338285,4293.194464,-10658.965565,2145.067394
21167.338618,4663.297435,-11843.295072,3600.648841
21167.338951,1184.329507,-7179.997637,3677.258390
21167.339284,3182.885551,-8882.471304,4826.401637
21167.339617,2664.741391,-5995.668130,4903.011187
21167.339951,2368.659014,-7698.141797,2834.553343
21167.340284,-1184.329507,-8216.285956,-459.657299
21167.340617,-4589.276840,-8660.409521,-4903.011187
21167.340950,-8290.306550,-9548.656652,-2145.067394
21167.341283,-2442.679609,-9474.636058,-4673.182538
21167.341616,-3627.009116,-10658.965565,-3753.867940
21167.341949,-4145.153275,-10732.986159,-383.047749
21167.342283,-1406.391290,-7550.100608,-2145.067394
21167.342616,0.000000,-9474.636058,2221.676944
21167.342949,1110.308913,-8882.471304,3907.087040
21167.343282,4071.132681,-7105.977043,6511.811733
21167.343615,4663.297435,-8808.450710,7507.735880
21167.343948,1776.494261,-8660.409521,6665.030833
21167.344282,-74.020594,-7994.224174,-2987.772442
21167.344615,-2960.823768,-9548.656652,-2451.505594
21167.344948,-2368.659014,-10436.903782,-1302.362347
21167.345281,-2960.823768,-8364.327145,-1838.629195
21167.345614,-3330.926739,-10140.821405,-2681.334243
21167.345947,-2516.700203,-9992.780217,-2451.505594
21167.346280,-1924.535449,-9696.697840,-1225.752797
21167.346614,-666.185348,-9918.759623,2374.896044
21167.346947,2146.597232,-8290.306550,2068.457845
21167.347280,1480.411884,-5995.668130,2451.505594
21167.347613,3552.988522,-7476.080014,7277.907231
21167.347946,3478.967927,-5477.523971,1685.410096
21167.348279,0.000000,-9548.656652,919.314598
21167.348612,296.082377,-9178.553681,-2068.457845
21167.348946,-1184.329507,-11029.068536,-2451.505594
21167.349279,814.226536,-10140.821405,-2681.334243
21167.349612,-1258.350101,-11251.130318,-3140.991542
21167.349945,-74.020594,-11843.295072,-2834.553343
21167.350278,1924.535449,-10288.862594,153.219100
21167.350611,-370.102971,-10214.842000,2911.162892
21167.350945,3182.885551,-5181.441594,2374.896044
21167.351278,6883.915261,-9474.636058,6052.154434
21167.351611,5921.647536,-10140.821405,9729.412825
21167.351944,4663.297435,-6365.771101,2298.286494
21167.352277,0.000000,-9844.739029,0.000000
21167.352610,-2072.576638,-9548.656652,-3370.820191
21167.352943,-3034.844362,-10214.842000,-4290.134789
21167.353277,-2368.659014,-10214.842000,-2681.334243
21167.353610,-4441.235652,-9400.615463,-4519.963438
21167.353943,-2960.823768,-9548.656652,-4136.915689
21167.354276,-1776.494261,-8364.327145,0.000000
21167.354609,2294.638420,-7698.141797,3294.210641
21167.354942,2886.803174,-6957.935855,2604.724693
21167.355276,1184.329507,-8660.409521,6358.592633
21167.355609,4663.297435,-8882.471304,4826.401637
21167.355942,592.164754,-7476.080014,1838.629195
21167.356275,-370.102971,-11473.192101,-1378.971896
21167.356608,-1554.432478,-9104.533087,-3753.867940
21167.356941,-2072.576638,-12361.439231,-2221.676944
21167.357274,0.000000,-8660.409521,0.000000
21167.357608,-370.102971,-9474.636058,-4060.306139
21167.357941,-2368.659014,-8142.265362,-3753.867940
21167.358274,0.000000,-9548.656652,3524.039291
21167.358607,1702.473667,-8290.306550,2374.896044
21167.358940,5107.421000,-6217.729913,6971.469032
21167.359273,4071.132681,-7624.121203,4826.401637
21167.359606,2960.823768,-8512.368333,2451.505594
21167.359940,1406.391290,-8660.409521,-1838.629195
21167.360273,-74.020594,-12731.542202,-3140.991542
21167.360606,-666.185348,-10140.821405,-7048.078582
21167.360939,0.000000,-12509.480420,-383.047749
21167.361272,3478.967927,-14211.954086,-76.609550
21167.361605,518.144159,-7994.224174,-3217.601092
21167.361939,2960.823768,-11843.295072,1455.581446
21167.362272,1184.329507,-9030.512492,4366.744339
21167.362605,3627.009116,-6069.688724,4903.011187
21167.362938,2590.720797,-7846.182985,5286.058936
21167.363271,3923.091493,-7994.224174,6971.469032
21167.363604,74.020594,-7105.977043,1762.019645
21167.363937,-444.123565,-8808.450710,-766.095498
21167.364271,-3849.070898,-10362.883188,-3294.210641
21167.364604,-4737.318029,-7772.162391,-4903.011187
21167.364937,-4145.153275,-11547.212695,-1455.581446
21167.365270,-2146.597232,-9474.636058,-4519.963438
21167.365603,-3034.844362,-7920.203579,-5515.887586
21167.365936,-1776.494261,-10732.986159,229.828649
21167.366270,518.144159,-8290.306550,1762.019645
21167.366603,1924.535449,-8808.450710,4979.620737
21167.366936,2812.782580,-7920.203579,5286.058936
21167.367269,2590.720797,-7624.121203,4213.525239
21167.367602,3404.947333,-9918.759623,2528.115143
21167.367935,2072.576638,-9548.656652,4213.525239
21167.368268,-1850.514855,-9104.533087,-4290.134789
21167.368602,-1776.494261,-9548.656652,-3677.258390
21167.368935,-3256.906145,-11029.068536,-1685.410096
21167.369268,-2368.659014,-10140.821405,-4903.011187
21167.369601,-1850.514855,-10436.903782,-3294.210641
21167.369934,-2442.679609,-11103.089130,-2374.896044
21167.370267,-1998.556043,-9474.636058,1149.143247
21167.370600,1110.308913,-8290.306550,6052.154434
21167.370934,2368.659014,-7031.956449,6052.154434
21167.371267,0.000000,-4811.338623,4903.011187
21167.371600,4071.132681,-9178.553681,2834.553343
21167.371933,1554.432478,-9474.636058,1149.143247
21167.372266,962.267725,-8882.471304,-76.609550
21167.372599,-148.041188,-11399.171507,-1149.143247
21167.372933,-1036.288319,-9844.739029,-2374.896044
21167.373266,-444.123565,-10881.027347,-3294.210641
21167.373599,-2072.576638,-8364.327145,-3983.696590
21167.373932,1702.473667,-12435.459826,-383.047749
21167.374265,0.000000,-5995.668130,306.438199
21167.374598,3552.988522,-8956.491898,7277.907231
21167.374931,4367.215058,-6809.894666,3294.210641
21167.375265,2516.700203,-6069.688724,3294.210641
21167.375598,2368.659014,-7846.182985,2451.505594
21167.375931,1110.308913,-10658.965565,-76.609550
21167.376264,0.000000,-8882.471304,-1532.190996
21167.376597,592.164754,-10140.821405,-1225.752797
21167.376930,-74.020594,-9178.553681,-5975.544884
21167.377264,-592.164754,-11251.130318,-3753.867940
21167.377597,-1258.350101,-13619.789333,-2528.115143
21167.377930,-2146.597232,-9844.739029,-3983.696590
21167.378263,0.000000,-8364.327145,2451.505594
21167.378596,2960.823768,-8364.327145,5898.935335
21167.378929,4737.318029,-8216.285956,5975.544884
21167.379262,3182.885551,-6735.874072,5209.449386
21167.379596,2368.659014,-6883.915261,3677.258390
21167.379929,1554.432478,-8068.244768,0.000000
21167.380262,1332.370696,-9770.718434,-76.609550
21167.380595,-2072.576638,-12361.439231,-3140.991542
21167.380928,-2664.741391,-10955.047942,-3294.210641
21167.381261,-5329.482782,-10732.986159,-4903.011187
21167.381595,-3775.050304,-10140.821405,-5515.887586
21167.381928,-5921.647536,-9548.656652,1225.752797
21167.382261,-74.020594,-8882.471304,3600.648841
21167.382594,3182.885551,-7105.977043,4826.401637
21167.382927,296.082377,-5995.668130,6128.763984
21167.383260,3034.844362,-6809.894666,4366.744339
21167.383593,370.102971,-6809.894666,2451.505594
21167.383927,888.247130,-7772.162391,766.095498
21167.384260,-222.061783,-9474.636058,-76.609550
21167.384593,-666.185348,-9918.759623,-4443.353888
21167.384926,-2368.659014,-12213.398043,-3677.258390
21167.385259,-1406.391290,-13027.624579,-3753.867940
21167.385592,-1554.432478,-10214.842000,-3524.039291
21167.385925,-1184.329507,-11843.295072,1608.800546
21167.386259,2368.659014,-6735.874072,3064.381992
21167.386592,2590.720797,-8734.430116,5286.058936
21167.386925,3478.967927,-6883.915261,2987.772442
21167.387258,3478.967927,-7698.141797,2834.553343
21167.387591,1110.308913,-5403.503377,0.000000
21167.387924,3552.988522,-8290.306550,3294.210641
21167.388258,222.061783,-7105.977043,-1915.238745
21167.388591,-1184.329507,-9548.656652,-3370.820191
21167.388924,-1850.514855,-11547.212695,-6205.373534
21167.389257,-2960.823768,-11917.315666,-6128.763984
21167.389590,-2368.659014,-11991.336260,-3447.429741
21167.389923,1184.329507,-11325.150913,1608.800546
21167.390256,2960.823768,-8364.327145,5592.497135
21167.390590,5329.482782,-6735.874072,10112.460574
21167.390923,6735.874072,-9178.553681,4213.525239
21167.391256,3849.070898,-7179.997637,3983.696590
21167.391589,1184.329507,-9252.574275,5515.887586
21167.391922,2294.638420,-8586.388927,536.266849
21167.392255,-1702.473667,-8364.327145,-2298.286494
21167.392589,-2960.823768,-11399.171507,-4213.525239
21167.392922,-3775.050304,-10140.821405,-5056.230287
21167.393255,-4737.318029,-10140.821405,-4903.011187
21167.393588,-4737.318029,-10214.842000,-3753.867940
21167.393921,-2146.597232,-9622.677246,-383.047749
21167.394254,1776.494261,-9474.636058,5439.278036
21167.394587,2738.761985,-7105.977043,4826.401637
21167.394921,2146.597232,-6513.812290,2681.334243
21167.395254,0.000000,-7476.080014,2451.505594
21167.395587,1110.308913,-11251.130318,3600.648841
21167.395920,-74.020594,-8586.388927,-689.485948
21167.396253,-74.020594,-9178.553681,-1608.800546
21167.396586,-1258.350101,-12731.542202,-4366.744339
21167.396919,-2442.679609,-11103.089130,-4136.915689
21167.397253,-2812.782580,-11621.233289,-1685.410096
21167.397586,-4145.153275,-9696.697840,-1225.752797
21167.397919,2294.638420,-9030.512492,3294.210641
21167.398252,3997.112087,-10066.800811,7890.783629
21167.398585,4663.297435,-5921.647536,4596.572988
21167.398918,2368.659014,-6587.832884,2451.505594
21167.399252,1184.329507,-7179.997637,1838.629195
21167.399585,2960.823768,-9474.636058,3294.210641
21167.399918,1110.308913,-9548.656652,459.657299
21167.400251,-518.144159,-11547.212695,-2451.505594
21167.400584,-2516.700203,-12139.377449,-4673.182538
21167.400917,-2442.679609,-13619.789333,-2528.115143
21167.401250,-3552.988522,-8364.327145,-1225.752797
21167.401584,-3552.988522,-8660.409521,1991.848295
21167.401917,3478.967927,-5921.647536,3294.210641
21167.402250,0.000000,-4811.338623,3677.258390
21167.402583,5255.462188,-5625.565159,3600.648841
21167.402916,2516.700203,-8068.244768,1762.019645
21167.403249,1184.329507,-8734.430116,-76.609550
21167.403583,1184.329507,-10140.821405,-612.876398
21167.403916,222.061783,-9696.697840,-2604.724693
21167.404249,0.000000,-12361.439231,-4290.134789
21167.404582,-2442.679609,-12065.356855,-6741.640382
21167.404915,-1258.350101,-10732.986159,-6435.202183
21167.405248,-592.164754,-11399.171507,-76.609550
21167.405581,518.144159,-8438.347739,3677.258390
21167.405915,3849.070898,-5403.503377,6052.154434
21167.406248,4885.359217,-5625.565159,5669.106685
21167.406581,4663.297435,-6217.729913,4979.620737
21167.406914,3108.864956,-7179.997637,3064.381992
21167.407247,2294.638420,-13027.624579,2374.896044
21167.407580,-74.020594,-8068.244768,-2451.505594
21167.407913,-2960.823768,-12805.562797,-2451.505594
21167.408247,-666.185348,-10658.965565,-3753.867940
21167.408580,-3552.988522,-10288.862594,-5515.887586
21167.408913,-2738.761985,-12287.418637,-2911.162892
21167.409246,-740.205942,-10362.883188,153.219100
21167.409579,-2960.823768,-9030.512492,2834.553343
21167.409912,3552.988522,-6291.750507,3983.696590
21167.410245,3775.050304,-7105.977043,6128.763984
21167.410579,2368.659014,-5403.503377,2451.505594
21167.410912,1702.473667,-7994.224174,229.828649
21167.411245,222.061783,-10066.800811,-1915.238745
21167.411578,0.000000,-7920.203579,306.438199
21167.411911,2812.782580,-12435.459826,2987.772442
21167.412244,296.082377,-7179.997637,-4903.011187
21167.412577,-3256.906145,-12065.356855,-3830.477490
21167.412911,-3627.009116,-10658.965565,-3753.867940
21167.413244,-2738.761985,-9548.656652,-766.095498
21167.413577,-1702.473667,-7105.977043,2145.067394
21167.413910,0.000000,-7254.018232,2451.505594
21167.414243,0.000000,-5995.668130,1225.752797
21167.414576,2886.803174,-6661.853478,612.876398
21167.414909,4071.132681,-9474.636058,1762.019645
21167.415243,148.041188,-7772.162391,1225.752797
21167.415576,592.164754,-9548.656652,2374.896044
21167.415909,444.123565,-10732.986159,-1532.190996
21167.416242,0.000000,-11029.068536,-2987.772442
21167.416575,296.082377,-10140.821405,-2911.162892
21167.416908,-2072.576638,-9844.739029,-1225.752797
21167.417241,2294.638420,-9474.636058,1149.143247
21167.417574,0.000000,-8364.327145,0.000000
21167.417908,4663.297435,-11843.295072,2374.896044
21167.418241,2294.638420,-7179.997637,0.000000
21167.418574,4367.215058,-10658.965565,4519.963438
21167.418907,3923.091493,-9178.553681,2451.505594
21167.419240,2960.823768,-9030.512492,3294.210641
21167.419573,1628.453072,-9326.594869,2374.896044
21167.419906,888.247130,-8956.491898,-76.609550
21167.420240,-1554.432478,-11251.130318,-4366.744339
21167.420573,-3552.988522,-8364.327145,-2451.505594
21167.420906,-4219.173869,-9548.656652,-3370.820191
21167.421239,-4737.318029,-7179.997637,0.000000
21167.421572,-74.020594,-8290.306550,1149.143247
21167.421905,-2442.679609,-7402.059420,383.047749
21167.422238,3478.967927,-7105.977043,1762.019645
21167.422572,0.000000,-8142.265362,2604.724693
21167.422905,1184.329507,-8364.327145,1225.752797
21167.423238,2072.576638,-9252.574275,2604.724693
21167.423571,3775.050304,-11251.130318,3600.648841
21167.423904,0.000000,-9548.656652,0.000000
21167.424237,-74.020594,-13027.624579,-2528.115143
21167.424570,-1258.350101,-14211.954086,-4519.963438
21167.424904,-5403.503377,-10140.821405,-2068.457845
21167.425237,-1258.350101,-9474.636058,1762.019645
21167.425570,-2368.659014,-6957.935855,2987.772442
21167.425903,1110.308913,-5625.565159,2834.553343
21167.426236,962.267725,-5255.462188,3830.477490
21167.426569,2294.638420,-6809.894666,1455.581446
21167.426902,0.000000,-8512.368333,383.047749
21167.427236,740.205942,-9918.759623,76.609550
21167.427569,-74.020594,-10955.047942,-2145.067394
21167.427902,0.000000,-9548.656652,-4596.572988
21167.428235,-74.020594,-14211.954086,-4366.744339
21167.428568,-2664.741391,-9918.759623,-5362.668486
21167.428901,-1184.329507,-11917.315666,2374.896044
21167.429234,2886.803174,-8142.265362,2374.896044
21167.429568,4071.132681,-7550.100608,2451.505594
21167.429901,4219.173869,-7105.977043,5286.058936
21167.430234,3701.029710,-6291.750507,3983.696590
21167.430567,2368.659014,-6957.935855,2834.553343
21167.430900,2664.741391,-7772.162391,2757.943793
21167.431233,3701.029710,-11843.295072,2374.896044
21167.431566,518.144159,-9548.656652,-2451.505594
21167.431900,-3552.988522,-11621.233289,-3677.258390
21167.432233,-4219.173869,-13767.830521,-5132.839837
21167.432566,-5255.462188,-9548.656652,-4903.011187
21167.432899,-2146.597232,-10658.965565,-766.095498
21167.433232,-666.185348,-7994.224174,2681.334243
21167.433565,-592.164754,-5995.668130,3907.087040
21167.433898,-74.020594,-5329.482782,2987.772442
21167.434232,4071.132681,-9474.636058,2987.772442
21167.434565,592.164754,-6587.832884,3677.258390
21167.434898,2886.803174,-11251.130318,-76.609550
21167.435231,2886.803174,-11325.150913,-1762.019645
21167.435564,592.164754,-10732.986159,-1608.800546
21167.435897,1184.329507,-12065.356855,-3524.039291
21167.436230,1776.494261,-12879.583391,-1608.800546
21167.436563,0.000000,-11695.253884,-2298.286494
21167.436897,0.000000,-11473.192101,2681.334243
21167.437230,2886.803174,-6513.812290,3294.210641
21167.437563,-296.082377,-5551.544565,2451.505594
21167.437896,592.164754,-7105.977043,4060.306139
21167.438229,-666.185348,-5921.647536,-76.609550
21167.438562,-1554.432478,-7994.224174,2374.896044
21167.438895,0.000000,-8364.327145,1685.410096
21167.439229,-1110.308913,-9252.574275,0.000000
21167.439562,-666.185348,-10066.800811,-3140.991542
21167.439895,-3256.906145,-10140.821405,-4290.134789
21167.440228,-5107.421000,-10436.903782,-5822.325785
21167.440561,-1850.514855,-11843.295072,-612.876398
21167.440894,3182.885551,-11843.295072,3600.648841
21167.441227,2368.659014,-7179.997637,4903.011187
21167.441561,2886.803174,-8290.306550,4826.401637
21167.441894,3108.864956,-6883.915261,3983.696590
21167.442227,2590.720797,-7402.059420,3064.381992
21167.442560,3775.050304,-7550.100608,2451.505594
21167.442893,1480.411884,-10436.903782,306.438199
21167.443226,0.000000,-9548.656652,-1532.190996
21167.443559,-592.164754,-10584.944971,-3524.039291
21167.443893,-1110.308913,-11325.150913,-3677.258390
21167.444226,-2442.679609,-11843.295072,-3217.601092
21167.444559,-3552.988522,-9548.656652,-2451.505594
21167.444892,-74.020594,-9474.636058,-76.609550
21167.445225,-74.020594,-6291.750507,919.314598
21167.445558,1184.329507,-6809.894666,3677.258390
21167.445891,2886.803174,-5921.647536,3600.648841
21167.446225,888.247130,-7476.080014,4136.915689
21167.446558,2886.803174,-8142.265362,2451.505594
21167.446891,1850.514855,-10436.903782,995.924147
21167.447224,2072.576638,-10807.006753,-1302.362347
21167.447557,1850.514855,-11843.295072,-383.047749
21167.447890,-444.123565,-10140.821405,-3677.258390
21167.448223,-2960.823768,-11917.315666,-1838.629195
21167.448557,-74.020594,-11251.130318,-76.609550
21167.448890,-2072.576638,-6291.750507,0.000000
21167.449223,1110.308913,-8882.471304,2068.457845
21167.449556,0.000000,-7328.038826,2068.457845
21167.449889,-1480.411884,-7105.977043,1378.971896
21167.450222,888.247130,-5699.585753,1455.581446
21167.450555,-74.020594,-9178.553681,2374.896044
21167.450889,-2368.659014,-9548.656652,1838.629195
21167.451222,814.226536,-9474.636058,-76.609550
21167.451555,-74.020594,-12435.459826,-2528.115143
21167.451888,-2072.576638,-9548.656652,-2451.505594
21167.452221,-1628.453072,-10362.883188,-1991.848295
21167.452554,444.123565,-9918.759623,383.047749
21167.452887,-222.061783,-9770.718434,2604.724693
21167.453221,74.020594,-9030.512492,919.314598
21167.453554,-1776.494261,-5995.668130,0.000000
21167.453887,-4145.153275,-8364.327145,2145.067394
21167.454220,3478.967927,-6365.771101,1072.533697
21167.454553,2960.823768,-9548.656652,4903.011187
21167.454886,4737.318029,-9400.615463,5056.230287
21167.455219,2886.803174,-7476.080014,612.876398
21167.455553,2294.638420,-9474.636058,-383.047749
21167.455886,592.164754,-9844.739029,-1149.143247
21167.456219,-2886.803174,-11399.171507,-3140.991542
21167.456552,-2072.576638,-7179.997637,-3753.867940
21167.456885,-3182.885551,-11029.068536,-1149.143247
21167.457218,-1406.391290,-9104.533087,-2298.286494
21167.457551,-1998.556043,-8364.327145,-459.657299
21167.457884,-74.020594,-9474.636058,1685.410096
21167.458218,3478.967927,-5625.565159,1225.752797
21167.458551,2960.823768,-8956.491898,6665.030833
21167.458884,4663.297435,-11251.130318,2987.772442
21167.459217,3849.070898,-6587.832884,1838.629195
21167.459550,2368.659014,-11843.295072,612.876398
21167.459883,2590.720797,-7994.224174,-2451.505594
21167.460216,-1850.514855,-13841.851115,-2987.772442
21167.460550,-1480.411884,-11399.171507,-3370.820191
21167.460883,-1850.514855,-12435.459826,-2528.115143
21167.461216,-962.267725,-10658.965565,-1915.238745
21167.461549,-3552.988522,-7179.997637,1378.971896
21167.461882,-814.226536,-9178.553681,3600.648841
21167.462215,4663.297435,-5329.482782,3294.210641
21167.462548,2294.638420,-7994.224174,5745.716235
21167.462882,2812.782580,-6291.750507,2604.724693
21167.463215,518.144159,-9548.656652,0.000000
21167.463548,296.082377,-9918.759623,-1608.800546
21167.463881,-2368.659014,-8364.327145,-3064.381992
21167.464214,-74.020594,-13027.624579,-2068.457845
21167.464547,0.000000,-11325.150913,2374.896044
21167.464880,-1258.350101,-11843.295072,-383.047749
21167.465214,0.000000,-7994.224174,-1608.800546
21167.465547,-4589.276840,-7328.038826,0.000000
21167.465880,0.000000,-5699.585753,1685.410096
21167.466213,2516.700203,-5181.441594,4903.011187
21167.466546,3478.967927,-7402.059420,4979.620737
21167.466879,4367.215058,-7994.224174,3907.087040
21167.467212,1110.308913,-8068.244768,-1532.190996
21167.467546,-962.267725,-11251.130318,-1302.362347
21167.467879,-370.102971,-8882.471304,-4213.525239
21167.468212,-1776.494261,-11917.315666,-766.095498
21167.468545,888.247130,-9992.780217,919.314598
21167.468878,-1258.350101,-11029.068536,-2528.115143
21167.469211,740.205942,-10807.006753,536.266849
21167.469544,-666.185348,-7994.224174,229.828649
21167.469878,3330.926739,-7105.977043,2987.772442
21167.470211,592.164754,-8364.327145,7967.393179
21167.470544,5551.544565,-6513.812290,2528.115143
21167.470877,1184.329507,-7179.997637,-2451.505594
21167.471210,592.164754,-10436.903782,536.266849
21167.471543,296.082377,-11843.295072,1149.143247
21167.471876,-1480.411884,-9474.636058,-995.924147
21167.472210,-962.267725,-9918.759623,-2221.676944
21167.472543,-3701.029710,-10658.965565,-2681.334243
21167.472876,-2368.659014,-11251.130318,-1302.362347
21167.473209,-5625.565159,-8956.491898,689.485948
21167.473542,-2220.617826,-5255.462188,153.219100
21167.473875,888.247130,-8290.306550,4673.182538
21167.474208,4293.194464,-6143.709319,5592.497135
21167.474542,4663.297435,-7698.141797,3294.210641
21167.474875,-1776.494261,-10140.821405,-919.314598
21167.475208,4071.132681,-13027.624579,-76.609550
21167.475541,-3034.844362,-11325.150913,-3677.258390
21167.475874,1776.494261,-10214.842000,-76.609550
21167.476207,-74.020594,-11843.295072,-2528.115143
21167.476540,-1036.288319,-10436.903782,-3294.210641
21167.476873,962.267725,-10140.821405,536.266849
21167.477207,1110.308913,-7254.018232,689.485948
21167.477540,-814.226536,-7772.162391,229.828649
21167.477873,1184.329507,-5995.668130,3677.258390
21167.478206,3182.885551,-10066.800811,4213.525239
21167.478539,3478.967927,-5255.462188,2451.505594
21167.478872,2664.741391,-8068.244768,2451.505594
21167.479205,-74.020594,-11251.130318,-2528.115143
21167.479539,-1110.308913,-9474.636058,-1225.752797
21167.479872,-3182.885551,-9770.718434,-1915.238745
21167.480205,-1332.370696,-10584.944971,-1608.800546
21167.480538,-2368.659014,-8364.327145,-2451.505594
21167.480871,0.000000,-9548.656652,3294.210641
21167.481204,-1850.514855,-7105.977043,-2298.286494
21167.481537,-2368.659014,-4811.338623,-2451.505594
21167.481871,592.164754,-9696.697840,2987.772442
21167.482204,296.082377,-7179.997637,3064.381992
21167.482537,3775.050304,-8142.265362,2374.896044
21167.482870,592.164754,-11325.150913,1532.190996
21167.483203,296.082377,-8882.471304,1149.143247
21167.483536,-74.020594,-9474.636058,1149.143247
21167.483869,2072.576638,-11251.130318,3600.648841
21167.484203,-74.020594,-8364.327145,-3370.820191
21167.484536,-2072.576638,-9992.780217,-1378.971896
21167.484869,-444.123565,-11695.253884,-76.609550
21167.485202,-888.247130,-8512.368333,-1149.143247
21167.485535,-1406.391290,-9400.615463,995.924147
21167.485868,1110.308913,-7994.224174,1915.238745
21167.486201,1332.370696,-7920.203579,1915.238745
21167.486535,0.000000,-7994.224174,842.705048
21167.486868,2294.638420,-10066.800811,-689.485948
21167.487201,0.000000,-8364.327145,0.000000
21167.487534,2960.823768,-11103.089130,3600.648841
21167.487867,1998.556043,-8586.388927,2221.676944
21167.488200,1776.494261,-9548.656652,1225.752797
21167.488533,814.226536,-8956.491898,-1838.629195
21167.488867,-2368.659014,-11177.109724,-2145.067394
21167.489200,74.020594,-8438.347739,-1455.581446
21167.489533,-1776.494261,-9104.533087,153.219100
21167.489866,1702.473667,-7698.141797,0.000000
21167.490199,4145.153275,-7476.080014,1762.019645
21167.490532,4959.379811,-8956.491898,2374.896044
21167.490865,3552.988522,-10584.944971,2221.676944
21167.491199,1702.473667,-8882.471304,2374.896044
21167.491532,3478.967927,-12435.459826,3600.648841
21167.491865,1184.329507,-4811.338623,1838.629195
21167.492198,814.226536,-11843.295072,-76.609550
21167.492531,0.000000,-7772.162391,-3677.258390
21167.492864,-5477.523971,-9548.656652,-4903.011187
21167.493197,-3330.926739,-10807.006753,-3677.258390
21167.493531,-222.061783,-9326.594869,919.314598
21167.493864,-1332.370696,-10066.800811,306.438199
21167.494197,2368.659014,-7179.997637,612.876398
21167.494530,3478.967927,-8586.388927,1762.019645
21167.494863,1480.411884,-5995.668130,2451.505594
21167.495196,4663.297435,-9474.636058,4213.525239
21167.495529,4071.132681,-8068.244768,2987.772442
21167.495862,1332.370696,-10140.821405,2528.115143
21167.496196,222.061783,-10881.027347,-1225.752797
21167.496529,-2146.597232,-11473.192101,-3447.429741
21167.496862,-4811.338623,-9474.636058,-4366.744339
21167.497195,-2220.617826,-9252.574275,-153.219100
21167.497528,-3034.844362,-9030.512492,-3064.381992
21167.497861,-4589.276840,-9696.697840,0.000000
21167.498194,-74.020594,-8290.306550,-76.609550
21167.498528,-814.226536,-6661.853478,1302.362347
21167.498861,1554.432478,-7994.224174,3600.648841
21167.499194,148.041188,-7550.100608,4903.011187
21167.499527,1702.473667,-6735.874072,2911.162892
21167.499860,2368.659014,-8882.471304,1532.190996
21167.500193,-74.020594,-12731.542202,-1608.800546
21167.500526,-3627.009116,-7772.162391,-6128.763984
21167.500860,-5921.647536,-11843.295072,-3524.039291
21167.501193,-666.185348,-13619.789333,-1302.362347
21167.501526,-3478.967927,-8364.327145,-1838.629195
21167.501859,-74.020594,-9474.636058,1149.143247
21167.502192,1110.308913,-8142.265362,2987.772442
21167.502525,2294.638420,-7476.080014,4290.134789
21167.502858,2146.597232,-7031.956449,3677.258390
21167.503192,3182.885551,-8882.471304,6052.154434
21167.503525,3330.926739,-5995.668130,2451.505594
21167.503858,2368.659014,-9548.656652,-76.609550
21167.504191,888.247130,-9548.656652,-2757.943793
21167.504524,-3552.988522,-9548.656652,-6128.763984
21167.504857,-2072.576638,-13323.706956,-4366.744339
21167.505190,-1850.514855,-10732.986159,-4290.134789
21167.505524,-2368.659014,-8364.327145,0.000000
21167.505857,1184.329507,-11103.089130,1455.581446
21167.506190,3552.988522,-7328.038826,1608.800546
21167.506523,4145.153275,-8586.388927,4749.792088
21167.506856,5403.503377,-7105.977043,6741.640382
21167.507189,6291.750507,-7920.203579,6894.859482
21167.507522,5921.647536,-6957.935855,5669.106685
21167.507856,3256.906145,-9548.656652,3907.087040
21167.508189,1702.473667,-7550.100608,-4596.572988
21167.508522,-3256.906145,-11843.295072,-6128.763984
21167.508855,-3552.988522,-12953.603985,-5592.497135
21167.509188,-4589.276840,-12213.398043,-4903.011187
21167.509520,-2664.741391,-9400.615463,-2221.676944
21167.509853,-1998.556043,-9474.636058,-306.438199
21167.510186,814.226536,-8438.347739,1149.143247
21167.510519,4071.132681,-7698.141797,5439.278036
21167.510852,2368.659014,-5995.668130,8886.707777
21167.511185,6143.709319,-5181.441594,5209.449386
21167.511518,0.000000,-5995.668130,4903.011187
21167.511851,3478.967927,-10658.965565,536.266849
21167.512184,-74.020594,-11251.130318,-3140.991542
21167.512517,-6513.812290,-10732.986159,-5822.325785
21167.512850,-3552.988522,-11029.068536,-3600.648841
21167.513183,-3034.844362,-11177.109724,-2068.457845
21167.513517,-1776.494261,-10436.903782,-612.876398
21167.513850,-1258.350101,-10066.800811,-1838.629195
21167.514183,-74.020594,-9474.636058,4519.963438
21167.514516,1702.473667,-7105.977043,3600.648841
21167.514849,0.000000,-6735.874072,5209.449386
21167.515182,4145.153275,-6143.709319,6128.763984
21167.515515,2590.720797,-7698.141797,3140.991542
21167.515848,2738.761985,-8068.244768,-229.828649
21167.516181,148.041188,-9622.677246,-3677.258390
21167.516514,-2146.597232,-12435.459826,-4979.620737
21167.516847,-3552.988522,-10732.986159,-3677.258390
21167.517180,-74.020594,-13619.789333,-1915.238745
21167.517513,-74.020594,-11843.295072,-1608.800546
21167.517846,-2072.576638,-7328.038826,0.000000
21167.518179,0.000000,-5995.668130,3524.039291
21167.518512,1036.288319,-7476.080014,5362.668486
21167.518846,2368.659014,-7105.977043,5592.497135
21167.519179,3627.009116,-5699.585753,5209.449386
21167.519512,2146.597232,-9474.636058,1762.019645
21167.519845,2368.659014,-6883.915261,1915.238745
21167.520178,-814.226536,-9844.739029,-2451.505594
21167.520511,-1850.514855,-9992.780217,-5286.058936
21167.520844,-2368.659014,-13101.645173,-3677.258390
21167.521177,-1258.350101,-13619.789333,-3753.867940
21167.521510,-1184.329507,-9844.739029,-1838.629195
21167.521843,-592.164754,-12509.480420,3294.210641
21167.522176,1110.308913,-6513.812290,153.219100
21167.522509,0.000000,-7476.080014,5362.668486
21167.522842,5033.400406,-7105.977043,8197.221829
21167.523175,3182.885551,-7179.997637,5209.449386
21167.523508,4145.153275,-7846.182985,3600.648841
21167.523841,1702.473667,-7920.203579,383.047749
21167.524175,-1554.432478,-7698.141797,-4060.306139
21167.524508,-3552.988522,-9548.656652,-4903.011187
21167.524841,-3923.091493,-13027.624579,-3753.867940
21167.525174,-666.185348,-8290.306550,-7048.078582
21167.525507,-2368.659014,-12657.521608,-612.876398
21167.525840,-74.020594,-10066.800811,-689.485948
21167.526173,-740.205942,-8586.388927,1838.629195
21167.526506,1110.308913,-8364.327145,4366.744339
21167.526839,4811.338623,-6513.812290,6665.030833
21167.527172,296.082377,-7179.997637,4903.011187
21167.527505,2368.659014,-3627.009116,6128.763984
21167.527838,1702.473667,-10066.800811,0.000000
21167.528171,0.000000,-5995.668130,-4903.011187
21167.528504,0.000000,-10140.821405,-1378.971896
21167.528837,-2738.761985,-10732.986159,-4903.011187
21167.529170,-74.020594,-10510.924376,-4673.182538
21167.529504,-4737.318029,-14359.995275,-4979.620737
21167.529837,-3256.906145,-12361.439231,-3753.867940
21167.530170,-1628.453072,-10658.965565,3983.696590
21167.530503,3552.988522,-7031.956449,10878.556072
21167.530836,7920.203579,-4145.153275,9729.412825
21167.531169,2960.823768,-4959.379811,7967.393179
21167.531502,4663.297435,-8882.471304,4213.525239
21167.531835,-3552.988522,-5403.503377,0.000000
21167.532168,-3330.926739,-10510.924376,-4903.011187
21167.532501,-4885.359217,-11769.274478,-4903.011187
21167.532834,-5033.400406,-10510.924376,-6358.592633
21167.533167,-3627.009116,-10214.842000,-7431.126331
21167.533500,-2442.679609,-13027.624579,-4979.620737
21167.533833,-4441.235652,-7772.162391,-4903.011187
21167.534166,1480.411884,-7624.121203,4826.401637
21167.534499,5255.462188,-9474.636058,7431.126331
21167.534833,4737.318029,-7179.997637,8733.488677
21167.535166,5847.626942,-7105.977043,5898.935335
21167.535499,5329.482782,-7550.100608,3447.429741
21167.535832,2886.803174,-8882.471304,1302.362347
21167.536165,222.061783,-10066.800811,-1302.362347
21167.536498,-74.020594,-10955.047942,-4366.744339
21167.536831,-4885.359217,-12361.439231,-6052.154434
21167.537164,-2442.679609,-11103.089130,-4903.011187
21167.537497,-3627.009116,-10436.903782,-2604.724693
21167.537830,-3034.844362,-10658.965565,-689.485948
21167.538163,0.000000,-7476.080014,5592.497135
21167.538496,1110.308913,-6143.709319,3524.039291
21167.538829,5033.400406,-4811.338623,4903.011187
21167.539162,4145.153275,-6735.874072,6128.763984
21167.539495,2590.720797,-6809.894666,1838.629195
21167.539828,666.185348,-9178.553681,689.485948
21167.540162,1480.411884,-8734.430116,-2298.286494
21167.540495,1480.411884,-11621.233289,-2911.162892
