#time,accel_x,accel_y,accel_z
20809.135942,3478.967927,-9178.553681,1762.019645
20809.136276,1406.391290,-8216.285956,-2757.943793
20809.136609,888.247130,-7772.162391,-3677.258390
20809.136943,1406.391290,-9474.636058,-4136.915689
20809.137277,888.247130,-8956.491898,-3600.648841
20809.137610,4663.297435,-8586.388927,-4060.306139
20809.137944,7105.977043,-9844.739029,3983.696590
20809.138277,10584.944971,-9474.636058,4213.525239
20809.138611,9992.780217,-8660.409521,3217.601092
20809.138944,10658.965565,-8290.306550,4826.401637
20809.139278,10362.883188,-8364.327145,3064.381992
20809.139612,10214.842000,-8512.368333,1302.362347
20809.139945,8142.265362,-9400.615463,-1149.143247
20809.140279,7698.141797,-9548.656652,-2987.772442
20809.140612,6217.729913,-7476.080014,-3677.258390
20809.140946,8290.306550,-10658.965565,-383.047749
20809.141279,8808.450710,-9474.636058,-3140.991542
20809.141613,7698.141797,-9548.656652,0.000000
20809.141947,8438.347739,-11325.150913,2757.943793
20809.142280,7179.997637,-10658.965565,2681.334243
20809.142614,5773.606348,-10807.006753,2528.115143
20809.142947,5921.647536,-9400.615463,4060.306139
20809.143281,7031.956449,-8290.306550,4826.401637
20809.143614,7105.977043,-6143.709319,5439.278036
20809.143948,6439.791695,-6513.812290,1149.143247
20809.144282,6439.791695,-4811.338623,-2451.505594
20809.144615,6513.812290,-7254.018232,-76.609550
20809.144949,7624.121203,-7772.162391,-4596.572988
20809.145282,8142.265362,-9178.553681,-3600.648841
20809.145616,8512.368333,-10658.965565,-2451.505594
20809.145950,10584.944971,-11769.274478,-1608.800546
20809.146283,11769.274478,-13619.789333,-76.609550
20809.146617,11251.130318,-13693.809927,1762.019645
20809.146950,9622.677246,-11917.315666,1991.848295
20809.147284,9252.574275,-11103.089130,3140.991542
20809.147617,9696.697840,-7994.224174,2911.162892
20809.147951,11769.274478,-8290.306550,4826.401637
20809.148285,9474.636058,-4219.173869,2451.505594
20809.148618,10955.047942,-7105.977043,4213.525239
20809.148952,7179.997637,-5995.668130,0.000000
20809.149285,3552.988522,-7772.162391,-2145.067394
20809.149619,4367.215058,-11843.295072,-3140.991542
20809.149952,1776.494261,-11917.315666,-3140.991542
20809.150286,740.205942,-11843.295072,-3524.039291
20809.150620,2368.659014,-10510.924376,-612.876398
20809.150953,7031.956449,-7402.059420,2374.896044
20809.151287,7105.977043,-7772.162391,7967.393179
20809.151620,5921.647536,-5403.503377,5515.887586
20809.151954,6439.791695,-7105.977043,-689.485948
20809.152287,3552.988522,-8364.327145,0.000000
20809.152621,5255.462188,-6217.729913,-4290.134789
20809.152955,2442.679609,-9622.677246,-3830.477490
20809.153288,1406.391290,-11695.253884,-3907.087040
20809.153622,370.102971,-13397.727550,-1762.019645
20809.153955,592.164754,-11399.171507,1225.752797
20809.154289,4737.318029,-10288.862594,6971.469032
20809.154622,7920.203579,-7994.224174,5592.497135
20809.154956,8808.450710,-2442.679609,3983.696590
20809.155290,10288.862594,-7105.977043,6665.030833
20809.155623,6809.894666,-4811.338623,1225.752797
20809.155957,6069.688724,-9030.512492,-1532.190996
20809.156290,3997.112087,-10362.883188,-4366.744339
20809.156624,74.020594,-11177.109724,-6511.811733
20809.156957,-2960.823768,-12953.603985,-7814.174080
20809.157291,-1258.350101,-13915.871710,-6205.373534
20809.157625,2294.638420,-9548.656652,-3064.381992
20809.157958,9474.636058,-7179.997637,5515.887586
20809.158292,14434.015869,-8290.306550,13406.671215
20809.158625,11251.130318,-7179.997637,9806.022374
20809.158959,10881.027347,-7994.224174,6205.373534
20809.159293,10288.862594,-8512.368333,3064.381992
20809.159626,8142.265362,-7920.203579,-536.266849
20809.159960,1924.535449,-11029.068536,-4903.011187
20809.160293,-3034.844362,-11473.192101,-9116.536426
20809.160627,-4737.318029,-12953.603985,-8580.269578
20809.160960,-370.102971,-11177.109724,-3753.867940
20809.161294,1702.473667,-8586.388927,229.828649
20809.161628,4071.132681,-8290.306550,3600.648841
20809.161961,3552.988522,-7179.997637,8273.831378
20809.162295,3552.988522,-6587.832884,9499.584175
20809.162628,5847.626942,-7105.977043,4749.792088
20809.162962,3478.967927,-8142.265362,4749.792088
20809.163295,3330.926739,-9326.594869,1532.190996
20809.163629,2664.741391,-9030.512492,612.876398
20809.163963,0.000000,-8956.491898,-3753.867940
20809.164296,-2368.659014,-7772.162391,-6741.640382
20809.164630,-1406.391290,-8956.491898,-9499.584175
20809.164963,-2368.659014,-11473.192101,-3753.867940
20809.165297,-2146.597232,-11177.109724,-4213.525239
20809.165630,-2442.679609,-9548.656652,-3677.258390
20809.165964,1184.329507,-9844.739029,3753.867940
20809.166298,6291.750507,-8956.491898,9269.755526
20809.166631,7846.182985,-7105.977043,9652.803275
20809.166965,4737.318029,-7698.141797,7277.907231
20809.167298,4663.297435,-8290.306550,4826.401637
20809.167632,-1258.350101,-7772.162391,-1838.629195
20809.167965,-666.185348,-12435.459826,-1915.238745
20809.168299,-4811.338623,-8068.244768,-6128.763984
20809.168633,-5625.565159,-9844.739029,-4903.011187
20809.168966,-962.267725,-9474.636058,-2451.505594
20809.169300,-2072.576638,-10955.047942,-1149.143247
20809.169633,-962.267725,-9400.615463,229.828649
20809.169967,-1332.370696,-9030.512492,1838.629195
20809.170300,-814.226536,-9474.636058,2068.457845
20809.170634,0.000000,-6587.832884,4443.353888
20809.170968,1702.473667,-9178.553681,4060.306139
20809.171301,222.061783,-6291.750507,4903.011187
20809.171635,592.164754,-9326.594869,3600.648841
20809.171968,-74.020594,-9178.553681,-76.609550
20809.172302,-1480.411884,-8290.306550,-1915.238745
20809.172636,-3775.050304,-8660.409521,-3447.429741
20809.172969,-4737.318029,-9696.697840,-4903.011187
20809.173303,-4219.173869,-10066.800811,-3370.820191
20809.173636,1110.308913,-11843.295072,-76.609550
20809.173970,2294.638420,-8364.327145,1225.752797
20809.174303,3552.988522,-10584.944971,6128.763984
20809.174637,4663.297435,-11251.130318,1762.019645
20809.174971,2294.638420,-8882.471304,1762.019645
20809.175304,3404.947333,-9474.636058,2987.772442
20809.175638,2664.741391,-6661.853478,1762.019645
20809.175971,518.144159,-7846.182985,-995.924147
20809.176305,814.226536,-8512.368333,-2298.286494
20809.176638,1850.514855,-11843.295072,-1608.800546
20809.176972,888.247130,-10881.027347,-1225.752797
20809.177306,1554.432478,-8734.430116,-2451.505594
20809.177639,0.000000,-9844.739029,-1991.848295
20809.177973,-666.185348,-7476.080014,-2451.505594
20809.178306,2738.761985,-9030.512492,1762.019645
20809.178640,4663.297435,-9474.636058,1149.143247
20809.178973,4737.318029,-10140.821405,7354.516781
20809.179307,4367.215058,-10362.883188,4673.182538
20809.179641,4071.132681,-8438.347739,1608.800546
20809.179974,370.102971,-9252.574275,229.828649
20809.180308,-2220.617826,-8660.409521,-3370.820191
20809.180641,-3997.112087,-8216.285956,-3677.258390
20809.180975,-4145.153275,-8956.491898,-3064.381992
20809.181308,-2368.659014,-10140.821405,-76.609550
20809.181642,-370.102971,-9252.574275,0.000000
20809.181976,2146.597232,-7179.997637,1532.190996
20809.182309,1776.494261,-9400.615463,5132.839837
20809.182643,0.000000,-6291.750507,919.314598
20809.182976,814.226536,-7550.100608,919.314598
20809.183310,1628.453072,-7846.182985,2451.505594
20809.183643,3182.885551,-7476.080014,3064.381992
20809.183977,2294.638420,-10955.047942,2374.896044
20809.184311,-666.185348,-14063.912898,-76.609550
20809.184644,-5921.647536,-9548.656652,-4290.134789
20809.184978,-3849.070898,-9992.780217,-3064.381992
20809.185311,-1850.514855,-9474.636058,-4979.620737
20809.185645,-4145.153275,-9548.656652,-1685.410096
20809.185979,-1924.535449,-7846.182985,0.000000
20809.186312,2442.679609,-8216.285956,4519.963438
20809.186646,4737.318029,-8068.244768,7201.297681
20809.186979,3552.988522,-8364.327145,5515.887586
20809.187313,4367.215058,-8882.471304,3907.087040
20809.187646,-2294.638420,-5403.503377,0.000000
20809.187980,-2072.576638,-11843.295072,-3140.991542
20809.188314,-1554.432478,-11547.212695,-3140.991542
20809.188647,-1554.432478,-11251.130318,-1302.362347
20809.188981,-592.164754,-10584.944971,0.000000
20809.189314,-1628.453072,-10807.006753,-76.609550
20809.189648,518.144159,-9474.636058,842.705048
20809.189981,0.000000,-7772.162391,3064.381992
20809.190315,1998.556043,-5255.462188,1225.752797
20809.190649,740.205942,-5995.668130,0.000000
20809.190982,2220.617826,-10362.883188,3600.648841
20809.191316,1628.453072,-6735.874072,1838.629195
20809.191649,2294.638420,-9474.636058,2374.896044
20809.191983,2442.679609,-10066.800811,536.266849
20809.192316,962.267725,-9252.574275,-612.876398
20809.192650,-2960.823768,-10140.821405,-4060.306139
20809.192984,-4737.318029,-8660.409521,-5515.887586
20809.193317,-3182.885551,-8364.327145,-4903.011187
20809.193651,1258.350101,-9474.636058,-76.609550
20809.193984,5773.606348,-9400.615463,5132.839837
20809.194318,4737.318029,-9252.574275,5515.887586
20809.194651,3552.988522,-7772.162391,3983.696590
20809.194985,3478.967927,-10658.965565,-76.609550
20809.195319,296.082377,-7476.080014,306.438199
20809.195652,-74.020594,-9474.636058,-1302.362347
20809.195986,-666.185348,-9326.594869,-2221.676944
20809.196319,-2812.782580,-9104.533087,-2298.286494
20809.196652,-518.144159,-10510.924376,-842.705048
20809.196985,814.226536,-8660.409521,306.438199
20809.197318,814.226536,-10214.842000,919.314598
20809.197651,0.000000,-8956.491898,612.876398
20809.197984,-1258.350101,-7846.182985,-2298.286494
20809.198318,-2072.576638,-5403.503377,1225.752797
20809.198651,4071.132681,-7698.141797,2987.772442
20809.198984,1850.514855,-7920.203579,2145.067394
20809.199317,3478.967927,-9178.553681,2757.943793
20809.199650,2294.638420,-10658.965565,-76.609550
20809.199983,-592.164754,-9104.533087,-229.828649
20809.200316,-4589.276840,-8216.285956,-3753.867940
20809.200649,-3627.009116,-9474.636058,-4366.744339
20809.200983,-3330.926739,-5107.421000,-3983.696590
20809.201316,-1776.494261,-9992.780217,612.876398
20809.201649,1702.473667,-10658.965565,1149.143247
20809.201982,0.000000,-9548.656652,2451.505594
20809.202315,4071.132681,-8290.306550,4213.525239
20809.202648,2442.679609,-8142.265362,3600.648841
20809.202981,148.041188,-8068.244768,1378.971896
20809.203314,666.185348,-8290.306550,-459.657299
20809.203648,0.000000,-7179.997637,-2145.067394
20809.203981,592.164754,-8956.491898,1532.190996
20809.204314,1998.556043,-13027.624579,-383.047749
20809.204647,-666.185348,-13619.789333,-2528.115143
20809.204980,-4145.153275,-10436.903782,-3677.258390
20809.205313,-4219.173869,-9474.636058,-2987.772442
20809.205646,-2294.638420,-7179.997637,-1915.238745
20809.205979,0.000000,-5995.668130,689.485948
20809.206313,2812.782580,-7105.977043,4596.572988
20809.206646,2516.700203,-6661.853478,5132.839837
20809.206979,2442.679609,-7772.162391,3677.258390
20809.207312,5107.421000,-9474.636058,3600.648841
20809.207645,740.205942,-8660.409521,-919.314598
20809.207978,-74.020594,-11177.109724,-2681.334243
20809.208311,-2738.761985,-10658.965565,-6818.249932
20809.208644,-4441.235652,-10732.986159,-4290.134789
20809.208977,2294.638420,-13619.789333,2374.896044
20809.209311,-962.267725,-12139.377449,306.438199
20809.209644,148.041188,-11325.150913,1225.752797
20809.209977,-962.267725,-9548.656652,2298.286494
20809.210310,1850.514855,-5107.421000,3600.648841
20809.210643,518.144159,-6513.812290,3524.039291
20809.210976,1110.308913,-5921.647536,2681.334243
20809.211309,2590.720797,-7105.977043,3600.648841
20809.211642,0.000000,-8660.409521,4903.011187
20809.211976,3182.885551,-8882.471304,-76.609550
20809.212309,-2146.597232,-11251.130318,-3447.429741
20809.212642,-3627.009116,-10214.842000,-5286.058936
20809.212975,-5329.482782,-8068.244768,-6435.202183
20809.213308,-3701.029710,-11325.150913,-4596.572988
20809.213641,1110.308913,-8882.471304,76.609550
20809.213974,2368.659014,-9548.656652,4903.011187
20809.214307,7920.203579,-9178.553681,6052.154434
20809.214641,5921.647536,-9252.574275,9576.193725
20809.214974,4663.297435,-7105.977043,1685.410096
20809.215307,2960.823768,-7772.162391,2451.505594
20809.215640,0.000000,-8068.244768,-1685.410096
20809.215973,444.123565,-7179.997637,-2451.505594
20809.216306,-666.185348,-11547.212695,-2068.457845
20809.216639,444.123565,-10214.842000,0.000000
20809.216972,1998.556043,-11843.295072,1149.143247
20809.217306,0.000000,-8660.409521,0.000000
20809.217639,-74.020594,-9474.636058,-76.609550
20809.217972,-370.102971,-7402.059420,-4903.011187
20809.218305,0.000000,-9992.780217,1762.019645
20809.218638,3552.988522,-9178.553681,3064.381992
20809.218971,4589.276840,-10066.800811,5439.278036
20809.219304,5995.668130,-9400.615463,6665.030833
20809.219637,1924.535449,-9548.656652,3907.087040
20809.219971,1998.556043,-7698.141797,-383.047749
20809.220304,-4145.153275,-7772.162391,-1225.752797
20809.220637,-3330.926739,-9178.553681,-6358.592633
20809.220970,-5329.482782,-9548.656652,-6128.763984
20809.221303,-2886.803174,-13619.789333,-1302.362347
20809.221636,-1258.350101,-11843.295072,766.095498
20809.221969,-1480.411884,-11325.150913,3600.648841
20809.222302,1480.411884,-8438.347739,5822.325785
20809.222635,518.144159,-6291.750507,3600.648841
20809.222969,-1332.370696,-7179.997637,1378.971896
20809.223302,-1776.494261,-7920.203579,2681.334243
20809.223635,-1702.473667,-7846.182985,229.828649
20809.223968,1406.391290,-8660.409521,1302.362347
20809.224301,-1406.391290,-9992.780217,536.266849
20809.224634,-1258.350101,-10658.965565,-1915.238745
20809.224967,-4145.153275,-8660.409521,-2298.286494
20809.225300,-1480.411884,-10807.006753,-1608.800546
20809.225634,-3627.009116,-9770.718434,-5362.668486
20809.225967,-2368.659014,-8364.327145,-1608.800546
20809.226300,1554.432478,-11251.130318,2987.772442
20809.226633,1776.494261,-9326.594869,5056.230287
20809.226966,4663.297435,-7772.162391,5362.668486
20809.227299,5995.668130,-8364.327145,5975.544884
20809.227632,4145.153275,-4811.338623,3677.258390
20809.227965,0.000000,-6291.750507,0.000000
20809.228299,-1850.514855,-9326.594869,-5439.278036
20809.228632,-1258.350101,-9030.512492,-7048.078582
20809.228965,-2368.659014,-11029.068536,-2451.505594
20809.229298,2294.638420,-10362.883188,-1991.848295
20809.229631,-888.247130,-11917.315666,-1225.752797
20809.229964,1776.494261,-10362.883188,0.000000
20809.230297,2738.761985,-8734.430116,2145.067394
20809.230630,3552.988522,-7031.956449,3370.820191
20809.230964,5477.523971,-11251.130318,6665.030833
20809.231297,3478.967927,-5995.668130,3064.381992
20809.231630,3552.988522,-10658.965565,6052.154434
20809.231963,3478.967927,-8290.306550,842.705048
20809.232296,0.000000,-9548.656652,766.095498
20809.232629,74.020594,-9104.533087,-2757.943793
20809.232962,-2146.597232,-9178.553681,-3907.087040
20809.233295,-3552.988522,-9622.677246,-5209.449386
20809.233628,-3627.009116,-10066.800811,-4979.620737
20809.233962,1702.473667,-10066.800811,-689.485948
20809.234295,592.164754,-8364.327145,5209.449386
20809.234628,4811.338623,-11103.089130,5745.716235
20809.234961,2886.803174,-9474.636058,3600.648841
20809.235294,0.000000,-9178.553681,2068.457845
20809.235627,-592.164754,-8734.430116,459.657299
20809.235960,-3404.947333,-7179.997637,-612.876398
20809.236293,-2738.761985,-8290.306550,-2221.676944
20809.236627,-3552.988522,-10732.986159,-612.876398
20809.236960,-370.102971,-11251.130318,-689.485948
20809.237293,-2294.638420,-8956.491898,0.000000
20809.237626,-1480.411884,-5995.668130,0.000000
20809.237959,-296.082377,-10955.047942,1149.143247
20809.238292,-74.020594,-10658.965565,2374.896044
20809.238625,-370.102971,-6587.832884,0.000000
20809.238958,1554.432478,-9474.636058,3294.210641
20809.239292,4071.132681,-9326.594869,3983.696590
20809.239625,888.247130,-9548.656652,2757.943793
20809.239958,814.226536,-8290.306550,76.609550
20809.240291,-3108.864956,-9400.615463,-3677.258390
20809.240624,-5255.462188,-9474.636058,-3524.039291
20809.240957,-4145.153275,-7105.977043,-2834.553343
20809.241290,-5329.482782,-7476.080014,-2145.067394
20809.241623,-962.267725,-8290.306550,-76.609550
20809.241957,-74.020594,-9326.594869,0.000000
20809.242290,1776.494261,-8956.491898,5439.278036
20809.242623,4663.297435,-9474.636058,5745.716235
20809.242956,592.164754,-7328.038826,0.000000
20809.243289,1924.535449,-8364.327145,0.000000
20809.243622,814.226536,-9474.636058,-76.609550
20809.243955,2812.782580,-9178.553681,0.000000
20809.244288,2960.823768,-11621.233289,1225.752797
20809.244621,2294.638420,-12435.459826,-1608.800546
20809.244955,0.000000,-9548.656652,-3677.258390
20809.245288,-592.164754,-11843.295072,-1608.800546
20809.245621,-74.020594,-8882.471304,-3600.648841
20809.245954,-1776.494261,-8956.491898,612.876398
20809.246287,2664.741391,-6439.791695,1838.629195
20809.246620,6439.791695,-7624.121203,5669.106685
20809.246953,6587.832884,-8290.306550,5898.935335
20809.247286,7920.203579,-8882.471304,5439.278036
20809.247620,5847.626942,-9178.553681,536.266849
20809.247953,1776.494261,-9918.759623,-76.609550
20809.248286,-1258.350101,-11251.130318,-6818.249932
20809.248619,-3552.988522,-10140.821405,-6435.202183
20809.248952,-74.020594,-11843.295072,-3140.991542
20809.249285,2590.720797,-10436.903782,536.266849
20809.249618,2368.659014,-11251.130318,1838.629195
20809.249951,3627.009116,-7994.224174,2068.457845
20809.250285,3849.070898,-7328.038826,3447.429741
20809.250618,3552.988522,-4811.338623,1225.752797
20809.250951,4145.153275,-10362.883188,3600.648841
20809.251284,1554.432478,-8882.471304,0.000000
20809.251617,1184.329507,-7476.080014,1225.752797
20809.251950,2886.803174,-11251.130318,2374.896044
20809.252283,0.000000,-9548.656652,0.000000
20809.252616,-2146.597232,-9696.697840,-1378.971896
20809.252950,-5625.565159,-9548.656652,-4290.134789
20809.253283,-6217.729913,-9252.574275,-4979.620737
20809.253616,-5921.647536,-9474.636058,-2834.553343
20809.253949,-3034.844362,-8882.471304,0.000000
20809.254282,592.164754,-8216.285956,5132.839837
20809.254615,3552.988522,-8882.471304,6435.202183
20809.254948,2294.638420,-11547.212695,4826.401637
20809.255281,-814.226536,-7179.997637,1225.752797
20809.255614,-74.020594,-8586.388927,3600.648841
20809.255948,-666.185348,-7698.141797,-459.657299
20809.256281,-4737.318029,-8660.409521,-2451.505594
20809.256614,-4219.173869,-11251.130318,-2528.115143
20809.256947,-5181.441594,-11843.295072,-2681.334243
20809.257280,-3923.091493,-10955.047942,-1838.629195
20809.257613,-1406.391290,-9474.636058,-76.609550
20809.257946,-4737.318029,-8364.327145,0.000000
20809.258279,-2442.679609,-5403.503377,0.000000
20809.258613,-1776.494261,-7920.203579,2681.334243
20809.258946,1110.308913,-9474.636058,2374.896044
20809.259279,5847.626942,-7402.059420,6511.811733
20809.259612,4663.297435,-11251.130318,4826.401637
20809.259945,3182.885551,-7994.224174,2145.067394
20809.260278,-222.061783,-9474.636058,-1838.629195
20809.260611,-2220.617826,-9844.739029,-4903.011187
20809.260944,-74.020594,-11547.212695,-2528.115143
20809.261278,-2368.659014,-10140.821405,-4903.011187
20809.261611,444.123565,-11843.295072,-689.485948
20809.261944,-370.102971,-10288.862594,-1072.533697
20809.262277,2368.659014,-8364.327145,3064.381992
20809.262610,7031.956449,-7105.977043,5286.058936
20809.262943,5033.400406,-6735.874072,5592.497135
20809.263276,5033.400406,-6883.915261,3140.991542
20809.263609,2738.761985,-7179.997637,1378.971896
20809.263943,3775.050304,-7105.977043,-383.047749
20809.264276,3552.988522,-10881.027347,2068.457845
20809.264609,2886.803174,-11843.295072,-2528.115143
20809.264942,0.000000,-10732.986159,-2451.505594
20809.265275,296.082377,-12731.542202,-3830.477490
20809.265608,-2146.597232,-9548.656652,-4903.011187
20809.265941,-1628.453072,-11029.068536,-3294.210641
20809.266274,814.226536,-9326.594869,995.924147
20809.266608,4663.297435,-7994.224174,4979.620737
20809.266941,3552.988522,-8364.327145,4903.011187
20809.267274,7105.977043,-8290.306550,7890.783629
20809.267607,5255.462188,-8734.430116,5286.058936
20809.267940,2294.638420,-3627.009116,0.000000
20809.268273,0.000000,-11991.336260,-459.657299
20809.268606,-7031.956449,-9992.780217,-6128.763984
20809.268939,-4219.173869,-9696.697840,-5056.230287
20809.269272,-4959.379811,-10881.027347,-3600.648841
20809.269606,-1184.329507,-9844.739029,-1608.800546
20809.269939,-3552.988522,-10140.821405,306.438199
20809.270272,-1258.350101,-9030.512492,1838.629195
20809.270605,-1406.391290,-7179.997637,2145.067394
20809.270938,-2368.659014,-7328.038826,2451.505594
20809.271271,-74.020594,-8882.471304,2987.772442
20809.271604,-3478.967927,-7179.997637,2451.505594
20809.271937,-666.185348,-8290.306550,2374.896044
20809.272271,-1850.514855,-8364.327145,0.000000
20809.272604,-2960.823768,-8512.368333,1072.533697
20809.272937,-5329.482782,-8364.327145,-76.609550
20809.273270,-7550.100608,-8734.430116,-4443.353888
20809.273603,-6069.688724,-8734.430116,-4213.525239
20809.273936,-3775.050304,-8882.471304,-1838.629195
20809.274269,1406.391290,-8586.388927,3140.991542
20809.274602,2886.803174,-5995.668130,3677.258390
20809.274936,4367.215058,-10658.965565,4826.401637
20809.275269,2738.761985,-9474.636058,536.266849
20809.275602,592.164754,-7476.080014,1225.752797
20809.275935,1110.308913,-9474.636058,-689.485948
20809.276268,-888.247130,-8808.450710,-2298.286494
20809.276601,-1850.514855,-9252.574275,-3447.429741
20809.276934,1110.308913,-9474.636058,-1072.533697
20809.277267,4737.318029,-8512.368333,2757.943793
20809.277601,4589.276840,-7179.997637,1225.752797
20809.277934,7031.956449,-9474.636058,1149.143247
20809.278267,4219.173869,-7846.182985,-766.095498
20809.278600,2664.741391,-7476.080014,0.000000
20809.278933,5921.647536,-8364.327145,-1149.143247
20809.279266,7105.977043,-12435.459826,3677.258390
20809.279599,8512.368333,-9474.636058,2987.772442
20809.279932,6217.729913,-11029.068536,2681.334243
20809.280265,7031.956449,-10362.883188,-76.609550
20809.280599,2368.659014,-9548.656652,-459.657299
20809.280932,2294.638420,-11843.295072,-2528.115143
20809.281265,0.000000,-5995.668130,-3677.258390
20809.281598,1036.288319,-11547.212695,-76.609550
20809.281931,1702.473667,-10066.800811,919.314598
20809.282264,3182.885551,-9844.739029,2987.772442
20809.282597,3997.112087,-8734.430116,5975.544884
20809.282930,3182.885551,-7698.141797,3600.648841
20809.283264,-1406.391290,-7550.100608,76.609550
20809.283597,-370.102971,-9474.636058,-76.609550
20809.283930,-4663.297435,-7772.162391,-1225.752797
20809.284263,-3552.988522,-9548.656652,1838.629195
20809.284596,-1554.432478,-11251.130318,-1762.019645
20809.284929,-4811.338623,-11843.295072,-1072.533697
20809.285262,-5995.668130,-9400.615463,-2451.505594
20809.285595,-5181.441594,-8586.388927,-1915.238745
20809.285929,-5477.523971,-8660.409521,-536.266849
20809.286262,-4737.318029,-5625.565159,0.000000
20809.286595,-3330.926739,-8290.306550,2068.457845
20809.286928,-2368.659014,-8142.265362,3370.820191
20809.287261,-1628.453072,-10436.903782,3600.648841
20809.287594,-518.144159,-8512.368333,3677.258390
20809.287927,-1554.432478,-7698.141797,1302.362347
20809.288260,-2664.741391,-7994.224174,-76.609550
20809.288594,-4811.338623,-9474.636058,-4826.401637
20809.288927,-8290.306550,-9548.656652,-3370.820191
20809.289260,-2368.659014,-10436.903782,0.000000
20809.289593,-1554.432478,-9918.759623,-1149.143247
20809.289926,0.000000,-9622.677246,1455.581446
20809.290259,-370.102971,-8734.430116,1915.238745
20809.290592,1998.556043,-6365.771101,2911.162892
20809.290925,1184.329507,-4811.338623,2451.505594
20809.291258,4515.256246,-10658.965565,2987.772442
20809.291592,4737.318029,-4885.359217,1608.800546
20809.291925,592.164754,-8956.491898,2757.943793
20809.292258,5847.626942,-11251.130318,2068.457845
20809.292591,-1184.329507,-9696.697840,-2145.067394
20809.292924,1702.473667,-10362.883188,-3217.601092
20809.293257,-148.041188,-10066.800811,-3370.820191
20809.293590,-888.247130,-11251.130318,-3677.258390
20809.293923,592.164754,-10140.821405,-536.266849
20809.294257,5847.626942,-10658.965565,1762.019645
20809.294590,8290.306550,-7179.997637,6128.763984
20809.294923,5921.647536,-9548.656652,8273.831378
20809.295256,9104.533087,-9178.553681,3600.648841
20809.295589,4737.318029,-8808.450710,3294.210641
20809.295922,4219.173869,-7624.121203,-1455.581446
20809.296255,2294.638420,-9474.636058,-3064.381992
20809.296588,-1110.308913,-10881.027347,-4290.134789
20809.296921,-74.020594,-12731.542202,-3140.991542
20809.297255,-1776.494261,-9548.656652,-4060.306139
20809.297588,0.000000,-10732.986159,1685.410096
20809.297921,1776.494261,-9474.636058,2987.772442
20809.298254,4071.132681,-7105.977043,-995.924147
20809.298587,2368.659014,-10066.800811,4213.525239
20809.298920,1258.350101,-9030.512492,2987.772442
20809.299253,1406.391290,-9030.512492,4596.572988
20809.299586,1480.411884,-7328.038826,3370.820191
20809.299919,-74.020594,-10066.800811,2987.772442
20809.300252,-1554.432478,-6587.832884,-1838.629195
20809.300585,-5255.462188,-9252.574275,-3677.258390
20809.300918,-7550.100608,-9770.718434,-5669.106685
20809.301251,-8290.306550,-8660.409521,-4903.011187
20809.301585,-7698.141797,-10881.027347,-1302.362347
20809.301918,-5403.503377,-9474.636058,-2068.457845
20809.302251,-3849.070898,-6587.832884,0.000000
20809.302584,-1184.329507,-10140.821405,7277.907231
20809.302917,1184.329507,-5403.503377,5056.230287
20809.303250,-1184.329507,-7031.956449,3600.648841
20809.303583,-1776.494261,-7476.080014,1302.362347
20809.303916,-1702.473667,-8290.306550,1072.533697
20809.304249,888.247130,-9030.512492,2987.772442
20809.304582,-518.144159,-7772.162391,1608.800546
20809.304915,-1258.350101,-10214.842000,-4443.353888
20809.305248,-3256.906145,-9844.739029,-2757.943793
20809.305582,-2368.659014,-11029.068536,-1915.238745
20809.305915,-2072.576638,-9918.759623,-3064.381992
20809.306248,-666.185348,-8882.471304,-2221.676944
20809.306581,0.000000,-9326.594869,536.266849
20809.306914,5107.421000,-8438.347739,3907.087040
20809.307247,6217.729913,-7994.224174,5132.839837
20809.307580,6513.812290,-7772.162391,7814.174080
20809.307913,4737.318029,-4811.338623,2451.505594
20809.308246,2368.659014,-7772.162391,1225.752797
20809.308579,1702.473667,-9474.636058,-2834.553343
20809.308912,-1258.350101,-9918.759623,-6358.592633
20809.309245,1998.556043,-11843.295072,-5286.058936
20809.309579,3552.988522,-12065.356855,-766.095498
20809.309912,3775.050304,-12361.439231,229.828649
20809.310245,5995.668130,-8734.430116,1762.019645
20809.310578,7031.956449,-11843.295072,3600.648841
20809.310911,4737.318029,-6291.750507,3370.820191
20809.311244,7105.977043,-9844.739029,4213.525239
20809.311577,5847.626942,-7920.203579,612.876398
20809.311910,1184.329507,-8364.327145,1838.629195
20809.312243,2886.803174,-9474.636058,76.609550
20809.312576,1406.391290,-10658.965565,689.485948
20809.312909,2886.803174,-8882.471304,-76.609550
20809.313242,-1036.288319,-9474.636058,-1608.800546
20809.313576,-3034.844362,-7772.162391,-5898.935335
20809.313909,-4737.318029,-12435.459826,-1302.362347
20809.314242,-2146.597232,-8882.471304,-1302.362347
20809.314575,518.144159,-8364.327145,2451.505594
20809.314908,0.000000,-6291.750507,4903.011187
20809.315241,814.226536,-9474.636058,3064.381992
20809.315574,-1184.329507,-8142.265362,2911.162892
20809.315907,-296.082377,-7402.059420,1225.752797
20809.316240,-3701.029710,-8512.368333,0.000000
20809.316573,-3627.009116,-7994.224174,-3064.381992
20809.316906,-5995.668130,-10288.862594,-2221.676944
20809.317239,-6439.791695,-10881.027347,-1838.629195
20809.317572,-5995.668130,-10140.821405,-1915.238745
20809.317906,-4515.256246,-9326.594869,1608.800546
20809.318239,-1258.350101,-7402.059420,0.000000
20809.318572,-2072.576638,-8364.327145,1225.752797
20809.318905,-2072.576638,-8142.265362,3294.210641
20809.319238,-3627.009116,-8512.368333,-1225.752797
20809.319571,296.082377,-7179.997637,3677.258390
20809.319904,222.061783,-10066.800811,2757.943793
20809.320237,2220.617826,-8808.450710,2374.896044
20809.320570,-1924.535449,-9770.718434,-1225.752797
20809.320903,-1850.514855,-11251.130318,-3140.991542
20809.321236,-666.185348,-8290.306550,-5132.839837
20809.321569,-1776.494261,-9474.636058,-689.485948
20809.321903,2368.659014,-9104.533087,2068.457845
20809.322236,1110.308913,-10066.800811,-459.657299
20809.322569,6735.874072,-10881.027347,6052.154434
20809.322902,5181.441594,-7254.018232,4290.134789
20809.323235,6809.894666,-8660.409521,3140.991542
20809.323568,4589.276840,-8660.409521,2221.676944
20809.323901,2960.823768,-7179.997637,-842.705048
20809.324234,4663.297435,-8364.327145,-2451.505594
20809.324567,6439.791695,-11843.295072,-1302.362347
20809.324900,2368.659014,-10732.986159,-1225.752797
20809.325233,0.000000,-10140.821405,0.000000
20809.325566,2812.782580,-9474.636058,-1915.238745
20809.325900,0.000000,-9622.677246,-1762.019645
20809.326233,1184.329507,-7772.162391,-1762.019645
20809.326566,2442.679609,-8882.471304,842.705048
20809.326899,4885.359217,-8364.327145,3983.696590
20809.327232,4441.235652,-8068.244768,4290.134789
20809.327565,5255.462188,-11843.295072,6052.154434
20809.327898,3478.967927,-6291.750507,1225.752797
20809.328231,4663.297435,-10510.924376,1838.629195
20809.328564,740.205942,-10732.986159,-3370.820191
20809.328897,-2442.679609,-11843.295072,-4673.182538
20809.329230,-5181.441594,-12879.583391,-3600.648841
20809.329563,-2442.679609,-10288.862594,-2834.553343
20809.329896,-666.185348,-10362.883188,1149.143247
20809.330230,-1776.494261,-9548.656652,4673.182538
20809.330563,-74.020594,-6439.791695,2451.505594
20809.330896,-4441.235652,-4811.338623,2757.943793
20809.331229,-222.061783,-8290.306550,2068.457845
20809.331562,-4145.153275,-7772.162391,612.876398
20809.331895,-3330.926739,-6809.894666,229.828649
20809.332228,-3478.967927,-10288.862594,1225.752797
20809.332561,-4737.318029,-8956.491898,-383.047749
20809.332894,-4811.338623,-10362.883188,-1302.362347
20809.333227,-6809.894666,-9474.636058,-1685.410096
20809.333560,-6735.874072,-9548.656652,-3983.696590
20809.333893,-9030.512492,-10584.944971,-3524.039291
20809.334227,-6365.771101,-7328.038826,-1072.533697
20809.334560,-1850.514855,-9474.636058,4213.525239
20809.334893,1184.329507,-7476.080014,4903.011187
20809.335226,2664.741391,-8142.265362,7890.783629
20809.335559,1110.308913,-8216.285956,3064.381992
20809.335892,0.000000,-4811.338623,612.876398
20809.336225,-74.020594,-9474.636058,-1608.800546
20809.336558,-2220.617826,-8882.471304,-4673.182538
20809.336891,-2664.741391,-9844.739029,-4749.792088
20809.337224,-814.226536,-12065.356855,-3217.601092
20809.337557,2442.679609,-9770.718434,-1455.581446
20809.337890,3256.906145,-11103.089130,2987.772442
20809.338224,7031.956449,-10658.965565,2068.457845
20809.338557,5255.462188,-6957.935855,612.876398
20809.338890,5921.647536,-7476.080014,4596.572988
20809.339223,6439.791695,-7031.956449,459.657299
20809.339556,9252.574275,-8882.471304,2834.553343
20809.339889,11769.274478,-9474.636058,4673.182538
20809.340222,9992.780217,-10362.883188,3677.258390
20809.340555,8290.306550,-7772.162391,0.000000
20809.340888,7031.956449,-14211.954086,-2528.115143
20809.341221,2368.659014,-9548.656652,-4903.011187
20809.341554,0.000000,-9844.739029,-4903.011187
20809.341887,2960.823768,-10658.965565,-2528.115143
20809.342221,1480.411884,-11917.315666,0.000000
20809.342554,5847.626942,-9474.636058,4290.134789
20809.342887,8660.409521,-7179.997637,6971.469032
20809.343220,6809.894666,-6809.894666,6665.030833
20809.343553,6365.771101,-6735.874072,5362.668486
20809.343886,-74.020594,-9474.636058,-689.485948
20809.344219,-2960.823768,-7772.162391,-919.314598
20809.344552,-2442.679609,-11251.130318,-2528.115143
20809.344885,-2442.679609,-10510.924376,-4366.744339
20809.345218,-5921.647536,-11917.315666,-1225.752797
20809.345551,-6883.915261,-11325.150913,-3524.039291
20809.345884,-8068.244768,-9400.615463,-2911.162892
20809.346217,-6291.750507,-8882.471304,-2374.896044
20809.346551,-2590.720797,-8660.409521,3524.039291
20809.346884,-2886.803174,-6661.853478,4979.620737
20809.347217,-1554.432478,-6365.771101,5975.544884
20809.347550,-5181.441594,-9252.574275,3677.258390
20809.347883,-2590.720797,-6217.729913,995.924147
20809.348216,-4367.215058,-6143.709319,766.095498
20809.348549,-3330.926739,-10066.800811,-1302.362347
20809.348882,-9770.718434,-10658.965565,-6205.373534
20809.349215,-11843.295072,-8660.409521,-6741.640382
20809.349548,-4219.173869,-9474.636058,-1608.800546
20809.349881,-5921.647536,-10732.986159,306.438199
20809.350214,740.205942,-8882.471304,2604.724693
20809.350548,-3627.009116,-9844.739029,1991.848295
20809.350881,296.082377,-5995.668130,1838.629195
20809.351214,-74.020594,-5477.523971,0.000000
20809.351547,2294.638420,-10658.965565,4213.525239
20809.351880,4515.256246,-5403.503377,2757.943793
20809.352213,814.226536,-8660.409521,2451.505594
20809.352546,4145.153275,-7179.997637,0.000000
20809.352879,-888.247130,-10658.965565,-536.266849
20809.353212,2368.659014,-9252.574275,-2834.553343
20809.353545,666.185348,-9474.636058,-1915.238745
20809.353878,1702.473667,-11843.295072,-2528.115143
20809.354211,0.000000,-7772.162391,-3677.258390
20809.354545,3478.967927,-9474.636058,-1302.362347
20809.354878,7105.977043,-7772.162391,3677.258390
20809.355211,9252.574275,-9474.636058,6665.030833
20809.355544,10288.862594,-8586.388927,5209.449386
20809.355877,8068.244768,-9178.553681,3830.477490
20809.356210,5699.585753,-7920.203579,0.000000
20809.356543,4293.194464,-9252.574275,-1915.238745
20809.356876,666.185348,-10584.944971,-3217.601092
20809.357209,1184.329507,-11325.150913,-1072.533697
20809.357542,1702.473667,-9844.739029,-1838.629195
20809.357875,0.000000,-10140.821405,1838.629195
20809.358208,4663.297435,-8882.471304,-76.609550
20809.358541,2146.597232,-7994.224174,0.000000
20809.358875,4071.132681,-9474.636058,2068.457845
20809.359208,888.247130,-8142.265362,842.705048
20809.359541,0.000000,-9992.780217,1072.533697
20809.359874,2590.720797,-9030.512492,1991.848295
20809.360207,2294.638420,-11843.295072,3600.648841
20809.360540,-2368.659014,-9548.656652,1225.752797
20809.360873,-1554.432478,-9474.636058,-689.485948
20809.361206,-4811.338623,-11843.295072,-3907.087040
20809.361539,-7920.203579,-7772.162391,-4596.572988
20809.361872,-7328.038826,-9474.636058,-3447.429741
20809.362205,-7105.977043,-10288.862594,-306.438199
20809.362538,-2738.761985,-7994.224174,3600.648841
20809.362872,-2368.659014,-8808.450710,6281.983084
20809.363205,-74.020594,-5921.647536,6052.154434
20809.363538,-4737.318029,-8734.430116,3600.648841
20809.363871,-3997.112087,-6735.874072,995.924147
20809.364204,-7031.956449,-8586.388927,-459.657299
20809.364537,-4737.318029,-6587.832884,0.000000
20809.364870,-2442.679609,-9178.553681,-76.609550
20809.365203,-5551.544565,-9548.656652,-2987.772442
20809.365536,-2368.659014,-8660.409521,842.705048
20809.365869,-3034.844362,-11251.130318,-1608.800546
20809.366202,-1554.432478,-7328.038826,-4136.915689
20809.366535,-1554.432478,-8586.388927,-459.657299
20809.366869,592.164754,-7550.100608,842.705048
20809.367202,3108.864956,-7105.977043,3140.991542
20809.367535,7698.141797,-9844.739029,7814.174080
20809.367868,9992.780217,-9474.636058,6052.154434
20809.368201,5329.482782,-7179.997637,5056.230287
20809.368534,3552.988522,-7772.162391,612.876398
20809.368867,1702.473667,-10066.800811,-4979.620737
20809.369200,0.000000,-8660.409521,-5515.887586
20809.369533,2368.659014,-9770.718434,-5286.058936
20809.369866,5329.482782,-10881.027347,-1762.019645
20809.370199,7031.956449,-11991.336260,995.924147
20809.370532,8808.450710,-10066.800811,1762.019645
20809.370865,9400.615463,-11843.295072,3600.648841
20809.371199,7846.182985,-5403.503377,3064.381992
20809.371532,9400.615463,-11103.089130,4826.401637
20809.371865,9400.615463,-7105.977043,229.828649
20809.372198,6439.791695,-10584.944971,3294.210641
20809.372531,3552.988522,-10288.862594,306.438199
20809.372864,3478.967927,-10288.862594,-612.876398
20809.373197,0.000000,-11177.109724,-1762.019645
20809.373530,0.000000,-8956.491898,-2911.162892
20809.373863,-3923.091493,-10288.862594,-5822.325785
20809.374196,-7105.977043,-8660.409521,-1915.238745
20809.374529,-1850.514855,-10362.883188,-76.609550
20809.374862,0.000000,-5403.503377,3064.381992
20809.375196,2960.823768,-7772.162391,6971.469032
20809.375529,-370.102971,-8808.450710,6052.154434
20809.375862,814.226536,-6365.771101,3294.210641
20809.376195,-4219.173869,-9104.533087,689.485948
20809.376528,-2220.617826,-9178.553681,-1838.629195
20809.376861,-9474.636058,-9548.656652,-4596.572988
20809.377194,-8364.327145,-12731.542202,-3140.991542
20809.377527,-6587.832884,-11547.212695,-3447.429741
20809.377860,-9474.636058,-11029.068536,0.000000
20809.378193,-4737.318029,-6291.750507,1608.800546
20809.378526,-2738.761985,-7698.141797,4213.525239
20809.378859,-2368.659014,-6513.812290,4596.572988
20809.379193,-2442.679609,-7105.977043,3830.477490
20809.379526,-1924.535449,-10066.800811,3830.477490
20809.379859,0.000000,-7179.997637,4290.134789
20809.380192,-666.185348,-10066.800811,2451.505594
20809.380525,0.000000,-9030.512492,919.314598
20809.380858,-3701.029710,-10140.821405,-2374.896044
20809.381191,-4145.153275,-11177.109724,-4903.011187
20809.381524,-4737.318029,-7179.997637,-7048.078582
20809.381857,-4737.318029,-10436.903782,-1838.629195
20809.382190,962.267725,-9474.636058,-76.609550
20809.382523,1110.308913,-8290.306550,1762.019645
20809.382856,4737.318029,-9474.636058,6052.154434
20809.383190,5403.503377,-6439.791695,5515.887586
20809.383523,6883.915261,-8586.388927,4903.011187
20809.383856,5847.626942,-7179.997637,2528.115143
20809.384189,4071.132681,-9474.636058,-76.609550
20809.384522,592.164754,-7179.997637,-2451.505594
20809.384855,3701.029710,-12805.562797,-689.485948
20809.385188,4663.297435,-10658.965565,-3447.429741
20809.385521,1184.329507,-10140.821405,0.000000
20809.385854,5255.462188,-10066.800811,-2528.115143
20809.386187,2812.782580,-10658.965565,-1302.362347
20809.386520,3182.885551,-8512.368333,-1072.533697
20809.386853,3552.988522,-8956.491898,766.095498
20809.387186,2886.803174,-6883.915261,383.047749
20809.387520,3552.988522,-9844.739029,6435.202183
20809.387853,5847.626942,-9770.718434,4673.182538
20809.388186,4663.297435,-4811.338623,2451.505594
20809.388519,5329.482782,-8734.430116,4519.963438
20809.388852,1110.308913,-7920.203579,-2451.505594
20809.389185,-2368.659014,-12435.459826,-4366.744339
20809.389518,-2812.782580,-9622.677246,-5286.058936
20809.389851,-2146.597232,-11769.274478,-3677.258390
20809.390184,-1184.329507,-12213.398043,-1838.629195
20809.390517,1480.411884,-10140.821405,4826.401637
20809.390850,-74.020594,-9474.636058,2145.067394
20809.391183,0.000000,-5995.668130,0.000000
20809.391517,-296.082377,-10658.965565,6052.154434
20809.391850,-2738.761985,-7179.997637,1378.971896
20809.392183,-1850.514855,-6513.812290,2221.676944
20809.392516,-1628.453072,-8734.430116,3140.991542
20809.392849,-2590.720797,-9326.594869,1455.581446
20809.393182,-4441.235652,-8364.327145,0.000000
20809.393515,-4811.338623,-8142.265362,-2221.676944
20809.393848,-6587.832884,-8438.347739,-2528.115143
20809.394181,-9696.697840,-9770.718434,-4596.572988
20809.394514,-5995.668130,-9474.636058,-2528.115143
20809.394847,-2442.679609,-9178.553681,459.657299
20809.395180,0.000000,-8364.327145,6052.154434
20809.395514,4071.132681,-11251.130318,6665.030833
20809.395847,-962.267725,-7772.162391,2451.505594
20809.396180,3330.926739,-7105.977043,2987.772442
20809.396513,-1036.288319,-8290.306550,-1378.971896
20809.396846,-1110.308913,-8068.244768,-3983.696590
20809.397179,-1850.514855,-9992.780217,-3294.210641
20809.397512,-1776.494261,-10140.821405,-2451.505594
20809.397845,4663.297435,-8438.347739,-2757.943793
20809.398178,2960.823768,-13471.748144,3600.648841
20809.398511,5551.544565,-6957.935855,229.828649
20809.398844,2072.576638,-7179.997637,1225.752797
20809.399177,3552.988522,-7698.141797,536.266849
20809.399510,2960.823768,-8512.368333,612.876398
20809.399843,5625.565159,-9548.656652,2374.896044
20809.400176,7254.018232,-9622.677246,2911.162892
20809.400509,6513.812290,-11325.150913,2451.505594
20809.400842,4663.297435,-8068.244768,-2757.943793
20809.401175,5699.585753,-11843.295072,-1302.362347
20809.401508,1184.329507,-9548.656652,-2221.676944
20809.401841,1702.473667,-11251.130318,-4060.306139
20809.402175,1776.494261,-10510.924376,-76.609550
20809.402508,2294.638420,-11843.295072,-76.609550
20809.402841,6143.709319,-10066.800811,2987.772442
20809.403174,5329.482782,-9696.697840,5362.668486
20809.403507,6957.935855,-6957.935855,5362.668486
20809.403840,4737.318029,-7920.203579,6588.421283
20809.404173,1110.308913,-5403.503377,0.000000
20809.404506,-2960.823768,-8660.409521,1225.752797
20809.404839,-74.020594,-10658.965565,-1608.800546
20809.405172,-3627.009116,-11843.295072,-4060.306139
20809.405505,-4663.297435,-11695.253884,-3600.648841
20809.405838,-4811.338623,-11695.253884,-2834.553343
20809.406171,-5773.606348,-9474.636058,-1838.629195
20809.406504,-2368.659014,-7698.141797,76.609550
20809.406837,-1554.432478,-9474.636058,2987.772442
20809.407170,-2368.659014,-5107.421000,4903.011187
20809.407503,-666.185348,-8290.306550,5975.544884
20809.407836,-74.020594,-9474.636058,3294.210641
20809.408169,-1776.494261,-6365.771101,2451.505594
20809.408502,-74.020594,-8882.471304,1072.533697
20809.408835,-1924.535449,-9178.553681,-2374.896044
20809.409168,-7624.121203,-11843.295072,-4903.011187
20809.409501,-8142.265362,-10807.006753,-5515.887586
20809.409834,-4811.338623,-11843.295072,-3140.991542
20809.410167,-3775.050304,-10658.965565,-76.609550
20809.410500,-444.123565,-8512.368333,2451.505594
20809.410833,-1850.514855,-8364.327145,3830.477490
20809.411166,592.164754,-3923.091493,3677.258390
20809.411499,1702.473667,-7105.977043,4519.963438
20809.411832,0.000000,-5107.421000,0.000000
20809.412165,0.000000,-7031.956449,2068.457845
20809.412498,-1258.350101,-10066.800811,-2145.067394
20809.412831,1110.308913,-8956.491898,-3064.381992
20809.413164,-666.185348,-11843.295072,-1915.238745
20809.413497,1258.350101,-10658.965565,-1608.800546
20809.413830,1258.350101,-11029.068536,-1685.410096
20809.414163,888.247130,-10436.903782,-383.047749
20809.414496,2442.679609,-11103.089130,-76.609550
20809.414829,1480.411884,-7179.997637,2451.505594
20809.415162,4737.318029,-8364.327145,5822.325785
20809.415495,7624.121203,-9474.636058,5132.839837
20809.415828,5329.482782,-7179.997637,5822.325785
20809.416161,5403.503377,-7031.956449,1762.019645
20809.416494,3997.112087,-7105.977043,-842.705048
20809.416827,222.061783,-9844.739029,-5209.449386
20809.417160,-1702.473667,-9474.636058,-5898.935335
20809.417493,-74.020594,-11843.295072,-6205.373534
20809.417826,0.000000,-11325.150913,612.876398
20809.418159,3775.050304,-11843.295072,2987.772442
20809.418492,4663.297435,-10658.965565,2987.772442
20809.418825,4071.132681,-8290.306550,3600.648841
20809.419158,3182.885551,-7846.182985,2374.896044
20809.419491,2664.741391,-7994.224174,1149.143247
20809.419824,2072.576638,-10288.862594,2681.334243
20809.420157,1776.494261,-7179.997637,1991.848295
20809.420490,2294.638420,-9400.615463,612.876398
20809.420823,0.000000,-10140.821405,1225.752797
20809.421156,-74.020594,-9474.636058,-3140.991542
20809.421489,-4663.297435,-9474.636058,-4979.620737
20809.421822,-5329.482782,-9548.656652,-4519.963438
20809.422155,-5625.565159,-10955.047942,-2911.162892
20809.422488,-4737.318029,-10140.821405,0.000000
20809.422821,-888.247130,-8364.327145,4443.353888
20809.423154,1480.411884,-8068.244768,6894.859482
20809.423487,-2368.659014,-6587.832884,5669.106685
20809.423820,-74.020594,-6513.812290,3600.648841
20809.424153,-4811.338623,-4811.338623,-2451.505594
20809.424486,-3923.091493,-9474.636058,-76.609550
20809.424819,-4811.338623,-7698.141797,-3140.991542
20809.425152,-3849.070898,-10584.944971,-766.095498
20809.425485,-1850.514855,-10510.924376,-1149.143247
20809.425818,-3404.947333,-10288.862594,-1838.629195
20809.426151,-1776.494261,-11251.130318,-459.657299
20809.426484,-3256.906145,-8512.368333,-459.657299
20809.426817,-444.123565,-7846.182985,306.438199
20809.427150,1184.329507,-6883.915261,1608.800546
20809.427483,3478.967927,-7105.977043,3294.210641
20809.427816,4145.153275,-11029.068536,4903.011187
20809.428149,4293.194464,-5995.668130,1225.752797
20809.428482,3552.988522,-9400.615463,4213.525239
20809.428815,3478.967927,-8290.306550,-1225.752797
20809.429148,-370.102971,-7994.224174,-4060.306139
20809.429481,-1184.329507,-10214.842000,-4060.306139
20809.429814,518.144159,-10362.883188,-3753.867940
20809.430147,2886.803174,-10140.821405,-2451.505594
20809.430480,3701.029710,-13101.645173,1378.971896
20809.430813,7031.956449,-9474.636058,3294.210641
20809.431146,4737.318029,-8660.409521,4903.011187
20809.431479,7105.977043,-5995.668130,4826.401637
20809.431812,7031.956449,-10214.842000,1225.752797
20809.432145,3552.988522,-5403.503377,1225.752797
20809.432478,4663.297435,-10362.883188,536.266849
20809.432811,1998.556043,-10436.903782,-919.314598
20809.433144,1110.308913,-10658.965565,-995.924147
20809.433477,-1628.453072,-11843.295072,-1608.800546
20809.433810,518.144159,-6217.729913,-3600.648841
20809.434143,-4737.318029,-9548.656652,-76.609550
20809.434476,-1554.432478,-9474.636058,-76.609550
20809.434810,-666.185348,-7994.224174,153.219100
20809.435143,296.082377,-8808.450710,5898.935335
20809.435476,1480.411884,-7772.162391,3983.696590
20809.435809,1776.494261,-8808.450710,4519.963438
20809.436142,592.164754,-8290.306550,2068.457845
20809.436475,-2590.720797,-9030.512492,0.000000
20809.436808,-3552.988522,-8660.409521,-3064.381992
20809.437141,-5329.482782,-12435.459826,-383.047749
20809.437474,-4219.173869,-10066.800811,-4673.182538
20809.437807,-7105.977043,-9548.656652,-4903.011187
20809.438140,-4737.318029,-12287.418637,2068.457845
20809.438473,-3923.091493,-6735.874072,306.438199
20809.438806,296.082377,-6587.832884,5056.230287
20809.439139,3108.864956,-4293.194464,5592.497135
20809.439472,-962.267725,-8438.347739,3753.867940
20809.439805,-1184.329507,-7179.997637,612.876398
20809.440138,-814.226536,-9918.759623,1532.190996
20809.440471,444.123565,-8364.327145,842.705048
20809.440804,-1184.329507,-11843.295072,-229.828649
20809.441137,-4219.173869,-12435.459826,-4979.620737
20809.441470,-3627.009116,-8956.491898,-6588.421283
20809.441803,-5033.400406,-11843.295072,-2528.115143
20809.442136,-74.020594,-9474.636058,-1302.362347
20809.442469,-3034.844362,-8364.327145,0.000000
20809.442802,4367.215058,-7105.977043,4519.963438
20809.443135,5847.626942,-7105.977043,7048.078582
20809.443468,5995.668130,-6809.894666,6894.859482
20809.443801,7179.997637,-5847.626942,5439.278036
20809.444134,1480.411884,-6587.832884,612.876398
20809.444467,4663.297435,-7920.203579,-5132.839837
20809.444800,1184.329507,-13027.624579,-1915.238745
20809.445133,518.144159,-11621.233289,-5515.887586
20809.445466,0.000000,-10881.027347,-3064.381992
20809.445799,518.144159,-11695.253884,-1915.238745
20809.446132,2368.659014,-9696.697840,306.438199
20809.446465,1480.411884,-8956.491898,536.266849
20809.446798,3182.885551,-6587.832884,1225.752797
20809.447131,2368.659014,-7772.162391,4443.353888
20809.447464,3478.967927,-6513.812290,1378.971896
20809.447797,1184.329507,-8364.327145,5898.935335
20809.448130,7624.121203,-7994.224174,3600.648841
20809.448463,3552.988522,-7179.997637,612.876398
20809.448796,2368.659014,-9548.656652,306.438199
20809.449129,-962.267725,-10955.047942,-4060.306139
20809.449462,-4219.173869,-11621.233289,-6205.373534
20809.449795,-3478.967927,-12361.439231,-5132.839837
20809.450128,-1554.432478,-13027.624579,-1608.800546
20809.450461,-2960.823768,-9548.656652,1838.629195
20809.450794,2294.638420,-8882.471304,2451.505594
20809.451127,1184.329507,-5995.668130,4903.011187
20809.451460,3256.906145,-7105.977043,5745.716235
20809.451793,2294.638420,-8290.306550,3600.648841
20809.452126,-666.185348,-7698.141797,2374.896044
20809.452459,-3627.009116,-8660.409521,0.000000
20809.452792,-2072.576638,-8882.471304,-612.876398
20809.453125,-2442.679609,-10140.821405,-1149.143247
20809.453458,-3256.906145,-12509.480420,-76.609550
20809.453791,-3330.926739,-7772.162391,-3983.696590
20809.454124,-6513.812290,-9548.656652,-4903.011187
20809.454457,-5699.585753,-11843.295072,-3140.991542
20809.454790,-4219.173869,-9918.759623,-766.095498
20809.455123,-74.020594,-8882.471304,4213.525239
20809.455456,3256.906145,-6735.874072,6971.469032
20809.455789,3923.091493,-8290.306550,7277.907231
20809.456122,3701.029710,-5551.544565,5515.887586
20809.456455,2590.720797,-9474.636058,2987.772442
20809.456788,1184.329507,-6587.832884,-842.705048
20809.457121,-2294.638420,-10510.924376,-4060.306139
20809.457454,-3034.844362,-10584.944971,-6128.763984
20809.457787,-814.226536,-8660.409521,-4596.572988
20809.458120,-1332.370696,-13915.871710,-1608.800546
20809.458453,3478.967927,-11843.295072,-76.609550
20809.458786,1702.473667,-8364.327145,0.000000
20809.459119,4145.153275,-7105.977043,3370.820191
20809.459452,4663.297435,-5921.647536,2681.334243
20809.459785,2812.782580,-8068.244768,2451.505594
20809.460118,5921.647536,-6587.832884,3064.381992
20809.460451,6735.874072,-9178.553681,3830.477490
20809.460784,5921.647536,-9548.656652,2451.505594
20809.461117,2368.659014,-11325.150913,1149.143247
20809.461450,-74.020594,-10732.986159,-6128.763984
20809.461783,-1776.494261,-7772.162391,-4903.011187
20809.462116,-888.247130,-14211.954086,-3753.867940
20809.462449,-370.102971,-8364.327145,-3677.258390
20809.462782,1554.432478,-10362.883188,1149.143247
20809.463115,3256.906145,-9326.594869,5669.106685
20809.463448,4959.379811,-6587.832884,6665.030833
20809.463781,5847.626942,-8586.388927,7277.907231
20809.464114,7031.956449,-8290.306550,6052.154434
20809.464447,-2294.638420,-6587.832884,0.000000
20809.464780,-74.020594,-10066.800811,-76.609550
20809.465113,-1850.514855,-11251.130318,-3294.210641
20809.465446,-2368.659014,-10732.986159,-1072.533697
20809.465779,-1850.514855,-10955.047942,-1915.238745
20809.466112,-3701.029710,-11843.295072,-3140.991542
20809.466445,-3256.906145,-9474.636058,-2068.457845
20809.466778,-3034.844362,-9178.553681,-689.485948
20809.467112,1702.473667,-8882.471304,2374.896044
20809.467445,-2072.576638,-4811.338623,5515.887586
20809.467778,1480.411884,-9474.636058,6052.154434
20809.468111,1702.473667,-9474.636058,4519.963438
20809.468444,-962.267725,-8290.306550,2374.896044
20809.468777,-888.247130,-8216.285956,459.657299
20809.469110,-3552.988522,-7476.080014,-2757.943793
20809.469443,-3997.112087,-10066.800811,-5592.497135
20809.469776,-8290.306550,-11917.315666,-4903.011187
20809.470109,-4515.256246,-8364.327145,-3677.258390
20809.470442,-2442.679609,-13619.789333,3370.820191
20809.470775,3182.885551,-8882.471304,3600.648841
20809.471108,296.082377,-7179.997637,6128.763984
20809.471441,1406.391290,-6513.812290,3600.648841
20809.471774,888.247130,-7994.224174,2911.162892
20809.472107,-740.205942,-8142.265362,-76.609550
20809.472440,296.082377,-8882.471304,383.047749
20809.472773,-1776.494261,-9548.656652,0.000000
20809.473106,-1850.514855,-10584.944971,-2298.286494
20809.473439,-1332.370696,-11547.212695,-1608.800546
20809.473772,-962.267725,-9104.533087,-919.314598
20809.474105,740.205942,-7920.203579,-383.047749
20809.474438,0.000000,-7179.997637,-1532.190996
20809.474771,1110.308913,-6809.894666,-1608.800546
20809.475104,148.041188,-8364.327145,3217.601092
20809.475437,6439.791695,-8882.471304,3600.648841
20809.475770,6735.874072,-10066.800811,5745.716235
20809.476103,5921.647536,-8364.327145,3600.648841
20809.476436,3849.070898,-8882.471304,612.876398
20809.476769,2146.597232,-9548.656652,-2374.896044
20809.477102,0.000000,-10140.821405,-4749.792088
20809.477435,-814.226536,-13027.624579,-2145.067394
20809.477768,-2220.617826,-9548.656652,-4596.572988
20809.478101,-1702.473667,-9548.656652,0.000000
20809.478434,0.000000,-10955.047942,2374.896044
20809.478767,5255.462188,-5329.482782,2987.772442
20809.479100,5699.585753,-6957.935855,7584.345430
20809.479433,5477.523971,-4589.276840,4366.744339
20809.479766,2294.638420,-10510.924376,2834.553343
20809.480099,1258.350101,-8734.430116,306.438199
20809.480432,4071.132681,-11843.295072,1149.143247
20809.480765,0.000000,-9548.656652,0.000000
20809.481098,1110.308913,-13027.624579,-3140.991542
20809.481431,-1850.514855,-10362.883188,-5209.449386
20809.481764,-4737.318029,-10140.821405,-2451.505594
20809.482097,-1554.432478,-9474.636058,-2834.553343
20809.482430,-4145.153275,-10066.800811,536.266849
20809.482763,-2590.720797,-7402.059420,919.314598
20809.483096,740.205942,-7920.203579,5592.497135
20809.483429,1554.432478,-3627.009116,4903.011187
20809.483762,0.000000,-4811.338623,6741.640382
20809.484095,2738.761985,-7105.977043,2987.772442
20809.484428,-4367.215058,-7179.997637,-4290.134789
20809.484761,-5921.647536,-9548.656652,-3677.258390
20809.485094,-7179.997637,-13323.706956,-7354.516781
20809.485427,-3701.029710,-12435.459826,-3830.477490
20809.485760,-1850.514855,-10436.903782,-1072.533697
20809.486093,-2146.597232,-11843.295072,229.828649
20809.486426,-1184.329507,-4811.338623,689.485948
20809.486759,-1036.288319,-10510.924376,2374.896044
20809.487092,2368.659014,-4071.132681,3140.991542
20809.487425,296.082377,-7624.121203,4826.401637
20809.487758,3923.091493,-8290.306550,4213.525239
20809.488091,3478.967927,-8882.471304,2681.334243
20809.488424,592.164754,-8956.491898,2757.943793
20809.488757,5847.626942,-11251.130318,2374.896044
20809.489090,222.061783,-8660.409521,-3064.381992
20809.489423,-592.164754,-9252.574275,-4903.011187
20809.489756,-4885.359217,-11695.253884,-6128.763984
20809.490089,-1554.432478,-10955.047942,-4826.401637
20809.490422,1184.329507,-9326.594869,-1838.629195
20809.490755,5847.626942,-10658.965565,3907.087040
20809.491088,7698.141797,-8290.306550,4826.401637
20809.491421,4737.318029,-7179.997637,6281.983084
20809.491754,7920.203579,-8882.471304,1762.019645
20809.492087,5847.626942,-6661.853478,1838.629195
20809.492420,4663.297435,-10658.965565,2681.334243
20809.492753,3034.844362,-7920.203579,0.000000
20809.493086,1702.473667,-11843.295072,-1302.362347
20809.493419,740.205942,-11399.171507,-1302.362347
20809.493752,0.000000,-9548.656652,-1225.752797
20809.494085,-74.020594,-10066.800811,-2528.115143
20809.494418,0.000000,-9548.656652,-76.609550
20809.494751,-666.185348,-10658.965565,-3294.210641
20809.495084,-1628.453072,-5995.668130,0.000000
20809.495417,0.000000,-7772.162391,2528.115143
20809.495750,2960.823768,-5995.668130,3677.258390
20809.496083,3923.091493,-9400.615463,4596.572988
20809.496416,1110.308913,-9474.636058,2374.896044
20809.496749,296.082377,-9104.533087,1762.019645
20809.497082,-2220.617826,-9844.739029,-6128.763984
20809.497415,-1258.350101,-11843.295072,-4060.306139
20809.497748,-5921.647536,-7772.162391,-6128.763984
20809.498081,-2072.576638,-10288.862594,-76.609550
20809.498414,-3627.009116,-11251.130318,-995.924147
20809.498747,-1702.473667,-9326.594869,1378.971896
20809.499080,222.061783,-6217.729913,2987.772442
20809.499413,74.020594,-6809.894666,2834.553343
20809.499746,0.000000,-7031.956449,2145.067394
20809.500079,-74.020594,-10658.965565,1762.019645
20809.500412,0.000000,-8364.327145,4290.134789
20809.500745,-74.020594,-11843.295072,2374.896044
20809.501078,-1850.514855,-6587.832884,-2145.067394
20809.501411,-5921.647536,-9548.656652,-1991.848295
20809.501744,-4737.318029,-7179.997637,-4290.134789
20809.502077,-2442.679609,-9474.636058,-4979.620737
20809.502410,-5403.503377,-10140.821405,-3524.039291
20809.502743,-740.205942,-5995.668130,-612.876398
20809.503076,-666.185348,-10658.965565,4213.525239
20809.503409,5329.482782,-7105.977043,6205.373534
20809.503742,2960.823768,-10214.842000,6281.983084
20809.504075,5181.441594,-7254.018232,3830.477490
20809.504408,4145.153275,-9030.512492,2911.162892
20809.504741,3478.967927,-10658.965565,-2221.676944
20809.505074,-1480.411884,-9548.656652,-2145.067394
20809.505407,0.000000,-12361.439231,-76.609550
20809.505740,2294.638420,-10288.862594,-1991.848295
20809.506073,592.164754,-9548.656652,-1225.752797
20809.506406,1998.556043,-9474.636058,-612.876398
20809.506739,1924.535449,-7031.956449,-1762.019645
20809.507072,3849.070898,-8586.388927,1762.019645
20809.507405,4663.297435,-7105.977043,2374.896044
20809.507738,2738.761985,-11843.295072,2987.772442
20809.508071,0.000000,-8364.327145,2451.505594
20809.508404,2220.617826,-11251.130318,3370.820191
20809.508737,4071.132681,-11251.130318,1455.581446
20809.509070,3478.967927,-9178.553681,-76.609550
20809.509403,2146.597232,-8808.450710,-536.266849
20809.509736,-1850.514855,-9474.636058,-3140.991542
20809.510069,-2368.659014,-11843.295072,-3524.039291
20809.510402,-3552.988522,-8364.327145,-2451.505594
20809.510735,4071.132681,-10658.965565,-76.609550
20809.511068,2368.659014,-9548.656652,7124.688131
20809.511400,3627.009116,-10362.883188,3600.648841
20809.511733,592.164754,-5995.668130,306.438199
20809.512066,0.000000,-8364.327145,2528.115143
20809.512399,296.082377,-8364.327145,1149.143247
20809.512732,-1332.370696,-9918.759623,-383.047749
20809.513065,-3701.029710,-11843.295072,-2068.457845
20809.513398,-3552.988522,-10881.027347,-1225.752797
20809.513731,-3627.009116,-8734.430116,-2451.505594
20809.514064,-148.041188,-8882.471304,1991.848295
20809.514397,-1850.514855,-8882.471304,-76.609550
20809.514730,-4515.256246,-6587.832884,-1225.752797
20809.515063,-5329.482782,-8956.491898,1225.752797
20809.515396,-1554.432478,-8882.471304,1302.362347
20809.515729,3330.926739,-8216.285956,3600.648841
20809.516062,3701.029710,-10066.800811,5975.544884
20809.516395,3627.009116,-9178.553681,3294.210641
20809.516728,0.000000,-6587.832884,766.095498
20809.517061,-666.185348,-10658.965565,-4979.620737
20809.517394,-3404.947333,-7994.224174,-5898.935335
20809.517727,-4737.318029,-11917.315666,-995.924147
20809.518060,-592.164754,-10066.800811,-2221.676944
20809.518393,-1924.535449,-10436.903782,229.828649
20809.518726,888.247130,-8438.347739,2374.896044
20809.519059,5033.400406,-5921.647536,6588.421283
20809.519392,4663.297435,-7105.977043,4213.525239
20809.519725,2368.659014,-5995.668130,2757.943793
20809.520058,-222.061783,-9178.553681,459.657299
20809.520391,2368.659014,-6883.915261,-766.095498
20809.520724,3552.988522,-10140.821405,153.219100
20809.521057,5551.544565,-13027.624579,-76.609550
20809.521390,0.000000,-11621.233289,-3370.820191
20809.521723,1480.411884,-14211.954086,-1302.362347
20809.522056,1702.473667,-10214.842000,-4826.401637
20809.522389,-592.164754,-10881.027347,-1838.629195
20809.522722,1702.473667,-11251.130318,2068.457845
20809.523055,3330.926739,-7031.956449,4136.915689
20809.523388,6513.812290,-7698.141797,7584.345430
20809.523720,6883.915261,-6513.812290,8197.221829
20809.524053,4959.379811,-6365.771101,4749.792088
20809.524386,0.000000,-5995.668130,1838.629195
20809.524719,-74.020594,-8882.471304,-2528.115143
20809.525052,-4811.338623,-9548.656652,-7048.078582
20809.525385,-4293.194464,-11843.295072,-4519.963438
20809.525718,-2442.679609,-11843.295072,-5592.497135
20809.526051,-1702.473667,-11103.089130,-1532.190996
20809.526384,-1776.494261,-10732.986159,-229.828649
20809.526717,-1702.473667,-8068.244768,0.000000
20809.527050,0.000000,-6291.750507,0.000000
20809.527383,0.000000,-7179.997637,5515.887586
20809.527716,3478.967927,-7105.977043,2834.553343
20809.528049,888.247130,-5995.668130,2451.505594
20809.528382,2368.659014,-8808.450710,5439.278036
20809.528715,1406.391290,-8068.244768,1532.190996
20809.529048,592.164754,-10066.800811,0.000000
20809.529381,-1480.411884,-9770.718434,-3140.991542
20809.529714,-5329.482782,-11695.253884,-5286.058936
20809.530047,-4811.338623,-12509.480420,-4979.620737
20809.530380,-4737.318029,-12361.439231,-76.609550
20809.530713,-74.020594,-9474.636058,383.047749
20809.531046,1184.329507,-7179.997637,7354.516781
20809.531379,4071.132681,-8290.306550,7277.907231
20809.531712,3552.988522,-5255.462188,5515.887586
20809.532045,1332.370696,-6735.874072,2681.334243
20809.532378,-592.164754,-5995.668130,0.000000
20809.532711,-2664.741391,-10066.800811,-995.924147
20809.533044,-4219.173869,-9770.718434,-4903.011187
20809.533377,-1258.350101,-11547.212695,-4213.525239
20809.533710,-2368.659014,-11029.068536,-4060.306139
20809.534043,0.000000,-11029.068536,-76.609550
20809.534376,-222.061783,-8068.244768,-2451.505594
20809.534709,1998.556043,-10955.047942,2068.457845
20809.535042,1110.308913,-7476.080014,2451.505594
20809.535375,2590.720797,-7550.100608,3907.087040
20809.535707,3701.029710,-5699.585753,4290.134789
20809.536040,4737.318029,-8364.327145,4903.011187
20809.536373,4959.379811,-8068.244768,2528.115143
20809.536706,1184.329507,-6587.832884,0.000000
20809.537039,-370.102971,-10510.924376,-4903.011187
20809.537372,-2590.720797,-11251.130318,-5898.935335
20809.537705,-5181.441594,-11029.068536,-5592.497135
20809.538038,-74.020594,-13027.624579,-2528.115143
20809.538371,518.144159,-10140.821405,-1762.019645
20809.538704,2960.823768,-9548.656652,1838.629195
20809.539037,5847.626942,-9178.553681,6588.421283
20809.539370,4145.153275,-5403.503377,5209.449386
20809.539703,3997.112087,-6883.915261,3677.258390
20809.540036,1776.494261,-8142.265362,1455.581446
20809.540369,2072.576638,-8956.491898,919.314598
20809.540702,1184.329507,-10807.006753,0.000000
20809.541035,2294.638420,-9918.759623,-1685.410096
20809.541368,-2368.659014,-10732.986159,459.657299
20809.541701,-74.020594,-10658.965565,-3140.991542
20809.542034,-1258.350101,-8290.306550,-4060.306139
20809.542367,-1480.411884,-10362.883188,-995.924147
20809.542700,-2368.659014,-9622.677246,-1532.190996
20809.543033,-1480.411884,-9178.553681,919.314598
20809.543366,1998.556043,-8216.285956,3294.210641
20809.543699,4071.132681,-9474.636058,6052.154434
20809.544032,2294.638420,-6587.832884,2757.943793
20809.544365,2368.659014,-7179.997637,3677.258390
20809.544698,2294.638420,-8290.306550,-689.485948
20809.545031,-4737.318029,-8364.327145,-3064.381992
20809.545364,-3330.926739,-11843.295072,-3447.429741
20809.545697,-3330.926739,-12139.377449,-1455.581446
20809.546030,-962.267725,-9844.739029,-612.876398
20809.546363,-1776.494261,-9548.656652,-459.657299
20809.546696,-962.267725,-8290.306550,-995.924147
20809.547029,-3552.988522,-5403.503377,612.876398
20809.547362,-74.020594,-9474.636058,842.705048
20809.547695,-1776.494261,-5995.668130,0.000000
20809.548027,0.000000,-7179.997637,3064.381992
20809.548360,2294.638420,-9326.594869,2681.334243
20809.548693,1776.494261,-8364.327145,2834.553343
20809.549026,666.185348,-9474.636058,1455.581446
20809.549359,370.102971,-8734.430116,-459.657299
20809.549692,-3330.926739,-9474.636058,-2834.553343
20809.550025,-4441.235652,-11251.130318,-4673.182538
20809.550358,-5625.565159,-11103.089130,-4519.963438
20809.550691,-2516.700203,-9548.656652,-1302.362347
20809.551024,2960.823768,-9178.553681,5209.449386
20809.551357,5255.462188,-9178.553681,6358.592633
20809.551690,4071.132681,-5107.421000,2451.505594
20809.552023,0.000000,-6587.832884,4290.134789
20809.552356,3478.967927,-8882.471304,-76.609550
20809.552689,0.000000,-8364.327145,-2451.505594
20809.553022,-74.020594,-11547.212695,-2528.115143
20809.553355,-1998.556043,-12361.439231,-2374.896044
20809.553688,-740.205942,-9844.739029,-2298.286494
20809.554021,-74.020594,-13027.624579,-76.609550
20809.554354,1184.329507,-7698.141797,-76.609550
20809.554687,-2072.576638,-7179.997637,1838.629195
20809.555020,518.144159,-8290.306550,3064.381992
20809.555353,3997.112087,-9178.553681,2681.334243
20809.555686,3775.050304,-9326.594869,4213.525239
20809.556019,7920.203579,-7846.182985,5515.887586
20809.556352,4663.297435,-9326.594869,4519.963438
20809.556685,4145.153275,-8956.491898,1072.533697
20809.557018,0.000000,-7772.162391,-3677.258390
20809.557351,-1258.350101,-13027.624579,-6205.373534
20809.557684,-4737.318029,-11325.150913,-3600.648841
20809.558017,-2590.720797,-13027.624579,-3140.991542
20809.558350,-2368.659014,-7698.141797,-3140.991542
20809.558683,-1480.411884,-9178.553681,2068.457845
20809.559016,3256.906145,-7476.080014,5822.325785
20809.559349,5107.421000,-4737.318029,7354.516781
20809.559682,3627.009116,-5551.544565,4903.011187
20809.560015,592.164754,-8660.409521,2451.505594
20809.560347,-1258.350101,-9030.512492,-2451.505594
20809.560680,-814.226536,-11843.295072,-76.609550
20809.561013,-74.020594,-10584.944971,-3064.381992
20809.561346,-3256.906145,-11325.150913,-1378.971896
20809.561679,-3552.988522,-11325.150913,-3064.381992
20809.562012,-4145.153275,-9474.636058,-3140.991542
20809.562345,-4145.153275,-9104.533087,-3447.429741
20809.562678,-2886.803174,-8882.471304,-995.924147
20809.563011,-74.020594,-9474.636058,2374.896044
20809.563344,1184.329507,-7179.997637,6435.202183
20809.563677,5255.462188,-9474.636058,7277.907231
20809.564010,2368.659014,-5107.421000,2451.505594
20809.564343,4145.153275,-6957.935855,5745.716235
20809.564676,1480.411884,-7772.162391,306.438199
20809.565009,-1628.453072,-10362.883188,-3140.991542
20809.565342,-6217.729913,-11251.130318,-6435.202183
20809.565675,-4885.359217,-11695.253884,-6205.373534
20809.566008,-1850.514855,-13027.624579,-1302.362347
20809.566341,0.000000,-8364.327145,1532.190996
20809.566674,0.000000,-8364.327145,1302.362347
20809.567007,1628.453072,-5995.668130,1455.581446
20809.567340,2664.741391,-6957.935855,2834.553343
20809.567673,3478.967927,-8882.471304,3907.087040
20809.568006,2368.659014,-8142.265362,3064.381992
20809.568339,4145.153275,-11177.109724,4826.401637
20809.568672,2738.761985,-7772.162391,0.000000
20809.569005,2590.720797,-11843.295072,1149.143247
20809.569338,1184.329507,-10658.965565,-1302.362347
20809.569671,0.000000,-9326.594869,-3907.087040
20809.570004,-740.205942,-10732.986159,-3447.429741
20809.570337,-1036.288319,-10881.027347,-2757.943793
20809.570670,-962.267725,-9992.780217,-689.485948
20809.571003,592.164754,-7179.997637,2451.505594
20809.571336,5551.544565,-8882.471304,5439.278036
20809.571669,3478.967927,-5699.585753,2451.505594
20809.572002,3552.988522,-6587.832884,4366.744339
20809.572335,4663.297435,-8290.306550,1149.143247
20809.572667,0.000000,-9844.739029,-536.266849
20809.573000,-222.061783,-11103.089130,-1762.019645
20809.573333,-2886.803174,-12287.418637,-2834.553343
20809.573666,-148.041188,-12953.603985,-76.609550
20809.573999,-1406.391290,-9548.656652,-2145.067394
20809.574332,-2368.659014,-9696.697840,1149.143247
20809.574665,-962.267725,-6809.894666,-2911.162892
20809.574998,-666.185348,-7920.203579,-2451.505594
20809.575331,2294.638420,-11251.130318,3600.648841
20809.575664,2294.638420,-8586.388927,4826.401637
20809.575997,2812.782580,-9548.656652,5515.887586
20809.576330,4811.338623,-7105.977043,4903.011187
20809.576663,1184.329507,-7920.203579,3064.381992
20809.576996,2294.638420,-8290.306550,-1378.971896
20809.577329,-4737.318029,-8364.327145,-2451.505594
20809.577662,-3330.926739,-12435.459826,-4979.620737
20809.577995,-5477.523971,-11843.295072,-5592.497135
20809.578328,-6291.750507,-10658.965565,-4060.306139
20809.578661,-2960.823768,-10140.821405,-383.047749
20809.578994,1332.370696,-7698.141797,3600.648841
20809.579327,2664.741391,-6587.832884,4979.620737
20809.579660,3108.864956,-6587.832884,4903.011187
20809.579993,0.000000,-5995.668130,2451.505594
20809.580326,1110.308913,-8882.471304,-76.609550
20809.580659,-1702.473667,-7179.997637,1225.752797
20809.580992,3478.967927,-10658.965565,1608.800546
20809.581325,888.247130,-10066.800811,-383.047749
20809.581658,-1036.288319,-11769.274478,-766.095498
20809.581991,-518.144159,-9474.636058,-3294.210641
20809.582324,-1850.514855,-10362.883188,-3370.820191
20809.582657,-1924.535449,-9474.636058,-2298.286494
20809.582990,-2368.659014,-9548.656652,306.438199
20809.583323,1554.432478,-8068.244768,2145.067394
20809.583656,3478.967927,-8290.306550,4826.401637
20809.583989,3997.112087,-8586.388927,6128.763984
20809.584322,4145.153275,-5995.668130,4903.011187
20809.584655,2220.617826,-3627.009116,0.000000
20809.584987,1184.329507,-8956.491898,-76.609550
20809.585320,-2590.720797,-10362.883188,-4673.182538
20809.585653,-3034.844362,-11547.212695,-5286.058936
20809.585986,-2368.659014,-12731.542202,-3600.648841
20809.586319,-1628.453072,-11473.192101,-1685.410096
20809.586652,592.164754,-9474.636058,-383.047749
20809.586985,1480.411884,-8512.368333,1532.190996
20809.587318,4663.297435,-8882.471304,4826.401637
20809.587651,1924.535449,-5403.503377,3064.381992
20809.587984,5625.565159,-10214.842000,6052.154434
20809.588317,2294.638420,-6587.832884,1838.629195
20809.588650,1184.329507,-9548.656652,3064.381992
20809.588983,2886.803174,-10658.965565,-76.609550
20809.589316,0.000000,-9548.656652,-1915.238745
20809.589649,-1406.391290,-9030.512492,-3600.648841
20809.589982,-3108.864956,-9252.574275,-4596.572988
20809.590315,-4219.173869,-10066.800811,-4366.744339
20809.590648,-4737.318029,-9548.656652,0.000000
20809.590981,1110.308913,-9474.636058,4519.963438
20809.591314,4071.132681,-6291.750507,3983.696590
20809.591647,2960.823768,-6883.915261,7354.516781
20809.591980,1998.556043,-7105.977043,2145.067394
20809.592313,1776.494261,-5699.585753,153.219100
20809.592646,888.247130,-9030.512492,-995.924147
20809.592979,0.000000,-10066.800811,-2068.457845
20809.593312,-3552.988522,-10732.986159,-5822.325785
20809.593645,-1184.329507,-15914.427753,-76.609550
20809.593978,-74.020594,-10066.800811,-2068.457845
20809.594311,0.000000,-9548.656652,0.000000
20809.594644,2960.823768,-9178.553681,4826.401637
20809.594977,222.061783,-5699.585753,1838.629195
20809.595310,370.102971,-7402.059420,2374.896044
20809.595643,296.082377,-7254.018232,3064.381992
20809.595976,2146.597232,-8512.368333,3140.991542
20809.596309,2960.823768,-7179.997637,1225.752797
20809.596642,888.247130,-9400.615463,1149.143247
20809.596974,-814.226536,-9474.636058,-2987.772442
20809.597307,-3849.070898,-9918.759623,-5439.278036
20809.597640,-2442.679609,-11547.212695,-5592.497135
20809.597973,-2442.679609,-10658.965565,-4903.011187
20809.598306,-4441.235652,-11325.150913,-1225.752797
20809.598639,0.000000,-10140.821405,3294.210641
20809.598972,2294.638420,-7550.100608,3677.258390
20809.599305,6957.935855,-7698.141797,9729.412825
20809.599638,4589.276840,-4885.359217,5669.106685
20809.599971,2886.803174,-7179.997637,2298.286494
20809.600304,1406.391290,-7772.162391,-612.876398
20809.600637,-2072.576638,-8956.491898,-2604.724693
20809.600970,1110.308913,-10510.924376,-4060.306139
20809.601303,0.000000,-12731.542202,-76.609550
20809.601636,-666.185348,-11103.089130,-3370.820191
20809.601969,-1110.308913,-7772.162391,-3064.381992
20809.602302,-1258.350101,-8660.409521,-1915.238745
20809.602635,-2368.659014,-10140.821405,1762.019645
20809.602968,-74.020594,-9104.533087,995.924147
20809.603301,1998.556043,-7698.141797,3677.258390
20809.603634,2664.741391,-6883.915261,5515.887586
20809.603967,5551.544565,-7698.141797,4596.572988
20809.604300,5847.626942,-9474.636058,6665.030833
20809.604633,2886.803174,-6217.729913,612.876398
20809.604966,0.000000,-8956.491898,-3677.258390
20809.605299,-3256.906145,-10140.821405,-4596.572988
20809.605632,-4737.318029,-11769.274478,-4826.401637
20809.605965,-3108.864956,-11843.295072,-3907.087040
20809.606298,0.000000,-10881.027347,-689.485948
20809.606631,2590.720797,-10658.965565,3600.648841
20809.606964,1184.329507,-6291.750507,4903.011187
20809.607297,4367.215058,-6217.729913,3524.039291
20809.607630,2886.803174,-4589.276840,0.000000
20809.607963,2590.720797,-10362.883188,2987.772442
20809.608295,2294.638420,-9474.636058,2068.457845
20809.608628,888.247130,-10658.965565,2681.334243
20809.608961,592.164754,-9548.656652,306.438199
20809.609294,-1332.370696,-9770.718434,-1378.971896
20809.609627,-1628.453072,-9178.553681,-3294.210641
20809.609960,-3552.988522,-10436.903782,-1608.800546
20809.610293,-3923.091493,-9030.512492,-5209.449386
20809.610626,-4737.318029,-9548.656652,-3677.258390
20809.610959,592.164754,-10658.965565,3600.648841
20809.611292,4663.297435,-7698.141797,6052.154434
20809.611625,5181.441594,-7476.080014,6358.592633
20809.611958,3108.864956,-8956.491898,4826.401637
20809.612291,1924.535449,-7920.203579,1532.190996
20809.612624,0.000000,-9104.533087,-995.924147
20809.612957,-2072.576638,-11843.295072,-2221.676944
20809.613290,-3108.864956,-11029.068536,-4290.134789
20809.613623,-2886.803174,-11547.212695,-2221.676944
20809.613956,-222.061783,-10510.924376,383.047749
20809.614289,-1628.453072,-8586.388927,0.000000
20809.614622,0.000000,-8364.327145,3447.429741
20809.614955,3478.967927,-7698.141797,4826.401637
20809.615288,370.102971,-5107.421000,1225.752797
20809.615621,592.164754,-7179.997637,2298.286494
20809.615954,2294.638420,-10658.965565,2068.457845
20809.616287,3330.926739,-8586.388927,2451.505594
20809.616620,3997.112087,-9474.636058,2987.772442
20809.616953,518.144159,-11473.192101,-1838.629195
20809.617286,-2368.659014,-9548.656652,-5362.668486
20809.617619,-4737.318029,-11325.150913,-3753.867940
20809.617952,-1258.350101,-9918.759623,-4979.620737
20809.618285,-1258.350101,-9622.677246,-3064.381992
20809.618618,0.000000,-9548.656652,2298.286494
20809.618950,2886.803174,-6143.709319,3677.258390
20809.619283,4663.297435,-6661.853478,5515.887586
20809.619616,5625.565159,-5847.626942,6205.373534
20809.619949,3923.091493,-6587.832884,4136.915689
20809.620282,3701.029710,-8290.306550,1532.190996
20809.620615,-444.123565,-13397.727550,2374.896044
20809.620948,-1258.350101,-9548.656652,-4290.134789
20809.621281,-888.247130,-11769.274478,-2451.505594
20809.621614,-1184.329507,-14063.912898,-383.047749
20809.621947,-3552.988522,-9548.656652,-919.314598
20809.622280,-3330.926739,-9326.594869,-2604.724693
20809.622613,-2516.700203,-8586.388927,-1762.019645
20809.622946,-1184.329507,-7476.080014,612.876398
20809.623279,0.000000,-7698.141797,4826.401637
20809.623612,4071.132681,-6513.812290,5439.278036
20809.623945,2590.720797,-6735.874072,3064.381992
20809.624278,5477.523971,-8216.285956,6665.030833
20809.624611,4663.297435,-10658.965565,4060.306139
20809.624944,2294.638420,-10066.800811,-689.485948
20809.625277,-4145.153275,-11695.253884,-6281.983084
20809.625610,-5181.441594,-12879.583391,-7277.907231
20809.625943,-4293.194464,-12213.398043,-4136.915689
20809.626276,-2072.576638,-10732.986159,-1225.752797
20809.626609,518.144159,-7846.182985,306.438199
20809.626942,1850.514855,-8438.347739,6435.202183
20809.627275,4663.297435,-4737.318029,3447.429741
20809.627608,2368.659014,-4219.173869,5056.230287
20809.627941,3775.050304,-8290.306550,3600.648841
20809.628274,0.000000,-8364.327145,306.438199
20809.628607,-296.082377,-10807.006753,-306.438199
20809.628940,0.000000,-10807.006753,-1149.143247
20809.629273,-2368.659014,-10140.821405,-2451.505594
20809.629606,-1258.350101,-10510.924376,-3217.601092
20809.629938,-74.020594,-9326.594869,-2528.115143
20809.630271,-1332.370696,-9992.780217,-1762.019645
20809.630604,-1702.473667,-9326.594869,-76.609550
20809.630937,0.000000,-8660.409521,2145.067394
20809.631270,4663.297435,-8882.471304,4826.401637
20809.631603,5107.421000,-4811.338623,6741.640382
20809.631936,5699.585753,-8734.430116,6052.154434
20809.632269,6439.791695,-7105.977043,2374.896044
20809.632602,0.000000,-8364.327145,-766.095498
20809.632935,-2146.597232,-11251.130318,-5669.106685
20809.633268,-4959.379811,-11991.336260,-6358.592633
20809.633601,-3627.009116,-11843.295072,-4673.182538
20809.633934,0.000000,-11917.315666,0.000000
20809.634267,-666.185348,-8068.244768,612.876398
20809.634600,0.000000,-5995.668130,3064.381992
20809.634933,2590.720797,-6809.894666,3600.648841
20809.635266,3182.885551,-4145.153275,2451.505594
20809.635599,740.205942,-8882.471304,3600.648841
20809.635932,0.000000,-9548.656652,1532.190996
20809.636265,888.247130,-9326.594869,383.047749
20809.636598,2294.638420,-10658.965565,1072.533697
20809.636931,4367.215058,-11251.130318,-76.609550
20809.637264,-2664.741391,-8660.409521,-4290.134789
20809.637597,-1480.411884,-11251.130318,-4903.011187
20809.637930,-1258.350101,-13619.789333,-3140.991542
20809.638263,-4145.153275,-9548.656652,-2451.505594
20809.638596,-1998.556043,-8882.471304,76.609550
20809.638929,666.185348,-8734.430116,3753.867940
20809.639262,3775.050304,-5403.503377,6741.640382
20809.639595,2886.803174,-5403.503377,5362.668486
20809.639928,3330.926739,-4145.153275,2528.115143
20809.640261,0.000000,-6587.832884,2451.505594
20809.640593,-1850.514855,-11843.295072,-2834.553343
20809.640926,-5329.482782,-9548.656652,-5515.887586
20809.641259,-4737.318029,-9548.656652,-3677.258390
20809.641592,1110.308913,-9474.636058,-1915.238745
20809.641925,666.185348,-10066.800811,229.828649
20809.642258,888.247130,-9030.512492,-76.609550
20809.642591,-1110.308913,-8438.347739,-995.924147
20809.642924,148.041188,-7994.224174,-383.047749
20809.643257,1184.329507,-9030.512492,2757.943793
20809.643590,1850.514855,-8586.388927,3294.210641
20809.643923,3330.926739,-9030.512492,4749.792088
20809.644256,4737.318029,-7476.080014,5056.230287
20809.644589,5847.626942,-9474.636058,3600.648841
20809.644922,2368.659014,-6291.750507,1225.752797
20809.645255,592.164754,-10436.903782,-76.609550
20809.645588,-3627.009116,-11547.212695,-5898.935335
20809.645921,-4737.318029,-10732.986159,-4903.011187
20809.646254,-2294.638420,-11177.109724,-1608.800546
20809.646587,888.247130,-8882.471304,766.095498
20809.646920,2220.617826,-8068.244768,2604.724693
20809.647253,2294.638420,-8290.306550,2374.896044
20809.647586,2072.576638,-7105.977043,1762.019645
20809.647919,0.000000,-7772.162391,2451.505594
20809.648252,2294.638420,-9178.553681,2374.896044
20809.648585,-74.020594,-10955.047942,383.047749
20809.648918,1850.514855,-10362.883188,1378.971896
20809.649251,1110.308913,-10066.800811,0.000000
20809.649584,740.205942,-10362.883188,383.047749
20809.649917,592.164754,-7846.182985,-919.314598
20809.650250,-4145.153275,-8364.327145,-3370.820191
20809.650583,-1850.514855,-11251.130318,-4366.744339
20809.650916,-6513.812290,-10140.821405,1225.752797
20809.651249,2738.761985,-9474.636058,3907.087040
20809.651581,1776.494261,-4811.338623,3370.820191
20809.651914,2516.700203,-7550.100608,4826.401637
20809.652247,2368.659014,-6291.750507,3064.381992
20809.652580,1184.329507,-7994.224174,1072.533697
20809.652913,444.123565,-8364.327145,-2145.067394
20809.653246,-4367.215058,-12065.356855,-2757.943793
20809.653579,-4811.338623,-10288.862594,-6128.763984
20809.653912,-2812.782580,-13027.624579,-76.609550
20809.654245,-74.020594,-9474.636058,-1302.362347
20809.654578,0.000000,-7179.997637,612.876398
20809.654911,1480.411884,-6587.832884,3983.696590
20809.655244,3552.988522,-6217.729913,4673.182538
20809.655577,888.247130,-8364.327145,2451.505594
20809.655910,1332.370696,-9770.718434,3677.258390
20809.656243,2812.782580,-9474.636058,2987.772442
20809.656576,1776.494261,-8364.327145,3677.258390
20809.656909,4071.132681,-10658.965565,-689.485948
20809.657242,-2220.617826,-8364.327145,-4903.011187
20809.657575,-2960.823768,-10436.903782,-2528.115143
20809.657908,-666.185348,-10658.965565,-4673.182538
20809.658241,-3256.906145,-11103.089130,-2374.896044
20809.658574,-3923.091493,-10214.842000,-1225.752797
20809.658907,74.020594,-8142.265362,2298.286494
20809.659240,3256.906145,-8290.306550,6052.154434
20809.659573,3552.988522,-4219.173869,7354.516781
20809.659906,4219.173869,-5403.503377,4519.963438
20809.660239,3256.906145,-6365.771101,919.314598
20809.660572,666.185348,-9918.759623,-1915.238745
20809.660905,-1258.350101,-14211.954086,-3753.867940
20809.661238,-4737.318029,-12509.480420,-4596.572988
20809.661571,-74.020594,-16580.613101,-1915.238745
20809.661904,0.000000,-9548.656652,0.000000
20809.662237,296.082377,-8956.491898,766.095498
20809.662569,740.205942,-9474.636058,1149.143247
20809.662902,814.226536,-6217.729913,1302.362347
20809.663235,518.144159,-7624.121203,2987.772442
20809.663568,2220.617826,-5477.523971,3447.429741
20809.663901,2146.597232,-7994.224174,2757.943793
20809.664234,1776.494261,-7179.997637,3064.381992
20809.664567,3478.967927,-9178.553681,1149.143247
20809.664900,2294.638420,-7772.162391,-3677.258390
20809.665233,-1184.329507,-8660.409521,-3064.381992
20809.665566,-2442.679609,-11843.295072,-6894.859482
20809.665899,-4589.276840,-12139.377449,-4060.306139
20809.666232,-4367.215058,-11991.336260,-2834.553343
20809.666565,-962.267725,-9252.574275,842.705048
20809.666898,2368.659014,-6883.915261,3677.258390
20809.667231,2368.659014,-4811.338623,9806.022374
20809.667564,5847.626942,-4145.153275,3830.477490
20809.667897,2368.659014,-5995.668130,0.000000
20809.668230,1776.494261,-9474.636058,1762.019645
20809.668563,-1554.432478,-9548.656652,0.000000
20809.668896,222.061783,-10362.883188,-2604.724693
20809.669229,-444.123565,-11769.274478,-2221.676944
20809.669562,-740.205942,-11103.089130,-1991.848295
20809.669895,-74.020594,-10066.800811,-383.047749
20809.670228,-888.247130,-9252.574275,-76.609550
20809.670561,-666.185348,-10362.883188,-1608.800546
20809.670894,-3552.988522,-8364.327145,919.314598
20809.671227,0.000000,-8512.368333,5132.839837
20809.671560,2960.823768,-6883.915261,7124.688131
20809.671893,4145.153275,-6809.894666,7201.297681
20809.672226,3923.091493,-5995.668130,4826.401637
20809.672559,1776.494261,-6957.935855,459.657299
20809.672892,-888.247130,-8290.306550,-4213.525239
20809.673224,-1258.350101,-14211.954086,-5592.497135
20809.673557,-6809.894666,-12213.398043,-7507.735880
20809.673890,-4737.318029,-11917.315666,-3600.648841
20809.674223,-962.267725,-12583.501014,-1608.800546
20809.674556,888.247130,-8364.327145,2757.943793
20809.674889,1628.453072,-7920.203579,4596.572988
20809.675222,3182.885551,-4737.318029,5132.839837
20809.675555,3108.864956,-5403.503377,4060.306139
20809.675888,296.082377,-7698.141797,2451.505594
20809.676221,3478.967927,-7328.038826,2834.553343
20809.676554,1258.350101,-10214.842000,3064.381992
20809.676887,3108.864956,-9104.533087,76.609550
20809.677220,-2368.659014,-11621.233289,-3524.039291
20809.677553,-3034.844362,-10658.965565,-6205.373534
20809.677886,-666.185348,-14211.954086,-4979.620737
20809.678219,-3330.926739,-9548.656652,-5515.887586
20809.678552,-2220.617826,-11399.171507,0.000000
20809.678885,-888.247130,-9548.656652,3983.696590
20809.679218,3775.050304,-5403.503377,6128.763984
20809.679551,5995.668130,-5329.482782,8503.660028
20809.679884,5625.565159,-6587.832884,6971.469032
20809.680217,3552.988522,-5107.421000,2757.943793
20809.680550,0.000000,-6587.832884,-3370.820191
20809.680883,-74.020594,-10362.883188,-4979.620737
20809.681216,-2590.720797,-10140.821405,-6128.763984
20809.681549,-1036.288319,-13619.789333,-2528.115143
20809.681882,-74.020594,-11843.295072,-1302.362347
20809.682215,0.000000,-10732.986159,-76.609550
20809.682548,814.226536,-8142.265362,-766.095498
20809.682881,814.226536,-7179.997637,1302.362347
20809.683214,2516.700203,-6439.791695,2451.505594
20809.683547,1776.494261,-9252.574275,5515.887586
20809.683880,2886.803174,-8290.306550,1685.410096
20809.684212,296.082377,-8364.327145,612.876398
20809.684545,2516.700203,-10658.965565,3294.210641
20809.684878,1702.473667,-7179.997637,-1762.019645
20809.685211,518.144159,-9474.636058,-3140.991542
20809.685544,-1702.473667,-11325.150913,-4366.744339
20809.685877,-4663.297435,-11769.274478,-3677.258390
20809.686210,-4515.256246,-12435.459826,-2221.676944
20809.686543,-74.020594,-11843.295072,2068.457845
20809.686876,1110.308913,-5995.668130,3064.381992
20809.687209,3552.988522,-7550.100608,6665.030833
20809.687542,2294.638420,-5921.647536,2068.457845
20809.687875,0.000000,-5403.503377,0.000000
20809.688208,1554.432478,-9474.636058,1149.143247
20809.688541,-3997.112087,-9844.739029,-1225.752797
20809.688874,-3182.885551,-11029.068536,-3294.210641
20809.689207,-4293.194464,-12213.398043,-2451.505594
20809.689540,-74.020594,-11843.295072,-76.609550
20809.689873,-1184.329507,-9104.533087,1991.848295
20809.690206,-740.205942,-5625.565159,-76.609550
20809.690539,-1110.308913,-7994.224174,0.000000
20809.690872,-3552.988522,-7772.162391,1225.752797
20809.691205,1184.329507,-9474.636058,3600.648841
20809.691538,-74.020594,-8586.388927,1991.848295
20809.691871,1998.556043,-5995.668130,2451.505594
20809.692204,4367.215058,-9474.636058,2987.772442
20809.692537,2590.720797,-6735.874072,536.266849
20809.692870,1998.556043,-8216.285956,-2221.676944
20809.693203,-4071.132681,-11991.336260,-5439.278036
20809.693536,-3627.009116,-12361.439231,-5592.497135
20809.693869,-2220.617826,-12731.542202,-995.924147
20809.694202,-296.082377,-10881.027347,2987.772442
20809.694535,1258.350101,-5403.503377,2451.505594
20809.694867,3256.906145,-8216.285956,6741.640382
20809.695200,6587.832884,-4737.318029,4826.401637
20809.695533,4737.318029,-4515.256246,3064.381992
20809.695866,3478.967927,-9178.553681,995.924147
20809.696199,2368.659014,-9918.759623,995.924147
20809.696532,888.247130,-12065.356855,459.657299
20809.696865,1702.473667,-11843.295072,-2987.772442
20809.697198,1184.329507,-11177.109724,-2528.115143
20809.697531,-1406.391290,-11325.150913,-5515.887586
20809.697864,0.000000,-8660.409521,-2145.067394
20809.698197,0.000000,-10732.986159,-1149.143247
20809.698530,1110.308913,-10658.965565,-76.609550
20809.698863,4145.153275,-6883.915261,3983.696590
20809.699196,5773.606348,-7402.059420,6588.421283
20809.699529,7698.141797,-5847.626942,6971.469032
20809.699862,2960.823768,-8364.327145,3677.258390
20809.700195,5847.626942,-7105.977043,-76.609550
20809.700528,0.000000,-10140.821405,0.000000
20809.700861,-74.020594,-13619.789333,-3753.867940
20809.701194,-4293.194464,-11399.171507,-4903.011187
20809.701527,-5625.565159,-11917.315666,-3524.039291
20809.701860,-1110.308913,-10436.903782,229.828649
20809.702193,-1554.432478,-9326.594869,1149.143247
20809.702526,0.000000,-7179.997637,2298.286494
20809.702859,-592.164754,-6883.915261,4826.401637
20809.703192,370.102971,-4219.173869,612.876398
20809.703525,-74.020594,-7105.977043,842.705048
20809.703858,-74.020594,-8364.327145,0.000000
20809.704191,296.082377,-11177.109724,2987.772442
20809.704525,-740.205942,-9548.656652,306.438199
20809.704858,-592.164754,-11029.068536,-76.609550
20809.705191,-2442.679609,-8882.471304,-1378.971896
20809.705524,-3330.926739,-9030.512492,-3524.039291
20809.705857,-3627.009116,-10658.965565,-1302.362347
20809.706190,-7105.977043,-10140.821405,-1225.752797
20809.706523,-4441.235652,-7920.203579,-842.705048
20809.706856,-666.185348,-8808.450710,3600.648841
20809.707189,1998.556043,-6365.771101,4749.792088
20809.707522,3182.885551,-5921.647536,4826.401637
20809.707855,-888.247130,-7179.997637,1532.190996
20809.708188,2294.638420,-9474.636058,2374.896044
20809.708521,-1850.514855,-8364.327145,-2451.505594
20809.708854,-888.247130,-11843.295072,-1149.143247
20809.709187,-1036.288319,-13323.706956,-689.485948
20809.709520,0.000000,-11917.315666,-229.828649
20809.709853,1480.411884,-9696.697840,229.828649
20809.710186,74.020594,-9104.533087,-536.266849
20809.710519,814.226536,-7402.059420,-1302.362347
20809.710852,-2368.659014,-8364.327145,0.000000
20809.711185,1406.391290,-9474.636058,4213.525239
20809.711518,4071.132681,-7698.141797,2987.772442
20809.711851,3849.070898,-7179.997637,5822.325785
20809.712184,8216.285956,-7105.977043,4213.525239
20809.712517,3627.009116,-8734.430116,3830.477490
20809.712850,2294.638420,-8438.347739,-2451.505594
20809.713183,-666.185348,-10732.986159,-5898.935335
20809.713516,-3552.988522,-12509.480420,-7048.078582
20809.713849,-4737.318029,-10732.986159,-3370.820191
20809.714182,-74.020594,-11843.295072,-3753.867940
20809.714515,0.000000,-8438.347739,-76.609550
20809.714848,1184.329507,-7772.162391,6128.763984
20809.715181,6439.791695,-3034.844362,4903.011187
20809.715514,5181.441594,-5625.565159,5745.716235
20809.715847,3034.844362,-6883.915261,2604.724693
20809.716180,1036.288319,-8364.327145,1838.629195
20809.716513,3330.926739,-10066.800811,1532.190996
20809.716846,2368.659014,-12139.377449,3294.210641
20809.717179,-74.020594,-10066.800811,-4213.525239
20809.717512,-3256.906145,-10436.903782,-4290.134789
20809.717845,-4737.318029,-10732.986159,-3907.087040
20809.718178,-2960.823768,-8956.491898,-3677.258390
20809.718511,-3330.926739,-10288.862594,-1838.629195
20809.718845,-1110.308913,-8808.450710,2681.334243
20809.719178,-444.123565,-8216.285956,4519.963438
20809.719511,1998.556043,-7698.141797,6665.030833
20809.719844,4663.297435,-7105.977043,6052.154434
20809.720177,592.164754,-4811.338623,2451.505594
20809.720510,0.000000,-6735.874072,2145.067394
20809.720843,-2442.679609,-9474.636058,-3140.991542
20809.721176,-8290.306550,-11325.150913,-4749.792088
20809.721509,-6143.709319,-12065.356855,-4749.792088
20809.721842,-4811.338623,-13027.624579,-2221.676944
20809.722175,-2664.741391,-10066.800811,-383.047749
20809.722508,-1554.432478,-7994.224174,1149.143247
20809.722841,1702.473667,-7031.956449,2834.553343
20809.723174,2664.741391,-4811.338623,4366.744339
20809.723507,296.082377,-7476.080014,2757.943793
20809.723840,74.020594,-9474.636058,2681.334243
20809.724173,-74.020594,-9474.636058,1762.019645
20809.724506,0.000000,-8364.327145,3217.601092
20809.724839,1110.308913,-10362.883188,-2221.676944
20809.725172,-1184.329507,-8956.491898,-3677.258390
20809.725505,-2072.576638,-7772.162391,-3370.820191
20809.725838,-222.061783,-8438.347739,-3370.820191
20809.726171,-296.082377,-9992.780217,-2068.457845
20809.726504,-1406.391290,-10214.842000,-612.876398
20809.726837,3256.906145,-8068.244768,2145.067394
20809.727170,4811.338623,-5107.421000,2451.505594
20809.727503,8808.450710,-8290.306550,3600.648841
20809.727836,7624.121203,-5699.585753,1225.752797
20809.728169,7476.080014,-9474.636058,1149.143247
20809.728502,7031.956449,-11843.295072,-76.609550
20809.728835,1776.494261,-11621.233289,-1685.410096
20809.729168,3478.967927,-10066.800811,-2604.724693
20809.729501,2886.803174,-13249.686362,-766.095498
20809.729834,5107.421000,-9252.574275,0.000000
20809.730167,2368.659014,-10732.986159,1225.752797
20809.730500,4071.132681,-6217.729913,-1838.629195
20809.730833,1480.411884,-6587.832884,0.000000
20809.731166,2664.741391,-9178.553681,3600.648841
20809.731499,4367.215058,-7698.141797,1608.800546
20809.731832,3701.029710,-9104.533087,4826.401637
20809.732165,3256.906145,-9104.533087,3447.429741
20809.732498,1184.329507,-7772.162391,612.876398
20809.732831,-2220.617826,-11695.253884,-1838.629195
20809.733164,-3627.009116,-11843.295072,-4979.620737
20809.733498,-5403.503377,-9696.697840,-7354.516781
20809.733831,-8290.306550,-11473.192101,-3677.258390
20809.734164,-2442.679609,-12879.583391,-76.609550
20809.734497,-3627.009116,-6809.894666,306.438199
20809.734830,1776.494261,-7994.224174,7277.907231
20809.735163,296.082377,-5181.441594,6741.640382
20809.735496,-962.267725,-6069.688724,3140.991542
20809.735829,-3108.864956,-7920.203579,153.219100
20809.736162,-3034.844362,-10066.800811,-76.609550
20809.736495,-4145.153275,-10584.944971,-1378.971896
20809.736828,-4441.235652,-14063.912898,-1685.410096
20809.737161,-4589.276840,-10807.006753,-1991.848295
20809.737494,-8290.306550,-11917.315666,-2451.505594
20809.737827,-4145.153275,-8290.306550,-1302.362347
20809.738160,-5699.585753,-7328.038826,-1685.410096
20809.738493,-5921.647536,-4811.338623,0.000000
20809.738826,-74.020594,-7550.100608,4519.963438
20809.739159,-2368.659014,-7105.977043,3907.087040
20809.739492,2442.679609,-6217.729913,4979.620737
20809.739825,1184.329507,-7254.018232,4673.182538
20809.740158,3775.050304,-7698.141797,2068.457845
20809.740491,2368.659014,-6883.915261,0.000000
20809.740824,1702.473667,-12731.542202,-2528.115143
20809.741157,-2442.679609,-10140.821405,-7354.516781
20809.741490,-3256.906145,-13101.645173,-6741.640382
20809.741823,1332.370696,-14063.912898,-689.485948
20809.742156,3108.864956,-8956.491898,0.000000
20809.742489,5403.503377,-8956.491898,3447.429741
20809.742822,6735.874072,-7105.977043,4979.620737
20809.743155,7254.018232,-4885.359217,4443.353888
20809.743488,8216.285956,-6809.894666,3294.210641
20809.743821,5329.482782,-9918.759623,4826.401637
20809.744154,4367.215058,-5995.668130,306.438199
20809.744487,4515.256246,-13027.624579,1149.143247
20809.744820,1850.514855,-11695.253884,-2528.115143
20809.745153,1850.514855,-11547.212695,-3140.991542
20809.745486,296.082377,-10658.965565,-3524.039291
20809.745819,2220.617826,-8290.306550,-2911.162892
20809.746152,-1628.453072,-10732.986159,-2374.896044
20809.746485,-1776.494261,-8364.327145,0.000000
20809.746818,4071.132681,-10658.965565,2987.772442
20809.747151,5329.482782,-8364.327145,6128.763984
20809.747484,8216.285956,-8290.306550,6971.469032
20809.747817,3627.009116,-6291.750507,2451.505594
20809.748151,3552.988522,-5403.503377,1225.752797
20809.748484,0.000000,-11325.150913,-1072.533697
20809.748817,-2516.700203,-11547.212695,-4366.744339
20809.749150,-4959.379811,-12435.459826,-4979.620737
20809.749483,-5033.400406,-15100.201217,-1838.629195
20809.749816,-3627.009116,-7179.997637,-3370.820191
20809.750149,-4145.153275,-11843.295072,1762.019645
20809.750482,-2442.679609,-7105.977043,-76.609550
20809.750815,-4441.235652,-4811.338623,5209.449386
20809.751148,-4589.276840,-5107.421000,1608.800546
20809.751481,-4441.235652,-7550.100608,3294.210641
20809.751814,-5181.441594,-9992.780217,1838.629195
20809.752147,-1332.370696,-8882.471304,2604.724693
20809.752480,-592.164754,-10066.800811,3600.648841
20809.752813,-2294.638420,-7179.997637,-1225.752797
20809.753146,-3775.050304,-8290.306550,-3830.477490
20809.753479,-5255.462188,-11251.130318,-4673.182538
20809.753812,-5329.482782,-12361.439231,-4060.306139
20809.754145,-6217.729913,-11473.192101,-1225.752797
20809.754478,-962.267725,-8734.430116,0.000000
20809.754811,0.000000,-5403.503377,3677.258390
20809.755144,6439.791695,-7105.977043,7277.907231
20809.755477,5551.544565,-4737.318029,4826.401637
20809.755810,3552.988522,-4811.338623,4290.134789
20809.756143,2886.803174,-7550.100608,0.000000
20809.756476,444.123565,-11621.233289,-383.047749
20809.756809,814.226536,-11177.109724,-2528.115143
20809.757142,2146.597232,-11251.130318,-1915.238745
20809.757475,3478.967927,-9992.780217,-3677.258390
20809.757808,4145.153275,-10807.006753,0.000000
20809.758141,4663.297435,-10658.965565,-383.047749
20809.758474,3775.050304,-7994.224174,-1225.752797
20809.758807,6069.688724,-10658.965565,2987.772442
20809.759140,6513.812290,-7994.224174,3907.087040
20809.759473,6957.935855,-9474.636058,4519.963438
20809.759806,8808.450710,-8438.347739,5439.278036
20809.760139,6809.894666,-7698.141797,3294.210641
20809.760472,4071.132681,-5403.503377,0.000000
20809.760805,4071.132681,-10658.965565,-3140.991542
20809.761138,-2146.597232,-11843.295072,-6205.373534
20809.761471,-3256.906145,-11621.233289,-4903.011187
20809.761804,-1850.514855,-12435.459826,-3753.867940
20809.762137,-370.102971,-9918.759623,-76.609550
20809.762470,666.185348,-8438.347739,1838.629195
20809.762804,2368.659014,-7179.997637,3677.258390
20809.763137,1184.329507,-6291.750507,3983.696590
20809.763470,1184.329507,-8068.244768,4060.306139
20809.763803,-74.020594,-9474.636058,-1455.581446
20809.764136,-4441.235652,-10140.821405,1225.752797
20809.764469,-1184.329507,-10436.903782,3600.648841
20809.764802,-1850.514855,-10658.965565,-1762.019645
20809.765135,-2220.617826,-9474.636058,-995.924147
20809.765468,-5625.565159,-10288.862594,-1532.190996
20809.765801,-4145.153275,-7550.100608,-2681.334243
20809.766134,-6217.729913,-9548.656652,-1532.190996
20809.766467,-5255.462188,-9548.656652,842.705048
20809.766800,-1406.391290,-7402.059420,3600.648841
20809.767133,-74.020594,-8808.450710,5898.935335
20809.767466,3034.844362,-7105.977043,4826.401637
20809.767799,-666.185348,-8290.306550,2374.896044
20809.768132,0.000000,-7179.997637,766.095498
20809.768465,-666.185348,-9178.553681,-3140.991542
20809.768798,-5995.668130,-11843.295072,-5975.544884
20809.769131,-3330.926739,-11843.295072,-4366.744339
20809.769464,-5403.503377,-12435.459826,-2528.115143
20809.769797,-222.061783,-8734.430116,383.047749
20809.770130,518.144159,-6883.915261,2911.162892
20809.770463,2220.617826,-6735.874072,3447.429741
20809.770796,5255.462188,-6069.688724,5898.935335
20809.771129,0.000000,-6587.832884,3677.258390
20809.771462,2886.803174,-10066.800811,-76.609550
20809.771795,2294.638420,-11843.295072,2374.896044
20809.772128,1776.494261,-8512.368333,612.876398
20809.772461,4663.297435,-10066.800811,1149.143247
20809.772794,518.144159,-10584.944971,-2604.724693
20809.773127,1258.350101,-8438.347739,-4213.525239
20809.773460,-888.247130,-10955.047942,-3370.820191
20809.773793,1702.473667,-10658.965565,-3140.991542
20809.774126,-74.020594,-12731.542202,-76.609550
20809.774459,2294.638420,-9474.636058,-76.609550
20809.774792,2368.659014,-6587.832884,4290.134789
20809.775125,5033.400406,-7772.162391,6435.202183
20809.775458,6587.832884,-5403.503377,4903.011187
20809.775791,3849.070898,-7179.997637,2145.067394
20809.776124,3256.906145,-8068.244768,-1149.143247
20809.776457,-1036.288319,-11917.315666,-3140.991542
20809.776790,0.000000,-11029.068536,-4903.011187
20809.777124,2294.638420,-14211.954086,-4979.620737
20809.777457,1554.432478,-13027.624579,-1608.800546
20809.777790,0.000000,-8364.327145,0.000000
20809.778123,1702.473667,-10658.965565,2374.896044
20809.778456,1184.329507,-6883.915261,1991.848295
20809.778789,1110.308913,-8660.409521,3064.381992
20809.779122,1480.411884,-8808.450710,5286.058936
20809.779455,-1258.350101,-7105.977043,2987.772442
20809.779788,-1184.329507,-10436.903782,3907.087040
20809.780121,-74.020594,-5329.482782,0.000000
20809.780454,0.000000,-8068.244768,2604.724693
20809.780787,-74.020594,-9474.636058,-76.609550
20809.781120,-4811.338623,-8290.306550,-4979.620737
20809.781453,-8290.306550,-13101.645173,-4366.744339
20809.781786,-5847.626942,-11991.336260,-3140.991542
20809.782119,-5403.503377,-11769.274478,0.000000
20809.782452,-1110.308913,-8290.306550,2451.505594
20809.782785,2368.659014,-6291.750507,7354.516781
20809.783118,1480.411884,-5403.503377,5515.887586
20809.783451,1702.473667,-5995.668130,3600.648841
20809.783784,592.164754,-7846.182985,1685.410096
20809.784117,-1850.514855,-9326.594869,-995.924147
20809.784450,-1184.329507,-11029.068536,-76.609550
20809.784783,-1850.514855,-12435.459826,-3140.991542
20809.785116,-4737.318029,-7476.080014,-3677.258390
20809.785449,1110.308913,-8882.471304,-1915.238745
20809.785782,1702.473667,-9474.636058,-383.047749
20809.786115,888.247130,-8068.244768,459.657299
20809.786448,-1776.494261,-9400.615463,-689.485948
20809.786781,-666.185348,-10140.821405,919.314598
20809.787114,2368.659014,-7476.080014,4290.134789
20809.787447,4737.318029,-7476.080014,6588.421283
20809.787780,7031.956449,-6809.894666,1838.629195
20809.788113,4737.318029,-9104.533087,1225.752797
20809.788446,4885.359217,-9474.636058,-76.609550
20809.788779,2368.659014,-9548.656652,-3294.210641
20809.789112,1776.494261,-10955.047942,-3447.429741
20809.789445,1036.288319,-11547.212695,-3677.258390
20809.789778,2294.638420,-11769.274478,-536.266849
20809.790111,3478.967927,-10362.883188,2221.676944
20809.790444,2960.823768,-8364.327145,4060.306139
20809.790777,4663.297435,-3923.091493,1225.752797
20809.791110,4737.318029,-6957.935855,3600.648841
20809.791443,2294.638420,-9474.636058,1149.143247
20809.791777,888.247130,-9844.739029,0.000000
20809.792110,1998.556043,-10584.944971,919.314598
20809.792443,2294.638420,-9474.636058,919.314598
20809.792776,1110.308913,-9696.697840,-1302.362347
20809.793109,-3034.844362,-9548.656652,-4673.182538
20809.793442,-1776.494261,-11177.109724,-3140.991542
20809.793775,-4737.318029,-9548.656652,-4903.011187
20809.794108,-5625.565159,-8956.491898,0.000000
20809.794441,-1258.350101,-10066.800811,3294.210641
20809.794774,-74.020594,-7698.141797,4519.963438
20809.795107,3478.967927,-4811.338623,6281.983084
20809.795440,814.226536,-8068.244768,5515.887586
20809.795773,1998.556043,-6513.812290,2528.115143
20809.796106,-4145.153275,-8660.409521,0.000000
20809.796439,-3627.009116,-10658.965565,-4213.525239
20809.796772,-4811.338623,-12435.459826,-2834.553343
20809.797105,-2886.803174,-13471.748144,-689.485948
20809.797438,-3923.091493,-8364.327145,-1838.629195
20809.797771,-1998.556043,-9252.574275,1302.362347
20809.798104,-1184.329507,-8882.471304,2374.896044
20809.798437,-2368.659014,-7476.080014,766.095498
20809.798770,1850.514855,-6513.812290,2145.067394
20809.799100,0.000000,-8956.491898,2757.943793
20809.799433,-74.020594,-8512.368333,0.000000
20809.799767,1110.308913,-8216.285956,1991.848295
20809.800100,1480.411884,-9474.636058,2604.724693
20809.800433,3034.844362,-8068.244768,2374.896044
20809.800766,-1776.494261,-8660.409521,-1225.752797
20809.801099,-666.185348,-10362.883188,-4673.182538
20809.801432,-5921.647536,-9548.656652,-3677.258390
20809.801765,-2812.782580,-12731.542202,-1302.362347
20809.802098,-1258.350101,-11843.295072,-76.609550
20809.802431,888.247130,-6587.832884,2604.724693
20809.802765,5847.626942,-6957.935855,4519.963438
20809.803098,4145.153275,-6291.750507,5898.935335
20809.803431,5699.585753,-6291.750507,1608.800546
20809.803764,4367.215058,-11547.212695,1455.581446
20809.804097,2886.803174,-9326.594869,-3524.039291
20809.804430,1850.514855,-13323.706956,-153.219100
20809.804763,3182.885551,-13619.789333,-2528.115143
20809.805096,2146.597232,-10436.903782,-1838.629195
20809.805429,1184.329507,-11029.068536,1149.143247
20809.805762,2590.720797,-7550.100608,-536.266849
20809.806096,296.082377,-8290.306550,229.828649
20809.806429,1184.329507,-8068.244768,842.705048
20809.806762,1480.411884,-8364.327145,6052.154434
20809.807095,3552.988522,-8364.327145,6052.154434
20809.807428,4663.297435,-7179.997637,2451.505594
20809.807761,4737.318029,-8068.244768,4290.134789
20809.808094,5847.626942,-11695.253884,3600.648841
20809.808427,0.000000,-7772.162391,-1838.629195
20809.808760,-1406.391290,-12287.418637,-5975.544884
20809.809094,-3923.091493,-13101.645173,-5669.106685
20809.809427,-4589.276840,-12953.603985,-3677.258390
20809.809760,-3330.926739,-10066.800811,-1915.238745
20809.810093,-1258.350101,-11251.130318,2374.896044
20809.810426,-962.267725,-3627.009116,3677.258390
20809.810759,1776.494261,-4737.318029,8197.221829
20809.811092,1406.391290,-4737.318029,4826.401637
20809.811425,814.226536,-7698.141797,4519.963438
20809.811758,-4071.132681,-10362.883188,995.924147
20809.812092,-5033.400406,-10584.944971,-1378.971896
20809.812425,-3627.009116,-11177.109724,-2604.724693
20809.812758,-4737.318029,-11325.150913,-3524.039291
20809.813091,-3627.009116,-9548.656652,-5515.887586
20809.813424,-3256.906145,-9252.574275,-3677.258390
20809.813757,-2960.823768,-10732.986159,-76.609550
20809.814090,-1258.350101,-8290.306550,-383.047749
20809.814423,-1850.514855,-10658.965565,4213.525239
20809.814756,1480.411884,-6587.832884,4443.353888
20809.815090,3552.988522,-7402.059420,5898.935335
20809.815423,2294.638420,-6735.874072,2681.334243
20809.815756,4737.318029,-4811.338623,2451.505594
20809.816089,2294.638420,-6587.832884,-995.924147
20809.816422,2886.803174,-10066.800811,-2834.553343
20809.816755,-2590.720797,-12361.439231,-4366.744339
20809.817088,-1110.308913,-13027.624579,-4903.011187
20809.817421,0.000000,-11029.068536,-3447.429741
20809.817754,5847.626942,-11843.295072,-76.609550
20809.818088,3997.112087,-8068.244768,0.000000
20809.818421,5181.441594,-7328.038826,2451.505594
20809.818754,8216.285956,-8290.306550,4213.525239
20809.819087,4145.153275,-8364.327145,3677.258390
20809.819420,5773.606348,-8808.450710,3140.991542
20809.819753,4885.359217,-9548.656652,1991.848295
20809.820086,5773.606348,-9548.656652,3370.820191
20809.820419,5329.482782,-8808.450710,1838.629195
20809.820752,1998.556043,-8364.327145,-2451.505594
20809.821086,0.000000,-7179.997637,-3370.820191
20809.821419,518.144159,-11843.295072,-2528.115143
20809.821752,-1850.514855,-9770.718434,-4673.182538
20809.822085,-2368.659014,-12583.501014,-76.609550
20809.822418,-74.020594,-9400.615463,2374.896044
20809.822751,2664.741391,-7254.018232,6052.154434
20809.823084,3182.885551,-6217.729913,4749.792088
20809.823417,2294.638420,-7994.224174,4826.401637
20809.823750,-1702.473667,-6291.750507,0.000000
20809.824084,-1628.453072,-11251.130318,612.876398
20809.824417,-2442.679609,-13027.624579,-1915.238745
20809.824750,-6513.812290,-9548.656652,-3677.258390
20809.825083,-2590.720797,-11547.212695,-1455.581446
20809.825416,-1258.350101,-9770.718434,-842.705048
20809.825749,-1850.514855,-10658.965565,-76.609550
20809.826082,-2886.803174,-7031.956449,-919.314598
20809.826415,-5181.441594,-8586.388927,-1302.362347
20809.826748,-7105.977043,-8364.327145,2451.505594
20809.827082,-74.020594,-7698.141797,2374.896044
20809.827415,-2368.659014,-9548.656652,3064.381992
20809.827748,1184.329507,-5995.668130,7354.516781
20809.828081,-1258.350101,-8290.306550,1072.533697
20809.828414,-740.205942,-7698.141797,-383.047749
20809.828747,-4737.318029,-9844.739029,-3447.429741
20809.829080,-4811.338623,-10955.047942,-5132.839837
20809.829413,-4959.379811,-10658.965565,-2528.115143
20809.829746,-5255.462188,-12509.480420,-2451.505594
20809.830080,814.226536,-7994.224174,1149.143247
20809.830413,2738.761985,-7994.224174,4826.401637
20809.830746,7105.977043,-6957.935855,7737.564530
20809.831079,5847.626942,-6513.812290,4060.306139
20809.831412,1184.329507,-8364.327145,2451.505594
20809.831745,1184.329507,-9548.656652,2681.334243
20809.832078,2294.638420,-11547.212695,-76.609550
20809.832411,2368.659014,-9548.656652,0.000000
20809.832744,2886.803174,-8808.450710,-766.095498
20809.833078,3256.906145,-9178.553681,-1608.800546
20809.833411,740.205942,-9474.636058,-2451.505594
20809.833744,1702.473667,-8586.388927,-3140.991542
20809.834077,-370.102971,-10658.965565,-2528.115143
20809.834410,0.000000,-9548.656652,919.314598
20809.834743,5847.626942,-8882.471304,4213.525239
20809.835076,7624.121203,-9474.636058,4213.525239
20809.835409,7920.203579,-7994.224174,6358.592633
20809.835742,5255.462188,-9030.512492,2987.772442
20809.836076,3997.112087,-8586.388927,842.705048
20809.836409,2738.761985,-9844.739029,-2221.676944
20809.836742,-3849.070898,-11695.253884,-4826.401637
20809.837075,-370.102971,-14211.954086,-3753.867940
20809.837408,-4145.153275,-9844.739029,0.000000
20809.837741,2294.638420,-10510.924376,-76.609550
20809.838074,1702.473667,-8290.306550,0.000000
20809.838407,814.226536,-6957.935855,1532.190996
20809.838740,888.247130,-7179.997637,2145.067394
20809.839074,666.185348,-8512.368333,1762.019645
20809.839407,-1332.370696,-9992.780217,1685.410096
20809.839740,-2368.659014,-9548.656652,1838.629195
20809.840073,-666.185348,-9474.636058,0.000000
20809.840406,-518.144159,-11843.295072,3600.648841
20809.840739,-1850.514855,-9474.636058,-1302.362347
20809.841072,-4441.235652,-7179.997637,-1838.629195
20809.841405,-4737.318029,-7179.997637,-2451.505594
20809.841738,-5329.482782,-10066.800811,-1608.800546
20809.842072,-5921.647536,-9622.677246,-766.095498
20809.842405,-4071.132681,-9474.636058,1915.238745
20809.842738,-74.020594,-9474.636058,3600.648841
20809.843071,-1628.453072,-5995.668130,4903.011187
20809.843404,2294.638420,-9178.553681,3294.210641
20809.843737,1628.453072,-4145.153275,842.705048
20809.844070,0.000000,-8364.327145,2451.505594
20809.844403,-1184.329507,-10140.821405,-612.876398
20809.844736,-3923.091493,-10658.965565,-2374.896044
20809.845070,-3478.967927,-12139.377449,-4136.915689
20809.845403,370.102971,-9474.636058,-1149.143247
20809.845736,-74.020594,-10658.965565,-76.609550
20809.846069,1480.411884,-4811.338623,306.438199
20809.846402,2294.638420,-7402.059420,229.828649
20809.846735,3330.926739,-9178.553681,2298.286494
20809.847068,3775.050304,-8364.327145,3524.039291
20809.847401,5847.626942,-11251.130318,6052.154434
20809.847734,7105.977043,-6143.709319,4290.134789
20809.848068,9104.533087,-11547.212695,4213.525239
20809.848401,6735.874072,-7624.121203,-1225.752797
20809.848734,3552.988522,-9770.718434,-2451.505594
20809.849067,2368.659014,-12657.521608,-3907.087040
20809.849400,-296.082377,-12657.521608,-4673.182538
20809.849733,518.144159,-11769.274478,-3140.991542
20809.850066,1480.411884,-11325.150913,536.266849
20809.850399,5551.544565,-7698.141797,2987.772442
20809.850732,4737.318029,-5403.503377,6128.763984
20809.851066,6735.874072,-4737.318029,4826.401637
20809.851399,4071.132681,-4811.338623,612.876398
20809.851732,1924.535449,-8068.244768,1991.848295
20809.852065,1702.473667,-11843.295072,-76.609550
20809.852398,-1184.329507,-11621.233289,-1378.971896
20809.852731,-2442.679609,-10510.924376,-3447.429741
20809.853064,-3182.885551,-10584.944971,-3677.258390
20809.853397,-3552.988522,-9548.656652,-4290.134789
20809.853730,-7105.977043,-7179.997637,0.000000
20809.854063,-3034.844362,-11547.212695,-1915.238745
20809.854397,-3034.844362,-9474.636058,-76.609550
20809.854730,-2664.741391,-7772.162391,4903.011187
20809.855063,1110.308913,-5847.626942,5056.230287
20809.855396,3182.885551,-7105.977043,7124.688131
20809.855729,2220.617826,-7105.977043,3907.087040
20809.856062,-1110.308913,-8068.244768,153.219100
20809.856395,-2220.617826,-9474.636058,-2145.067394
20809.856728,-6661.853478,-13027.624579,-4979.620737
20809.857061,-5995.668130,-11103.089130,-6665.030833
20809.857395,-7105.977043,-10732.986159,-1991.848295
20809.857728,-4145.153275,-12065.356855,1915.238745
20809.858061,-1554.432478,-3923.091493,1225.752797
20809.858394,-1258.350101,-9178.553681,3447.429741
20809.858727,1924.535449,-3627.009116,4213.525239
20809.859060,-1036.288319,-7476.080014,3524.039291
20809.859393,-74.020594,-7698.141797,1991.848295
20809.859726,-1184.329507,-10436.903782,2987.772442
20809.860059,-1258.350101,-11843.295072,-76.609550
20809.860393,1184.329507,-6587.832884,1225.752797
20809.860726,-370.102971,-10658.965565,-1225.752797
20809.861059,962.267725,-7179.997637,-3370.820191
20809.861392,-1702.473667,-9474.636058,-3217.601092
20809.861725,518.144159,-11843.295072,-2528.115143
20809.862058,-2072.576638,-10732.986159,-1532.190996
20809.862391,1702.473667,-11251.130318,2987.772442
20809.862724,5551.544565,-7698.141797,5439.278036
20809.863057,6439.791695,-6439.791695,5975.544884
20809.863391,6513.812290,-5995.668130,3983.696590
20809.863724,3849.070898,-6291.750507,1991.848295
20809.864057,1776.494261,-9548.656652,-306.438199
20809.864390,-4737.318029,-9548.656652,-2451.505594
20809.864723,-74.020594,-13323.706956,-4366.744339
20809.865056,0.000000,-11547.212695,-3753.867940
20809.865389,2590.720797,-10510.924376,-76.609550
20809.865722,2886.803174,-10362.883188,-536.266849
20809.866055,1998.556043,-7772.162391,76.609550
20809.866389,2960.823768,-7772.162391,2681.334243
20809.866722,4145.153275,-7476.080014,2528.115143
20809.867055,3478.967927,-9474.636058,2987.772442
20809.867388,2368.659014,-10140.821405,2451.505594
20809.867721,5329.482782,-10510.924376,4673.182538
20809.868054,4663.297435,-7476.080014,2451.505594
20809.868387,1184.329507,-9548.656652,0.000000
20809.868720,-1554.432478,-9696.697840,-4749.792088
20809.869053,-3478.967927,-11103.089130,-6358.592633
20809.869387,-3849.070898,-12361.439231,-3983.696590
20809.869720,-4663.297435,-11917.315666,-766.095498
20809.870053,-4589.276840,-7772.162391,0.000000
20809.870386,-814.226536,-10362.883188,5745.716235
20809.870719,3478.967927,-7105.977043,7277.907231
20809.871052,0.000000,-3627.009116,7354.516781
20809.871385,3775.050304,-5181.441594,6665.030833
20809.871718,-1628.453072,-7031.956449,1072.533697
20809.872051,-4959.379811,-10362.883188,-1915.238745
20809.872385,-5329.482782,-12509.480420,-2757.943793
20809.872718,-5403.503377,-12583.501014,-4060.306139
20809.873051,-4737.318029,-10732.986159,-2451.505594
20809.873384,-2146.597232,-11843.295072,-1608.800546
20809.873717,-3627.009116,-6587.832884,-2145.067394
20809.874050,-3404.947333,-5107.421000,1225.752797
20809.874383,2294.638420,-9178.553681,6052.154434
20809.874716,148.041188,-7179.997637,5056.230287
20809.875049,888.247130,-5551.544565,3830.477490
20809.875383,1406.391290,-9474.636058,3830.477490
20809.875716,3404.947333,-6069.688724,2374.896044
20809.876049,0.000000,-7772.162391,0.000000
20809.876382,2294.638420,-8438.347739,-3600.648841
20809.876715,-3034.844362,-11325.150913,-6281.983084
20809.877048,-3775.050304,-14137.933492,-5745.716235
20809.877381,-1850.514855,-11843.295072,-3753.867940
20809.877714,-2072.576638,-9548.656652,0.000000
20809.878047,5255.462188,-8290.306550,5515.887586
20809.878381,8216.285956,-7105.977043,4826.401637
20809.878714,7179.997637,-4811.338623,4903.011187
20809.879047,8216.285956,-6513.812290,4826.401637
20809.879380,5477.523971,-9548.656652,1378.971896
20809.879713,4293.194464,-10362.883188,-612.876398
20809.880046,3923.091493,-12435.459826,-153.219100
20809.880379,2368.659014,-11917.315666,-3677.258390
20809.880712,592.164754,-8364.327145,-2451.505594
20809.881045,1998.556043,-12435.459826,-3753.867940
20809.881379,1776.494261,-5995.668130,-2145.067394
20809.881712,0.000000,-8956.491898,766.095498
20809.882045,-370.102971,-7994.224174,-383.047749
20809.882378,592.164754,-7920.203579,3677.258390
20809.882711,1332.370696,-8216.285956,4826.401637
20809.883044,5847.626942,-4515.256246,6052.154434
20809.883377,3849.070898,-8216.285956,5515.887586
20809.883710,2368.659014,-6883.915261,2451.505594
20809.884043,-74.020594,-9474.636058,-4366.744339
20809.884377,-4293.194464,-12805.562797,-6741.640382
20809.884710,-5921.647536,-12509.480420,-5515.887586
20809.885043,-5921.647536,-14285.974681,-4903.011187
20809.885376,-1406.391290,-10955.047942,-536.266849
20809.885709,-1480.411884,-9474.636058,2834.553343
20809.886042,148.041188,-7105.977043,2987.772442
20809.886375,1110.308913,-7105.977043,4826.401637
20809.886708,0.000000,-6957.935855,6665.030833
20809.887041,-2368.659014,-5403.503377,612.876398
20809.887375,-4737.318029,-8956.491898,3600.648841
20809.887708,-1258.350101,-6957.935855,-689.485948
20809.888041,-1258.350101,-10510.924376,2374.896044
20809.888374,-814.226536,-7772.162391,-766.095498
20809.888707,-5921.647536,-11473.192101,-4519.963438
20809.889040,-5403.503377,-9326.594869,-5592.497135
20809.889373,-7105.977043,-10140.821405,-4903.011187
20809.889706,-4811.338623,-11843.295072,-4060.306139
20809.890039,-4145.153275,-8364.327145,1532.190996
20809.890373,-74.020594,-11843.295072,6052.154434
20809.890706,4663.297435,-1554.432478,7354.516781
20809.891039,3997.112087,-4737.318029,7277.907231
20809.891372,4293.194464,-6587.832884,3830.477490
20809.891705,2664.741391,-6587.832884,766.095498
20809.892038,222.061783,-12065.356855,-1915.238745
20809.892371,-2368.659014,-10732.986159,-4290.134789
20809.892704,-1258.350101,-12435.459826,-5362.668486
20809.893037,962.267725,-11843.295072,-1991.848295
20809.893371,3552.988522,-8882.471304,-919.314598
20809.893704,1702.473667,-9548.656652,-1225.752797
20809.894037,-1480.411884,-6291.750507,-3064.381992
20809.894370,1998.556043,-10066.800811,-76.609550
20809.894703,2886.803174,-6809.894666,459.657299
20809.895036,4737.318029,-8956.491898,6435.202183
20809.895369,7624.121203,-9474.636058,6971.469032
20809.895702,6143.709319,-5551.544565,3677.258390
20809.896035,5551.544565,-9104.533087,1762.019645
20809.896369,3552.988522,-8438.347739,-1072.533697
20809.896702,370.102971,-10288.862594,-4519.963438
20809.897035,-2368.659014,-12509.480420,-4749.792088
20809.897368,-666.185348,-13027.624579,-4366.744339
20809.897701,-2368.659014,-9548.656652,-3294.210641
20809.898034,2368.659014,-8364.327145,4290.134789
20809.898367,4959.379811,-7698.141797,4826.401637
20809.898700,2960.823768,-6587.832884,5056.230287
20809.899033,2442.679609,-6513.812290,1072.533697
20809.899367,1332.370696,-9400.615463,153.219100
20809.899700,148.041188,-9474.636058,766.095498
20809.900033,-74.020594,-12435.459826,1685.410096
20809.900366,-666.185348,-10658.965565,-3753.867940
20809.900699,-4145.153275,-10140.821405,-383.047749
20809.901032,-4145.153275,-9844.739029,1915.238745
20809.901365,-1258.350101,-7105.977043,-1608.800546
20809.901698,-2442.679609,-8290.306550,-229.828649
20809.902031,-5329.482782,-9918.759623,-689.485948
20809.902364,-4663.297435,-10288.862594,1762.019645
20809.902698,-1480.411884,-7476.080014,3677.258390
20809.903031,222.061783,-7105.977043,3294.210641
20809.903364,592.164754,-5995.668130,612.876398
20809.903697,-74.020594,-7846.182985,-919.314598
20809.904030,-74.020594,-9474.636058,-689.485948
20809.904363,-3478.967927,-7476.080014,-3677.258390
20809.904696,-1258.350101,-11251.130318,-3753.867940
20809.905029,-1850.514855,-14211.954086,-76.609550
20809.905362,-1406.391290,-8290.306550,-2298.286494
20809.905695,-2368.659014,-10214.842000,612.876398
20809.906028,0.000000,-5107.421000,0.000000
20809.906362,1776.494261,-6143.709319,3524.039291
20809.906695,1110.308913,-7105.977043,1838.629195
20809.907028,2442.679609,-7328.038826,766.095498
20809.907361,1110.308913,-11547.212695,1762.019645
20809.907694,2294.638420,-9474.636058,-76.609550
20809.908027,3627.009116,-7179.997637,0.000000
20809.908360,6365.771101,-11547.212695,3294.210641
20809.908693,4663.297435,-10066.800811,-1915.238745
20809.909026,2294.638420,-10807.006753,-1915.238745
20809.909359,1998.556043,-11103.089130,-3753.867940
20809.909692,1110.308913,-10214.842000,-3064.381992
20809.910026,1998.556043,-11843.295072,0.000000
20809.910359,2664.741391,-10732.986159,2987.772442
20809.910692,6513.812290,-7476.080014,7277.907231
20809.911025,2960.823768,-5995.668130,7354.516781
20809.911358,7624.121203,-7105.977043,4136.915689
20809.911691,3552.988522,-5403.503377,2451.505594
20809.912024,1702.473667,-9474.636058,-995.924147
20809.912357,-1554.432478,-11547.212695,-3983.696590
20809.912690,-3997.112087,-12509.480420,-4443.353888
20809.913023,-3701.029710,-12213.398043,-2911.162892
20809.913356,-2072.576638,-9030.512492,-1685.410096
20809.913690,-2442.679609,-10362.883188,-1915.238745
20809.914023,-1184.329507,-8142.265362,0.000000
20809.914356,0.000000,-9474.636058,2987.772442
20809.914689,-222.061783,-7179.997637,1532.190996
20809.915022,-2368.659014,-9548.656652,3677.258390
20809.915355,1036.288319,-8882.471304,4366.744339
20809.915688,2812.782580,-7105.977043,4366.744339
20809.916021,3256.906145,-7402.059420,2451.505594
20809.916354,740.205942,-9918.759623,-383.047749
20809.916687,-3256.906145,-7772.162391,-4903.011187
20809.917020,-3627.009116,-14211.954086,-2528.115143
20809.917354,-4811.338623,-13619.789333,-2528.115143
20809.917687,-5995.668130,-9918.759623,-4290.134789
20809.918020,-2442.679609,-10658.965565,2987.772442
20809.918353,0.000000,-6439.791695,4979.620737
20809.918686,1998.556043,-4885.359217,5515.887586
20809.919019,2442.679609,-5329.482782,3907.087040
20809.919352,444.123565,-6883.915261,2221.676944
20809.919685,0.000000,-7476.080014,766.095498
20809.920018,-74.020594,-11843.295072,-3753.867940
20809.920351,-4737.318029,-11917.315666,-3677.258390
20809.920684,-3552.988522,-10732.986159,-1685.410096
20809.921018,1702.473667,-11843.295072,-76.609550
20809.921351,0.000000,-8660.409521,383.047749
20809.921684,0.000000,-7179.997637,0.000000
20809.922017,-74.020594,-9030.512492,229.828649
20809.922350,296.082377,-9104.533087,2911.162892
20809.922683,1184.329507,-8068.244768,5669.106685
20809.923016,3775.050304,-6957.935855,4673.182538
20809.923349,4293.194464,-7254.018232,4596.572988
20809.923682,3923.091493,-6587.832884,2374.896044
20809.924015,3182.885551,-7105.977043,-689.485948
20809.924348,-1776.494261,-8956.491898,-4903.011187
20809.924682,-666.185348,-12435.459826,-7431.126331
20809.925015,-4811.338623,-13101.645173,-8580.269578
20809.925348,-2368.659014,-12805.562797,-2757.943793
20809.925681,-74.020594,-12731.542202,-76.609550
20809.926014,2664.741391,-7402.059420,3370.820191
20809.926347,6291.750507,-6365.771101,6665.030833
20809.926680,7550.100608,-4071.132681,6511.811733
20809.927013,5329.482782,-5995.668130,4290.134789
