#time,accel_x,accel_y,accel_z
20673.041239,5551.544565,-7846.182985,3140.991542
20673.041573,6513.812290,-8808.450710,6052.154434
20673.041906,7994.224174,-7624.121203,4903.011187
20673.042240,7105.977043,-7179.997637,2757.943793
20673.042573,7254.018232,-8660.409521,536.266849
20673.042907,5847.626942,-10658.965565,-2528.115143
20673.043241,5847.626942,-10658.965565,-5592.497135
20673.043574,2368.659014,-9844.739029,-2528.115143
20673.043908,5033.400406,-11325.150913,-1302.362347
20673.044241,6439.791695,-10066.800811,-2604.724693
20673.044575,9400.615463,-10066.800811,1455.581446
20673.044908,11251.130318,-8660.409521,5209.449386
20673.045242,12361.439231,-6735.874072,4903.011187
20673.045576,13323.706956,-8364.327145,4979.620737
20673.045909,12435.459826,-7179.997637,3447.429741
20673.046243,10955.047942,-7179.997637,0.000000
20673.046576,12509.480420,-11843.295072,-76.609550
20673.046910,6143.709319,-9844.739029,-4290.134789
20673.047243,1480.411884,-11917.315666,-6128.763984
20673.047577,2294.638420,-14211.954086,-5132.839837
20673.047911,0.000000,-11843.295072,-3370.820191
20673.048244,1628.453072,-9252.574275,-919.314598
20673.048578,6291.750507,-7031.956449,4213.525239
20673.048911,8586.388927,-3923.091493,9039.926876
20673.049245,11547.212695,-3701.029710,9729.412825
20673.049578,12731.542202,-4885.359217,7660.954980
20673.049912,12065.356855,-6291.750507,4519.963438
20673.050246,11251.130318,-7772.162391,2145.067394
20673.050579,10066.800811,-8660.409521,-3064.381992
20673.050913,6439.791695,-10807.006753,-9806.022374
20673.051246,4145.153275,-13101.645173,-9806.022374
20673.051580,4811.338623,-14211.954086,-6818.249932
20673.051914,4737.318029,-13101.645173,-5822.325785
20673.052247,6069.688724,-12731.542202,-1915.238745
20673.052581,7179.997637,-10584.944971,2987.772442
20673.052914,11547.212695,-7476.080014,7737.564530
20673.053248,15322.262999,-5921.647536,10955.165621
20673.053581,13027.624579,-3627.009116,11261.603821
20673.053915,12361.439231,-5329.482782,5515.887586
20673.054249,7698.141797,-7772.162391,4136.915689
20673.054582,4737.318029,-10807.006753,-76.609550
20673.054916,-370.102971,-11843.295072,-6818.249932
20673.055249,-3923.091493,-13027.624579,-8963.317327
20673.055583,-5107.421000,-11991.336260,-7737.564530
20673.055916,-3923.091493,-10732.986159,-4903.011187
20673.056250,74.020594,-8882.471304,-383.047749
20673.056584,6365.771101,-9474.636058,6665.030833
20673.056917,7105.977043,-3627.009116,6128.763984
20673.057251,8290.306550,-5995.668130,8733.488677
20673.057584,11177.109724,-5921.647536,6665.030833
20673.057918,6143.709319,-6587.832884,1225.752797
20673.058251,5847.626942,-8290.306550,-1915.238745
20673.058585,3627.009116,-11251.130318,-2834.553343
20673.058919,-1998.556043,-14359.995275,-5745.716235
20673.059252,-2886.803174,-13323.706956,-5209.449386
20673.059586,-2442.679609,-11843.295072,-3140.991542
20673.059919,2368.659014,-8364.327145,3600.648841
20673.060253,5921.647536,-4219.173869,6741.640382
20673.060586,11769.274478,-2960.823768,5056.230287
20673.060920,10658.965565,-4811.338623,7967.393179
20673.061254,9844.739029,-6365.771101,2757.943793
20673.061587,10214.842000,-7254.018232,-995.924147
20673.061921,6809.894666,-11473.192101,-3600.648841
20673.062254,3923.091493,-13323.706956,-6205.373534
20673.062588,-2368.659014,-11917.315666,-9652.803275
20673.062922,-2960.823768,-14582.057057,-4979.620737
20673.063255,1998.556043,-12435.459826,-1915.238745
20673.063589,5255.462188,-7179.997637,2451.505594
20673.063922,7105.977043,-6883.915261,8580.269578
20673.064256,6883.915261,-5995.668130,7354.516781
20673.064589,7698.141797,-6217.729913,6205.373534
20673.064923,8290.306550,-6587.832884,5132.839837
20673.065257,7402.059420,-6439.791695,1455.581446
20673.065590,3478.967927,-7179.997637,-4290.134789
20673.065924,-1110.308913,-13989.892304,-5898.935335
20673.066257,-3701.029710,-12213.398043,-7201.297681
20673.066591,-2368.659014,-12287.418637,-4213.525239
20673.066924,1554.432478,-11251.130318,2068.457845
20673.067258,2886.803174,-8290.306550,2681.334243
20673.067592,740.205942,-5403.503377,1225.752797
20673.067925,1184.329507,-8364.327145,4443.353888
20673.068259,1110.308913,-10066.800811,2298.286494
20673.068592,0.000000,-9548.656652,3064.381992
20673.068926,-814.226536,-8216.285956,689.485948
20673.069259,-1184.329507,-8660.409521,229.828649
20673.069593,592.164754,-7772.162391,0.000000
20673.069927,2886.803174,-5921.647536,-76.609550
20673.070260,5847.626942,-4737.318029,-1608.800546
20673.070594,2664.741391,-9252.574275,1608.800546
20673.070927,0.000000,-10732.986159,-459.657299
20673.071261,-370.102971,-12731.542202,-2987.772442
20673.071595,-3034.844362,-13249.686362,-2068.457845
20673.071928,-3108.864956,-12213.398043,-2528.115143
20673.072262,-1776.494261,-12287.418637,229.828649
20673.072595,1702.473667,-9252.574275,3140.991542
20673.072929,0.000000,-7179.997637,4903.011187
20673.073262,1702.473667,-4219.173869,0.000000
20673.073596,2664.741391,-8882.471304,6052.154434
20673.073930,2294.638420,-3923.091493,2451.505594
20673.074263,-1406.391290,-5403.503377,1378.971896
20673.074597,-2220.617826,-5181.441594,-2221.676944
20673.074930,-2072.576638,-10584.944971,-2374.896044
20673.075264,-1924.535449,-10807.006753,-2451.505594
20673.075597,-1924.535449,-11843.295072,-2221.676944
20673.075931,-2960.823768,-12435.459826,-3447.429741
20673.076265,-7105.977043,-11325.150913,-4290.134789
20673.076598,-4145.153275,-12213.398043,-76.609550
20673.076932,-666.185348,-9178.553681,306.438199
20673.077265,1184.329507,-8438.347739,6435.202183
20673.077599,2738.761985,-6513.812290,5209.449386
20673.077932,5107.421000,-6143.709319,7201.297681
20673.078266,6143.709319,-5033.400406,5975.544884
20673.078600,6365.771101,-4293.194464,3983.696590
20673.078933,2294.638420,-7698.141797,-2221.676944
20673.079267,0.000000,-11695.253884,-3140.991542
20673.079600,-3775.050304,-11843.295072,-9039.926876
20673.079934,-4811.338623,-12213.398043,-9652.803275
20673.080268,-6513.812290,-13101.645173,-5209.449386
20673.080601,-1258.350101,-14211.954086,-3524.039291
20673.080935,2738.761985,-11547.212695,3907.087040
20673.081268,4737.318029,-7550.100608,7354.516781
20673.081602,5847.626942,-4959.379811,6971.469032
20673.081935,7031.956449,-6809.894666,6052.154434
20673.082269,6513.812290,-7105.977043,6665.030833
20673.082603,3701.029710,-6587.832884,2681.334243
20673.082936,-592.164754,-8808.450710,-2221.676944
20673.083270,-2368.659014,-11251.130318,-4213.525239
20673.083603,-666.185348,-11843.295072,-3140.991542
20673.083937,-2368.659014,-8660.409521,-4903.011187
20673.084270,-592.164754,-11399.171507,-1302.362347
20673.084604,-74.020594,-10066.800811,-2528.115143
20673.084938,0.000000,-11917.315666,2451.505594
20673.085271,1702.473667,-11251.130318,3447.429741
20673.085605,-148.041188,-10658.965565,5132.839837
20673.085938,962.267725,-7179.997637,5745.716235
20673.086272,4441.235652,-5033.400406,6358.592633
20673.086605,4219.173869,-2590.720797,3677.258390
20673.086939,592.164754,-4811.338623,2987.772442
20673.087273,-1258.350101,-7105.977043,-4979.620737
20673.087606,-4663.297435,-8660.409521,-7354.516781
20673.087940,-3552.988522,-12361.439231,-5132.839837
20673.088273,-5699.585753,-12213.398043,-7814.174080
20673.088607,-3775.050304,-12805.562797,-4749.792088
20673.088941,370.102971,-12583.501014,1072.533697
20673.089274,4885.359217,-9548.656652,6741.640382
20673.089608,4145.153275,-8364.327145,7967.393179
20673.089941,4737.318029,-8142.265362,9116.536426
20673.090275,3182.885551,-7402.059420,2987.772442
20673.090608,0.000000,-5403.503377,0.000000
20673.090942,-666.185348,-9474.636058,-689.485948
20673.091276,-6513.812290,-8068.244768,-4136.915689
20673.091609,-4737.318029,-8808.450710,-4443.353888
20673.091942,-2664.741391,-9696.697840,-3524.039291
20673.092275,-1258.350101,-9992.780217,-842.705048
20673.092608,518.144159,-8290.306550,1762.019645
20673.092941,-74.020594,-11695.253884,2374.896044
20673.093275,1110.308913,-9548.656652,0.000000
20673.093608,1332.370696,-11621.233289,3677.258390
20673.093941,-666.185348,-10658.965565,2987.772442
20673.094274,296.082377,-9992.780217,4213.525239
20673.094607,0.000000,-7179.997637,2451.505594
20673.094940,2368.659014,-7624.121203,2681.334243
20673.095273,1258.350101,-5107.421000,612.876398
20673.095606,-74.020594,-7105.977043,-1608.800546
20673.095939,-1258.350101,-8512.368333,-4213.525239
20673.096272,-1628.453072,-9992.780217,-2834.553343
20673.096605,-1110.308913,-10288.862594,-1838.629195
20673.096939,-1628.453072,-10732.986159,0.000000
20673.097272,444.123565,-9548.656652,2451.505594
20673.097605,4219.173869,-10658.965565,4826.401637
20673.097938,4811.338623,-6069.688724,2834.553343
20673.098271,1776.494261,-7476.080014,3983.696590
20673.098604,962.267725,-8068.244768,-1532.190996
20673.098937,-1776.494261,-10436.903782,-1302.362347
20673.099270,-3330.926739,-9548.656652,-3294.210641
20673.099603,-2738.761985,-8512.368333,-2298.286494
20673.099936,962.267725,-9326.594869,-306.438199
20673.100269,1998.556043,-8364.327145,0.000000
20673.100602,7031.956449,-6513.812290,1149.143247
20673.100936,4145.153275,-6587.832884,3064.381992
20673.101269,2368.659014,-7772.162391,2451.505594
20673.101602,2368.659014,-13619.789333,0.000000
20673.101935,666.185348,-14211.954086,-76.609550
20673.102268,-1776.494261,-12509.480420,229.828649
20673.102601,-1480.411884,-9548.656652,-153.219100
20673.102934,518.144159,-10658.965565,1149.143247
20673.103267,0.000000,-5995.668130,2451.505594
20673.103600,-74.020594,-8290.306550,-76.609550
20673.103933,-1850.514855,-5033.400406,-3064.381992
20673.104266,-4737.318029,-9844.739029,-2451.505594
20673.104600,-2442.679609,-9474.636058,-2528.115143
20673.104933,-1850.514855,-10510.924376,-689.485948
20673.105266,-2294.638420,-8808.450710,153.219100
20673.105599,370.102971,-10436.903782,1762.019645
20673.105932,2886.803174,-9178.553681,3753.867940
20673.106265,5255.462188,-9474.636058,7277.907231
20673.106598,1480.411884,-6587.832884,1225.752797
20673.106931,-2368.659014,-8660.409521,0.000000
20673.107264,-666.185348,-11843.295072,-3753.867940
20673.107597,-5847.626942,-9548.656652,-4596.572988
20673.107930,-3627.009116,-9474.636058,-3447.429741
20673.108263,-3701.029710,-9844.739029,-1302.362347
20673.108597,1776.494261,-8290.306550,2068.457845
20673.108930,2590.720797,-7994.224174,5592.497135
20673.109263,3330.926739,-4737.318029,3600.648841
20673.109596,0.000000,-5995.668130,2451.505594
20673.109929,1702.473667,-10362.883188,1149.143247
20673.110262,1110.308913,-7772.162391,0.000000
20673.110595,0.000000,-8956.491898,612.876398
20673.110928,-666.185348,-10362.883188,-3294.210641
20673.111261,-1036.288319,-12361.439231,-1532.190996
20673.111594,0.000000,-9844.739029,-766.095498
20673.111927,1702.473667,-7772.162391,-995.924147
20673.112261,2294.638420,-8290.306550,-1455.581446
20673.112594,1184.329507,-8660.409521,0.000000
20673.112927,1850.514855,-9400.615463,2374.896044
20673.113260,1628.453072,-8660.409521,2987.772442
20673.113593,1184.329507,-7772.162391,3677.258390
20673.113926,5255.462188,-10066.800811,3294.210641
20673.114259,4737.318029,-6291.750507,1225.752797
20673.114592,4885.359217,-9474.636058,4519.963438
20673.114925,666.185348,-8068.244768,-2451.505594
20673.115258,-1998.556043,-8660.409521,-5822.325785
20673.115591,-2442.679609,-13249.686362,-4596.572988
20673.115925,-1850.514855,-11251.130318,-2221.676944
20673.116258,-4737.318029,-9992.780217,-3064.381992
20673.116591,-666.185348,-10658.965565,-76.609550
20673.116924,3182.885551,-10658.965565,3600.648841
20673.117257,2960.823768,-3923.091493,6741.640382
20673.117590,8808.450710,-7105.977043,7277.907231
20673.117923,4293.194464,-6291.750507,2451.505594
20673.118256,2368.659014,-9548.656652,2145.067394
20673.118589,-1406.391290,-11843.295072,-1991.848295
20673.118922,-4811.338623,-12509.480420,-4519.963438
20673.119255,-7031.956449,-12065.356855,-5056.230287
20673.119588,-4515.256246,-11695.253884,-2681.334243
20673.119922,1110.308913,-7105.977043,-1302.362347
20673.120255,-2368.659014,-7476.080014,3677.258390
20673.120588,-74.020594,-6365.771101,3600.648841
20673.120921,2294.638420,-9474.636058,2374.896044
20673.121254,1998.556043,-9474.636058,3600.648841
20673.121587,0.000000,-7994.224174,3294.210641
20673.121920,-1406.391290,-8956.491898,1072.533697
20673.122253,592.164754,-9326.594869,1225.752797
20673.122586,0.000000,-8364.327145,612.876398
20673.122919,814.226536,-7624.121203,-2451.505594
20673.123252,-2368.659014,-8364.327145,-1225.752797
20673.123586,-1850.514855,-11251.130318,-4366.744339
20673.123919,-4219.173869,-10658.965565,-4673.182538
20673.124252,-4737.318029,-10140.821405,-3217.601092
20673.124585,-2590.720797,-9770.718434,-459.657299
20673.124918,666.185348,-8808.450710,3294.210641
20673.125251,6291.750507,-6957.935855,6971.469032
20673.125584,7920.203579,-8290.306550,8503.660028
20673.125917,3552.988522,-4811.338623,5822.325785
20673.126250,3182.885551,-6809.894666,-76.609550
20673.126583,222.061783,-7772.162391,-3677.258390
20673.126916,370.102971,-12435.459826,-1608.800546
20673.127249,-3997.112087,-10510.924376,-4673.182538
20673.127583,-3997.112087,-11621.233289,-4213.525239
20673.127916,-1924.535449,-11621.233289,-2911.162892
20673.128249,1332.370696,-8660.409521,0.000000
20673.128582,4663.297435,-8290.306550,4213.525239
20673.128915,4145.153275,-5995.668130,3064.381992
20673.129248,4589.276840,-9030.512492,2987.772442
20673.129581,2812.782580,-9400.615463,2145.067394
20673.129914,2590.720797,-10955.047942,1532.190996
20673.130247,2072.576638,-10066.800811,1225.752797
20673.130580,1258.350101,-7772.162391,-2451.505594
20673.130913,2368.659014,-10955.047942,1762.019645
20673.131247,1702.473667,-7476.080014,-1991.848295
20673.131580,-1036.288319,-7031.956449,-3524.039291
20673.131913,222.061783,-10066.800811,-2068.457845
20673.132246,-2072.576638,-11325.150913,-1149.143247
20673.132579,-3108.864956,-9918.759623,-1532.190996
20673.132912,-2812.782580,-10881.027347,383.047749
20673.133245,-74.020594,-9474.636058,2374.896044
20673.133578,592.164754,-8956.491898,5745.716235
20673.133911,4663.297435,-9474.636058,6052.154434
20673.134244,1258.350101,-2738.761985,3064.381992
20673.134577,0.000000,-6587.832884,2451.505594
20673.134910,-666.185348,-10066.800811,-1915.238745
20673.135244,-4367.215058,-9844.739029,-2681.334243
20673.135577,-6291.750507,-11325.150913,-4290.134789
20673.135910,-4811.338623,-9400.615463,-3447.429741
20673.136243,-3108.864956,-9696.697840,-2451.505594
20673.136576,0.000000,-9844.739029,3600.648841
20673.136909,1998.556043,-8290.306550,4213.525239
20673.137242,1702.473667,-5921.647536,0.000000
20673.137575,2072.576638,-10881.027347,3600.648841
20673.137908,444.123565,-9548.656652,1838.629195
20673.138241,1554.432478,-8512.368333,2451.505594
20673.138574,-370.102971,-8734.430116,153.219100
20673.138908,518.144159,-10807.006753,-229.828649
20673.139241,-1036.288319,-9548.656652,0.000000
20673.139574,2294.638420,-11251.130318,-76.609550
20673.139907,-74.020594,-5995.668130,-3064.381992
20673.140240,-1776.494261,-9252.574275,-3677.258390
20673.140573,-74.020594,-13619.789333,-76.609550
20673.140906,-3256.906145,-9548.656652,0.000000
20673.141239,-666.185348,-9030.512492,-76.609550
20673.141572,2220.617826,-9104.533087,2145.067394
20673.141905,5255.462188,-9770.718434,5132.839837
20673.142238,5329.482782,-6883.915261,3677.258390
20673.142571,3478.967927,-6217.729913,2221.676944
20673.142905,2590.720797,-7105.977043,-2068.457845
20673.143238,296.082377,-12287.418637,-1991.848295
20673.143571,-74.020594,-10658.965565,-4366.744339
20673.143904,-1258.350101,-10881.027347,-4673.182538
20673.144237,-2368.659014,-11547.212695,-1915.238745
20673.144570,2886.803174,-14211.954086,-76.609550
20673.144903,4071.132681,-7031.956449,3064.381992
20673.145236,7031.956449,-8290.306550,7277.907231
20673.145569,5107.421000,-5107.421000,3983.696590
20673.145902,3552.988522,-9030.512492,2451.505594
20673.146235,2146.597232,-10214.842000,689.485948
20673.146569,-2072.576638,-8364.327145,0.000000
20673.146902,-1258.350101,-10140.821405,-5515.887586
20673.147235,-592.164754,-12065.356855,-76.609550
20673.147568,-666.185348,-9252.574275,-1762.019645
20673.147901,1110.308913,-7105.977043,-1762.019645
20673.148234,-1776.494261,-5995.668130,-1225.752797
20673.148567,-2368.659014,-8956.491898,-2298.286494
20673.148900,666.185348,-10955.047942,1149.143247
20673.149233,1332.370696,-8956.491898,3830.477490
20673.149566,1184.329507,-9400.615463,4290.134789
20673.149899,1110.308913,-8660.409521,1991.848295
20673.150232,4663.297435,-11843.295072,3600.648841
20673.150566,1554.432478,-5995.668130,3064.381992
20673.150899,2886.803174,-7994.224174,612.876398
20673.151232,-1924.535449,-8734.430116,-3217.601092
20673.151565,-3182.885551,-11473.192101,-3907.087040
20673.151898,-4737.318029,-11251.130318,-3830.477490
20673.152231,-5033.400406,-11621.233289,-3370.820191
20673.152564,-3923.091493,-11251.130318,-3140.991542
20673.152897,-2368.659014,-8956.491898,4443.353888
20673.153230,3478.967927,-5625.565159,4519.963438
20673.153563,3478.967927,-2442.679609,3677.258390
20673.153896,2368.659014,-7698.141797,4519.963438
20673.154230,3478.967927,-9178.553681,2374.896044
20673.154563,-74.020594,-9474.636058,766.095498
20673.154896,-2368.659014,-9992.780217,-1838.629195
20673.155229,-4737.318029,-9992.780217,-3830.477490
20673.155562,-3552.988522,-12139.377449,-3140.991542
20673.155895,814.226536,-10658.965565,-76.609550
20673.156228,0.000000,-6143.709319,0.000000
20673.156561,1480.411884,-7476.080014,0.000000
20673.156894,2738.761985,-9474.636058,2068.457845
20673.157227,3478.967927,-9474.636058,2374.896044
20673.157560,1406.391290,-10066.800811,2374.896044
20673.157893,-444.123565,-10436.903782,1225.752797
20673.158227,2072.576638,-8734.430116,1991.848295
20673.158560,3404.947333,-8956.491898,3294.210641
20673.158893,5847.626942,-8586.388927,3600.648841
20673.159226,0.000000,-7476.080014,-919.314598
20673.159559,-1850.514855,-8586.388927,-4903.011187
20673.159892,-2590.720797,-10658.965565,-3830.477490
20673.160225,-2516.700203,-9548.656652,-4290.134789
20673.160558,-2368.659014,-10955.047942,-1455.581446
20673.160891,-1258.350101,-13027.624579,-1302.362347
20673.161224,296.082377,-9548.656652,3983.696590
20673.161557,7031.956449,-7105.977043,5439.278036
20673.161891,7031.956449,-6513.812290,6205.373534
20673.162224,6735.874072,-5329.482782,4213.525239
20673.162557,1998.556043,-10436.903782,536.266849
20673.162890,74.020594,-9696.697840,-2298.286494
20673.163223,-4737.318029,-11917.315666,-4596.572988
20673.163556,-4737.318029,-13027.624579,-2834.553343
20673.163889,-2442.679609,-9696.697840,-3677.258390
20673.164222,-3404.947333,-8364.327145,0.000000
20673.164555,1776.494261,-7920.203579,2068.457845
20673.164888,1184.329507,-5107.421000,1838.629195
20673.165221,4071.132681,-7254.018232,3140.991542
20673.165555,3034.844362,-9178.553681,3753.867940
20673.165888,1998.556043,-9104.533087,2604.724693
20673.166221,1702.473667,-9474.636058,2374.896044
20673.166554,-74.020594,-13027.624579,-76.609550
20673.166887,0.000000,-8364.327145,306.438199
20673.167220,148.041188,-10066.800811,2374.896044
20673.167553,1702.473667,-7105.977043,-2528.115143
20673.167886,-2368.659014,-8364.327145,-919.314598
20673.168219,-3701.029710,-10584.944971,-2451.505594
20673.168552,-3330.926739,-10658.965565,-1302.362347
20673.168885,-3775.050304,-10510.924376,153.219100
20673.169218,-74.020594,-6809.894666,1149.143247
20673.169552,3478.967927,-9474.636058,5286.058936
20673.169885,4145.153275,-3627.009116,6128.763984
20673.170218,6735.874072,-8290.306550,5439.278036
20673.170551,0.000000,-4811.338623,0.000000
20673.170884,-666.185348,-11843.295072,-3140.991542
20673.171217,-4145.153275,-12287.418637,-3983.696590
20673.171550,-2738.761985,-11399.171507,-3600.648841
20673.171883,-3478.967927,-9844.739029,-3217.601092
20673.172216,-2368.659014,-11029.068536,-1225.752797
20673.172549,-2220.617826,-9548.656652,0.000000
20673.172882,2738.761985,-8290.306550,5439.278036
20673.173216,5847.626942,-7105.977043,4826.401637
20673.173549,1776.494261,-5107.421000,4903.011187
20673.173882,1776.494261,-11251.130318,4213.525239
20673.174215,222.061783,-8660.409521,1915.238745
20673.174548,-2664.741391,-9548.656652,-383.047749
20673.174881,-1776.494261,-8734.430116,-1991.848295
20673.175214,-2368.659014,-10881.027347,-1225.752797
20673.175547,-1628.453072,-7179.997637,-3064.381992
20673.175880,-2294.638420,-9030.512492,-2911.162892
20673.176213,-2146.597232,-7846.182985,-3600.648841
20673.176546,444.123565,-11843.295072,-766.095498
20673.176879,148.041188,-8660.409521,612.876398
20673.177213,3478.967927,-8290.306550,2374.896044
20673.177546,0.000000,-8364.327145,3370.820191
20673.177879,4663.297435,-10066.800811,3600.648841
20673.178212,5255.462188,-8290.306550,4519.963438
20673.178545,4737.318029,-6957.935855,5592.497135
20673.178878,2886.803174,-7402.059420,919.314598
20673.179211,-1110.308913,-10436.903782,-2451.505594
20673.179544,-3108.864956,-11251.130318,-4519.963438
20673.179877,-3923.091493,-13323.706956,-2221.676944
20673.180210,-4441.235652,-7179.997637,-4596.572988
20673.180543,-4145.153275,-9548.656652,0.000000
20673.180877,6439.791695,-9474.636058,4213.525239
20673.181210,3849.070898,-3627.009116,4903.011187
20673.181543,6735.874072,-6513.812290,4826.401637
20673.181876,2664.741391,-8216.285956,2145.067394
20673.182209,2516.700203,-9844.739029,0.000000
20673.182542,1480.411884,-11473.192101,536.266849
20673.182875,814.226536,-9474.636058,-1915.238745
20673.183208,-3552.988522,-9548.656652,-1838.629195
20673.183541,1702.473667,-11843.295072,-76.609550
20673.183874,5255.462188,-9474.636058,-76.609550
20673.184207,1776.494261,-5699.585753,612.876398
20673.184540,1554.432478,-8438.347739,-1915.238745
20673.184874,-444.123565,-10881.027347,-1149.143247
20673.185207,-444.123565,-11399.171507,306.438199
20673.185540,-1480.411884,-9400.615463,612.876398
20673.185873,0.000000,-7920.203579,612.876398
20673.186206,0.000000,-9548.656652,7507.735880
20673.186539,4663.297435,-7105.977043,4519.963438
20673.186872,0.000000,-4811.338623,0.000000
20673.187205,-4145.153275,-6587.832884,-1532.190996
20673.187538,-3034.844362,-9918.759623,-5362.668486
20673.187871,-4367.215058,-9844.739029,-3524.039291
20673.188204,-4737.318029,-11251.130318,-2911.162892
20673.188538,-6587.832884,-10732.986159,-3370.820191
20673.188871,-4293.194464,-11325.150913,-1302.362347
20673.189204,1110.308913,-9918.759623,4136.915689
20673.189537,3552.988522,-6735.874072,6665.030833
20673.189870,2738.761985,-5995.668130,5515.887586
20673.190203,4663.297435,-7698.141797,4826.401637
20673.190536,1998.556043,-9474.636058,1762.019645
20673.190869,-3552.988522,-10140.821405,766.095498
20673.191202,-2442.679609,-12435.459826,-1302.362347
20673.191535,-5625.565159,-9844.739029,-4749.792088
20673.191868,-2072.576638,-10140.821405,-1838.629195
20673.192201,-1554.432478,-8438.347739,-1838.629195
20673.192535,-370.102971,-6661.853478,-689.485948
20673.192868,222.061783,-8068.244768,-536.266849
20673.193201,1554.432478,-9474.636058,1762.019645
20673.193534,1406.391290,-10362.883188,2374.896044
20673.193867,0.000000,-7772.162391,3064.381992
20673.194200,2220.617826,-11103.089130,4826.401637
20673.194533,4663.297435,-8290.306550,3064.381992
20673.194866,4663.297435,-7920.203579,3294.210641
20673.195199,2590.720797,-7105.977043,306.438199
20673.195532,1480.411884,-7254.018232,-2221.676944
20673.195865,-740.205942,-11029.068536,-4136.915689
20673.196199,0.000000,-9548.656652,-4290.134789
20673.196532,-1554.432478,-13027.624579,-4979.620737
20673.196865,-2072.576638,-9548.656652,-1225.752797
20673.197198,4071.132681,-11547.212695,2374.896044
20673.197531,7920.203579,-11843.295072,8503.660028
20673.197864,5921.647536,-5995.668130,6128.763984
20673.198197,7179.997637,-9326.594869,7277.907231
20673.198530,6143.709319,-8882.471304,1149.143247
20673.198863,2664.741391,-9918.759623,689.485948
20673.199196,-74.020594,-11843.295072,-1915.238745
20673.199530,-4737.318029,-9548.656652,-3677.258390
20673.199863,-1554.432478,-11251.130318,-4903.011187
20673.200196,-1850.514855,-9548.656652,-3677.258390
20673.200529,592.164754,-10140.821405,1149.143247
20673.200862,3478.967927,-7105.977043,2068.457845
20673.201195,2960.823768,-8512.368333,3753.867940
20673.201528,2220.617826,-9252.574275,3907.087040
20673.201861,888.247130,-8956.491898,2604.724693
20673.202194,-2146.597232,-10510.924376,919.314598
20673.202527,-1776.494261,-10140.821405,2374.896044
20673.202861,-1850.514855,-9696.697840,0.000000
20673.203194,0.000000,-7772.162391,612.876398
20673.203527,-1258.350101,-10658.965565,-76.609550
20673.203860,-3034.844362,-8290.306550,-3907.087040
20673.204193,-4219.173869,-11547.212695,-3140.991542
20673.204526,-4515.256246,-10955.047942,-2374.896044
20673.204859,-2960.823768,-10362.883188,459.657299
20673.205192,-962.267725,-8290.306550,2451.505594
20673.205525,1554.432478,-11547.212695,5745.716235
20673.205858,2368.659014,-7624.121203,5745.716235
20673.206192,3404.947333,-7254.018232,5209.449386
20673.206525,1184.329507,-7105.977043,2834.553343
20673.206858,1110.308913,-6735.874072,-842.705048
20673.207191,-4145.153275,-12583.501014,-842.705048
20673.207524,-3627.009116,-13027.624579,-3753.867940
20673.207857,-9474.636058,-8660.409521,-4290.134789
20673.208190,-4219.173869,-10584.944971,-2834.553343
20673.208523,-74.020594,-10066.800811,-383.047749
20673.208856,2072.576638,-7698.141797,2987.772442
20673.209189,1776.494261,-5107.421000,2757.943793
20673.209522,2220.617826,-6661.853478,1455.581446
20673.209856,2368.659014,-9548.656652,2451.505594
20673.210189,3552.988522,-10288.862594,5898.935335
20673.210522,4071.132681,-8142.265362,919.314598
20673.210855,0.000000,-7772.162391,0.000000
20673.211188,1332.370696,-12435.459826,-1072.533697
20673.211521,1998.556043,-8512.368333,-2451.505594
20673.211854,1850.514855,-8660.409521,-1302.362347
20673.212187,1406.391290,-8364.327145,-2987.772442
20673.212520,814.226536,-9992.780217,-1762.019645
20673.212853,2072.576638,-11251.130318,995.924147
20673.213187,2294.638420,-13619.789333,4826.401637
20673.213520,1702.473667,-6587.832884,1532.190996
20673.213853,4145.153275,-10214.842000,6511.811733
20673.214186,8216.285956,-7994.224174,6665.030833
20673.214519,4737.318029,-5403.503377,4903.011187
20673.214852,3330.926739,-6439.791695,153.219100
20673.215185,-1184.329507,-9548.656652,-4979.620737
20673.215518,-1036.288319,-12583.501014,-4979.620737
20673.215851,-2442.679609,-11843.295072,-4060.306139
20673.216184,-666.185348,-13027.624579,-3140.991542
20673.216518,-2442.679609,-9548.656652,-3370.820191
20673.216851,1924.535449,-11325.150913,3600.648841
20673.217184,5847.626942,-7698.141797,6052.154434
20673.217517,7624.121203,-5921.647536,7890.783629
20673.217850,5107.421000,-6957.935855,3677.258390
20673.218183,2146.597232,-10288.862594,2298.286494
20673.218516,-740.205942,-11621.233289,919.314598
20673.218849,-3552.988522,-8364.327145,-2145.067394
20673.219182,-3627.009116,-9104.533087,-4903.011187
20673.219515,-2072.576638,-13915.871710,919.314598
20673.219849,-666.185348,-9474.636058,-1455.581446
20673.220182,-3552.988522,-8068.244768,0.000000
20673.220515,-3627.009116,-7698.141797,-76.609550
20673.220848,-3923.091493,-8364.327145,-1455.581446
20673.221181,-2220.617826,-8956.491898,1915.238745
20673.221514,-888.247130,-7846.182985,2987.772442
20673.221847,-2368.659014,-7179.997637,2451.505594
20673.222180,-962.267725,-9548.656652,1915.238745
20673.222513,740.205942,-7920.203579,2911.162892
20673.222846,1628.453072,-7476.080014,2221.676944
20673.223179,370.102971,-6291.750507,-995.924147
20673.223513,-3849.070898,-8364.327145,-4903.011187
20673.223846,-2442.679609,-14211.954086,-3753.867940
20673.224179,-5403.503377,-11325.150913,-4903.011187
20673.224512,-4737.318029,-11769.274478,-1225.752797
20673.224845,-74.020594,-11547.212695,1762.019645
20673.225178,1924.535449,-7254.018232,5209.449386
20673.225511,4737.318029,-6809.894666,6358.592633
20673.225844,4071.132681,-4589.276840,4443.353888
20673.226177,4367.215058,-6291.750507,2145.067394
20673.226510,0.000000,-10436.903782,306.438199
20673.226844,-370.102971,-6291.750507,-3370.820191
20673.227177,-7105.977043,-10732.986159,-3677.258390
20673.227510,-666.185348,-11251.130318,-5898.935335
20673.227843,-1850.514855,-10955.047942,-3907.087040
20673.228176,2368.659014,-10658.965565,-76.609550
20673.228509,3775.050304,-7550.100608,1838.629195
20673.228842,1924.535449,-7550.100608,1532.190996
20673.229175,4811.338623,-9622.677246,2528.115143
20673.229508,4663.297435,-10658.965565,4826.401637
20673.229841,2590.720797,-7772.162391,1225.752797
20673.230175,3701.029710,-10658.965565,3677.258390
20673.230508,5255.462188,-11251.130318,1149.143247
20673.230841,2664.741391,-6587.832884,306.438199
20673.231174,3330.926739,-9326.594869,153.219100
20673.231507,888.247130,-7624.121203,-2604.724693
20673.231840,-2368.659014,-9992.780217,-4213.525239
20673.232173,-962.267725,-11251.130318,-3524.039291
20673.232506,-2294.638420,-10066.800811,-2528.115143
20673.232839,-4737.318029,-8364.327145,0.000000
20673.233172,2294.638420,-10362.883188,2068.457845
20673.233506,1776.494261,-7179.997637,3064.381992
20673.233839,2368.659014,-5995.668130,4903.011187
20673.234172,5847.626942,-6513.812290,4826.401637
20673.234505,2664.741391,-6735.874072,2528.115143
20673.234838,296.082377,-9400.615463,0.000000
20673.235171,-3404.947333,-11473.192101,-2451.505594
20673.235504,-4737.318029,-10658.965565,-4519.963438
20673.235837,-6217.729913,-12139.377449,-4060.306139
20673.236170,-3552.988522,-10288.862594,-2298.286494
20673.236503,-1554.432478,-8956.491898,153.219100
20673.236836,0.000000,-8068.244768,2757.943793
20673.237170,2294.638420,-7105.977043,2221.676944
20673.237503,74.020594,-7179.997637,1225.752797
20673.237836,0.000000,-10140.821405,4596.572988
20673.238169,-370.102971,-10362.883188,1302.362347
20673.238502,0.000000,-8364.327145,612.876398
20673.238835,-74.020594,-9326.594869,766.095498
20673.239168,1554.432478,-8882.471304,1532.190996
20673.239501,-222.061783,-7772.162391,-766.095498
20673.239834,-1554.432478,-10658.965565,-2528.115143
20673.240167,-2664.741391,-10658.965565,-3753.867940
20673.240501,-5921.647536,-10732.986159,-1838.629195
20673.240834,-1850.514855,-12879.583391,1762.019645
20673.241167,-1258.350101,-8882.471304,842.705048
20673.241500,-518.144159,-8882.471304,3524.039291
20673.241833,2072.576638,-6883.915261,4290.134789
20673.242166,3775.050304,-7550.100608,6281.983084
20673.242499,1850.514855,-6513.812290,4213.525239
20673.242832,-2368.659014,-4811.338623,-1532.190996
20673.243165,-2738.761985,-11843.295072,-4366.744339
20673.243498,-4145.153275,-11325.150913,-689.485948
20673.243832,-4219.173869,-9474.636058,-5745.716235
20673.244165,-3552.988522,-9548.656652,-4903.011187
20673.244498,-2664.741391,-10955.047942,-1685.410096
20673.244831,1184.329507,-8068.244768,1608.800546
20673.245164,3330.926739,-7105.977043,3524.039291
20673.245497,5625.565159,-5625.565159,3907.087040
20673.245830,6513.812290,-10214.842000,5515.887586
20673.246163,5255.462188,-9622.677246,1838.629195
20673.246496,5255.462188,-11251.130318,4213.525239
20673.246829,-74.020594,-9474.636058,-2374.896044
20673.247163,592.164754,-10732.986159,-1072.533697
20673.247496,2368.659014,-8956.491898,0.000000
20673.247829,2294.638420,-9474.636058,-1302.362347
20673.248162,1702.473667,-6217.729913,-2757.943793
20673.248495,1036.288319,-8808.450710,-2451.505594
20673.248828,3256.906145,-10362.883188,-383.047749
20673.249161,1184.329507,-9548.656652,2757.943793
20673.249494,6439.791695,-8290.306550,1455.581446
20673.249827,4145.153275,-7772.162391,766.095498
20673.250160,7402.059420,-9844.739029,6971.469032
20673.250493,10214.842000,-8216.285956,4903.011187
20673.250827,8586.388927,-6957.935855,3600.648841
20673.251160,4885.359217,-8216.285956,-995.924147
20673.251493,1184.329507,-11029.068536,-4213.525239
20673.251826,-962.267725,-14211.954086,-4366.744339
20673.252159,-3256.906145,-9548.656652,-3983.696590
20673.252492,-3108.864956,-11769.274478,-4366.744339
20673.252825,1702.473667,-10658.965565,-229.828649
20673.253158,5329.482782,-8364.327145,5209.449386
20673.253491,7624.121203,-9474.636058,8503.660028
20673.253824,2368.659014,-6291.750507,4290.134789
20673.254158,-3552.988522,-9548.656652,3677.258390
20673.254491,-666.185348,-9178.553681,0.000000
20673.254824,-4589.276840,-7624.121203,0.000000
20673.255157,-6365.771101,-10881.027347,-995.924147
20673.255490,-8290.306550,-9844.739029,-3983.696590
20673.255823,-7105.977043,-10584.944971,-1685.410096
20673.256156,-5403.503377,-7402.059420,-2451.505594
20673.256489,-5403.503377,-6513.812290,-1915.238745
20673.256822,-7698.141797,-6587.832884,-1838.629195
20673.257155,-3330.926739,-11251.130318,2374.896044
20673.257489,-1258.350101,-9474.636058,1762.019645
20673.257822,-4145.153275,-8068.244768,2451.505594
20673.258155,-1554.432478,-10658.965565,2374.896044
20673.258488,-1480.411884,-8808.450710,3600.648841
20673.258821,-1110.308913,-7550.100608,2145.067394
20673.259154,-74.020594,-7105.977043,1072.533697
20673.259487,-5921.647536,-7920.203579,-3677.258390
20673.259820,-9474.636058,-9548.656652,-2451.505594
20673.260153,-4811.338623,-11843.295072,-4366.744339
20673.260486,-5995.668130,-8882.471304,-3447.429741
20673.260820,-4737.318029,-9548.656652,0.000000
20673.261153,-962.267725,-7328.038826,1838.629195
20673.261486,2960.823768,-6809.894666,4903.011187
20673.261819,3627.009116,-6439.791695,4519.963438
20673.262152,5847.626942,-5921.647536,3753.867940
20673.262485,5477.523971,-9030.512492,3600.648841
20673.262818,4737.318029,-10436.903782,4213.525239
20673.263151,4071.132681,-10066.800811,-2068.457845
20673.263484,-1776.494261,-11917.315666,-2911.162892
20673.263817,2960.823768,-9844.739029,-2221.676944
20673.264150,5329.482782,-11325.150913,459.657299
20673.264484,5033.400406,-9474.636058,-383.047749
20673.264817,4959.379811,-8068.244768,-612.876398
20673.265150,5329.482782,-9104.533087,229.828649
20673.265483,7624.121203,-8882.471304,2834.553343
20673.265816,9400.615463,-9474.636058,3600.648841
20673.266149,5329.482782,-8364.327145,1838.629195
20673.266482,4737.318029,-9696.697840,4213.525239
20673.266815,6439.791695,-10362.883188,2374.896044
20673.267148,5033.400406,-7772.162391,612.876398
20673.267481,2886.803174,-7994.224174,-1455.581446
20673.267815,1480.411884,-8586.388927,-3983.696590
20673.268148,74.020594,-13175.665768,-2911.162892
20673.268481,-1998.556043,-10955.047942,-3600.648841
20673.268814,-3034.844362,-11843.295072,-2528.115143
20673.269147,-2368.659014,-10881.027347,383.047749
20673.269480,0.000000,-8734.430116,4136.915689
20673.269813,2516.700203,-7031.956449,5592.497135
20673.270146,4071.132681,-6957.935855,5439.278036
20673.270479,2368.659014,-7179.997637,5745.716235
20673.270812,-1258.350101,-8364.327145,0.000000
20673.271146,-3552.988522,-11843.295072,-1225.752797
20673.271479,-8882.471304,-10881.027347,-4673.182538
20673.271812,-8956.491898,-10140.821405,-6128.763984
20673.272145,-6957.935855,-12065.356855,-2528.115143
20673.272478,-5181.441594,-10881.027347,1149.143247
20673.272811,-4441.235652,-7550.100608,2451.505594
20673.273144,-3256.906145,-4219.173869,2757.943793
20673.273477,-74.020594,-7698.141797,5439.278036
20673.273810,-666.185348,-7105.977043,2681.334243
20673.274143,-4145.153275,-8956.491898,4903.011187
20673.274477,-2738.761985,-7105.977043,1149.143247
20673.274810,-4737.318029,-8956.491898,0.000000
20673.275143,-3701.029710,-9178.553681,-306.438199
20673.275476,-3997.112087,-8216.285956,-2451.505594
20673.275809,-5699.585753,-9400.615463,-3447.429741
20673.276142,-4737.318029,-8660.409521,-3677.258390
20673.276475,-2442.679609,-10658.965565,-4366.744339
20673.276808,-2220.617826,-8364.327145,-1225.752797
20673.277141,0.000000,-9844.739029,4826.401637
20673.277474,2886.803174,-7105.977043,2681.334243
20673.277807,5773.606348,-10066.800811,6052.154434
20673.278141,6365.771101,-7772.162391,5898.935335
20673.278474,7179.997637,-5921.647536,3370.820191
20673.278807,5921.647536,-6883.915261,612.876398
20673.279140,6439.791695,-10658.965565,-1302.362347
20673.279473,1702.473667,-9844.739029,-6741.640382
20673.279806,0.000000,-13101.645173,-4060.306139
20673.280139,2294.638420,-14211.954086,-3753.867940
20673.280472,1628.453072,-10510.924376,-3677.258390
20673.280805,7476.080014,-10658.965565,2374.896044
20673.281138,8290.306550,-7476.080014,4979.620737
20673.281472,9178.553681,-4885.359217,5056.230287
20673.281805,8216.285956,-7105.977043,3830.477490
20673.282138,8216.285956,-11769.274478,3294.210641
20673.282471,5329.482782,-9548.656652,995.924147
20673.282804,2072.576638,-10881.027347,-995.924147
20673.283137,2072.576638,-10436.903782,-2451.505594
20673.283470,1480.411884,-9548.656652,-1838.629195
20673.283803,4145.153275,-10436.903782,1149.143247
20673.284136,6439.791695,-4663.297435,-1608.800546
20673.284469,1998.556043,-7772.162391,-3677.258390
20673.284803,1776.494261,-11547.212695,-842.705048
20673.285136,-518.144159,-12731.542202,-76.609550
20673.285469,-222.061783,-10214.842000,1378.971896
20673.285802,222.061783,-8290.306550,1762.019645
20673.286135,444.123565,-10510.924376,3370.820191
20673.286468,6809.894666,-6883.915261,7354.516781
20673.286801,1036.288319,-9252.574275,6971.469032
20673.287134,-666.185348,-6217.729913,-1149.143247
20673.287467,-7105.977043,-7179.997637,-4903.011187
20673.287800,-7994.224174,-11029.068536,-2374.896044
20673.288134,-8586.388927,-9252.574275,-4596.572988
20673.288467,-10436.903782,-11177.109724,-3907.087040
20673.288800,-9548.656652,-10436.903782,-3447.429741
20673.289133,-6587.832884,-9474.636058,2528.115143
20673.289466,-1554.432478,-6809.894666,4519.963438
20673.289799,-1480.411884,-5033.400406,6665.030833
20673.290132,-962.267725,-4293.194464,612.876398
20673.290465,-3256.906145,-9992.780217,3600.648841
20673.290798,-2442.679609,-12435.459826,2374.896044
20673.291131,-5403.503377,-9918.759623,-2528.115143
20673.291464,-7031.956449,-11399.171507,-3600.648841
20673.291797,-3330.926739,-11251.130318,-1915.238745
20673.292130,-3404.947333,-9030.512492,-842.705048
20673.292463,-2960.823768,-6587.832884,0.000000
20673.292796,-666.185348,-7105.977043,-2298.286494
20673.293129,740.205942,-9844.739029,919.314598
20673.293462,1184.329507,-11399.171507,6052.154434
20673.293795,296.082377,-6587.832884,3140.991542
20673.294128,0.000000,-10732.986159,1225.752797
20673.294461,3108.864956,-8660.409521,2528.115143
20673.294794,5921.647536,-9178.553681,4826.401637
20673.295127,4663.297435,-7698.141797,1378.971896
20673.295460,6439.791695,-8290.306550,-689.485948
20673.295793,0.000000,-11251.130318,-3447.429741
20673.296126,0.000000,-11325.150913,-919.314598
20673.296459,2738.761985,-11843.295072,-2528.115143
20673.296792,0.000000,-11843.295072,-3753.867940
20673.297125,7328.038826,-11843.295072,2374.896044
20673.297458,8808.450710,-10066.800811,5745.716235
20673.297791,11769.274478,-6809.894666,4519.963438
20673.298123,9326.594869,-6957.935855,5439.278036
20673.298456,8956.491898,-7550.100608,2987.772442
20673.298789,6217.729913,-11473.192101,2987.772442
20673.299122,3478.967927,-10584.944971,-1378.971896
20673.299455,-370.102971,-11547.212695,-3830.477490
20673.299788,-2664.741391,-11621.233289,-4903.011187
20673.300121,-1776.494261,-10140.821405,-3677.258390
20673.300454,1554.432478,-9474.636058,-76.609550
20673.300787,2590.720797,-9474.636058,-76.609550
20673.301120,1184.329507,-4811.338623,1532.190996
20673.301453,3849.070898,-10066.800811,4826.401637
20673.301786,1110.308913,-9474.636058,1302.362347
20673.302119,-1036.288319,-10510.924376,1608.800546
20673.302452,-3182.885551,-9770.718434,229.828649
20673.302785,-4071.132681,-8364.327145,1225.752797
20673.303118,-888.247130,-8438.347739,1302.362347
20673.303451,-1924.535449,-9474.636058,-76.609550
20673.303784,-5329.482782,-5995.668130,-2911.162892
20673.304117,-6587.832884,-7772.162391,-4903.011187
20673.304449,-5329.482782,-12361.439231,-1302.362347
20673.304782,-7105.977043,-9844.739029,-919.314598
20673.305115,-5403.503377,-10584.944971,-383.047749
20673.305448,-2516.700203,-8512.368333,3447.429741
20673.305781,74.020594,-8290.306550,7277.907231
20673.306114,1110.308913,-5921.647536,5898.935335
20673.306447,1554.432478,-5625.565159,3294.210641
20673.306780,-3552.988522,-8660.409521,2987.772442
20673.307113,-3034.844362,-10955.047942,-76.609550
20673.307446,-7179.997637,-9548.656652,-4290.134789
20673.307779,-7402.059420,-10658.965565,-3140.991542
20673.308112,-6217.729913,-8068.244768,-3294.210641
20673.308445,-4293.194464,-10732.986159,-536.266849
20673.308778,148.041188,-6587.832884,536.266849
20673.309111,0.000000,-5995.668130,1838.629195
20673.309444,1998.556043,-4219.173869,306.438199
20673.309777,1184.329507,-8364.327145,3983.696590
20673.310110,4663.297435,-9474.636058,1149.143247
20673.310443,2368.659014,-8586.388927,919.314598
20673.310776,592.164754,-8068.244768,-1225.752797
20673.311108,4367.215058,-11399.171507,-76.609550
20673.311441,3108.864956,-9252.574275,-76.609550
20673.311774,2664.741391,-9770.718434,-536.266849
20673.312107,5255.462188,-7105.977043,-1302.362347
20673.312440,0.000000,-10140.821405,-1532.190996
20673.312773,4663.297435,-9474.636058,-1302.362347
20673.313106,3478.967927,-8660.409521,0.000000
20673.313439,4737.318029,-9474.636058,3600.648841
20673.313772,6587.832884,-7920.203579,2528.115143
20673.314105,7846.182985,-9770.718434,5132.839837
20673.314438,11177.109724,-6217.729913,3907.087040
20673.314771,6143.709319,-7476.080014,1225.752797
20673.315104,8216.285956,-9178.553681,-76.609550
20673.315437,0.000000,-11917.315666,-4213.525239
20673.315770,0.000000,-12509.480420,-5515.887586
20673.316103,-1184.329507,-12213.398043,-3370.820191
20673.316436,-1998.556043,-12361.439231,-3677.258390
20673.316769,4145.153275,-11473.192101,1838.629195
20673.317102,5033.400406,-4811.338623,2757.943793
20673.317434,7105.977043,-5699.585753,9806.022374
20673.317767,8216.285956,-2368.659014,4826.401637
20673.318100,2886.803174,-9030.512492,1838.629195
20673.318433,1628.453072,-12435.459826,1762.019645
20673.318766,-3627.009116,-10658.965565,-919.314598
20673.319099,-5847.626942,-11621.233289,-5056.230287
20673.319432,-3997.112087,-10807.006753,-3524.039291
20673.319765,-3627.009116,-10066.800811,-1915.238745
20673.320098,-4737.318029,-7476.080014,612.876398
20673.320431,-3552.988522,-8734.430116,1149.143247
20673.320764,-5995.668130,-9178.553681,-3217.601092
20673.321097,-7105.977043,-9548.656652,1532.190996
20673.321430,-3627.009116,-8290.306550,2374.896044
20673.321763,-3182.885551,-7846.182985,4136.915689
20673.322096,-4663.297435,-9474.636058,2451.505594
20673.322429,370.102971,-7698.141797,4826.401637
20673.322762,-2294.638420,-5255.462188,1225.752797
20673.323095,0.000000,-7179.997637,3140.991542
20673.323428,-4219.173869,-8734.430116,-2528.115143
20673.323760,-5995.668130,-13619.789333,-5286.058936
20673.324093,-6587.832884,-12583.501014,-1915.238745
20673.324426,-9474.636058,-10732.986159,-2911.162892
20673.324759,-6217.729913,-9548.656652,-1532.190996
20673.325092,-2442.679609,-7994.224174,2911.162892
20673.325425,2294.638420,-6883.915261,5745.716235
20673.325758,2960.823768,-1850.514855,6128.763984
20673.326091,6439.791695,-9474.636058,6052.154434
20673.326424,1406.391290,-6291.750507,1225.752797
20673.326757,2590.720797,-9474.636058,-76.609550
20673.327090,-74.020594,-13027.624579,-2528.115143
20673.327423,-4145.153275,-9844.739029,-7354.516781
20673.327756,-740.205942,-12583.501014,-4596.572988
20673.328089,1702.473667,-11177.109724,-1378.971896
20673.328422,6365.771101,-7402.059420,1915.238745
20673.328755,5329.482782,-8734.430116,1838.629195
20673.329088,7920.203579,-8586.388927,3217.601092
20673.329421,7994.224174,-8438.347739,4826.401637
20673.329754,4885.359217,-9548.656652,3600.648841
20673.330087,4071.132681,-9474.636058,-689.485948
20673.330419,3182.885551,-8364.327145,0.000000
20673.330752,7476.080014,-11251.130318,1762.019645
20673.331085,7031.956449,-9474.636058,-76.609550
20673.331418,2368.659014,-6587.832884,-1072.533697
20673.331751,1406.391290,-10066.800811,-3983.696590
20673.332084,1702.473667,-10510.924376,-3140.991542
20673.332417,518.144159,-11695.253884,-2451.505594
20673.332750,-74.020594,-11251.130318,-1378.971896
20673.333083,592.164754,-9844.739029,919.314598
20673.333416,4367.215058,-10288.862594,3677.258390
20673.333749,7031.956449,-8290.306550,4826.401637
20673.334082,3849.070898,-4219.173869,4903.011187
20673.334415,2960.823768,-5107.421000,4903.011187
20673.334748,2368.659014,-10436.903782,1838.629195
20673.335081,-1110.308913,-10955.047942,-995.924147
20673.335414,-6587.832884,-11843.295072,-3753.867940
20673.335747,-7402.059420,-13027.624579,-3140.991542
20673.336080,-5699.585753,-11843.295072,-2528.115143
20673.336413,-5921.647536,-9548.656652,612.876398
20673.336745,-3923.091493,-8290.306550,-383.047749
20673.337078,-4737.318029,-5403.503377,612.876398
20673.337411,-1480.411884,-8364.327145,2451.505594
20673.337744,-666.185348,-9474.636058,4826.401637
20673.338077,-1924.535449,-9178.553681,3447.429741
20673.338410,-5329.482782,-8956.491898,919.314598
20673.338743,-3627.009116,-7624.121203,153.219100
20673.339076,-1406.391290,-8882.471304,1762.019645
20673.339409,-1332.370696,-9474.636058,2374.896044
20673.339742,-4737.318029,-5995.668130,-2451.505594
20673.340075,-7698.141797,-9548.656652,-1838.629195
20673.340408,-3627.009116,-11843.295072,-2528.115143
20673.340741,-7031.956449,-9548.656652,-2451.505594
20673.341074,-4959.379811,-10510.924376,-383.047749
20673.341407,-1554.432478,-6513.812290,2451.505594
20673.341740,962.267725,-9918.759623,6052.154434
20673.342073,3478.967927,-6365.771101,5286.058936
20673.342406,3478.967927,-6217.729913,4213.525239
20673.342739,0.000000,-5403.503377,1532.190996
20673.343072,1702.473667,-8882.471304,-1302.362347
20673.343404,-2146.597232,-8364.327145,-4596.572988
20673.343737,0.000000,-9548.656652,-1838.629195
20673.344070,-666.185348,-10214.842000,-4903.011187
20673.344403,0.000000,-12361.439231,-2374.896044
20673.344736,3256.906145,-8068.244768,-689.485948
20673.345069,4885.359217,-8512.368333,1149.143247
20673.345402,8808.450710,-4737.318029,995.924147
20673.345735,6661.853478,-9918.759623,2374.896044
20673.346068,8068.244768,-9844.739029,3370.820191
20673.346401,7624.121203,-10140.821405,3753.867940
20673.346734,5329.482782,-10881.027347,3064.381992
20673.347067,9400.615463,-9474.636058,1149.143247
20673.347400,5847.626942,-10362.883188,-1302.362347
20673.347733,5329.482782,-7179.997637,1225.752797
20673.348066,3775.050304,-9030.512492,-1378.971896
20673.348399,1702.473667,-7772.162391,-4903.011187
20673.348732,1702.473667,-11769.274478,-2298.286494
20673.349065,2072.576638,-10955.047942,0.000000
20673.349398,2368.659014,-9844.739029,689.485948
20673.349730,4663.297435,-10362.883188,2987.772442
20673.350063,7031.956449,-11251.130318,4519.963438
20673.350396,7402.059420,-4811.338623,8580.269578
20673.350729,5329.482782,-8364.327145,7814.174080
20673.351062,4071.132681,-6217.729913,-995.924147
20673.351395,-4145.153275,-13693.809927,-1072.533697
20673.351728,-4219.173869,-10510.924376,-6128.763984
20673.352061,-4885.359217,-11843.295072,-3447.429741
20673.352394,-8142.265362,-10510.924376,-4749.792088
20673.352727,-5107.421000,-9474.636058,-2528.115143
20673.353060,-3034.844362,-8882.471304,-76.609550
20673.353393,0.000000,-7179.997637,6588.421283
20673.353726,-74.020594,-4737.318029,4826.401637
20673.354059,-3034.844362,-7994.224174,995.924147
20673.354392,-3627.009116,-10658.965565,2374.896044
20673.354725,-7105.977043,-9548.656652,306.438199
20673.355058,-5773.606348,-9548.656652,-2068.457845
20673.355391,-6883.915261,-10955.047942,-2528.115143
20673.355724,-7105.977043,-9844.739029,-1685.410096
20673.356057,-6143.709319,-6587.832884,-2298.286494
20673.356389,-6809.894666,-7179.997637,-76.609550
20673.356722,-4219.173869,-8216.285956,-2528.115143
20673.357055,-4737.318029,-8364.327145,0.000000
20673.357388,-2072.576638,-7476.080014,2681.334243
20673.357721,-2368.659014,-9030.512492,3753.867940
20673.358054,-1998.556043,-8808.450710,2145.067394
20673.358387,1406.391290,-10214.842000,4213.525239
20673.358720,4367.215058,-8142.265362,5439.278036
20673.359053,1776.494261,-4811.338623,2604.724693
20673.359386,1110.308913,-7994.224174,-2834.553343
20673.359719,-1258.350101,-11251.130318,-5592.497135
20673.360052,-4145.153275,-10140.821405,-3677.258390
20673.360385,-2960.823768,-11991.336260,-4136.915689
20673.360718,-1184.329507,-8882.471304,-3064.381992
20673.361051,2294.638420,-10214.842000,1149.143247
20673.361384,5995.668130,-7698.141797,4979.620737
20673.361717,10584.944971,-5625.565159,7277.907231
20673.362050,7698.141797,-6143.709319,5592.497135
20673.362383,11325.150913,-7254.018232,4673.182538
20673.362715,8512.368333,-9992.780217,2911.162892
20673.363048,6587.832884,-11325.150913,0.000000
20673.363381,2664.741391,-12805.562797,-3677.258390
20673.363714,370.102971,-11325.150913,-7277.907231
20673.364047,2960.823768,-11917.315666,-459.657299
20673.364380,6439.791695,-10362.883188,-689.485948
20673.364713,3923.091493,-6587.832884,-1838.629195
20673.365046,4811.338623,-9178.553681,1455.581446
20673.365379,5181.441594,-9104.533087,4136.915689
20673.365712,6661.853478,-7846.182985,4979.620737
20673.366045,3701.029710,-8068.244768,3677.258390
20673.366378,2886.803174,-9474.636058,1149.143247
20673.366711,1184.329507,-9548.656652,3370.820191
20673.367044,1184.329507,-8364.327145,3524.039291
20673.367377,-74.020594,-7402.059420,-2451.505594
20673.367710,-3552.988522,-6587.832884,-3677.258390
20673.368043,-3034.844362,-12879.583391,-5209.449386
20673.368376,-4811.338623,-11843.295072,-3753.867940
20673.368709,-7476.080014,-12287.418637,-2068.457845
20673.369041,-6661.853478,-9548.656652,-1149.143247
20673.369374,-4071.132681,-8364.327145,1685.410096
20673.369707,0.000000,-6587.832884,9269.755526
20673.370040,1406.391290,-4737.318029,5132.839837
20673.370373,-2368.659014,-3627.009116,3677.258390
20673.370706,-1702.473667,-9474.636058,1762.019645
20673.371039,-7031.956449,-9844.739029,-2451.505594
20673.371372,-7624.121203,-11547.212695,-3753.867940
20673.371705,-9770.718434,-12805.562797,-4673.182538
20673.372038,-7476.080014,-9992.780217,-3600.648841
20673.372371,-6513.812290,-10584.944971,-1532.190996
20673.372704,-1258.350101,-10658.965565,2374.896044
20673.373037,-2442.679609,-5107.421000,1685.410096
20673.373370,-2368.659014,-5995.668130,2451.505594
20673.373703,2294.638420,-9474.636058,4826.401637
20673.374036,-1480.411884,-7179.997637,2451.505594
20673.374369,-370.102971,-8808.450710,2451.505594
20673.374702,-296.082377,-7254.018232,842.705048
20673.375035,0.000000,-10807.006753,0.000000
20673.375368,592.164754,-8068.244768,-2451.505594
20673.375700,-1258.350101,-10510.924376,-3447.429741
20673.376033,-962.267725,-9474.636058,-4979.620737
20673.376366,-518.144159,-12287.418637,-2681.334243
20673.376699,-74.020594,-11843.295072,-2528.115143
20673.377032,3182.885551,-7179.997637,1225.752797
20673.377365,2960.823768,-8956.491898,5439.278036
20673.377698,9326.594869,-10066.800811,7277.907231
20673.378031,6439.791695,-5995.668130,3677.258390
20673.378364,9400.615463,-7994.224174,4826.401637
20673.378697,7846.182985,-4959.379811,1915.238745
20673.379030,6143.709319,-8808.450710,-995.924147
20673.379363,4145.153275,-11843.295072,-3140.991542
20673.379696,-3552.988522,-14285.974681,-6128.763984
20673.380029,-74.020594,-11843.295072,-6741.640382
20673.380362,4071.132681,-15396.283594,-1915.238745
20673.380695,7031.956449,-7920.203579,1532.190996
20673.381028,7105.977043,-6587.832884,6741.640382
20673.381361,7846.182985,-3330.926739,5132.839837
20673.381694,7105.977043,-5403.503377,3524.039291
20673.382026,4663.297435,-10658.965565,1608.800546
20673.382359,4219.173869,-10955.047942,1455.581446
20673.382692,296.082377,-11843.295072,-306.438199
20673.383025,-666.185348,-10436.903782,-4596.572988
20673.383358,-74.020594,-13027.624579,-2528.115143
20673.383691,1554.432478,-8364.327145,-1838.629195
20673.384024,2664.741391,-8216.285956,1225.752797
20673.384357,1776.494261,-8438.347739,0.000000
20673.384690,-2368.659014,-11843.295072,-383.047749
20673.385023,-3997.112087,-10955.047942,-1991.848295
20673.385356,-3552.988522,-11473.192101,1072.533697
20673.385689,-2812.782580,-8290.306550,1149.143247
20673.386022,0.000000,-7179.997637,4903.011187
20673.386355,-74.020594,-6883.915261,2987.772442
20673.386688,-1554.432478,-4811.338623,1225.752797
20673.387021,-3849.070898,-8586.388927,689.485948
20673.387354,-4811.338623,-10658.965565,-2528.115143
20673.387687,-5625.565159,-11843.295072,-2528.115143
20673.388020,-7994.224174,-10510.924376,-1762.019645
20673.388353,-8216.285956,-9548.656652,-3217.601092
20673.388685,-7920.203579,-9918.759623,-1915.238745
20673.389018,-2590.720797,-11547.212695,3600.648841
20673.389351,-666.185348,-5403.503377,2757.943793
20673.389684,0.000000,-5107.421000,4903.011187
20673.390017,-74.020594,-8882.471304,2374.896044
20673.390350,-74.020594,-8290.306550,1762.019645
20673.390683,-148.041188,-10066.800811,1608.800546
20673.391016,-3478.967927,-10807.006753,-766.095498
20673.391349,-3478.967927,-10066.800811,-2834.553343
20673.391682,-2590.720797,-12287.418637,-1762.019645
20673.392015,1110.308913,-10362.883188,-76.609550
20673.392348,740.205942,-7179.997637,612.876398
20673.392681,1406.391290,-6439.791695,-766.095498
20673.393014,2368.659014,-9104.533087,995.924147
20673.393347,2072.576638,-8364.327145,1915.238745
20673.393680,3256.906145,-10881.027347,3600.648841
20673.394013,5255.462188,-10066.800811,3600.648841
20673.394346,2886.803174,-9548.656652,306.438199
20673.394678,6513.812290,-8512.368333,3447.429741
20673.395011,6439.791695,-8586.388927,229.828649
20673.395344,5551.544565,-8290.306550,-1302.362347
20673.395677,3256.906145,-9622.677246,-2298.286494
20673.396010,1628.453072,-12213.398043,-842.705048
20673.396343,2368.659014,-11917.315666,-2451.505594
20673.396676,-4737.318029,-9844.739029,-2451.505594
20673.397009,3182.885551,-10658.965565,-76.609550
20673.397342,8808.450710,-9474.636058,3600.648841
20673.397675,7105.977043,-5995.668130,7354.516781
20673.398008,4737.318029,-4811.338623,3677.258390
20673.398341,5551.544565,-7994.224174,1455.581446
20673.398674,3701.029710,-10288.862594,1225.752797
20673.399007,2442.679609,-11029.068536,459.657299
20673.399340,0.000000,-11325.150913,-919.314598
20673.399673,-2960.823768,-13249.686362,-1608.800546
20673.400006,-4219.173869,-10140.821405,-4903.011187
20673.400338,-888.247130,-8660.409521,-2451.505594
20673.400671,962.267725,-8882.471304,1149.143247
20673.401004,0.000000,-5403.503377,1532.190996
20673.401337,370.102971,-9770.718434,1762.019645
20673.401670,-1258.350101,-9474.636058,2451.505594
20673.402003,-3108.864956,-8808.450710,2145.067394
20673.402336,-1850.514855,-8882.471304,1762.019645
20673.402669,1406.391290,-9474.636058,2374.896044
20673.403002,0.000000,-6291.750507,1532.190996
20673.403335,-1184.329507,-8364.327145,1762.019645
20673.403668,-2960.823768,-8586.388927,-689.485948
20673.404001,-3923.091493,-11843.295072,-2528.115143
20673.404334,-5921.647536,-11325.150913,-3064.381992
20673.404667,-6291.750507,-11473.192101,-2681.334243
20673.405000,-6809.894666,-10436.903782,-2528.115143
20673.405333,-4737.318029,-8364.327145,1225.752797
20673.405666,-74.020594,-6809.894666,3370.820191
20673.405998,2664.741391,-6735.874072,9193.145976
20673.406331,3478.967927,-6513.812290,4826.401637
20673.406664,-2368.659014,-5107.421000,2451.505594
20673.406997,-370.102971,-11177.109724,1762.019645
20673.407330,-4145.153275,-10732.986159,-2145.067394
20673.407663,-4219.173869,-9548.656652,-3677.258390
20673.407996,-5477.523971,-12065.356855,-3907.087040
20673.408329,-1776.494261,-9548.656652,-3064.381992
20673.408662,-1258.350101,-9622.677246,-1225.752797
20673.408995,1406.391290,-7105.977043,536.266849
20673.409328,1924.535449,-7179.997637,1685.410096
20673.409661,3627.009116,-8586.388927,2834.553343
20673.409994,4737.318029,-7179.997637,3907.087040
20673.410327,4663.297435,-11843.295072,3600.648841
20673.410660,2960.823768,-6587.832884,3064.381992
20673.410993,4663.297435,-10658.965565,2374.896044
20673.411326,5033.400406,-10955.047942,-76.609550
20673.411658,740.205942,-7179.997637,-2911.162892
20673.411991,-370.102971,-10288.862594,-4443.353888
20673.412324,2146.597232,-8586.388927,-4366.744339
20673.412657,296.082377,-13101.645173,-1149.143247
20673.412990,2368.659014,-9844.739029,0.000000
20673.413323,3478.967927,-9178.553681,1225.752797
20673.413656,2368.659014,-7179.997637,3064.381992
20673.413989,10436.903782,-8882.471304,6052.154434
20673.414322,7624.121203,-7105.977043,3907.087040
20673.414655,7994.224174,-5329.482782,4749.792088
20673.414988,2516.700203,-8364.327145,0.000000
20673.415321,1480.411884,-10881.027347,-3677.258390
20673.415654,-814.226536,-12805.562797,-4443.353888
20673.415987,-666.185348,-13915.871710,-3753.867940
20673.416320,-2146.597232,-9548.656652,-6741.640382
20673.416653,-1628.453072,-12509.480420,-2451.505594
20673.416985,6439.791695,-9474.636058,2374.896044
20673.417318,1184.329507,-6587.832884,6128.763984
20673.417651,8216.285956,-2368.659014,5439.278036
20673.417984,3552.988522,-9104.533087,4979.620737
20673.418317,2220.617826,-9104.533087,2451.505594
20673.418650,-666.185348,-10955.047942,919.314598
20673.418983,-4515.256246,-9474.636058,-3294.210641
20673.419316,-5625.565159,-9548.656652,-3064.381992
20673.419649,-2442.679609,-11843.295072,-2834.553343
20673.419982,-2590.720797,-10658.965565,-1915.238745
20673.420315,-7698.141797,-4811.338623,-3677.258390
20673.420648,-4959.379811,-10658.965565,-4060.306139
20673.420981,-5033.400406,-10436.903782,-383.047749
20673.421314,-4071.132681,-10436.903782,3064.381992
20673.421647,-2442.679609,-6587.832884,3524.039291
20673.421980,-2738.761985,-9474.636058,4519.963438
20673.422313,-1628.453072,-8586.388927,4596.572988
20673.422645,444.123565,-5995.668130,3600.648841
20673.422978,-666.185348,-7105.977043,1225.752797
20673.423311,-2368.659014,-7920.203579,-1225.752797
20673.423644,-3627.009116,-11843.295072,-4979.620737
20673.423977,-7105.977043,-12509.480420,-3217.601092
20673.424310,-4737.318029,-11473.192101,-689.485948
20673.424643,-5107.421000,-11843.295072,-2911.162892
20673.424976,-4145.153275,-8956.491898,-2145.067394
20673.425309,-148.041188,-9326.594869,3294.210641
20673.425642,1924.535449,-4515.256246,4519.963438
20673.425975,3034.844362,-4145.153275,3370.820191
20673.426308,4663.297435,-8290.306550,4826.401637
20673.426641,3256.906145,-10658.965565,3600.648841
20673.426974,0.000000,-8364.327145,1225.752797
20673.427307,1702.473667,-11843.295072,-689.485948
20673.427640,-74.020594,-10066.800811,-5286.058936
20673.427973,1554.432478,-13619.789333,-689.485948
20673.428305,2886.803174,-7920.203579,-1838.629195
20673.428638,4293.194464,-7476.080014,0.000000
20673.428971,4071.132681,-9252.574275,229.828649
20673.429304,6439.791695,-7920.203579,2604.724693
20673.429637,6883.915261,-9474.636058,3600.648841
20673.429970,1184.329507,-8364.327145,3677.258390
20673.430303,6291.750507,-10658.965565,2374.896044
20673.430636,6069.688724,-7254.018232,2145.067394
20673.430969,7698.141797,-6513.812290,2987.772442
20673.431302,4737.318029,-7179.997637,0.000000
20673.431635,888.247130,-7624.121203,-4596.572988
20673.431968,518.144159,-12435.459826,-4596.572988
20673.432301,1184.329507,-11621.233289,-2451.505594
20673.432634,-74.020594,-11843.295072,-2834.553343
20673.432967,-296.082377,-11843.295072,-76.609550
20673.433300,2886.803174,-11843.295072,2221.676944
20673.433633,2442.679609,-5995.668130,5515.887586
20673.433965,6217.729913,-4811.338623,6818.249932
20673.434298,3627.009116,-6069.688724,4673.182538
20673.434631,1332.370696,-8956.491898,1149.143247
20673.434964,-1554.432478,-11103.089130,-76.609550
20673.435297,-3627.009116,-13027.624579,-2528.115143
20673.435630,-8290.306550,-8364.327145,-4903.011187
20673.435963,-4811.338623,-13027.624579,-4366.744339
20673.436296,-3034.844362,-9474.636058,-3753.867940
20673.436629,-4737.318029,-9548.656652,612.876398
20673.436962,-3552.988522,-7476.080014,1225.752797
20673.437295,-2368.659014,-9622.677246,2528.115143
20673.437628,-888.247130,-8660.409521,3753.867940
20673.437961,-2812.782580,-8660.409521,3600.648841
20673.438294,-3034.844362,-9474.636058,2987.772442
20673.438627,-4145.153275,-6143.709319,766.095498
20673.438960,-2368.659014,-9548.656652,1838.629195
20673.439293,-962.267725,-8142.265362,536.266849
20673.439625,-4293.194464,-7846.182985,-1685.410096
20673.439958,-4219.173869,-9474.636058,-3294.210641
20673.440291,-6809.894666,-11103.089130,-3983.696590
20673.440624,-8882.471304,-11029.068536,-919.314598
20673.440957,-3627.009116,-10658.965565,-1915.238745
20673.441290,-3108.864956,-7772.162391,1225.752797
20673.441623,2368.659014,-8586.388927,6665.030833
20673.441956,4219.173869,-6217.729913,6588.421283
20673.442289,5403.503377,-5033.400406,5822.325785
20673.442622,2960.823768,-6143.709319,1762.019645
20673.442955,2294.638420,-8882.471304,-229.828649
20673.443288,0.000000,-9844.739029,-3524.039291
20673.443621,-370.102971,-13027.624579,-1915.238745
20673.443954,-666.185348,-10658.965565,-5592.497135
20673.444287,0.000000,-10140.821405,-2451.505594
20673.444620,4071.132681,-10658.965565,-76.609550
20673.444953,4145.153275,-6735.874072,2451.505594
20673.445285,5477.523971,-5625.565159,3217.601092
20673.445618,7328.038826,-7105.977043,3600.648841
20673.445951,5921.647536,-7772.162391,1838.629195
20673.446284,2960.823768,-9548.656652,4903.011187
20673.446617,6439.791695,-10658.965565,536.266849
20673.446950,3701.029710,-8364.327145,-3677.258390
20673.447283,5033.400406,-11473.192101,536.266849
20673.447616,4663.297435,-7772.162391,-3064.381992
20673.447949,3775.050304,-9326.594869,-1915.238745
20673.448282,666.185348,-8956.491898,-4443.353888
20673.448615,1036.288319,-10807.006753,-1991.848295
20673.448948,1184.329507,-10807.006753,1149.143247
20673.449281,3034.844362,-8586.388927,2987.772442
20673.449614,2294.638420,-8882.471304,-1149.143247
20673.449947,3552.988522,-8734.430116,5132.839837
20673.450280,6143.709319,-10881.027347,6665.030833
20673.450613,6143.709319,-4959.379811,2451.505594
20673.450945,3701.029710,-7698.141797,1991.848295
20673.451278,74.020594,-11843.295072,-689.485948
20673.451611,-1332.370696,-11769.274478,-3140.991542
20673.451944,-5329.482782,-13693.809927,-2451.505594
20673.452277,-4811.338623,-10955.047942,-4060.306139
20673.452610,-6809.894666,-10288.862594,-2604.724693
20673.452943,-3552.988522,-9474.636058,536.266849
20673.453276,-814.226536,-6217.729913,3600.648841
20673.453609,-2368.659014,-3627.009116,3217.601092
20673.453942,-3552.988522,-5403.503377,2757.943793
20673.454275,-2442.679609,-10658.965565,2374.896044
20673.454608,-3330.926739,-8882.471304,536.266849
20673.454941,-5403.503377,-8882.471304,-76.609550
20673.455274,-3923.091493,-10955.047942,-1915.238745
20673.455607,-5403.503377,-11029.068536,-1532.190996
20673.455940,-5329.482782,-9844.739029,-766.095498
20673.456273,-4145.153275,-7328.038826,-459.657299
20673.456605,-1850.514855,-8882.471304,-76.609550
20673.456938,-4737.318029,-8956.491898,2298.286494
20673.457271,-74.020594,-9474.636058,2374.896044
20673.457604,-3330.926739,-8882.471304,2374.896044
20673.457937,0.000000,-5403.503377,1532.190996
20673.458270,1998.556043,-9178.553681,2757.943793
20673.458603,4145.153275,-6587.832884,3753.867940
20673.458936,3256.906145,-7254.018232,3600.648841
20673.459269,592.164754,-7698.141797,-1149.143247
20673.459602,-1480.411884,-7772.162391,-5669.106685
20673.459935,-74.020594,-14211.954086,-2528.115143
20673.460268,-74.020594,-11547.212695,-3524.039291
20673.460601,-4145.153275,-10140.821405,-3370.820191
20673.460934,1184.329507,-10658.965565,-229.828649
20673.461267,2960.823768,-9548.656652,3677.258390
20673.461600,9104.533087,-4515.256246,6894.859482
20673.461933,9030.512492,-4071.132681,6511.811733
20673.462265,9178.553681,-6883.915261,4749.792088
20673.462598,6513.812290,-9548.656652,2451.505594
20673.462931,4663.297435,-13027.624579,-689.485948
20673.463264,-1184.329507,-9548.656652,-7354.516781
20673.463597,-3552.988522,-12805.562797,-6358.592633
20673.463930,2294.638420,-12435.459826,-4979.620737
20673.464263,3552.988522,-8734.430116,1149.143247
20673.464596,3849.070898,-7772.162391,536.266849
20673.464929,2294.638420,-7550.100608,-612.876398
20673.465262,3775.050304,-10288.862594,1762.019645
20673.465595,7476.080014,-9474.636058,6665.030833
20673.465928,4071.132681,-7402.059420,1455.581446
20673.466261,0.000000,-8660.409521,766.095498
20673.466594,4663.297435,-11843.295072,2987.772442
20673.466927,2294.638420,-9474.636058,689.485948
20673.467260,2960.823768,-9178.553681,2068.457845
20673.467593,-2664.741391,-8660.409521,-2528.115143
20673.467925,-3923.091493,-11029.068536,-5056.230287
20673.468258,-5255.462188,-12583.501014,-2681.334243
20673.468591,-5921.647536,-12509.480420,-689.485948
20673.468924,-7031.956449,-8512.368333,-1378.971896
20673.469257,-4145.153275,-8364.327145,2145.067394
20673.469590,1628.453072,-5995.668130,6128.763984
20673.469923,1184.329507,-3627.009116,6435.202183
20673.470256,592.164754,-4811.338623,5439.278036
20673.470589,-74.020594,-7994.224174,1149.143247
20673.470922,-3034.844362,-9548.656652,-3677.258390
20673.471255,-3552.988522,-12657.521608,-1915.238745
20673.471588,-6883.915261,-12435.459826,-4366.744339
20673.471921,-6439.791695,-11029.068536,-4903.011187
20673.472254,-3627.009116,-9844.739029,-2451.505594
20673.472587,-1258.350101,-8290.306550,1762.019645
20673.472920,0.000000,-5699.585753,2451.505594
20673.473253,592.164754,-5403.503377,5209.449386
20673.473585,2886.803174,-9178.553681,2528.115143
20673.473918,0.000000,-5107.421000,0.000000
20673.474251,0.000000,-10510.924376,2987.772442
20673.474584,0.000000,-7476.080014,-2451.505594
20673.474917,1332.370696,-10658.965565,612.876398
20673.475250,1776.494261,-10066.800811,995.924147
20673.475583,74.020594,-7105.977043,-2451.505594
20673.475916,-1258.350101,-9474.636058,-4366.744339
20673.476249,-1480.411884,-9992.780217,-1915.238745
20673.476582,-74.020594,-10658.965565,-3064.381992
20673.476915,0.000000,-9548.656652,612.876398
20673.477248,3256.906145,-9474.636058,3600.648841
20673.477581,4663.297435,-9252.574275,4826.401637
20673.477914,6883.915261,-6291.750507,4443.353888
20673.478247,6143.709319,-8068.244768,4519.963438
20673.478580,7179.997637,-5181.441594,2221.676944
20673.478913,2368.659014,-7772.162391,0.000000
20673.479245,5181.441594,-13027.624579,-1302.362347
20673.479578,0.000000,-11917.315666,-4290.134789
20673.479911,-888.247130,-14211.954086,-2528.115143
20673.480244,814.226536,-9548.656652,-3677.258390
20673.480577,0.000000,-10881.027347,-306.438199
20673.480910,3627.009116,-6291.750507,1685.410096
20673.481243,3108.864956,-6217.729913,3753.867940
20673.481576,3997.112087,-5107.421000,2757.943793
20673.481909,2960.823768,-7772.162391,3677.258390
20673.482242,4071.132681,-7105.977043,766.095498
20673.482575,2368.659014,-8734.430116,2221.676944
20673.482908,-74.020594,-13027.624579,-1915.238745
20673.483241,0.000000,-9548.656652,-3677.258390
20673.483574,-1184.329507,-11177.109724,-1149.143247
20673.483907,296.082377,-8956.491898,-1072.533697
20673.484240,740.205942,-8438.347739,-766.095498
20673.484573,-1776.494261,-11769.274478,-766.095498
20673.484905,0.000000,-10140.821405,612.876398
20673.485238,-1554.432478,-9696.697840,1762.019645
20673.485571,-592.164754,-7476.080014,4136.915689
20673.485904,444.123565,-6217.729913,3677.258390
20673.486237,1554.432478,-8068.244768,4366.744339
20673.486570,1184.329507,-4811.338623,3677.258390
20673.486903,-666.185348,-7105.977043,-76.609550
20673.487236,-3923.091493,-7772.162391,-4903.011187
20673.487569,-4811.338623,-13619.789333,-4060.306139
20673.487902,-6291.750507,-12435.459826,-3907.087040
20673.488235,-7994.224174,-9548.656652,-3677.258390
20673.488568,-5551.544565,-11103.089130,-2757.943793
20673.488901,-3182.885551,-11103.089130,1149.143247
20673.489234,444.123565,-7105.977043,4596.572988
20673.489567,3997.112087,-4737.318029,8197.221829
20673.489900,3478.967927,-4145.153275,2451.505594
20673.490232,1184.329507,-9696.697840,2451.505594
20673.490565,518.144159,-7772.162391,1225.752797
20673.490898,-2072.576638,-11473.192101,2451.505594
20673.491231,-74.020594,-11843.295072,-1915.238745
20673.491564,-2664.741391,-12139.377449,-3217.601092
20673.491897,-666.185348,-10066.800811,-1991.848295
20673.492230,-814.226536,-8216.285956,-1302.362347
20673.492563,-666.185348,-7698.141797,-2834.553343
20673.492896,-74.020594,-7179.997637,-4290.134789
20673.493229,2072.576638,-9992.780217,3753.867940
20673.493562,3478.967927,-9474.636058,3600.648841
20673.493895,148.041188,-7179.997637,1225.752797
20673.494228,4071.132681,-11843.295072,2068.457845
20673.494561,3701.029710,-8364.327145,3524.039291
20673.494897,5329.482782,-6883.915261,3907.087040
20673.495230,4515.256246,-5699.585753,1608.800546
20673.495563,888.247130,-8068.244768,-3370.820191
20673.495896,-1184.329507,-12509.480420,-3677.258390
20673.496229,-2368.659014,-12509.480420,-1991.848295
20673.496562,-1998.556043,-11843.295072,-3294.210641
20673.496895,-74.020594,-11843.295072,-1608.800546
20673.497228,2886.803174,-7476.080014,1838.629195
20673.497561,6513.812290,-6883.915261,8197.221829
20673.497894,6439.791695,-4441.235652,4826.401637
20673.498227,4737.318029,-6143.709319,3217.601092
20673.498560,4737.318029,-8956.491898,3064.381992
20673.498893,2812.782580,-10658.965565,1608.800546
20673.499226,-222.061783,-11843.295072,-995.924147
20673.499559,-3701.029710,-11103.089130,-4673.182538
20673.499892,-962.267725,-12731.542202,-3753.867940
20673.500225,0.000000,-10066.800811,-689.485948
20673.500558,0.000000,-6291.750507,-1225.752797
20673.500891,814.226536,-8882.471304,-76.609550
20673.501224,1110.308913,-10066.800811,-229.828649
20673.501557,2294.638420,-10658.965565,3600.648841
20673.501890,518.144159,-9474.636058,3600.648841
20673.502223,-740.205942,-8956.491898,2451.505594
20673.502556,962.267725,-8808.450710,2681.334243
20673.502889,2220.617826,-8956.491898,3907.087040
20673.503222,4367.215058,-8290.306550,3600.648841
20673.503555,-3552.988522,-7772.162391,842.705048
20673.503888,-2442.679609,-9474.636058,-6052.154434
20673.504221,-5107.421000,-11547.212695,-4673.182538
20673.504554,-5921.647536,-10881.027347,-3370.820191
20673.504887,-4811.338623,-9474.636058,-3983.696590
20673.505220,-3775.050304,-9622.677246,-383.047749
20673.505553,814.226536,-8660.409521,3753.867940
20673.505886,3256.906145,-5921.647536,6665.030833
20673.506219,3478.967927,-4737.318029,6052.154434
20673.506552,4145.153275,-5921.647536,6052.154434
20673.506885,2294.638420,-10362.883188,536.266849
20673.507218,-1776.494261,-10732.986159,-306.438199
20673.507551,-5921.647536,-13101.645173,-3217.601092
20673.507884,-5699.585753,-9844.739029,-6128.763984
20673.508217,-2368.659014,-11695.253884,-3064.381992
20673.508550,0.000000,-10140.821405,306.438199
20673.508883,1332.370696,-6957.935855,2221.676944
20673.509216,0.000000,-4811.338623,0.000000
20673.509549,4663.297435,-9326.594869,2987.772442
20673.509882,1850.514855,-7105.977043,3294.210641
20673.510215,592.164754,-8956.491898,4290.134789
20673.510548,3478.967927,-9474.636058,2374.896044
20673.510881,592.164754,-10140.821405,919.314598
20673.511214,2664.741391,-9844.739029,689.485948
20673.511547,1332.370696,-8882.471304,-689.485948
20673.511880,666.185348,-8216.285956,-3217.601092
20673.512213,-888.247130,-10732.986159,-2298.286494
20673.512546,-74.020594,-10658.965565,-4060.306139
20673.512878,-1776.494261,-10732.986159,1302.362347
20673.513211,3478.967927,-11843.295072,2374.896044
20673.513544,5551.544565,-8290.306550,3907.087040
20673.513877,5625.565159,-9104.533087,7890.783629
20673.514210,6883.915261,-7328.038826,5439.278036
20673.514543,3997.112087,-6661.853478,2987.772442
20673.514876,1184.329507,-7624.121203,-995.924147
20673.515209,0.000000,-10732.986159,-1532.190996
20673.515542,-2220.617826,-11547.212695,-3830.477490
20673.515875,-2516.700203,-11769.274478,-3217.601092
20673.516208,-4293.194464,-11325.150913,-2604.724693
20673.516541,-2146.597232,-8882.471304,-2221.676944
20673.516874,0.000000,-8660.409521,2604.724693
20673.517207,5847.626942,-5329.482782,4826.401637
20673.517540,4071.132681,-7105.977043,4213.525239
20673.517873,2442.679609,-4367.215058,1838.629195
20673.518206,2886.803174,-13619.789333,4213.525239
20673.518539,888.247130,-8216.285956,306.438199
20673.518872,-1554.432478,-12435.459826,-153.219100
20673.519205,-4737.318029,-12361.439231,-3753.867940
20673.519538,-3552.988522,-10140.821405,-3677.258390
20673.519871,-7105.977043,-8364.327145,-2451.505594
20673.520204,1702.473667,-6809.894666,-995.924147
20673.520537,-2442.679609,-9474.636058,-689.485948
20673.520870,-1184.329507,-8364.327145,1532.190996
20673.521203,0.000000,-6143.709319,3294.210641
20673.521536,-592.164754,-8586.388927,3370.820191
20673.521869,1406.391290,-7105.977043,1608.800546
20673.522202,74.020594,-11547.212695,2221.676944
20673.522535,4663.297435,-8290.306550,2604.724693
20673.522868,0.000000,-7476.080014,4519.963438
20673.523201,3478.967927,-6809.894666,-3983.696590
20673.523534,-2368.659014,-12509.480420,-1225.752797
20673.523867,-2368.659014,-12657.521608,-1302.362347
20673.524200,-3256.906145,-11991.336260,-2451.505594
20673.524533,-3775.050304,-10658.965565,-1915.238745
20673.524866,-814.226536,-8512.368333,0.000000
20673.525199,1998.556043,-7105.977043,3983.696590
20673.525532,5551.544565,-3552.988522,4826.401637
20673.525865,3108.864956,-5329.482782,4826.401637
20673.526198,592.164754,-5995.668130,0.000000
20673.526531,2368.659014,-10288.862594,3447.429741
20673.526864,814.226536,-10955.047942,-1225.752797
20673.527197,-74.020594,-10510.924376,-3140.991542
20673.527530,-2220.617826,-12509.480420,-4290.134789
20673.527863,444.123565,-11473.192101,-1378.971896
20673.528196,2294.638420,-8290.306550,1455.581446
20673.528529,1184.329507,-5403.503377,0.000000
20673.528862,4071.132681,-8290.306550,-995.924147
20673.529195,592.164754,-9844.739029,2757.943793
20673.529528,4663.297435,-10658.965565,4826.401637
20673.529861,0.000000,-7179.997637,1838.629195
20673.530194,1406.391290,-9474.636058,1608.800546
20673.530527,3775.050304,-8364.327145,2757.943793
20673.530860,4071.132681,-7846.182985,2681.334243
20673.531193,3478.967927,-8586.388927,1608.800546
20673.531526,-3552.988522,-7772.162391,-4596.572988
20673.531859,-666.185348,-12287.418637,-5132.839837
20673.532192,-2220.617826,-12139.377449,-1608.800546
20673.532525,-4293.194464,-11325.150913,-2451.505594
20673.532858,-3701.029710,-9548.656652,-2068.457845
20673.533191,-2368.659014,-8956.491898,1225.752797
20673.533524,4071.132681,-7105.977043,6052.154434
20673.533857,4663.297435,-2146.597232,4903.011187
20673.534190,4441.235652,-5773.606348,5439.278036
20673.534523,3478.967927,-8882.471304,3294.210641
20673.534856,-1924.535449,-9548.656652,0.000000
20673.535189,-2368.659014,-11177.109724,-3447.429741
20673.535522,-5255.462188,-12509.480420,-4596.572988
20673.535855,-3182.885551,-12731.542202,-3907.087040
20673.536188,-2368.659014,-10732.986159,0.000000
20673.536521,-74.020594,-9178.553681,-1915.238745
20673.536854,-2368.659014,-5995.668130,-995.924147
20673.537187,-2368.659014,-6587.832884,2145.067394
20673.537520,2294.638420,-9474.636058,3600.648841
20673.537853,296.082377,-7476.080014,5362.668486
20673.538186,0.000000,-8586.388927,2987.772442
20673.538519,0.000000,-8216.285956,1991.848295
20673.538852,1110.308913,-8956.491898,1455.581446
20673.539185,4071.132681,-9474.636058,2374.896044
20673.539518,-74.020594,-8290.306550,-3140.991542
20673.539851,-1776.494261,-9104.533087,-2834.553343
20673.540184,-3552.988522,-11621.233289,-1302.362347
20673.540517,-1850.514855,-11547.212695,-3600.648841
20673.540850,-2442.679609,-11843.295072,-1302.362347
20673.541183,-2072.576638,-9474.636058,-383.047749
20673.541516,2590.720797,-8364.327145,3370.820191
20673.541849,5773.606348,-6587.832884,6511.811733
20673.542182,5995.668130,-5033.400406,6205.373534
20673.542515,4737.318029,-4811.338623,3064.381992
20673.542848,5847.626942,-11843.295072,1762.019645
20673.543181,1776.494261,-9548.656652,0.000000
20673.543514,-2072.576638,-12509.480420,-3677.258390
20673.543847,-740.205942,-13027.624579,-4979.620737
20673.544180,-3404.947333,-13545.768739,-3753.867940
20673.544513,-888.247130,-11029.068536,-229.828649
20673.544846,814.226536,-7254.018232,1762.019645
20673.545179,1258.350101,-3701.029710,2681.334243
20673.545512,3256.906145,-4811.338623,4290.134789
20673.545845,1998.556043,-7846.182985,3830.477490
20673.546178,1924.535449,-8142.265362,3217.601092
20673.546511,0.000000,-9548.656652,2757.943793
20673.546844,1628.453072,-10807.006753,1149.143247
20673.547177,2294.638420,-9474.636058,-1225.752797
20673.547510,0.000000,-9696.697840,-2451.505594
20673.547843,1702.473667,-10658.965565,-2528.115143
20673.548176,-2664.741391,-9844.739029,-4290.134789
20673.548509,-2220.617826,-12509.480420,-2834.553343
20673.548842,-2368.659014,-10732.986159,-383.047749
20673.549175,-74.020594,-9918.759623,1991.848295
20673.549508,2590.720797,-8290.306550,4826.401637
20673.549841,296.082377,-7476.080014,6205.373534
20673.550174,3182.885551,-4219.173869,2451.505594
20673.550507,1776.494261,-7550.100608,5439.278036
20673.550840,2294.638420,-7105.977043,-76.609550
20673.551173,518.144159,-9474.636058,-842.705048
20673.551506,-2146.597232,-12435.459826,-3447.429741
20673.551839,-5107.421000,-12731.542202,-5132.839837
20673.552171,-7105.977043,-11917.315666,-5669.106685
20673.552504,-3034.844362,-11251.130318,-2604.724693
20673.552837,-74.020594,-11251.130318,2374.896044
20673.553170,1184.329507,-5995.668130,1991.848295
20673.553503,1184.329507,-4811.338623,5209.449386
20673.553836,4071.132681,-6513.812290,3447.429741
20673.554169,2220.617826,-7402.059420,3983.696590
20673.554502,4071.132681,-8882.471304,3294.210641
20673.554835,0.000000,-10732.986159,1302.362347
20673.555168,-1480.411884,-10214.842000,-2451.505594
20673.555501,-1998.556043,-11843.295072,-3064.381992
20673.555834,-74.020594,-10658.965565,-1915.238745
20673.556167,0.000000,-7772.162391,1149.143247
20673.556500,0.000000,-7476.080014,1072.533697
20673.556833,1110.308913,-9474.636058,-1608.800546
20673.557166,0.000000,-9548.656652,1532.190996
20673.557499,-1924.535449,-9548.656652,1532.190996
20673.557832,888.247130,-6217.729913,1149.143247
20673.558165,3256.906145,-10140.821405,3677.258390
20673.558498,7105.977043,-6069.688724,6205.373534
20673.558831,4145.153275,-6291.750507,2451.505594
20673.559164,3034.844362,-9474.636058,-76.609550
20673.559497,-2146.597232,-10140.821405,-6128.763984
20673.559830,-5329.482782,-11917.315666,-4903.011187
20673.560163,-1184.329507,-12213.398043,-919.314598
20673.560496,-4293.194464,-10288.862594,-3983.696590
20673.560829,-1480.411884,-9992.780217,-1532.190996
20673.561162,2442.679609,-9326.594869,4213.525239
20673.561495,4811.338623,-5107.421000,7048.078582
20673.561828,3923.091493,-2146.597232,4903.011187
20673.562161,1480.411884,-7402.059420,1532.190996
20673.562494,1406.391290,-9474.636058,689.485948
20673.562827,-1184.329507,-11103.089130,612.876398
20673.563160,-74.020594,-11843.295072,-76.609550
20673.563493,-3627.009116,-9622.677246,-4749.792088
20673.563826,-1184.329507,-11917.315666,-2451.505594
20673.564159,1036.288319,-13027.624579,-76.609550
20673.564492,-1406.391290,-8364.327145,-2451.505594
20673.564825,-2960.823768,-7179.997637,-1532.190996
20673.565158,0.000000,-9104.533087,1072.533697
20673.565491,3775.050304,-6809.894666,4366.744339
20673.565824,2368.659014,-7698.141797,5669.106685
20673.566157,518.144159,-7994.224174,2068.457845
20673.566490,-74.020594,-7476.080014,0.000000
20673.566823,888.247130,-10955.047942,2374.896044
20673.567156,814.226536,-5921.647536,-689.485948
20673.567489,-4145.153275,-6587.832884,-1991.848295
20673.567822,-1258.350101,-11251.130318,-4060.306139
20673.568155,-4145.153275,-11399.171507,-2451.505594
20673.568488,-2590.720797,-10658.965565,-1838.629195
20673.568821,-2960.823768,-10214.842000,-459.657299
20673.569154,-1776.494261,-8660.409521,383.047749
20673.569487,4367.215058,-5847.626942,2451.505594
20673.569820,7624.121203,-8290.306550,7277.907231
20673.570153,4367.215058,-4219.173869,3677.258390
20673.570486,2368.659014,-8364.327145,3294.210641
20673.570819,2220.617826,-8734.430116,-689.485948
20673.571152,1184.329507,-11325.150913,-689.485948
20673.571485,-3108.864956,-13027.624579,-3217.601092
20673.571818,-3923.091493,-11695.253884,-5669.106685
20673.572151,-1258.350101,-13027.624579,-76.609550
20673.572484,0.000000,-7476.080014,1302.362347
20673.572817,3478.967927,-8290.306550,2374.896044
20673.573150,3182.885551,-3404.947333,919.314598
20673.573483,2664.741391,-9696.697840,3677.258390
20673.573816,3404.947333,-9474.636058,3677.258390
20673.574149,-370.102971,-9844.739029,1225.752797
20673.574482,-370.102971,-9400.615463,76.609550
20673.574815,518.144159,-10510.924376,536.266849
20673.575148,1998.556043,-8142.265362,0.000000
20673.575481,2516.700203,-9474.636058,-76.609550
20673.575814,-1998.556043,-6587.832884,-4290.134789
20673.576147,-3552.988522,-7772.162391,-4290.134789
20673.576480,-74.020594,-12435.459826,-2068.457845
20673.576813,-1258.350101,-11547.212695,-1838.629195
20673.577146,-1998.556043,-9992.780217,-383.047749
20673.577479,1406.391290,-8142.265362,2374.896044
20673.577812,3923.091493,-8364.327145,5286.058936
20673.578145,4219.173869,-5625.565159,4443.353888
20673.578478,4885.359217,-7105.977043,5132.839837
20673.578811,2294.638420,-8068.244768,995.924147
20673.579144,-74.020594,-11473.192101,-919.314598
20673.579477,-2886.803174,-12583.501014,-2221.676944
20673.579810,-4811.338623,-11251.130318,-3907.087040
20673.580143,-4737.318029,-11177.109724,-919.314598
20673.580476,-74.020594,-11843.295072,-1608.800546
20673.580809,0.000000,-7179.997637,1838.629195
20673.581142,0.000000,-6291.750507,2757.943793
20673.581475,1406.391290,-5773.606348,995.924147
20673.581808,740.205942,-8142.265362,2987.772442
20673.582141,1702.473667,-8290.306550,2451.505594
20673.582474,2294.638420,-8290.306550,3217.601092
20673.582807,-1184.329507,-7772.162391,0.000000
20673.583140,1924.535449,-12731.542202,1762.019645
20673.583473,-74.020594,-11843.295072,-1302.362347
20673.583806,0.000000,-7476.080014,-2451.505594
20673.584139,1406.391290,-9474.636058,-76.609550
20673.584472,-2294.638420,-10140.821405,-4596.572988
20673.584805,-962.267725,-11103.089130,-1149.143247
20673.585138,-1258.350101,-10510.924376,766.095498
20673.585471,444.123565,-7772.162391,2451.505594
20673.585804,592.164754,-8660.409521,4903.011187
20673.586137,5847.626942,-11251.130318,4826.401637
20673.586470,4145.153275,-5403.503377,4903.011187
20673.586803,5921.647536,-6143.709319,6052.154434
20673.587136,3923.091493,-8142.265362,-1608.800546
20673.587469,-2368.659014,-11917.315666,-1991.848295
20673.587802,-2812.782580,-12657.521608,-4903.011187
20673.588135,-5329.482782,-13249.686362,-4673.182538
20673.588468,-3552.988522,-8512.368333,-4290.134789
20673.588801,-1850.514855,-12879.583391,-76.609550
20673.589134,2886.803174,-8290.306550,2374.896044
20673.589467,1776.494261,-4515.256246,6894.859482
20673.589800,5403.503377,-5329.482782,8503.660028
20673.590133,5255.462188,-7105.977043,2681.334243
20673.590466,592.164754,-8660.409521,2757.943793
20673.590799,1110.308913,-10362.883188,766.095498
20673.591132,-1406.391290,-10140.821405,-2145.067394
20673.591464,-1480.411884,-10140.821405,-4136.915689
20673.591797,-74.020594,-11251.130318,-1302.362347
20673.592130,-1850.514855,-9548.656652,-3064.381992
20673.592463,-2146.597232,-8364.327145,-3140.991542
20673.592796,-3849.070898,-10436.903782,-2451.505594
20673.593129,-2368.659014,-8364.327145,0.000000
20673.593462,0.000000,-9548.656652,6128.763984
20673.593795,3478.967927,-7105.977043,4213.525239
20673.594128,1480.411884,-5403.503377,2068.457845
20673.594461,2368.659014,-7179.997637,4903.011187
20673.594795,3478.967927,-7105.977043,3447.429741
20673.595128,2146.597232,-7402.059420,459.657299
20673.595461,0.000000,-9252.574275,-2834.553343
20673.595794,-2442.679609,-13471.748144,-5132.839837
20673.596127,-4145.153275,-13915.871710,-2528.115143
20673.596460,-4959.379811,-11399.171507,-3983.696590
20673.596794,-2442.679609,-13027.624579,-2834.553343
20673.597127,148.041188,-6587.832884,2451.505594
20673.597460,4663.297435,-6513.812290,3677.258390
20673.597793,4737.318029,-1850.514855,7967.393179
20673.598126,4663.297435,-8290.306550,4826.401637
20673.598459,1480.411884,-6587.832884,4903.011187
20673.598793,2738.761985,-9178.553681,1532.190996
20673.599126,-814.226536,-11843.295072,-1302.362347
20673.599459,-3552.988522,-10436.903782,-4213.525239
20673.599792,-3627.009116,-13027.624579,-6818.249932
20673.600125,0.000000,-10140.821405,-766.095498
20673.600458,1332.370696,-10658.965565,306.438199
20673.600792,1998.556043,-8882.471304,-76.609550
20673.601125,1258.350101,-8290.306550,1455.581446
20673.601458,2146.597232,-9844.739029,4290.134789
20673.601791,1702.473667,-7402.059420,3600.648841
20673.602124,296.082377,-9326.594869,2451.505594
20673.602457,3849.070898,-8364.327145,4826.401637
20673.602791,740.205942,-7179.997637,3677.258390
20673.603124,6069.688724,-8808.450710,4213.525239
20673.603457,-74.020594,-8586.388927,-3677.258390
20673.603790,-3997.112087,-7772.162391,-6128.763984
20673.604123,-1258.350101,-12435.459826,-3830.477490
20673.604456,-1406.391290,-11399.171507,-2451.505594
20673.604790,-1850.514855,-9918.759623,-1149.143247
20673.605123,-2442.679609,-9992.780217,-1072.533697
20673.605456,3478.967927,-9474.636058,3600.648841
20673.605789,1924.535449,-4811.338623,6128.763984
20673.606122,6291.750507,-6513.812290,6052.154434
20673.606455,4071.132681,-3627.009116,1225.752797
20673.606789,0.000000,-8364.327145,1991.848295
20673.607122,2368.659014,-9696.697840,842.705048
20673.607455,-3997.112087,-12879.583391,-2987.772442
20673.607788,-4441.235652,-11103.089130,-4979.620737
20673.608121,-4589.276840,-11695.253884,-3600.648841
20673.608454,-370.102971,-9400.615463,-2451.505594
20673.608788,1036.288319,-7105.977043,842.705048
20673.609121,592.164754,-5995.668130,1225.752797
20673.609454,2294.638420,-6809.894666,2221.676944
20673.609787,2960.823768,-8290.306550,6052.154434
20673.610120,3478.967927,-8586.388927,2451.505594
20673.610454,296.082377,-8364.327145,0.000000
20673.610787,740.205942,-11843.295072,1762.019645
20673.611120,2886.803174,-10362.883188,-459.657299
20673.611453,592.164754,-9548.656652,0.000000
20673.611786,1110.308913,-8068.244768,-1455.581446
20673.612119,74.020594,-9474.636058,-2374.896044
20673.612453,-1702.473667,-11917.315666,-2528.115143
20673.612786,-370.102971,-12435.459826,-76.609550
20673.613119,-666.185348,-11547.212695,-689.485948
20673.613452,592.164754,-7328.038826,4826.401637
20673.613785,4071.132681,-9474.636058,4826.401637
20673.614118,3849.070898,-5995.668130,6435.202183
20673.614452,6439.791695,-7105.977043,6052.154434
20673.614785,666.185348,-7254.018232,-459.657299
20673.615118,-666.185348,-11251.130318,-2681.334243
20673.615451,-3478.967927,-12583.501014,-2374.896044
20673.615784,-4145.153275,-10140.821405,-3907.087040
20673.616117,-3627.009116,-7846.182985,-7201.297681
20673.616451,-1554.432478,-13027.624579,-76.609550
20673.616784,-962.267725,-7846.182985,0.000000
20673.617117,2294.638420,-4811.338623,2451.505594
20673.617450,2886.803174,-4737.318029,4213.525239
20673.617783,2368.659014,-7624.121203,3370.820191
20673.618116,1406.391290,-9548.656652,1532.190996
20673.618450,444.123565,-10955.047942,1149.143247
20673.618783,-1776.494261,-11843.295072,0.000000
20673.619116,-2368.659014,-9548.656652,-2451.505594
20673.619449,-74.020594,-13323.706956,-76.609550
20673.619782,-74.020594,-9326.594869,-2834.553343
20673.620115,-2664.741391,-5995.668130,-2911.162892
20673.620449,-1184.329507,-7179.997637,-3370.820191
20673.620782,-666.185348,-11177.109724,459.657299
20673.621115,518.144159,-9326.594869,2068.457845
20673.621448,148.041188,-8660.409521,3064.381992
20673.621781,-74.020594,-8290.306550,1762.019645
20673.622114,1184.329507,-10436.903782,5132.839837
20673.622448,4367.215058,-7402.059420,2681.334243
20673.622781,2960.823768,-4811.338623,2451.505594
20673.623114,3478.967927,-10510.924376,-76.609550
20673.623447,-1702.473667,-11621.233289,-4903.011187
20673.623780,-2220.617826,-12731.542202,-3140.991542
20673.624113,-3923.091493,-12879.583391,-2681.334243
20673.624447,-1776.494261,-9104.533087,-1532.190996
20673.624780,-74.020594,-9474.636058,1149.143247
20673.625113,3849.070898,-7031.956449,4519.963438
20673.625446,4737.318029,-5255.462188,6971.469032
20673.625779,3552.988522,-5107.421000,3217.601092
20673.626112,3182.885551,-7772.162391,1072.533697
20673.626446,4663.297435,-11547.212695,1762.019645
20673.626779,888.247130,-11325.150913,612.876398
20673.627112,1702.473667,-13027.624579,-689.485948
20673.627445,-4145.153275,-10732.986159,-3677.258390
20673.627778,-1776.494261,-10140.821405,-2451.505594
20673.628111,2294.638420,-9474.636058,-76.609550
20673.628445,0.000000,-7402.059420,1149.143247
20673.628778,-444.123565,-7402.059420,-995.924147
20673.629111,370.102971,-9474.636058,1072.533697
20673.629444,1702.473667,-8586.388927,1762.019645
20673.629777,0.000000,-10288.862594,5745.716235
20673.630110,-74.020594,-9474.636058,-76.609550
20673.630444,0.000000,-7179.997637,1225.752797
20673.630777,4663.297435,-9474.636058,5975.544884
20673.631110,2146.597232,-7254.018232,0.000000
20673.631443,-1480.411884,-8142.265362,-2451.505594
20673.631776,-2886.803174,-11769.274478,-4749.792088
20673.632109,-2886.803174,-13323.706956,-2681.334243
20673.632443,-4441.235652,-11917.315666,-1838.629195
20673.632776,-2442.679609,-13027.624579,-2528.115143
20673.633109,-2960.823768,-8068.244768,1532.190996
20673.633442,2960.823768,-8956.491898,8503.660028
20673.633775,5255.462188,-4293.194464,6818.249932
20673.634108,3849.070898,-4811.338623,7584.345430
20673.634442,1554.432478,-7328.038826,1838.629195
20673.634775,-962.267725,-11103.089130,-536.266849
20673.635108,-2960.823768,-11103.089130,-2451.505594
20673.635441,-5403.503377,-11843.295072,-4979.620737
20673.635774,-3775.050304,-10362.883188,-6205.373534
20673.636107,-3552.988522,-11621.233289,-76.609550
20673.636441,1110.308913,-8882.471304,1149.143247
20673.636774,-1258.350101,-5033.400406,-2911.162892
20673.637107,1850.514855,-8290.306550,2068.457845
20673.637440,2368.659014,-10658.965565,4519.963438
20673.637773,3034.844362,-7772.162391,4290.134789
20673.638106,2146.597232,-8586.388927,3907.087040
20673.638440,2294.638420,-7105.977043,842.705048
20673.638773,3552.988522,-9770.718434,2757.943793
20673.639106,4959.379811,-8290.306550,1455.581446
20673.639439,1924.535449,-10214.842000,-383.047749
20673.639772,-1184.329507,-8364.327145,-3677.258390
20673.640105,-296.082377,-12361.439231,-2528.115143
20673.640439,-370.102971,-10955.047942,-4213.525239
20673.640772,-2368.659014,-10732.986159,0.000000
20673.641105,-2220.617826,-9474.636058,842.705048
20673.641438,3552.988522,-7179.997637,3217.601092
20673.641771,7105.977043,-7698.141797,7890.783629
20673.642105,7402.059420,-5847.626942,7507.735880
20673.642438,5403.503377,-4071.132681,3370.820191
20673.642771,2886.803174,-9474.636058,-383.047749
20673.643104,888.247130,-9548.656652,-1455.581446
20673.643437,-666.185348,-9844.739029,-6128.763984
20673.643770,-2960.823768,-12361.439231,-4366.744339
20673.644104,-370.102971,-13915.871710,-3753.867940
20673.644437,1110.308913,-13027.624579,-766.095498
20673.644770,3404.947333,-9178.553681,2681.334243
20673.645103,4367.215058,-5921.647536,4596.572988
20673.645436,5403.503377,-5329.482782,4213.525239
20673.645769,5181.441594,-7328.038826,4673.182538
20673.646103,3552.988522,-11177.109724,5745.716235
20673.646436,0.000000,-8956.491898,612.876398
20673.646769,-1776.494261,-11695.253884,-76.609550
20673.647102,518.144159,-10214.842000,-1991.848295
20673.647435,-1480.411884,-9030.512492,-2757.943793
20673.647768,-74.020594,-9770.718434,-2221.676944
20673.648102,-2886.803174,-7772.162391,-2604.724693
20673.648435,-4515.256246,-11769.274478,-2604.724693
20673.648768,-2960.823768,-9844.739029,306.438199
20673.649101,-2442.679609,-11843.295072,2987.772442
20673.649434,-4145.153275,-7476.080014,4673.182538
20673.649767,-74.020594,-9474.636058,4826.401637
20673.650101,-666.185348,-5403.503377,2757.943793
20673.650434,2664.741391,-5995.668130,7660.954980
20673.650767,444.123565,-4811.338623,1838.629195
20673.651100,74.020594,-9030.512492,-1532.190996
20673.651433,-4737.318029,-12509.480420,-3753.867940
20673.651766,-5329.482782,-12657.521608,-5362.668486
20673.652100,-6809.894666,-10732.986159,-7048.078582
20673.652433,-3256.906145,-13027.624579,-76.609550
20673.652766,-1850.514855,-9548.656652,-1072.533697
20673.653099,962.267725,-5403.503377,1532.190996
20673.653432,2368.659014,-4811.338623,6741.640382
20673.653765,2294.638420,-4367.215058,2757.943793
20673.654099,2516.700203,-10066.800811,3600.648841
20673.654432,2442.679609,-8734.430116,3217.601092
20673.654765,-296.082377,-10807.006753,1149.143247
20673.655098,-666.185348,-7772.162391,-2451.505594
20673.655431,-1406.391290,-12065.356855,-2221.676944
20673.655764,814.226536,-8734.430116,-1532.190996
20673.656098,1110.308913,-8808.450710,-995.924147
20673.656431,3330.926739,-8512.368333,-153.219100
20673.656764,814.226536,-10362.883188,-2145.067394
20673.657097,592.164754,-8364.327145,0.000000
20673.657430,592.164754,-10807.006753,3907.087040
20673.657763,1702.473667,-8438.347739,1455.581446
20673.658097,3552.988522,-7772.162391,4903.011187
20673.658430,6735.874072,-8290.306550,4903.011187
20673.658763,7254.018232,-7105.977043,4673.182538
20673.659096,2442.679609,-6661.853478,-612.876398
20673.659429,-74.020594,-10362.883188,-5592.497135
20673.659762,-74.020594,-11325.150913,-6128.763984
20673.660096,-888.247130,-13619.789333,-1915.238745
20673.660429,-148.041188,-11917.315666,-689.485948
20673.660762,-1850.514855,-11251.130318,-2528.115143
20673.661095,3182.885551,-10955.047942,3294.210641
20673.661428,4737.318029,-5847.626942,6741.640382
20673.661761,6883.915261,-3256.906145,6281.983084
20673.662095,3552.988522,-6291.750507,2987.772442
20673.662428,2368.659014,-9844.739029,1838.629195
20673.662761,-74.020594,-10436.903782,0.000000
20673.663094,-74.020594,-14211.954086,-1302.362347
20673.663427,-5699.585753,-10140.821405,-4903.011187
20673.663760,-4663.297435,-10288.862594,-4749.792088
20673.664094,-1998.556043,-7920.203579,-995.924147
20673.664427,-1480.411884,-7031.956449,0.000000
20673.664760,-2960.823768,-7846.182985,-229.828649
20673.665093,0.000000,-5773.606348,1378.971896
20673.665426,1332.370696,-9992.780217,4903.011187
20673.665759,0.000000,-6587.832884,4903.011187
20673.666093,-74.020594,-11843.295072,-76.609550
20673.666426,-1998.556043,-8364.327145,0.000000
20673.666759,1406.391290,-11251.130318,1838.629195
20673.667092,2516.700203,-8512.368333,306.438199
20673.667425,222.061783,-8290.306550,229.828649
20673.667758,-3034.844362,-9326.594869,-3983.696590
20673.668092,-3701.029710,-11917.315666,-1915.238745
20673.668425,-5403.503377,-11843.295072,-2834.553343
20673.668758,-4737.318029,-10807.006753,-76.609550
20673.669091,-3034.844362,-6661.853478,0.000000
20673.669424,0.000000,-5995.668130,5515.887586
20673.669757,4071.132681,-4737.318029,3907.087040
20673.670091,1776.494261,-6291.750507,2451.505594
20673.670424,1998.556043,-6661.853478,-76.609550
20673.670757,-148.041188,-12287.418637,-459.657299
20673.671090,-962.267725,-12065.356855,-2221.676944
20673.671423,-3923.091493,-12731.542202,-3753.867940
20673.671756,-4145.153275,-11325.150913,-4060.306139
20673.672090,-740.205942,-10881.027347,-76.609550
20673.672423,1850.514855,-7179.997637,2451.505594
20673.672756,3478.967927,-5699.585753,3600.648841
20673.673089,3478.967927,-5921.647536,1762.019645
20673.673422,2664.741391,-8216.285956,3677.258390
20673.673756,4959.379811,-10510.924376,2834.553343
20673.674089,962.267725,-9548.656652,1838.629195
20673.674422,1184.329507,-7772.162391,1225.752797
20673.674755,3330.926739,-11103.089130,-1149.143247
20673.675088,5921.647536,-9252.574275,842.705048
20673.675421,2886.803174,-10214.842000,-76.609550
20673.675755,2590.720797,-9326.594869,-1915.238745
20673.676088,666.185348,-8068.244768,-4443.353888
20673.676421,592.164754,-14211.954086,-76.609550
20673.676754,2886.803174,-11769.274478,1762.019645
20673.677087,518.144159,-7179.997637,0.000000
20673.677420,4589.276840,-8290.306550,3217.601092
20673.677754,5107.421000,-8512.368333,4903.011187
20673.678087,7328.038826,-7105.977043,5515.887586
20673.678420,7031.956449,-5773.606348,4826.401637
20673.678753,5477.523971,-7994.224174,1608.800546
20673.679086,3552.988522,-9548.656652,0.000000
20673.679419,1554.432478,-15988.448347,-689.485948
20673.679753,-1554.432478,-10510.924376,-5362.668486
20673.680086,-5107.421000,-11325.150913,-6128.763984
20673.680419,-1924.535449,-11843.295072,-2528.115143
20673.680752,0.000000,-8808.450710,1685.410096
20673.681085,888.247130,-6439.791695,3677.258390
20673.681418,2664.741391,-2590.720797,3524.039291
20673.681752,962.267725,-7920.203579,2834.553343
20673.682085,3478.967927,-10362.883188,5439.278036
20673.682418,-1554.432478,-11843.295072,1762.019645
20673.682751,-4737.318029,-9548.656652,2451.505594
20673.683084,-3034.844362,-9474.636058,-1915.238745
20673.683417,-3034.844362,-10658.965565,-2221.676944
20673.683751,-4145.153275,-7179.997637,612.876398
20673.684084,-5107.421000,-6957.935855,-2451.505594
20673.684417,-4589.276840,-7402.059420,-3294.210641
20673.684750,-6661.853478,-11695.253884,-1149.143247
20673.685083,-3034.844362,-10066.800811,3447.429741
20673.685416,-4219.173869,-7698.141797,2374.896044
20673.685750,-2072.576638,-7994.224174,2987.772442
20673.686083,1184.329507,-7994.224174,5056.230287
20673.686416,1184.329507,-4811.338623,3677.258390
20673.686749,0.000000,-5995.668130,1838.629195
20673.687082,-2072.576638,-10066.800811,-1608.800546
20673.687415,-4515.256246,-12435.459826,-5592.497135
20673.687749,-4737.318029,-10881.027347,-4290.134789
20673.688082,-5181.441594,-11695.253884,-2987.772442
20673.688415,-4737.318029,-9548.656652,-2911.162892
20673.688748,-3552.988522,-10955.047942,612.876398
20673.689081,2220.617826,-6439.791695,3907.087040
20673.689414,3552.988522,-6291.750507,7354.516781
20673.689748,4663.297435,-2664.741391,3677.258390
20673.690081,6439.791695,-9474.636058,3600.648841
20673.690414,1332.370696,-9548.656652,1532.190996
20673.690747,592.164754,-10140.821405,3370.820191
20673.691080,0.000000,-9548.656652,-2374.896044
20673.691413,222.061783,-11177.109724,-3907.087040
20673.691747,2516.700203,-10362.883188,-2374.896044
20673.692080,4145.153275,-8512.368333,-919.314598
20673.692413,5255.462188,-9178.553681,-76.609550
20673.692746,1332.370696,-8660.409521,-1225.752797
20673.693079,5255.462188,-11843.295072,-76.609550
20673.693412,4145.153275,-8364.327145,3064.381992
20673.693746,6365.771101,-9474.636058,4826.401637
20673.694079,7624.121203,-9474.636058,2987.772442
20673.694412,7254.018232,-9992.780217,4749.792088
20673.694745,6883.915261,-7846.182985,3677.258390
20673.695078,6365.771101,-6365.771101,1608.800546
20673.695411,2590.720797,-8216.285956,-3217.601092
20673.695745,1184.329507,-12805.562797,-995.924147
20673.696078,-2368.659014,-10732.986159,-3677.258390
20673.696411,-5551.544565,-10732.986159,-4290.134789
20673.696744,-3256.906145,-13027.624579,-1915.238745
20673.697077,-1850.514855,-8586.388927,0.000000
20673.697410,4071.132681,-7105.977043,6358.592633
20673.697743,2072.576638,-3627.009116,4903.011187
20673.698077,2294.638420,-5329.482782,3600.648841
20673.698410,1184.329507,-7624.121203,2604.724693
20673.698743,-74.020594,-11843.295072,2374.896044
20673.699076,-4737.318029,-9844.739029,0.000000
20673.699409,-6291.750507,-13323.706956,-3753.867940
20673.699742,-5995.668130,-12435.459826,-8963.317327
20673.700075,-6883.915261,-11325.150913,-4443.353888
20673.700409,-3034.844362,-8734.430116,-76.609550
20673.700742,-2146.597232,-5107.421000,2145.067394
20673.701075,-666.185348,-5921.647536,3294.210641
20673.701408,0.000000,-8216.285956,5669.106685
20673.701741,-1850.514855,-9474.636058,4213.525239
20673.702074,-4737.318029,-8660.409521,1455.581446
20673.702407,-4145.153275,-8364.327145,0.000000
20673.702741,-1998.556043,-9030.512492,76.609550
20673.703074,0.000000,-7179.997637,0.000000
20673.703407,-2738.761985,-8586.388927,-3294.210641
20673.703740,-6809.894666,-7179.997637,-8273.831378
20673.704073,-5921.647536,-11917.315666,-2604.724693
20673.704406,-3182.885551,-12435.459826,-1302.362347
20673.704739,-2294.638420,-9548.656652,0.000000
20673.705073,370.102971,-7920.203579,2681.334243
20673.705406,3552.988522,-7772.162391,5898.935335
20673.705739,6143.709319,-4811.338623,7354.516781
20673.706072,7105.977043,-7105.977043,7890.783629
20673.706405,8808.450710,-5921.647536,2987.772442
20673.706738,1184.329507,-9844.739029,306.438199
20673.707071,3701.029710,-12879.583391,-689.485948
20673.707405,-4811.338623,-12509.480420,-7354.516781
20673.707738,-4145.153275,-10732.986159,-5745.716235
20673.708071,814.226536,-10214.842000,-2757.943793
20673.708404,3849.070898,-9474.636058,766.095498
20673.708737,6735.874072,-5995.668130,4060.306139
20673.709070,4663.297435,-5329.482782,2374.896044
20673.709403,10584.944971,-8290.306550,2374.896044
20673.709737,4737.318029,-8364.327145,5209.449386
20673.710070,9400.615463,-10066.800811,4213.525239
20673.710403,4367.215058,-7772.162391,0.000000
20673.710736,4071.132681,-13027.624579,-1915.238745
20673.711069,3108.864956,-11917.315666,-2911.162892
20673.711402,2960.823768,-11251.130318,-2528.115143
20673.711735,4515.256246,-9104.533087,-2221.676944
20673.712069,2664.741391,-7772.162391,-1685.410096
20673.712402,4367.215058,-9770.718434,-1532.190996
20673.712735,0.000000,-9844.739029,3064.381992
20673.713068,2886.803174,-11251.130318,2068.457845
20673.713401,1480.411884,-7476.080014,1225.752797
20673.713734,3552.988522,-7328.038826,4826.401637
20673.714067,3627.009116,-7698.141797,5132.839837
20673.714401,1628.453072,-7179.997637,3447.429741
20673.714734,-740.205942,-6883.915261,-1455.581446
20673.715067,-1776.494261,-11917.315666,-2451.505594
20673.715400,-5921.647536,-10732.986159,-3064.381992
20673.715733,-4811.338623,-13619.789333,-1302.362347
20673.716066,-5403.503377,-11843.295072,-4366.744339
20673.716399,-8882.471304,-11029.068536,0.000000
20673.716733,-6217.729913,-7179.997637,1455.581446
20673.717066,-2368.659014,-4811.338623,4903.011187
20673.717399,-1554.432478,-3330.926739,5286.058936
20673.717732,-2664.741391,-4219.173869,2145.067394
20673.718065,-2220.617826,-9918.759623,3217.601092
20673.718398,-6513.812290,-10436.903782,76.609550
20673.718731,-7254.018232,-9918.759623,-1838.629195
20673.719065,-7328.038826,-11325.150913,-3447.429741
20673.719398,-4737.318029,-10362.883188,-3140.991542
20673.719731,-4145.153275,-9844.739029,0.000000
20673.720064,-3849.070898,-5403.503377,-3677.258390
20673.720397,-4737.318029,-8068.244768,-612.876398
20673.720730,-1850.514855,-10362.883188,-76.609550
20673.721063,1110.308913,-8290.306550,2298.286494
20673.721397,0.000000,-10066.800811,6052.154434
20673.721730,1184.329507,-6291.750507,2298.286494
20673.722063,148.041188,-10881.027347,2451.505594
20673.722396,4737.318029,-4811.338623,1608.800546
20673.722729,5847.626942,-9474.636058,3600.648841
20673.723062,2368.659014,-6587.832884,0.000000
20673.723395,0.000000,-8660.409521,-2451.505594
20673.723729,-1554.432478,-15988.448347,-3753.867940
20673.724062,-1184.329507,-9548.656652,-3677.258390
20673.724395,-1554.432478,-11251.130318,-2604.724693
20673.724728,3923.091493,-9104.533087,229.828649
20673.725061,7846.182985,-6809.894666,5975.544884
20673.725394,9104.533087,-6143.709319,6358.592633
20673.725727,8216.285956,-1924.535449,2681.334243
20673.726061,4737.318029,-9548.656652,3524.039291
20673.726394,8660.409521,-9474.636058,-76.609550
20673.726727,2960.823768,-9548.656652,1225.752797
20673.727060,4663.297435,-13915.871710,-689.485948
20673.727393,-444.123565,-9548.656652,-6128.763984
20673.727726,666.185348,-13027.624579,-2987.772442
20673.728059,3997.112087,-9548.656652,536.266849
20673.728393,1776.494261,-7994.224174,1685.410096
20673.728726,1480.411884,-5403.503377,0.000000
20673.729059,3552.988522,-11177.109724,4826.401637
20673.729392,3478.967927,-7402.059420,1991.848295
20673.729725,888.247130,-7772.162391,1225.752797
20673.730058,-74.020594,-11843.295072,4826.401637
20673.730391,222.061783,-6735.874072,306.438199
20673.730725,518.144159,-10658.965565,1991.848295
20673.731058,444.123565,-6957.935855,-1225.752797
20673.731391,-4515.256246,-9326.594869,-4749.792088
20673.731724,-5329.482782,-10140.821405,-5515.887586
20673.732057,-4293.194464,-12731.542202,-2681.334243
20673.732390,-5773.606348,-11621.233289,-459.657299
20673.732723,-5995.668130,-10140.821405,-612.876398
20673.733057,-3923.091493,-10658.965565,-76.609550
20673.733390,-222.061783,-6957.935855,2451.505594
20673.733723,0.000000,-6587.832884,7277.907231
20673.734056,2294.638420,-5921.647536,6052.154434
20673.734389,-1776.494261,-3627.009116,3983.696590
20673.734722,-370.102971,-11251.130318,2374.896044
20673.735055,-5403.503377,-11103.089130,-3753.867940
20673.735389,-8808.450710,-11547.212695,-5898.935335
20673.735722,-7772.162391,-10955.047942,-6588.421283
20673.736055,-5921.647536,-8660.409521,-3064.381992
20673.736388,-962.267725,-6957.935855,-2528.115143
20673.736721,-4737.318029,-7772.162391,2374.896044
20673.737054,-666.185348,-6513.812290,2374.896044
20673.737387,1110.308913,-9474.636058,1608.800546
20673.737721,1332.370696,-6957.935855,4060.306139
20673.738054,2072.576638,-8364.327145,4903.011187
20673.738387,1406.391290,-8216.285956,2068.457845
20673.738720,3256.906145,-9252.574275,1915.238745
20673.739053,3552.988522,-9696.697840,2451.505594
20673.739386,5255.462188,-6735.874072,-1532.190996
20673.739719,4145.153275,-10140.821405,-76.609550
20673.740053,1554.432478,-11251.130318,-4519.963438
20673.740386,-2072.576638,-9622.677246,-4826.401637
20673.740719,0.000000,-12213.398043,-1838.629195
20673.741052,2664.741391,-9104.533087,1225.752797
20673.741385,6143.709319,-8586.388927,3907.087040
20673.741718,8660.409521,-6883.915261,5822.325785
20673.742051,9104.533087,-7994.224174,6052.154434
20673.742385,4737.318029,-3034.844362,3064.381992
20673.742718,7624.121203,-7550.100608,-689.485948
20673.743051,3775.050304,-9548.656652,-3677.258390
20673.743384,2960.823768,-11325.150913,-2221.676944
20673.743717,-1258.350101,-13027.624579,-4979.620737
20673.744050,-1332.370696,-11547.212695,-7124.688131
20673.744383,-2368.659014,-14211.954086,-3830.477490
20673.744717,2960.823768,-9918.759623,1532.190996
20673.745050,6143.709319,-6957.935855,6052.154434
20673.745383,7254.018232,-7254.018232,9729.412825
20673.745716,7031.956449,-4885.359217,4290.134789
20673.746049,3849.070898,-9844.739029,4903.011187
20673.746382,3256.906145,-10658.965565,4213.525239
20673.746715,-666.185348,-11843.295072,-1302.362347
20673.747049,-2960.823768,-11843.295072,-3370.820191
20673.747382,-3034.844362,-10362.883188,-4060.306139
20673.747715,-4589.276840,-10214.842000,-3140.991542
20673.748048,-3923.091493,-5921.647536,-4443.353888
20673.748381,-6217.729913,-11695.253884,-1915.238745
20673.748714,-3330.926739,-9400.615463,459.657299
20673.749047,-3627.009116,-10140.821405,3064.381992
20673.749381,-2960.823768,-7772.162391,3217.601092
20673.749714,-1110.308913,-6291.750507,2987.772442
20673.750047,0.000000,-8290.306550,5975.544884
20673.750380,3478.967927,-9474.636058,7277.907231
20673.750713,-962.267725,-4367.215058,1225.752797
20673.751046,-3552.988522,-8586.388927,-2604.724693
20673.751379,-6587.832884,-13323.706956,-6205.373534
20673.751713,-7994.224174,-13841.851115,-5822.325785
20673.752046,-7772.162391,-10955.047942,-4673.182538
20673.752379,-5107.421000,-10658.965565,-1302.362347
20673.752712,-4145.153275,-8364.327145,1225.752797
20673.753045,296.082377,-7031.956449,7277.907231
20673.753378,1702.473667,-3182.885551,2911.162892
20673.753711,1406.391290,-3627.009116,612.876398
20673.754045,2072.576638,-9918.759623,3600.648841
20673.754378,1554.432478,-7179.997637,612.876398
20673.754711,740.205942,-10510.924376,536.266849
20673.755044,-1406.391290,-10066.800811,-2834.553343
20673.755377,-1554.432478,-12435.459826,-3983.696590
20673.755710,1628.453072,-9474.636058,-153.219100
20673.756043,3552.988522,-11547.212695,2374.896044
20673.756377,3478.967927,-4663.297435,-2298.286494
20673.756710,1776.494261,-8364.327145,0.000000
20673.757043,3552.988522,-10881.027347,3600.648841
20673.757376,3849.070898,-8956.491898,5362.668486
20673.757709,2442.679609,-9770.718434,2374.896044
20673.758042,6069.688724,-9400.615463,3217.601092
20673.758375,5773.606348,-8882.471304,3753.867940
20673.758709,7031.956449,-8290.306550,2374.896044
20673.759042,4663.297435,-7105.977043,-1915.238745
20673.759375,0.000000,-7772.162391,-7354.516781
20673.759708,0.000000,-13841.851115,-3140.991542
20673.760041,-74.020594,-13027.624579,-1915.238745
20673.760374,-74.020594,-11547.212695,-1915.238745
20673.760707,0.000000,-10732.986159,-76.609550
20673.761041,4293.194464,-8068.244768,4366.744339
20673.761374,6439.791695,-6069.688724,7354.516781
20673.761707,5921.647536,-2442.679609,4903.011187
20673.762040,4663.297435,-5107.421000,612.876398
20673.762373,2368.659014,-12435.459826,3600.648841
20673.762706,-74.020594,-11843.295072,-2528.115143
20673.763039,-5329.482782,-13693.809927,-2757.943793
20673.763373,-3775.050304,-13027.624579,-4979.620737
20673.763706,-4589.276840,-11621.233289,-2911.162892
20673.764039,-1332.370696,-9474.636058,0.000000
20673.764372,-1776.494261,-6957.935855,1225.752797
20673.764705,-4737.318029,-5403.503377,0.000000
20673.765038,-592.164754,-4811.338623,1991.848295
20673.765371,518.144159,-8586.388927,4366.744339
20673.765705,1036.288319,-7476.080014,4366.744339
20673.766038,-2516.700203,-9252.574275,1685.410096
20673.766371,-2960.823768,-8660.409521,-1302.362347
20673.766704,-74.020594,-11843.295072,-1302.362347
20673.767037,-4145.153275,-11325.150913,0.000000
20673.767370,-2442.679609,-8882.471304,-2528.115143
20673.767703,-3330.926739,-10658.965565,-1685.410096
20673.768037,-4737.318029,-10732.986159,-612.876398
20673.768370,-5181.441594,-9548.656652,842.705048
20673.768703,-4219.173869,-7846.182985,689.485948
20673.769036,-2368.659014,-5699.585753,2451.505594
20673.769369,1776.494261,-7476.080014,6128.763984
20673.769702,1702.473667,-3923.091493,3064.381992
20673.770035,0.000000,-5995.668130,4366.744339
20673.770369,-74.020594,-6513.812290,-3830.477490
20673.770702,-2590.720797,-11325.150913,-4903.011187
20673.771035,-1036.288319,-12583.501014,-2681.334243
20673.771368,-3182.885551,-13545.768739,-3600.648841
20673.771701,-3404.947333,-11399.171507,-4596.572988
20673.772034,444.123565,-11843.295072,-766.095498
20673.772367,4663.297435,-9474.636058,4213.525239
20673.772701,5403.503377,-3034.844362,5209.449386
20673.773034,5921.647536,-3923.091493,3677.258390
20673.773367,7624.121203,-8290.306550,3294.210641
20673.773700,1480.411884,-8364.327145,0.000000
20673.774033,3182.885551,-10955.047942,0.000000
20673.774366,2146.597232,-9474.636058,-1608.800546
20673.774699,2590.720797,-11251.130318,-2145.067394
20673.775033,4071.132681,-11621.233289,-1302.362347
20673.775366,3701.029710,-8882.471304,-2298.286494
20673.775699,0.000000,-8364.327145,0.000000
20673.776032,2590.720797,-10658.965565,-2834.553343
20673.776365,370.102971,-9770.718434,-2528.115143
20673.776698,0.000000,-8364.327145,1838.629195
20673.777031,3478.967927,-7105.977043,1991.848295
20673.777365,3552.988522,-6365.771101,2451.505594
20673.777698,5107.421000,-9474.636058,4826.401637
20673.778031,6957.935855,-7031.956449,5209.449386
20673.778364,7328.038826,-5329.482782,3907.087040
20673.778697,4737.318029,-7994.224174,612.876398
20673.779030,2072.576638,-11917.315666,-2145.067394
20673.779363,-1184.329507,-12583.501014,-4213.525239
20673.779697,-2960.823768,-14952.160028,-2987.772442
20673.780030,-1258.350101,-11843.295072,-3753.867940
20673.780363,-2442.679609,-10436.903782,-2298.286494
20673.780696,-2368.659014,-7476.080014,3677.258390
20673.781029,2294.638420,-7105.977043,4826.401637
20673.781362,592.164754,-2738.761985,3064.381992
20673.781695,962.267725,-7031.956449,2604.724693
20673.782029,222.061783,-9104.533087,2681.334243
20673.782362,-2368.659014,-9548.656652,2604.724693
20673.782695,-3627.009116,-9326.594869,-1302.362347
20673.783028,-5773.606348,-14211.954086,-2834.553343
20673.783361,-7105.977043,-10732.986159,-4290.134789
20673.783694,-2442.679609,-11251.130318,-76.609550
20673.784027,-2442.679609,-9474.636058,-1915.238745
20673.784361,-3034.844362,-9178.553681,-76.609550
20673.784694,-4515.256246,-11103.089130,766.095498
20673.785027,-2812.782580,-8438.347739,3140.991542
20673.785360,-3552.988522,-9178.553681,3600.648841
20673.785693,-3849.070898,-5995.668130,2451.505594
20673.786026,2294.638420,-8290.306550,4213.525239
20673.786359,-2368.659014,-5995.668130,5209.449386
20673.786693,-74.020594,-6809.894666,-536.266849
20673.787026,-5477.523971,-7698.141797,-4903.011187
20673.787359,-4293.194464,-10732.986159,-5362.668486
20673.787692,-4737.318029,-11029.068536,-4290.134789
20673.788025,-4367.215058,-13175.665768,-3524.039291
20673.788358,-3997.112087,-9844.739029,-1762.019645
20673.788691,-296.082377,-10955.047942,2451.505594
20673.789025,5255.462188,-4515.256246,3677.258390
20673.789358,7031.956449,-7698.141797,9729.412825
20673.789691,9400.615463,-4441.235652,4826.401637
20673.790024,4737.318029,-7179.997637,4903.011187
20673.790357,4737.318029,-9252.574275,1838.629195
20673.790690,3627.009116,-11103.089130,-76.609550
20673.791023,-1258.350101,-11843.295072,-4903.011187
20673.791357,1480.411884,-11177.109724,-5209.449386
20673.791690,1406.391290,-13027.624579,-2528.115143
20673.792023,1332.370696,-7772.162391,0.000000
20673.792356,3478.967927,-8290.306550,-1455.581446
20673.792689,2294.638420,-8290.306550,-1608.800546
20673.793022,4737.318029,-8956.491898,5515.887586
20673.793355,7624.121203,-9474.636058,6818.249932
20673.793689,5477.523971,-8216.285956,4366.744339
20673.794022,2664.741391,-9030.512492,1378.971896
20673.794355,4515.256246,-10066.800811,1149.143247
20673.794688,4663.297435,-9474.636058,1149.143247
20673.795021,1480.411884,-8364.327145,-459.657299
20673.795355,1332.370696,-7328.038826,-5132.839837
20673.795688,-962.267725,-14434.015869,-3294.210641
20673.796021,-1406.391290,-11843.295072,-2757.943793
20673.796354,-1258.350101,-12731.542202,-229.828649
20673.796687,-4293.194464,-10881.027347,-1149.143247
20673.797021,0.000000,-8364.327145,5056.230287
20673.797354,2886.803174,-7698.141797,5745.716235
20673.797687,1332.370696,-4811.338623,6128.763984
20673.798020,1776.494261,-5921.647536,4213.525239
20673.798353,-4737.318029,-8364.327145,2757.943793
20673.798687,370.102971,-7031.956449,0.000000
20673.799020,-5921.647536,-13545.768739,-1838.629195
20673.799353,-6143.709319,-10658.965565,-6665.030833
20673.799686,-9474.636058,-11029.068536,-4903.011187
20673.800020,-3775.050304,-12435.459826,-1302.362347
20673.800353,-74.020594,-9178.553681,-76.609550
20673.800686,-3034.844362,-5995.668130,1378.971896
20673.801019,1702.473667,-5625.565159,2681.334243
20673.801352,-962.267725,-8734.430116,3907.087040
20673.801686,-1110.308913,-8956.491898,3677.258390
20673.802019,-3701.029710,-9770.718434,2298.286494
20673.802352,-4737.318029,-7179.997637,0.000000
20673.802685,-4737.318029,-7179.997637,2451.505594
20673.803018,-666.185348,-7550.100608,-1532.190996
20673.803352,-1184.329507,-6587.832884,-2451.505594
20673.803685,-4737.318029,-10362.883188,-3753.867940
20673.804018,-3330.926739,-9548.656652,-4903.011187
20673.804351,-3478.967927,-12805.562797,-1149.143247
20673.804684,-518.144159,-10288.862594,919.314598
20673.805018,1480.411884,-7254.018232,2374.896044
20673.805351,5255.462188,-9474.636058,5132.839837
20673.805684,7105.977043,-7476.080014,9116.536426
20673.806017,8808.450710,-5329.482782,4443.353888
20673.806351,6513.812290,-6291.750507,3600.648841
20673.806684,5847.626942,-11695.253884,-689.485948
20673.807017,0.000000,-13397.727550,-2451.505594
20673.807350,-592.164754,-11621.233289,-3830.477490
20673.807683,-148.041188,-10362.883188,-2528.115143
20673.808017,2294.638420,-10066.800811,-1149.143247
20673.808350,3997.112087,-7772.162391,2451.505594
20673.808683,6439.791695,-8290.306550,3600.648841
20673.809016,5329.482782,-3034.844362,1532.190996
20673.809349,4737.318029,-7476.080014,3907.087040
20673.809683,4071.132681,-8956.491898,0.000000
20673.810016,3552.988522,-9548.656652,2298.286494
20673.810349,-444.123565,-11325.150913,-1072.533697
20673.810682,222.061783,-8882.471304,-3907.087040
20673.811015,0.000000,-12879.583391,-3677.258390
20673.811349,2294.638420,-9918.759623,-1072.533697
20673.811682,4071.132681,-9474.636058,995.924147
20673.812015,2664.741391,-7476.080014,-842.705048
20673.812348,1776.494261,-9844.739029,0.000000
20673.812682,1036.288319,-11917.315666,1378.971896
20673.813015,2294.638420,-9474.636058,2374.896044
20673.813348,592.164754,-10732.986159,4213.525239
20673.813681,1702.473667,-8290.306550,0.000000
20673.814014,1776.494261,-9844.739029,4903.011187
20673.814348,0.000000,-6735.874072,2451.505594
20673.814681,-888.247130,-4959.379811,-1225.752797
20673.815014,-4959.379811,-12361.439231,-3294.210641
20673.815347,-3330.926739,-10362.883188,-2757.943793
20673.815680,-5847.626942,-11547.212695,-1149.143247
20673.816014,-7920.203579,-8364.327145,-3370.820191
20673.816347,-5403.503377,-9178.553681,-2528.115143
20673.816680,-3627.009116,-9474.636058,0.000000
20673.817013,0.000000,-4515.256246,6052.154434
20673.817347,2294.638420,-5921.647536,6052.154434
20673.817680,-1480.411884,-6143.709319,2451.505594
20673.818013,-814.226536,-9548.656652,1838.629195
20673.818346,-2664.741391,-10881.027347,1302.362347
20673.818679,-2146.597232,-10066.800811,306.438199
20673.819013,-5329.482782,-11473.192101,-1838.629195
20673.819346,-2442.679609,-9622.677246,-4903.011187
20673.819679,-2960.823768,-8364.327145,-2451.505594
20673.820012,-2368.659014,-7179.997637,459.657299
20673.820345,-2442.679609,-6513.812290,-3753.867940
20673.820679,-1406.391290,-10362.883188,-76.609550
20673.821012,1850.514855,-8512.368333,3524.039291
20673.821345,2886.803174,-8438.347739,4443.353888
20673.821678,3182.885551,-8142.265362,2834.553343
20673.822011,5255.462188,-10658.965565,2374.896044
20673.822345,2886.803174,-8364.327145,0.000000
20673.822678,6217.729913,-7624.121203,2987.772442
20673.823011,4071.132681,-12435.459826,-76.609550
20673.823344,1110.308913,-7550.100608,-6358.592633
20673.823678,0.000000,-13027.624579,-1915.238745
20673.824011,-2812.782580,-12509.480420,-3140.991542
20673.824344,296.082377,-7772.162391,-1302.362347
20673.824677,740.205942,-9770.718434,1608.800546
20673.825010,8808.450710,-8290.306550,6665.030833
20673.825344,7550.100608,-5403.503377,7507.735880
20673.825677,5847.626942,-6883.915261,3447.429741
20673.826010,5551.544565,-7105.977043,612.876398
20673.826343,1776.494261,-10732.986159,0.000000
20673.826676,4737.318029,-12435.459826,-76.609550
20673.827010,-1850.514855,-11917.315666,-4903.011187
20673.827343,-4737.318029,-10140.821405,-4903.011187
20673.827676,-1480.411884,-12731.542202,-1608.800546
20673.828009,222.061783,-8438.347739,536.266849
20673.828342,1628.453072,-7105.977043,3140.991542
20673.828676,1184.329507,-5477.523971,2911.162892
20673.829009,2886.803174,-6513.812290,4443.353888
20673.829342,2368.659014,-8512.368333,6894.859482
20673.829675,592.164754,-8364.327145,5362.668486
20673.830009,-1258.350101,-8142.265362,0.000000
20673.830342,-2368.659014,-11029.068536,0.000000
20673.830675,-74.020594,-10658.965565,-689.485948
