#time,accel_x,accel_y,accel_z
21371.520313,8808.450710,-9474.636058,2987.772442
21371.520647,8882.471304,-10214.842000,3524.039291
21371.520981,10214.842000,-9326.594869,3600.648841
21371.521314,10288.862594,-8734.430116,2834.553343
21371.521648,9992.780217,-8586.388927,1149.143247
21371.521982,5329.482782,-7772.162391,0.000000
21371.522316,8808.450710,-9474.636058,-2528.115143
21371.522650,8216.285956,-8290.306550,-3983.696590
21371.522984,8290.306550,-11473.192101,-76.609550
21371.523318,7624.121203,-8216.285956,-2757.943793
21371.523652,10066.800811,-9548.656652,1149.143247
21371.523986,11769.274478,-9326.594869,3753.867940
21371.524319,10955.047942,-8660.409521,3600.648841
21371.524653,7698.141797,-9548.656652,1532.190996
21371.524987,4737.318029,-10732.986159,3370.820191
21371.525321,5551.544565,-11251.130318,-76.609550
21371.525655,2664.741391,-7179.997637,-2451.505594
21371.525989,4145.153275,-9474.636058,2987.772442
21371.526323,3775.050304,-5403.503377,0.000000
21371.526657,5181.441594,-5921.647536,1685.410096
21371.526990,6439.791695,-6143.709319,306.438199
21371.527324,7254.018232,-6661.853478,0.000000
21371.527658,8290.306550,-6735.874072,-1532.190996
21371.527992,11769.274478,-9474.636058,1072.533697
21371.528326,10140.821405,-9770.718434,-689.485948
21371.528660,10066.800811,-11399.171507,-1915.238745
21371.528994,11769.274478,-12879.583391,-689.485948
21371.529328,9992.780217,-11843.295072,-1915.238745
21371.529662,6217.729913,-11325.150913,0.000000
21371.529995,4737.318029,-11917.315666,1762.019645
21371.530329,7031.956449,-8290.306550,0.000000
21371.530663,10584.944971,-7031.956449,4826.401637
21371.530997,11029.068536,-4515.256246,3370.820191
21371.531331,10288.862594,-6883.915261,3830.477490
21371.531665,9844.739029,-7772.162391,3370.820191
21371.531999,7772.162391,-7624.121203,1225.752797
21371.532333,6883.915261,-11843.295072,-1302.362347
21371.532666,2368.659014,-10732.986159,-1685.410096
21371.533000,4663.297435,-10955.047942,-2528.115143
21371.533334,5847.626942,-11251.130318,-1608.800546
21371.533668,8808.450710,-6809.894666,842.705048
21371.534002,9918.759623,-8956.491898,2451.505594
21371.534336,10807.006753,-5699.585753,1762.019645
21371.534670,9992.780217,-8290.306550,229.828649
21371.535004,8290.306550,-7476.080014,-1838.629195
21371.535338,11769.274478,-8290.306550,-3600.648841
21371.535671,7105.977043,-10732.986159,612.876398
21371.536005,11769.274478,-13027.624579,2221.676944
21371.536339,6735.874072,-13027.624579,-76.609550
21371.536673,8290.306550,-9548.656652,1838.629195
21371.537007,13027.624579,-7772.162391,6205.373534
21371.537341,15988.448347,-5847.626942,7201.297681
21371.537675,16210.510130,-5403.503377,4826.401637
21371.538009,13841.851115,-9474.636058,-76.609550
21371.538342,10214.842000,-6587.832884,-4903.011187
21371.538676,10288.862594,-12435.459826,-2528.115143
21371.539010,8808.450710,-11843.295072,-7431.126331
21371.539344,1480.411884,-13101.645173,-6128.763984
21371.539678,7550.100608,-13027.624579,-2604.724693
21371.540012,11547.212695,-9104.533087,3370.820191
21371.540346,15470.304188,-6513.812290,8273.831378
21371.540680,15692.365970,-5773.606348,8886.707777
21371.541014,11621.233289,-9844.739029,7048.078582
21371.541347,9474.636058,-8364.327145,6128.763984
21371.541681,9400.615463,-9326.594869,536.266849
21371.542015,6735.874072,-7105.977043,-2221.676944
21371.542349,4737.318029,-7476.080014,-3677.258390
21371.542683,3849.070898,-10658.965565,-3907.087040
21371.543017,2072.576638,-11695.253884,-4979.620737
21371.543351,-296.082377,-11991.336260,-3600.648841
21371.543685,-370.102971,-10658.965565,-2221.676944
21371.544018,2664.741391,-9622.677246,3294.210641
21371.544352,7994.224174,-7476.080014,8427.050478
21371.544686,8808.450710,-6143.709319,7507.735880
21371.545020,9622.677246,-5107.421000,5209.449386
21371.545354,8512.368333,-11769.274478,4213.525239
21371.545688,4663.297435,-13619.789333,2374.896044
21371.546022,0.000000,-8956.491898,-2145.067394
21371.546356,-1184.329507,-10140.821405,-3140.991542
21371.546690,-74.020594,-6365.771101,-7124.688131
21371.547023,0.000000,-7179.997637,-5286.058936
21371.547357,2294.638420,-9474.636058,-2528.115143
21371.547691,0.000000,-11177.109724,-153.219100
21371.548025,3923.091493,-8956.491898,2528.115143
21371.548359,8512.368333,-8216.285956,6665.030833
21371.548693,6883.915261,-6587.832884,4136.915689
21371.549027,5921.647536,-5995.668130,3677.258390
21371.549361,5551.544565,-12731.542202,3600.648841
21371.549695,4663.297435,-10066.800811,0.000000
21371.550028,1184.329507,-10288.862594,-766.095498
21371.550362,1110.308913,-11843.295072,-3294.210641
21371.550696,-1998.556043,-8290.306550,-4290.134789
21371.551030,-3923.091493,-9474.636058,-5745.716235
21371.551364,-2368.659014,-7920.203579,-2374.896044
21371.551698,-888.247130,-5995.668130,-2451.505594
21371.552032,1184.329507,-7772.162391,6894.859482
21371.552366,5847.626942,-7698.141797,4979.620737
21371.552699,2812.782580,-7179.997637,459.657299
21371.553033,3552.988522,-12213.398043,4826.401637
21371.553367,3182.885551,-9548.656652,2451.505594
21371.553701,5329.482782,-7031.956449,2221.676944
21371.554035,4293.194464,-7772.162391,1225.752797
21371.554369,222.061783,-10214.842000,-2757.943793
21371.554703,-3627.009116,-13027.624579,-5286.058936
21371.555037,-2368.659014,-13027.624579,-1915.238745
21371.555371,-74.020594,-9178.553681,-3907.087040
21371.555704,2368.659014,-6883.915261,1838.629195
21371.556038,4737.318029,-6587.832884,7277.907231
21371.556372,2368.659014,-7105.977043,3830.477490
21371.556706,3552.988522,-7994.224174,2068.457845
21371.557040,4737.318029,-9030.512492,4443.353888
21371.557374,6439.791695,-8438.347739,5056.230287
21371.557708,5921.647536,-5329.482782,2604.724693
21371.558042,-74.020594,-13915.871710,-3753.867940
21371.558375,-3404.947333,-11325.150913,-9499.584175
21371.558709,-4737.318029,-11029.068536,-4290.134789
21371.559043,2294.638420,-9474.636058,-2221.676944
21371.559377,2664.741391,-7179.997637,2145.067394
21371.559711,-1628.453072,-8808.450710,0.000000
21371.560045,-1998.556043,-12065.356855,1378.971896
21371.560379,370.102971,-7920.203579,3983.696590
21371.560713,2442.679609,-5921.647536,4903.011187
21371.561047,5551.544565,-5329.482782,5286.058936
21371.561380,-1184.329507,-7550.100608,1685.410096
21371.561714,-3256.906145,-8438.347739,-1225.752797
21371.562048,-1924.535449,-11547.212695,-2145.067394
21371.562382,-74.020594,-9474.636058,-1302.362347
21371.562716,0.000000,-9548.656652,3447.429741
21371.563050,-1554.432478,-7698.141797,-3907.087040
21371.563384,-5773.606348,-11917.315666,-5515.887586
21371.563718,-5329.482782,-11325.150913,-3677.258390
21371.564051,814.226536,-8956.491898,2757.943793
21371.564385,4811.338623,-5107.421000,4903.011187
21371.564719,3849.070898,-5995.668130,4290.134789
21371.565053,-1406.391290,-12065.356855,3140.991542
21371.565387,-2812.782580,-7772.162391,0.000000
21371.565721,1110.308913,-7105.977043,-76.609550
21371.566055,4071.132681,-5847.626942,612.876398
21371.566389,-2960.823768,-5699.585753,-1225.752797
21371.566723,-3627.009116,-11843.295072,-2528.115143
21371.567056,-5329.482782,-11621.233289,-4596.572988
21371.567390,-1998.556043,-9104.533087,-3217.601092
21371.567724,296.082377,-11029.068536,-919.314598
21371.568058,814.226536,-7105.977043,-612.876398
21371.568392,-1184.329507,-10732.986159,0.000000
21371.568726,2886.803174,-11843.295072,-689.485948
21371.569060,3849.070898,-10732.986159,1532.190996
21371.569394,5329.482782,-9696.697840,10418.898773
21371.569727,5847.626942,-4441.235652,4213.525239
21371.570061,-1924.535449,-9030.512492,766.095498
21371.570395,-1332.370696,-9326.594869,-1302.362347
21371.570729,-1036.288319,-7624.121203,-536.266849
21371.571063,4663.297435,-6439.791695,2604.724693
21371.571397,4071.132681,-7105.977043,-76.609550
21371.571731,-3627.009116,-9474.636058,-5898.935335
21371.572065,-4737.318029,-12509.480420,-4136.915689
21371.572399,-1184.329507,-12509.480420,-76.609550
21371.572732,5847.626942,-8290.306550,842.705048
21371.573066,4441.235652,-10288.862594,4366.744339
21371.573400,1850.514855,-6587.832884,3064.381992
21371.573734,1480.411884,-10140.821405,2145.067394
21371.574068,2960.823768,-8660.409521,3294.210641
21371.574402,7328.038826,-6883.915261,6052.154434
21371.574736,2368.659014,-8438.347739,2068.457845
21371.575070,-1184.329507,-8068.244768,-2834.553343
21371.575403,-6217.729913,-12361.439231,-5515.887586
21371.575737,-3997.112087,-7772.162391,-4903.011187
21371.576071,1184.329507,-8364.327145,2451.505594
21371.576405,5847.626942,-8290.306550,4519.963438
21371.576739,-74.020594,-9474.636058,-1302.362347
21371.577073,-2812.782580,-11473.192101,919.314598
21371.577407,-888.247130,-9474.636058,-383.047749
21371.577741,3775.050304,-7698.141797,3294.210641
21371.578075,3923.091493,-8290.306550,3447.429741
21371.578408,-4071.132681,-9992.780217,-995.924147
21371.578742,-4737.318029,-10881.027347,-2451.505594
21371.579076,-4737.318029,-9548.656652,919.314598
21371.579410,2294.638420,-7402.059420,153.219100
21371.579744,1184.329507,-4811.338623,0.000000
21371.580078,-1776.494261,-7772.162391,1149.143247
21371.580412,-2294.638420,-10732.986159,-2451.505594
21371.580746,518.144159,-11547.212695,1149.143247
21371.581079,2516.700203,-8808.450710,5286.058936
21371.581413,4219.173869,-8438.347739,4136.915689
21371.581747,-1258.350101,-8882.471304,-76.609550
21371.582081,-4737.318029,-9844.739029,-689.485948
21371.582415,-2442.679609,-10362.883188,-4903.011187
21371.582749,0.000000,-9104.533087,2145.067394
21371.583083,2960.823768,-8438.347739,2987.772442
21371.583417,-2442.679609,-8734.430116,-1302.362347
21371.583751,-3404.947333,-9770.718434,-1608.800546
21371.584084,666.185348,-10584.944971,1532.190996
21371.584418,5847.626942,-7920.203579,7277.907231
21371.584752,4145.153275,-3627.009116,3677.258390
21371.585086,1110.308913,-10362.883188,-76.609550
21371.585420,-4145.153275,-9548.656652,-4903.011187
21371.585754,-3256.906145,-12213.398043,-919.314598
21371.586088,1702.473667,-10658.965565,-689.485948
21371.586422,518.144159,-7994.224174,-2451.505594
21371.586756,-2738.761985,-7328.038826,-2757.943793
21371.587089,-3923.091493,-9474.636058,-2681.334243
21371.587423,-1332.370696,-11029.068536,-76.609550
21371.587756,2516.700203,-6587.832884,2451.505594
21371.588090,7624.121203,-6809.894666,3064.381992
21371.588423,2960.823768,-7179.997637,5975.544884
21371.588757,3404.947333,-9178.553681,3600.648841
21371.589090,2294.638420,-11917.315666,0.000000
21371.589424,5329.482782,-6883.915261,2451.505594
21371.589757,6143.709319,-11325.150913,4596.572988
21371.590091,2442.679609,-7402.059420,-1302.362347
21371.590424,-5847.626942,-12657.521608,-6128.763984
21371.590758,-6513.812290,-12213.398043,-6741.640382
21371.591091,-666.185348,-10658.965565,-3140.991542
21371.591425,592.164754,-7772.162391,2451.505594
21371.591758,1406.391290,-5551.544565,1838.629195
21371.592092,-3108.864956,-7550.100608,76.609550
21371.592425,0.000000,-9844.739029,4290.134789
21371.592759,3478.967927,-6365.771101,2987.772442
21371.593092,3552.988522,-7179.997637,4903.011187
21371.593426,6883.915261,-6513.812290,3600.648841
21371.593759,-2146.597232,-11843.295072,-1915.238745
21371.594093,-1776.494261,-11325.150913,-4290.134789
21371.594426,-2516.700203,-15618.345376,-3217.601092
21371.594760,1998.556043,-9474.636058,306.438199
21371.595093,-1110.308913,-8882.471304,-459.657299
21371.595427,-4293.194464,-9992.780217,-1455.581446
21371.595760,-4811.338623,-11251.130318,-3907.087040
21371.596094,-2368.659014,-5995.668130,0.000000
21371.596427,5329.482782,-8586.388927,9729.412825
21371.596761,5551.544565,-2886.803174,5822.325785
21371.597094,740.205942,-6957.935855,5439.278036
21371.597428,-1258.350101,-8882.471304,-1532.190996
21371.597761,-444.123565,-10436.903782,-689.485948
21371.598095,2442.679609,-9474.636058,-383.047749
21371.598428,-370.102971,-11843.295072,-2528.115143
21371.598762,-3034.844362,-7179.997637,-9193.145976
21371.599095,-7994.224174,-16654.633695,-4136.915689
21371.599429,-1184.329507,-10436.903782,-76.609550
21371.599762,1110.308913,-10066.800811,1302.362347
21371.600096,7624.121203,-4737.318029,5439.278036
21371.600429,2516.700203,-5995.668130,5669.106685
21371.600763,-370.102971,-9844.739029,2987.772442
21371.601096,2886.803174,-6957.935855,3140.991542
21371.601430,1184.329507,-7772.162391,2451.505594
21371.601763,5329.482782,-5403.503377,2451.505594
21371.602097,-2812.782580,-10362.883188,-76.609550
21371.602430,-7179.997637,-10955.047942,-8886.707777
21371.602764,-6809.894666,-11325.150913,-6741.640382
21371.603097,-74.020594,-10658.965565,-689.485948
21371.603431,3923.091493,-7254.018232,536.266849
21371.603764,74.020594,-10362.883188,1149.143247
21371.604098,-1406.391290,-8956.491898,-1225.752797
21371.604431,-2220.617826,-11325.150913,0.000000
21371.604765,6513.812290,-7476.080014,7277.907231
21371.605098,7698.141797,-4515.256246,6435.202183
21371.605432,5033.400406,-7179.997637,5286.058936
21371.605765,1702.473667,-9474.636058,3294.210641
21371.606099,-74.020594,-12435.459826,-1302.362347
21371.606432,1110.308913,-9030.512492,-1915.238745
21371.606766,2516.700203,-9548.656652,0.000000
21371.607099,-444.123565,-8882.471304,-2221.676944
21371.607433,-5773.606348,-13397.727550,-4596.572988
21371.607766,-4515.256246,-11769.274478,-5745.716235
21371.608100,-518.144159,-10436.903782,-1302.362347
21371.608433,5699.585753,-7920.203579,4903.011187
21371.608767,2886.803174,-5921.647536,3600.648841
21371.609100,-3552.988522,-8660.409521,1149.143247
21371.609434,-1924.535449,-8364.327145,1225.752797
21371.609767,2812.782580,-8290.306550,4213.525239
21371.610101,7328.038826,-5921.647536,5439.278036
21371.610434,4071.132681,-5921.647536,2681.334243
21371.610768,-2146.597232,-12435.459826,-2834.553343
21371.611101,-5107.421000,-13545.768739,-5056.230287
21371.611435,-2664.741391,-10214.842000,-5132.839837
21371.611768,518.144159,-12287.418637,-1608.800546
21371.612102,2294.638420,-10658.965565,-76.609550
21371.612435,-4737.318029,-10436.903782,0.000000
21371.612769,-4737.318029,-10881.027347,2374.896044
21371.613102,1702.473667,-5403.503377,612.876398
21371.613436,2960.823768,-6587.832884,7354.516781
21371.613769,7476.080014,-2738.761985,5362.668486
21371.614103,-74.020594,-9474.636058,1762.019645
21371.614436,-888.247130,-9622.677246,-2068.457845
21371.614770,-1036.288319,-12287.418637,-1762.019645
21371.615103,1702.473667,-7105.977043,-383.047749
21371.615437,2368.659014,-8586.388927,-689.485948
21371.615770,-5625.565159,-13989.892304,-3753.867940
21371.616104,-5107.421000,-12065.356855,-7277.907231
21371.616437,-2072.576638,-11917.315666,1225.752797
21371.616771,4145.153275,-6883.915261,7048.078582
21371.617104,5921.647536,-4737.318029,7507.735880
21371.617438,1258.350101,-5921.647536,5132.839837
21371.617771,296.082377,-8438.347739,1455.581446
21371.618104,0.000000,-8364.327145,0.000000
21371.618438,4663.297435,-10658.965565,-76.609550
21371.618771,0.000000,-8364.327145,-1225.752797
21371.619105,-7698.141797,-7476.080014,-4903.011187
21371.619438,-5625.565159,-13471.748144,-4596.572988
21371.619772,-3849.070898,-9548.656652,-3983.696590
21371.620105,1480.411884,-11029.068536,1072.533697
21371.620439,4737.318029,-6883.915261,4903.011187
21371.620772,2960.823768,-8068.244768,4366.744339
21371.621106,740.205942,-9548.656652,3677.258390
21371.621439,3330.926739,-8068.244768,2681.334243
21371.621773,4959.379811,-9178.553681,4749.792088
21371.622106,7402.059420,-5255.462188,3677.258390
21371.622440,-74.020594,-9326.594869,-1302.362347
21371.622773,-6587.832884,-10510.924376,-7048.078582
21371.623107,-6957.935855,-13027.624579,-4979.620737
21371.623440,-3627.009116,-8660.409521,-4903.011187
21371.623774,2664.741391,-4515.256246,0.000000
21371.624107,2368.659014,-9030.512492,4060.306139
21371.624441,222.061783,-10807.006753,3064.381992
21371.624774,1924.535449,-9844.739029,3217.601092
21371.625108,5107.421000,-8956.491898,4519.963438
21371.625441,5847.626942,-7994.224174,2528.115143
21371.625775,2294.638420,-5995.668130,0.000000
21371.626108,-1258.350101,-11843.295072,-689.485948
21371.626442,-3701.029710,-9178.553681,-5898.935335
21371.626775,-2664.741391,-8364.327145,-1532.190996
21371.627109,1702.473667,-9474.636058,-76.609550
21371.627442,-1480.411884,-6883.915261,153.219100
21371.627776,-5921.647536,-9548.656652,-3447.429741
21371.628109,-4071.132681,-9548.656652,-2911.162892
21371.628443,0.000000,-7179.997637,1838.629195
21371.628776,5403.503377,-5995.668130,4903.011187
21371.629110,5847.626942,-8290.306550,1762.019645
21371.629443,-1480.411884,-9844.739029,0.000000
21371.629777,-4145.153275,-11325.150913,-153.219100
21371.630110,0.000000,-9548.656652,-1608.800546
21371.630444,4145.153275,-9104.533087,2987.772442
21371.630777,1554.432478,-4811.338623,0.000000
21371.631111,-2590.720797,-9770.718434,-2068.457845
21371.631444,-74.020594,-10658.965565,-689.485948
21371.631778,0.000000,-9548.656652,1532.190996
21371.632111,4663.297435,-8882.471304,1149.143247
21371.632445,296.082377,-7179.997637,2451.505594
21371.632778,-1258.350101,-8290.306550,-76.609550
21371.633112,-1258.350101,-11843.295072,612.876398
21371.633445,666.185348,-6883.915261,-459.657299
21371.633779,4293.194464,-9178.553681,3907.087040
21371.634112,2886.803174,-6217.729913,1608.800546
21371.634446,-2146.597232,-10362.883188,-2221.676944
21371.634779,-1480.411884,-13619.789333,-2834.553343
21371.635113,-1554.432478,-10732.986159,-2451.505594
21371.635446,1184.329507,-8660.409521,4596.572988
21371.635780,4663.297435,-5921.647536,229.828649
21371.636113,-2516.700203,-8956.491898,-1225.752797
21371.636447,-2442.679609,-11103.089130,-2374.896044
21371.636780,-518.144159,-9844.739029,1608.800546
21371.637114,3923.091493,-7031.956449,4979.620737
21371.637447,4811.338623,-5921.647536,3907.087040
21371.637781,-74.020594,-8290.306550,2374.896044
21371.638114,-1332.370696,-9548.656652,-306.438199
21371.638448,740.205942,-10066.800811,-229.828649
21371.638781,1628.453072,-10288.862594,0.000000
21371.639115,1998.556043,-8882.471304,-689.485948
21371.639448,-4441.235652,-9104.533087,-2451.505594
21371.639782,-5921.647536,-14211.954086,-4979.620737
21371.640115,-3552.988522,-9548.656652,-3677.258390
21371.640449,1776.494261,-8660.409521,4903.011187
21371.640782,7031.956449,-5033.400406,5898.935335
21371.641116,4145.153275,-5699.585753,6205.373534
21371.641449,2072.576638,-10066.800811,3447.429741
21371.641783,2590.720797,-8364.327145,2451.505594
21371.642116,1332.370696,-7772.162391,2451.505594
21371.642450,6291.750507,-9474.636058,2374.896044
21371.642783,-4737.318029,-7772.162391,-6741.640382
21371.643117,-8290.306550,-13101.645173,-6281.983084
21371.643450,-2442.679609,-14211.954086,-5286.058936
21371.643784,-1776.494261,-8956.491898,0.000000
21371.644117,3627.009116,-7105.977043,1685.410096
21371.644451,518.144159,-7476.080014,2834.553343
21371.644784,0.000000,-7994.224174,2374.896044
21371.645118,-1184.329507,-9548.656652,4290.134789
21371.645451,6439.791695,-9474.636058,5745.716235
21371.645785,5921.647536,-4367.215058,5515.887586
21371.646118,0.000000,-6291.750507,3677.258390
21371.646452,-74.020594,-11843.295072,-2068.457845
21371.646785,-4145.153275,-11029.068536,-2451.505594
21371.647119,-3330.926739,-10658.965565,-3753.867940
21371.647452,-962.267725,-8512.368333,-3064.381992
21371.647786,-2886.803174,-9474.636058,-4443.353888
21371.648119,-4811.338623,-11843.295072,-2528.115143
21371.648453,-962.267725,-9474.636058,-689.485948
21371.648786,2368.659014,-6587.832884,6435.202183
21371.649120,8216.285956,-5773.606348,6818.249932
21371.649453,4737.318029,-3034.844362,3677.258390
21371.649787,0.000000,-10510.924376,4213.525239
21371.650120,-962.267725,-9770.718434,-1532.190996
21371.650454,-74.020594,-10510.924376,-1302.362347
21371.650787,666.185348,-10066.800811,-1149.143247
21371.651121,1110.308913,-7105.977043,-1302.362347
21371.651454,-5403.503377,-10288.862594,-4903.011187
21371.651788,-1702.473667,-12287.418637,-2068.457845
21371.652121,-1776.494261,-9844.739029,0.000000
21371.652455,2368.659014,-7179.997637,2451.505594
21371.652788,2664.741391,-6587.832884,6741.640382
21371.653122,1110.308913,-9178.553681,2068.457845
21371.653455,0.000000,-7328.038826,766.095498
21371.653789,0.000000,-8512.368333,3064.381992
21371.654122,4367.215058,-6217.729913,1149.143247
21371.654456,1184.329507,-7772.162391,0.000000
21371.654789,-3923.091493,-11843.295072,-5286.058936
21371.655123,-3330.926739,-11843.295072,-5209.449386
21371.655456,-888.247130,-13175.665768,229.828649
21371.655790,4367.215058,-7550.100608,2604.724693
21371.656123,5847.626942,-8290.306550,2374.896044
21371.656457,-1258.350101,-7624.121203,0.000000
21371.656790,-2368.659014,-8364.327145,1225.752797
21371.657124,1332.370696,-9770.718434,3370.820191
21371.657457,3849.070898,-7179.997637,5286.058936
21371.657790,4145.153275,-5403.503377,3830.477490
21371.658124,-2294.638420,-8882.471304,153.219100
21371.658457,-1554.432478,-10658.965565,-3753.867940
21371.658791,-5921.647536,-11325.150913,-1838.629195
21371.659124,0.000000,-6513.812290,-4060.306139
21371.659458,0.000000,-9104.533087,383.047749
21371.659791,-3552.988522,-10658.965565,-1302.362347
21371.660125,-2738.761985,-10362.883188,-3753.867940
21371.660458,-740.205942,-12435.459826,536.266849
21371.660792,7402.059420,-6217.729913,6665.030833
21371.661125,6143.709319,-8956.491898,7354.516781
21371.661459,1480.411884,-6365.771101,1838.629195
21371.661792,-74.020594,-12805.562797,2374.896044
21371.662126,-2368.659014,-9548.656652,1225.752797
21371.662459,4737.318029,-9400.615463,6971.469032
21371.662793,2294.638420,-7994.224174,1149.143247
21371.663126,-3552.988522,-5995.668130,-3370.820191
21371.663460,-7476.080014,-11843.295072,-6281.983084
21371.663793,-3108.864956,-10658.965565,-4060.306139
21371.664127,-1110.308913,-9622.677246,1072.533697
21371.664460,3849.070898,-7476.080014,4136.915689
21371.664794,1998.556043,-4737.318029,1762.019645
21371.665127,-3552.988522,-8364.327145,1378.971896
21371.665461,2294.638420,-10955.047942,1762.019645
21371.665794,4663.297435,-7179.997637,3064.381992
21371.666128,4737.318029,-6587.832884,5209.449386
21371.666461,-74.020594,-7105.977043,-1762.019645
21371.666795,-4515.256246,-10732.986159,-5592.497135
21371.667128,-4293.194464,-14582.057057,-3600.648841
21371.667462,1480.411884,-8808.450710,612.876398
21371.667795,4663.297435,-9474.636058,2681.334243
21371.668129,-1776.494261,-7920.203579,-306.438199
21371.668462,-3182.885551,-8586.388927,-3370.820191
21371.668796,-3849.070898,-12139.377449,383.047749
21371.669129,2368.659014,-7476.080014,2757.943793
21371.669463,6439.791695,-6513.812290,4826.401637
21371.669796,3256.906145,-5995.668130,1225.752797
21371.670130,-1776.494261,-10732.986159,2221.676944
21371.670463,-3034.844362,-11029.068536,-2528.115143
21371.670797,-2294.638420,-10881.027347,-2451.505594
21371.671130,1184.329507,-10807.006753,383.047749
21371.671464,0.000000,-7031.956449,-612.876398
21371.671797,-5625.565159,-10881.027347,-3447.429741
21371.672131,-1850.514855,-10658.965565,-2528.115143
21371.672464,3478.967927,-9474.636058,1149.143247
21371.672798,6513.812290,-7846.182985,8810.098227
21371.673131,8290.306550,-6809.894666,8503.660028
21371.673465,1702.473667,-8882.471304,383.047749
21371.673798,296.082377,-8364.327145,1225.752797
21371.674132,2590.720797,-9400.615463,919.314598
21371.674465,6439.791695,-8068.244768,1149.143247
21371.674799,2516.700203,-9104.533087,-612.876398
21371.675132,-2146.597232,-10955.047942,-5592.497135
21371.675466,-1850.514855,-13915.871710,-6818.249932
21371.675799,0.000000,-13101.645173,-995.924147
21371.676133,4663.297435,-10362.883188,4826.401637
21371.676466,7031.956449,-4737.318029,2528.115143
21371.676800,1702.473667,-9474.636058,4060.306139
21371.677133,518.144159,-7772.162391,2298.286494
21371.677467,148.041188,-7772.162391,2757.943793
21371.677800,5847.626942,-6069.688724,4290.134789
21371.678134,3108.864956,-7179.997637,3064.381992
21371.678467,-666.185348,-7550.100608,-2757.943793
21371.678801,-6513.812290,-11917.315666,-2911.162892
21371.679134,-3627.009116,-13027.624579,-5132.839837
21371.679468,-3256.906145,-10362.883188,-2528.115143
21371.679801,0.000000,-7179.997637,-1532.190996
21371.680135,-4959.379811,-9622.677246,-2528.115143
21371.680468,-4959.379811,-8660.409521,-2451.505594
21371.680802,-1998.556043,-12879.583391,3447.429741
21371.681135,8216.285956,-3997.112087,9116.536426
21371.681469,4737.318029,-6291.750507,11031.775171
21371.681802,3182.885551,-3849.070898,2221.676944
21371.682136,-1998.556043,-7772.162391,-2145.067394
21371.682469,-3552.988522,-12879.583391,-2528.115143
21371.682803,444.123565,-10288.862594,-1608.800546
21371.683136,0.000000,-9252.574275,-1455.581446
21371.683470,-5403.503377,-11695.253884,-3294.210641
21371.683803,-9252.574275,-10584.944971,-7124.688131
21371.684137,-4811.338623,-14211.954086,-1302.362347
21371.684470,0.000000,-9104.533087,3907.087040
21371.684804,5847.626942,-4737.318029,7814.174080
21371.685137,3330.926739,-5625.565159,7201.297681
21371.685471,-1184.329507,-6957.935855,2834.553343
21371.685804,592.164754,-9474.636058,2451.505594
21371.686138,814.226536,-6587.832884,229.828649
21371.686471,2960.823768,-7328.038826,3600.648841
21371.686805,-1554.432478,-9178.553681,-4213.525239
21371.687138,-8364.327145,-11547.212695,-9039.926876
21371.687471,-6957.935855,-15396.283594,-5592.497135
21371.687804,-592.164754,-11325.150913,-995.924147
21371.688138,2812.782580,-10362.883188,4060.306139
21371.688471,1702.473667,-5995.668130,3524.039291
21371.688804,-666.185348,-9474.636058,-76.609550
21371.689137,0.000000,-8956.491898,3983.696590
21371.689470,4663.297435,-9474.636058,4826.401637
21371.689803,6735.874072,-3923.091493,4903.011187
21371.690137,2960.823768,-5995.668130,3677.258390
21371.690470,-666.185348,-8586.388927,-4060.306139
21371.690803,-4589.276840,-13545.768739,-4673.182538
21371.691136,-2812.782580,-12213.398043,-4366.744339
21371.691469,4071.132681,-10658.965565,-76.609550
21371.691802,814.226536,-8142.265362,-1608.800546
21371.692135,-4737.318029,-10732.986159,-306.438199
21371.692469,-1258.350101,-9474.636058,-2528.115143
21371.692802,3108.864956,-11251.130318,2374.896044
21371.693135,5921.647536,-5403.503377,8580.269578
21371.693468,8512.368333,-5847.626942,6128.763984
21371.693801,1776.494261,-8734.430116,2145.067394
21371.694134,1110.308913,-8068.244768,-1532.190996
21371.694468,1998.556043,-9474.636058,0.000000
21371.694801,4737.318029,-7772.162391,0.000000
21371.695134,6661.853478,-9474.636058,2374.896044
21371.695467,-3034.844362,-12213.398043,-7354.516781
21371.695800,-2368.659014,-10732.986159,-8580.269578
21371.696133,1110.308913,-17764.942608,-76.609550
21371.696466,4737.318029,-8364.327145,3064.381992
21371.696800,7105.977043,-8216.285956,7277.907231
21371.697133,1258.350101,-7624.121203,3370.820191
21371.697466,-666.185348,-7624.121203,0.000000
21371.697799,-148.041188,-10066.800811,2757.943793
21371.698132,6587.832884,-4515.256246,4903.011187
21371.698465,4515.256246,-5625.565159,4673.182538
21371.698799,-74.020594,-7624.121203,-766.095498
21371.699132,-7105.977043,-9030.512492,-6435.202183
21371.699465,-8882.471304,-11917.315666,-4903.011187
21371.699798,-592.164754,-11843.295072,-1302.362347
21371.700131,-2368.659014,-7476.080014,0.000000
21371.700464,-4811.338623,-10066.800811,-1302.362347
21371.700797,-4811.338623,-10362.883188,-3064.381992
21371.701131,-1258.350101,-11843.295072,2681.334243
21371.701464,3923.091493,-6143.709319,7277.907231
21371.701797,5255.462188,-4737.318029,7967.393179
21371.702130,2146.597232,-4737.318029,2987.772442
21371.702463,-3552.988522,-8956.491898,0.000000
21371.702796,-6809.894666,-10732.986159,-2145.067394
21371.703130,-74.020594,-9474.636058,-1915.238745
21371.703463,-74.020594,-9474.636058,-2528.115143
21371.703796,-3182.885551,-11251.130318,-3140.991542
21371.704129,-8512.368333,-11251.130318,-7584.345430
21371.704462,-7624.121203,-15100.201217,-4290.134789
21371.704795,-888.247130,-8660.409521,1838.629195
21371.705129,6365.771101,-5921.647536,8120.612279
21371.705462,5329.482782,-6587.832884,10189.070123
21371.705795,0.000000,-5403.503377,2451.505594
21371.706128,0.000000,-9474.636058,4826.401637
21371.706461,2146.597232,-7920.203579,1838.629195
21371.706794,2368.659014,-4811.338623,612.876398
21371.707127,-1258.350101,-9178.553681,-3753.867940
21371.707461,-7254.018232,-9992.780217,-8350.440928
21371.707794,-4811.338623,-12879.583391,-9116.536426
21371.708127,-1036.288319,-13101.645173,-2451.505594
21371.708460,4515.256246,-7105.977043,2221.676944
21371.708793,2368.659014,-8956.491898,6128.763984
21371.709126,3182.885551,-9474.636058,4213.525239
21371.709460,888.247130,-7179.997637,3064.381992
21371.709793,6291.750507,-10658.965565,6052.154434
21371.710126,5699.585753,-5403.503377,4903.011187
21371.710459,5995.668130,-5107.421000,2451.505594
21371.710792,-74.020594,-10288.862594,-2221.676944
21371.711125,-4959.379811,-11547.212695,-6128.763984
21371.711458,-3552.988522,-10140.821405,-4596.572988
21371.711792,1998.556043,-10658.965565,-3753.867940
21371.712125,2368.659014,-6587.832884,0.000000
21371.712458,-4737.318029,-12065.356855,-76.609550
21371.712791,2294.638420,-11547.212695,-383.047749
21371.713124,2516.700203,-10732.986159,5822.325785
21371.713457,7698.141797,-6143.709319,6588.421283
21371.713791,10658.965565,-5181.441594,8427.050478
21371.714124,2294.638420,-7846.182985,3370.820191
21371.714457,1184.329507,-7179.997637,919.314598
21371.714790,-740.205942,-10510.924376,-1455.581446
21371.715123,1998.556043,-8734.430116,-2451.505594
21371.715456,1406.391290,-7698.141797,-4136.915689
21371.715789,-2442.679609,-11251.130318,-6818.249932
21371.716123,-2220.617826,-9844.739029,-4903.011187
21371.716456,-222.061783,-14211.954086,-76.609550
21371.716789,7624.121203,-9474.636058,2834.553343
21371.717122,5181.441594,-6883.915261,7660.954980
21371.717455,2294.638420,-9474.636058,3600.648841
21371.717788,0.000000,-8956.491898,1838.629195
21371.718122,-1036.288319,-9696.697840,2298.286494
21371.718455,3849.070898,-6513.812290,3907.087040
21371.718788,1332.370696,-4811.338623,1838.629195
21371.719121,-4737.318029,-9548.656652,-919.314598
21371.719454,-5403.503377,-8734.430116,-6128.763984
21371.719787,-6809.894666,-10140.821405,-6741.640382
21371.720121,-2368.659014,-9844.739029,-766.095498
21371.720454,-2294.638420,-6809.894666,-76.609550
21371.720787,-3701.029710,-8882.471304,-76.609550
21371.721120,-6143.709319,-9400.615463,-2068.457845
21371.721453,-1258.350101,-11325.150913,766.095498
21371.721786,2368.659014,-9918.759623,6894.859482
21371.722119,3701.029710,-3182.885551,8503.660028
21371.722453,-666.185348,-7179.997637,0.000000
21371.722786,-2960.823768,-7624.121203,-766.095498
21371.723119,-1258.350101,-14211.954086,-76.609550
21371.723452,1184.329507,-6883.915261,0.000000
21371.723785,4515.256246,-8438.347739,1378.971896
21371.724118,-2368.659014,-9178.553681,-2298.286494
21371.724452,-5921.647536,-11917.315666,-5515.887586
21371.724785,-4219.173869,-13027.624579,-2834.553343
21371.725118,2368.659014,-9844.739029,5439.278036
21371.725451,6661.853478,-3256.906145,5132.839837
21371.725784,3552.988522,-4811.338623,6435.202183
21371.726117,-814.226536,-10066.800811,2374.896044
21371.726450,1110.308913,-10658.965565,2374.896044
21371.726784,1702.473667,-9844.739029,1225.752797
21371.727117,1406.391290,-9622.677246,1302.362347
21371.727450,-740.205942,-5033.400406,-4060.306139
21371.727783,-9104.533087,-10732.986159,-5822.325785
21371.728116,-2442.679609,-8882.471304,-6205.373534
21371.728449,-3552.988522,-12805.562797,0.000000
21371.728783,7105.977043,-7772.162391,7277.907231
21371.729116,5255.462188,-7698.141797,3907.087040
21371.729449,1110.308913,-10362.883188,2068.457845
21371.729782,518.144159,-9548.656652,-842.705048
21371.730115,1850.514855,-12139.377449,1762.019645
21371.730448,8216.285956,-7179.997637,5822.325785
21371.730781,2960.823768,-6587.832884,3140.991542
21371.731115,-1554.432478,-13471.748144,-2068.457845
21371.731448,-6365.771101,-8660.409521,-5822.325785
21371.731781,-4885.359217,-12509.480420,-4443.353888
21371.732114,1110.308913,-7105.977043,-536.266849
21371.732447,1184.329507,-3923.091493,0.000000
21371.732780,-3108.864956,-10066.800811,-76.609550
21371.733114,2294.638420,-7105.977043,-383.047749
21371.733447,0.000000,-12509.480420,3677.258390
21371.733780,10881.027347,-6809.894666,7277.907231
21371.734113,8216.285956,-6957.935855,5669.106685
21371.734446,0.000000,-10436.903782,153.219100
21371.734779,-592.164754,-7772.162391,-3064.381992
21371.735113,-3775.050304,-14063.912898,-4060.306139
21371.735446,2664.741391,-8364.327145,0.000000
21371.735779,4663.297435,-9474.636058,-76.609550
21371.736112,-1850.514855,-10658.965565,-3753.867940
21371.736445,-4737.318029,-9548.656652,-1225.752797
21371.736778,2294.638420,-9474.636058,-76.609550
21371.737111,5329.482782,-7179.997637,7967.393179
21371.737445,7476.080014,-3330.926739,6511.811733
21371.737778,592.164754,-7179.997637,2451.505594
21371.738111,-1554.432478,-9104.533087,-1072.533697
21371.738444,-888.247130,-11843.295072,-76.609550
21371.738777,2886.803174,-11843.295072,-76.609550
21371.739110,592.164754,-8956.491898,1225.752797
21371.739444,-4145.153275,-11325.150913,-76.609550
21371.739777,-4811.338623,-11251.130318,-4519.963438
21371.740110,-3849.070898,-11547.212695,-76.609550
21371.740443,666.185348,-7105.977043,2068.457845
21371.740776,2664.741391,-7476.080014,2987.772442
21371.741109,-518.144159,-6217.729913,2221.676944
21371.741442,-1406.391290,-7698.141797,-995.924147
21371.741776,-2220.617826,-8956.491898,-1838.629195
21371.742109,5921.647536,-9844.739029,7277.907231
21371.742442,3182.885551,-8364.327145,3677.258390
21371.742775,0.000000,-3627.009116,-4903.011187
21371.743108,-5921.647536,-15988.448347,-4979.620737
21371.743441,-4737.318029,-12213.398043,-6128.763984
21371.743775,518.144159,-11695.253884,-229.828649
21371.744108,3034.844362,-9104.533087,1762.019645
21371.744441,1110.308913,-9326.594869,536.266849
21371.744774,-4737.318029,-9548.656652,-612.876398
21371.745107,74.020594,-8808.450710,1608.800546
21371.745440,3775.050304,-7476.080014,4903.011187
21371.745773,5921.647536,-5995.668130,7354.516781
21371.746107,2960.823768,-5551.544565,5515.887586
21371.746440,-1850.514855,-9474.636058,-2221.676944
21371.746773,-3108.864956,-7179.997637,-6128.763984
21371.747106,-2960.823768,-13471.748144,-1378.971896
21371.747439,-1184.329507,-8956.491898,0.000000
21371.747772,-3552.988522,-8364.327145,-2374.896044
21371.748106,-8512.368333,-12879.583391,-6588.421283
21371.748439,-6365.771101,-8216.285956,-4826.401637
21371.748772,2294.638420,-10362.883188,3294.210641
21371.749105,5921.647536,-5995.668130,11721.261119
21371.749438,7624.121203,-1184.329507,4060.306139
21371.749771,0.000000,-9696.697840,3907.087040
21371.750105,2294.638420,-9104.533087,1608.800546
21371.750438,2886.803174,-11843.295072,995.924147
21371.750771,4737.318029,-10066.800811,3294.210641
21371.751104,3478.967927,-7920.203579,-919.314598
21371.751437,-6513.812290,-13915.871710,-5669.106685
21371.751770,-5699.585753,-11843.295072,-7048.078582
21371.752103,-4737.318029,-13693.809927,-842.705048
21371.752437,148.041188,-5403.503377,0.000000
21371.752770,592.164754,-4367.215058,2145.067394
21371.753103,-1406.391290,-7994.224174,2374.896044
21371.753436,1110.308913,-5921.647536,2068.457845
21371.753769,4811.338623,-9474.636058,7124.688131
21371.754102,9770.718434,-2294.638420,7660.954980
21371.754436,6661.853478,-7624.121203,4596.572988
21371.754769,-148.041188,-8586.388927,-3140.991542
21371.755102,-3627.009116,-16580.613101,-7431.126331
21371.755435,-5625.565159,-13101.645173,-5975.544884
21371.755768,0.000000,-11325.150913,-153.219100
21371.756101,4071.132681,-9474.636058,-2528.115143
21371.756434,-1184.329507,-7179.997637,-1838.629195
21371.756768,-1850.514855,-9696.697840,-1991.848295
21371.757101,5107.421000,-8512.368333,4826.401637
21371.757434,8364.327145,-7105.977043,8656.879127
21371.757767,9770.718434,-5181.441594,7431.126331
21371.758100,2590.720797,-6143.709319,383.047749
21371.758433,0.000000,-10881.027347,-76.609550
21371.758767,1110.308913,-9474.636058,-2528.115143
21371.759100,814.226536,-10140.821405,-1225.752797
21371.759433,1184.329507,-7772.162391,0.000000
21371.759766,-4219.173869,-9548.656652,-4903.011187
21371.760099,-7179.997637,-13619.789333,-6511.811733
21371.760432,-5699.585753,-10066.800811,-3217.601092
21371.760765,-1480.411884,-10955.047942,766.095498
21371.761099,5847.626942,-2368.659014,5515.887586
21371.761432,0.000000,-6217.729913,4290.134789
21371.761765,-2220.617826,-8142.265362,-612.876398
21371.762098,444.123565,-9770.718434,2221.676944
21371.762431,3849.070898,-12731.542202,6818.249932
21371.762764,7031.956449,-4145.153275,4519.963438
21371.763098,-4145.153275,-8364.327145,-4290.134789
21371.763431,-6217.729913,-11843.295072,-6205.373534
21371.763764,-8438.347739,-13175.665768,-7814.174080
21371.764097,-3552.988522,-10140.821405,-1685.410096
21371.764430,1406.391290,-8808.450710,1378.971896
21371.764763,-1036.288319,-7772.162391,1991.848295
21371.765097,-4589.276840,-9252.574275,0.000000
21371.765430,-1258.350101,-8290.306550,2374.896044
21371.765763,4663.297435,-7105.977043,3600.648841
21371.766096,5921.647536,-5107.421000,8963.317327
21371.766429,7031.956449,-9178.553681,4826.401637
21371.766762,-1850.514855,-7031.956449,-2987.772442
21371.767095,-2220.617826,-13101.645173,-2221.676944
21371.767429,-2146.597232,-12435.459826,-3217.601092
21371.767762,-1110.308913,-11621.233289,-612.876398
21371.768095,-2590.720797,-8512.368333,-4060.306139
21371.768428,-9400.615463,-11917.315666,-6128.763984
21371.768761,-5403.503377,-6143.709319,-8580.269578
21371.769094,592.164754,-11473.192101,7277.907231
21371.769428,8808.450710,-4145.153275,9729.412825
21371.769761,8512.368333,-1258.350101,7354.516781
21371.770094,814.226536,-9474.636058,3600.648841
21371.770427,1332.370696,-7402.059420,0.000000
21371.770760,0.000000,-11621.233289,-2068.457845
21371.771093,5551.544565,-10658.965565,536.266849
21371.771426,888.247130,-8660.409521,-3983.696590
21371.771760,-7105.977043,-13101.645173,-7354.516781
21371.772093,-5921.647536,-13101.645173,-4749.792088
21371.772426,-3034.844362,-14211.954086,-3753.867940
21371.772759,2960.823768,-7179.997637,2451.505594
21371.773092,4737.318029,-4219.173869,6128.763984
21371.773425,3701.029710,-7105.977043,3447.429741
21371.773759,0.000000,-7994.224174,2528.115143
21371.774092,4737.318029,-7550.100608,4826.401637
21371.774425,8808.450710,-6513.812290,6665.030833
21371.774758,5921.647536,-7772.162391,4826.401637
21371.775091,-370.102971,-7328.038826,-6588.421283
21371.775424,-8808.450710,-14285.974681,-9193.145976
21371.775757,-1036.288319,-12139.377449,-4979.620737
21371.776091,888.247130,-11917.315666,0.000000
21371.776424,5181.441594,-7476.080014,-612.876398
21371.776757,-1702.473667,-9548.656652,1302.362347
21371.777090,-3034.844362,-10807.006753,-1072.533697
21371.777423,4663.297435,-8882.471304,4213.525239
21371.777756,5921.647536,-8438.347739,8197.221829
21371.778090,8882.471304,-5329.482782,7431.126331
21371.778423,962.267725,-7179.997637,3064.381992
21371.778756,-1850.514855,-10214.842000,-1455.581446
21371.779089,-1258.350101,-11843.295072,-1608.800546
21371.779422,-2072.576638,-11325.150913,0.000000
21371.779755,3478.967927,-10658.965565,-76.609550
21371.780089,-5107.421000,-10436.903782,-3677.258390
21371.780422,-8290.306550,-9548.656652,-4903.011187
21371.780755,-5995.668130,-11843.295072,-2528.115143
21371.781088,814.226536,-7920.203579,3600.648841
21371.781421,3256.906145,-4811.338623,6588.421283
21371.781754,370.102971,-5995.668130,4903.011187
21371.782087,-4293.194464,-7179.997637,-1378.971896
21371.782421,-2220.617826,-10584.944971,2987.772442
21371.782754,2886.803174,-7105.977043,1149.143247
21371.783087,2368.659014,-8956.491898,3677.258390
21371.783420,2664.741391,-8290.306550,-76.609550
21371.783753,-5995.668130,-12509.480420,-8273.831378
21371.784086,-3552.988522,-12435.459826,-5439.278036
21371.784420,-74.020594,-11399.171507,-1072.533697
21371.784753,2886.803174,-9474.636058,1762.019645
21371.785086,0.000000,-5403.503377,2451.505594
21371.785419,-3404.947333,-13323.706956,1762.019645
21371.785752,-222.061783,-6809.894666,995.924147
21371.786085,592.164754,-5995.668130,4903.011187
21371.786418,7476.080014,-6513.812290,8503.660028
21371.786752,3701.029710,-4811.338623,4903.011187
21371.787085,-1628.453072,-10214.842000,-2068.457845
21371.787418,-3108.864956,-10214.842000,-4979.620737
21371.787751,-1776.494261,-13101.645173,-3064.381992
21371.788084,1998.556043,-11103.089130,-76.609550
21371.788417,-666.185348,-10658.965565,-3140.991542
21371.788751,-8882.471304,-12213.398043,-7354.516781
21371.789084,-3256.906145,-8882.471304,-689.485948
21371.789417,3478.967927,-11843.295072,3600.648841
21371.789750,5921.647536,-4811.338623,10112.460574
21371.790083,8068.244768,-5033.400406,9422.974625
21371.790416,1998.556043,-7920.203579,3370.820191
21371.790749,3404.947333,-7031.956449,2604.724693
21371.791083,3034.844362,-11177.109724,1838.629195
21371.791416,4071.132681,-8882.471304,-1762.019645
21371.791749,-1036.288319,-9770.718434,-4673.182538
21371.792082,-5181.441594,-13027.624579,-6971.469032
21371.792415,-7328.038826,-11325.150913,-9806.022374
21371.792748,-3552.988522,-10732.986159,-4290.134789
21371.793082,2368.659014,-11029.068536,6358.592633
21371.793415,7031.956449,-4737.318029,7277.907231
21371.793748,4663.297435,-5329.482782,4060.306139
21371.794081,-4145.153275,-8956.491898,3677.258390
21371.794414,4737.318029,-5551.544565,4290.134789
21371.794747,4663.297435,-9326.594869,6971.469032
21371.795080,7031.956449,-4737.318029,1762.019645
21371.795414,-2368.659014,-10140.821405,-3140.991542
21371.795747,-7476.080014,-12731.542202,-8044.002729
21371.796080,-1480.411884,-12953.603985,-2528.115143
21371.796413,-1554.432478,-11695.253884,-2298.286494
21371.796746,4737.318029,-4811.338623,-2451.505594
21371.797079,-592.164754,-12879.583391,1455.581446
21371.797412,-1406.391290,-8364.327145,612.876398
21371.797746,2368.659014,-7772.162391,4979.620737
21371.798079,4737.318029,-8808.450710,6588.421283
21371.798412,10584.944971,-4589.276840,8120.612279
21371.798745,-2368.659014,-9548.656652,1838.629195
21371.799078,-1258.350101,-8882.471304,-4903.011187
21371.799411,-9474.636058,-9548.656652,-3677.258390
21371.799744,1702.473667,-11843.295072,-1608.800546
21371.800078,3478.967927,-5921.647536,842.705048
21371.800411,-3256.906145,-11029.068536,-76.609550
21371.800744,-4959.379811,-10436.903782,-4366.744339
21371.801077,-4737.318029,-10288.862594,-1225.752797
21371.801410,3701.029710,-8216.285956,3753.867940
21371.801743,7031.956449,-7105.977043,7890.783629
21371.802076,2294.638420,-5551.544565,1532.190996
21371.802410,-3256.906145,-10881.027347,612.876398
21371.802743,-1258.350101,-11843.295072,-1302.362347
21371.803076,0.000000,-7179.997637,0.000000
21371.803409,3478.967927,-10658.965565,2068.457845
21371.803742,0.000000,-7031.956449,-1378.971896
21371.804075,-4589.276840,-12139.377449,-4903.011187
21371.804408,-1554.432478,-11547.212695,-2834.553343
21371.804742,3478.967927,-11251.130318,1455.581446
21371.805075,3404.947333,-5403.503377,4903.011187
21371.805408,4441.235652,-7402.059420,4673.182538
21371.805741,-3034.844362,-11843.295072,-1915.238745
21371.806074,-3701.029710,-7179.997637,-2451.505594
21371.806407,2442.679609,-9474.636058,3294.210641
21371.806741,4293.194464,-6069.688724,4596.572988
21371.807074,3404.947333,-7994.224174,3294.210641
21371.807407,-6069.688724,-10436.903782,-3064.381992
21371.807740,-3775.050304,-11251.130318,-4979.620737
21371.808073,-592.164754,-10955.047942,-766.095498
21371.808406,2738.761985,-7254.018232,1378.971896
21371.808739,2146.597232,-6735.874072,536.266849
21371.809073,-4737.318029,-9548.656652,-2451.505594
21371.809406,-1628.453072,-10955.047942,-1302.362347
21371.809739,3182.885551,-10066.800811,2145.067394
21371.810072,5551.544565,-4811.338623,4903.011187
21371.810405,5921.647536,-7402.059420,5745.716235
21371.810738,-1628.453072,-10140.821405,-383.047749
21371.811071,-1406.391290,-10658.965565,-2068.457845
21371.811405,-666.185348,-11695.253884,-766.095498
21371.811738,1924.535449,-8512.368333,1685.410096
21371.812071,3330.926739,-7698.141797,1762.019645
21371.812404,-3849.070898,-14211.954086,-2528.115143
21371.812737,-8216.285956,-7772.162391,-7354.516781
21371.813070,-1998.556043,-10732.986159,0.000000
21371.813403,3997.112087,-10066.800811,6665.030833
21371.813737,6217.729913,-5551.544565,6128.763984
21371.814070,1110.308913,-7105.977043,1608.800546
21371.814403,1110.308913,-10066.800811,1072.533697
21371.814736,3478.967927,-9030.512492,2451.505594
21371.815069,5255.462188,-10955.047942,2451.505594
21371.815402,3108.864956,-9474.636058,-76.609550
21371.815735,-4811.338623,-11325.150913,-4903.011187
21371.816069,-7105.977043,-12065.356855,-5822.325785
21371.816402,-2442.679609,-13619.789333,-3753.867940
21371.816735,-74.020594,-7698.141797,1149.143247
21371.817068,5329.482782,-3775.050304,3600.648841
21371.817401,3108.864956,-5995.668130,3677.258390
21371.817734,-296.082377,-9326.594869,2681.334243
21371.818067,0.000000,-7179.997637,1225.752797
21371.818401,6735.874072,-9474.636058,6052.154434
21371.818734,3108.864956,-6291.750507,2451.505594
21371.819067,-74.020594,-11547.212695,-689.485948
21371.819400,-9178.553681,-10732.986159,-7354.516781
21371.819733,-7105.977043,-11325.150913,-7967.393179
21371.820066,740.205942,-11547.212695,842.705048
21371.820400,2738.761985,-7476.080014,2374.896044
21371.820733,-1924.535449,-8364.327145,-383.047749
21371.821066,-2812.782580,-11251.130318,-76.609550
21371.821399,222.061783,-5551.544565,612.876398
21371.821732,7254.018232,-10362.883188,8503.660028
21371.822065,9400.615463,-2442.679609,3907.087040
21371.822398,2368.659014,-9548.656652,5439.278036
21371.822732,-3256.906145,-11325.150913,-4290.134789
21371.823065,-2072.576638,-10881.027347,-3064.381992
21371.823398,-2220.617826,-13397.727550,-2145.067394
21371.823731,2220.617826,-8068.244768,-1225.752797
21371.824064,-1406.391290,-11843.295072,-76.609550
21371.824397,-6809.894666,-9548.656652,-4903.011187
21371.824730,-3108.864956,-7105.977043,-1455.581446
21371.825064,2294.638420,-8808.450710,3600.648841
21371.825397,6735.874072,-5033.400406,6818.249932
21371.825730,5329.482782,-5847.626942,6435.202183
21371.826063,-74.020594,-9918.759623,-1991.848295
21371.826396,-3552.988522,-7179.997637,1225.752797
21371.826729,4663.297435,-12435.459826,1149.143247
21371.827062,4663.297435,-8882.471304,229.828649
21371.827396,592.164754,-9696.697840,689.485948
21371.827729,-5255.462188,-12805.562797,-6205.373534
21371.828062,-4589.276840,-13175.665768,-5439.278036
21371.828395,-592.164754,-10955.047942,-2298.286494
21371.828728,4071.132681,-10658.965565,4213.525239
21371.829061,4663.297435,-3923.091493,4903.011187
21371.829394,-370.102971,-9326.594869,4290.134789
21371.829728,-74.020594,-8290.306550,2987.772442
21371.830061,1998.556043,-5403.503377,2757.943793
21371.830394,5773.606348,-7698.141797,4826.401637
21371.830727,2220.617826,-4663.297435,536.266849
21371.831060,-4737.318029,-11177.109724,-6435.202183
21371.831393,-6439.791695,-15248.242405,-5592.497135
21371.831726,-3627.009116,-10955.047942,-6971.469032
21371.832060,-1776.494261,-9548.656652,0.000000
21371.832393,1998.556043,-9474.636058,-76.609550
21371.832726,-1258.350101,-12435.459826,-1302.362347
21371.833059,-3923.091493,-7476.080014,-1532.190996
21371.833392,4367.215058,-7624.121203,3524.039291
21371.833725,6217.729913,-7105.977043,9346.365076
21371.834058,7402.059420,-3997.112087,7737.564530
21371.834392,1036.288319,-7476.080014,2757.943793
21371.834725,-1776.494261,-9696.697840,-1685.410096
21371.835058,296.082377,-11843.295072,1149.143247
21371.835391,2294.638420,-12435.459826,-1915.238745
21371.835724,666.185348,-7328.038826,-3677.258390
21371.836057,-7105.977043,-13693.809927,-1915.238745
21371.836391,-6587.832884,-12139.377449,-8044.002729
21371.836724,-5329.482782,-11695.253884,-1685.410096
21371.837057,1110.308913,-7624.121203,2145.067394
21371.837390,6439.791695,-4737.318029,8503.660028
21371.837723,3849.070898,-4219.173869,7354.516781
21371.838056,2146.597232,-7031.956449,3830.477490
21371.838389,1406.391290,-8438.347739,2911.162892
21371.838723,5477.523971,-8660.409521,3524.039291
21371.839056,4367.215058,-9178.553681,1149.143247
21371.839389,-4219.173869,-14211.954086,-4979.620737
21371.839722,-11251.130318,-11917.315666,-11031.775171
21371.840055,-7179.997637,-15692.365970,-5592.497135
21371.840388,2294.638420,-10658.965565,1149.143247
21371.840721,4663.297435,-6809.894666,4826.401637
21371.841055,6587.832884,-6809.894666,4826.401637
21371.841388,-2812.782580,-10066.800811,2374.896044
21371.841721,296.082377,-6587.832884,2451.505594
21371.842054,6661.853478,-7031.956449,6818.249932
21371.842387,9030.512492,-6883.915261,7890.783629
21371.842720,1776.494261,-4811.338623,1225.752797
21371.843053,-2738.761985,-13619.789333,-4979.620737
21371.843387,-3552.988522,-11843.295072,-7890.783629
21371.843720,-2368.659014,-12287.418637,-3600.648841
21371.844053,2886.803174,-10955.047942,-1915.238745
21371.844386,-1998.556043,-9844.739029,-1915.238745
21371.844719,-5995.668130,-9770.718434,-5822.325785
21371.845052,-1776.494261,-9178.553681,-689.485948
21371.845385,3478.967927,-7698.141797,5745.716235
21371.845719,10066.800811,-5329.482782,9729.412825
21371.846052,4663.297435,-6513.812290,4979.620737
21371.846385,-1184.329507,-9104.533087,766.095498
21371.846718,-2368.659014,-9844.739029,-1072.533697
21371.847051,1702.473667,-10732.986159,153.219100
21371.847384,5255.462188,-10288.862594,1149.143247
21371.847717,148.041188,-9474.636058,-306.438199
21371.848051,-4441.235652,-11917.315666,-4366.744339
21371.848384,-6365.771101,-11029.068536,-6741.640382
21371.848717,-1258.350101,-13027.624579,-1302.362347
21371.849050,2294.638420,-9474.636058,1762.019645
21371.849383,1406.391290,-4811.338623,3677.258390
21371.849716,-1258.350101,-8290.306550,4213.525239
21371.850050,-1776.494261,-7179.997637,2834.553343
21371.850383,1998.556043,-7846.182985,4903.011187
21371.850716,4885.359217,-5477.523971,5132.839837
21371.851049,3256.906145,-5403.503377,2757.943793
21371.851382,-4145.153275,-11325.150913,-4596.572988
21371.851715,-4811.338623,-13619.789333,-8656.879127
21371.852048,-4737.318029,-13101.645173,-3983.696590
21371.852382,0.000000,-10140.821405,612.876398
21371.852715,4071.132681,-9474.636058,-76.609550
21371.853048,-2368.659014,-11621.233289,-1225.752797
21371.853381,-3849.070898,-11177.109724,76.609550
21371.853714,2146.597232,-7179.997637,5056.230287
21371.854047,6735.874072,-7105.977043,9422.974625
21371.854380,7105.977043,-2442.679609,10572.117872
21371.854714,1776.494261,-6809.894666,3064.381992
21371.855047,-2664.741391,-8956.491898,-2451.505594
21371.855380,-1554.432478,-11843.295072,-3370.820191
21371.855713,-1850.514855,-9622.677246,-4673.182538
21371.856046,-2368.659014,-7772.162391,-4290.134789
21371.856379,-4811.338623,-13027.624579,-4979.620737
21371.856712,-6587.832884,-11843.295072,-8963.317327
21371.857046,-4737.318029,-10881.027347,-1072.533697
21371.857379,4663.297435,-11251.130318,7277.907231
21371.857712,7328.038826,-3182.885551,8810.098227
21371.858045,4071.132681,-8142.265362,6741.640382
21371.858378,2294.638420,-7402.059420,2987.772442
21371.858711,2368.659014,-6587.832884,2451.505594
21371.859044,3552.988522,-5995.668130,4290.134789
21371.859378,7624.121203,-7105.977043,153.219100
21371.859711,-4145.153275,-11325.150913,-7354.516781
21371.860044,-9326.594869,-14582.057057,-7737.564530
21371.860377,-9474.636058,-11547.212695,-9882.631924
21371.860710,-2368.659014,-10955.047942,-2374.896044
21371.861043,2664.741391,-6365.771101,2681.334243
21371.861376,4737.318029,-5551.544565,6741.640382
21371.861710,3182.885551,-8142.265362,6588.421283
21371.862043,0.000000,-6291.750507,6665.030833
21371.862376,8216.285956,-9474.636058,4519.963438
21371.862709,5329.482782,-7179.997637,5515.887586
21371.863042,5329.482782,-9474.636058,2374.896044
21371.863375,-4367.215058,-12805.562797,-7354.516781
21371.863709,-4811.338623,-12879.583391,-8350.440928
21371.864042,-2220.617826,-12435.459826,-4060.306139
21371.864375,2738.761985,-9548.656652,1915.238745
21371.864708,518.144159,-7402.059420,536.266849
21371.865041,-2960.823768,-11029.068536,-689.485948
21371.865374,-3256.906145,-9474.636058,-383.047749
21371.865707,0.000000,-7179.997637,5515.887586
21371.866041,9400.615463,-4441.235652,8503.660028
21371.866374,6439.791695,-6513.812290,8810.098227
21371.866707,-740.205942,-6883.915261,0.000000
21371.867040,-3627.009116,-9474.636058,-2528.115143
21371.867373,-1480.411884,-13249.686362,-2528.115143
21371.867706,-1776.494261,-8364.327145,-1225.752797
21371.868039,-74.020594,-9474.636058,-3140.991542
21371.868373,-4737.318029,-10732.986159,-3677.258390
21371.868706,-4737.318029,-10140.821405,-1915.238745
21371.869039,1110.308913,-11251.130318,-383.047749
21371.869372,4071.132681,-7105.977043,4826.401637
21371.869705,5477.523971,-6217.729913,4903.011187
21371.870038,-370.102971,-8882.471304,1685.410096
21371.870371,-1406.391290,-10140.821405,1378.971896
21371.870705,0.000000,-7772.162391,2757.943793
21371.871038,5255.462188,-8142.265362,3600.648841
21371.871371,4663.297435,-7920.203579,3294.210641
21371.871704,-2442.679609,-10288.862594,-1762.019645
21371.872037,-4811.338623,-9992.780217,-5209.449386
21371.872370,-4441.235652,-8364.327145,-6128.763984
21371.872703,888.247130,-11843.295072,-76.609550
21371.873037,1702.473667,-5551.544565,-2451.505594
21371.873370,-2368.659014,-10436.903782,-76.609550
21371.873703,-74.020594,-11103.089130,1149.143247
21371.874036,370.102971,-8364.327145,1225.752797
21371.874369,5847.626942,-10658.965565,5822.325785
21371.874702,7105.977043,-5551.544565,7277.907231
21371.875035,2368.659014,-9548.656652,4903.011187
21371.875369,0.000000,-8512.368333,919.314598
21371.875702,-74.020594,-10658.965565,-1915.238745
21371.876035,0.000000,-7179.997637,-3677.258390
21371.876368,0.000000,-6587.832884,-383.047749
21371.876701,-2442.679609,-10658.965565,-6205.373534
21371.877034,-8882.471304,-11029.068536,-5362.668486
21371.877368,-1258.350101,-11843.295072,-76.609550
21371.877701,2368.659014,-9844.739029,4673.182538
21371.878034,3034.844362,-4959.379811,6128.763984
21371.878367,4663.297435,-9474.636058,6511.811733
21371.878700,2294.638420,-7105.977043,-689.485948
21371.879033,2368.659014,-10436.903782,4519.963438
21371.879366,3478.967927,-13027.624579,2374.896044
21371.879700,1480.411884,-6587.832884,1225.752797
21371.880033,-1332.370696,-11843.295072,-2528.115143
21371.880366,-7402.059420,-12583.501014,-6741.640382
21371.880699,-5551.544565,-9992.780217,-5286.058936
21371.881032,-2220.617826,-10288.862594,-1608.800546
21371.881365,3478.967927,-5921.647536,2374.896044
21371.881698,0.000000,-4811.338623,1838.629195
21371.882032,0.000000,-7698.141797,4826.401637
21371.882365,222.061783,-7328.038826,1225.752797
21371.882698,4293.194464,-8364.327145,3677.258390
21371.883031,6661.853478,-9474.636058,5745.716235
21371.883364,1924.535449,-8660.409521,306.438199
21371.883697,-4811.338623,-11177.109724,-6435.202183
21371.884030,-5403.503377,-11695.253884,-8044.002729
21371.884364,-962.267725,-11843.295072,-2987.772442
21371.884697,1998.556043,-8364.327145,1378.971896
21371.885030,1850.514855,-7105.977043,842.705048
21371.885363,-666.185348,-9992.780217,76.609550
21371.885696,1184.329507,-8956.491898,3677.258390
21371.886029,5329.482782,-7772.162391,7584.345430
21371.886362,8808.450710,-6513.812290,5132.839837
21371.886696,4737.318029,-7179.997637,6128.763984
21371.887029,-74.020594,-11251.130318,-2528.115143
21371.887362,-5773.606348,-10732.986159,-4903.011187
21371.887695,-4367.215058,-12583.501014,-3140.991542
21371.888028,-1036.288319,-10510.924376,-1685.410096
21371.888361,666.185348,-6809.894666,1225.752797
21371.888694,-2442.679609,-11251.130318,-1302.362347
21371.889028,-4589.276840,-7476.080014,306.438199
21371.889361,2294.638420,-6661.853478,612.876398
21371.889694,5921.647536,-5995.668130,8273.831378
21371.890027,10584.944971,-6513.812290,8503.660028
21371.890360,-74.020594,-11251.130318,1072.533697
21371.890693,-370.102971,-10807.006753,-2221.676944
21371.891026,-1184.329507,-13101.645173,-1838.629195
21371.891360,2368.659014,-11843.295072,76.609550
21371.891693,2220.617826,-7994.224174,1149.143247
21371.892026,-2960.823768,-12287.418637,-76.609550
21371.892359,-4441.235652,-6587.832884,-3064.381992
21371.892692,-3849.070898,-7179.997637,0.000000
21371.893025,4071.132681,-6513.812290,-76.609550
21371.893358,2516.700203,-5699.585753,3064.381992
21371.893691,1998.556043,-7105.977043,536.266849
21371.894024,-2664.741391,-10807.006753,-1072.533697
21371.894357,1110.308913,-11621.233289,1302.362347
21371.894690,4293.194464,-9918.759623,1991.848295
21371.895024,6439.791695,-11251.130318,4213.525239
21371.895357,2368.659014,-10140.821405,1991.848295
21371.895690,-3108.864956,-15840.407159,-76.609550
21371.896023,-666.185348,-8586.388927,-1225.752797
21371.896356,-2368.659014,-9548.656652,1838.629195
21371.896689,2294.638420,-6439.791695,1225.752797
21371.897022,-1258.350101,-6143.709319,766.095498
21371.897355,-5255.462188,-8216.285956,-1991.848295
21371.897688,0.000000,-6217.729913,1302.362347
21371.898021,814.226536,-7476.080014,1532.190996
21371.898355,4737.318029,-6661.853478,5745.716235
21371.898688,-74.020594,-8290.306550,1072.533697
21371.899021,-3034.844362,-11177.109724,-5822.325785
21371.899354,-2368.659014,-10732.986159,0.000000
21371.899687,518.144159,-12583.501014,-842.705048
21371.900020,2368.659014,-8808.450710,995.924147
21371.900353,-2368.659014,-10066.800811,229.828649
21371.900686,-3701.029710,-10584.944971,-4213.525239
21371.901019,-2738.761985,-6291.750507,-2451.505594
21371.901352,1850.514855,-9770.718434,2528.115143
21371.901685,6217.729913,-3182.885551,6511.811733
21371.902019,2812.782580,-4515.256246,4903.011187
21371.902352,1850.514855,-10658.965565,2068.457845
21371.902685,1702.473667,-8734.430116,-536.266849
21371.903018,1480.411884,-14285.974681,1225.752797
21371.903351,6735.874072,-9474.636058,-76.609550
21371.903684,-1258.350101,-11103.089130,-2681.334243
21371.904017,-6513.812290,-12509.480420,-5822.325785
21371.904350,-5551.544565,-10288.862594,-3677.258390
21371.904683,-2516.700203,-11695.253884,-919.314598
21371.905016,2294.638420,-6587.832884,1685.410096
21371.905350,2886.803174,-5921.647536,4826.401637
21371.905683,3478.967927,-3478.967927,0.000000
21371.906016,1480.411884,-10584.944971,4826.401637
21371.906349,6439.791695,-11843.295072,6052.154434
21371.906682,7328.038826,-6661.853478,4060.306139
21371.907015,6439.791695,-9252.574275,6052.154434
21371.907348,-1406.391290,-11103.089130,-5132.839837
21371.907681,-6587.832884,-13693.809927,-7660.954980
21371.908014,-3775.050304,-14063.912898,-4826.401637
21371.908347,0.000000,-9844.739029,0.000000
21371.908681,814.226536,-6587.832884,0.000000
21371.909014,-2368.659014,-9474.636058,-76.609550
21371.909347,-2442.679609,-7698.141797,0.000000
21371.909680,1036.288319,-4811.338623,3983.696590
21371.910013,6809.894666,-5033.400406,7277.907231
21371.910346,5921.647536,-2590.720797,5515.887586
21371.910679,962.267725,-9770.718434,-919.314598
21371.911012,-1554.432478,-12879.583391,-1302.362347
21371.911345,148.041188,-11473.192101,-1532.190996
21371.911678,0.000000,-11325.150913,-2451.505594
21371.912011,2812.782580,-11399.171507,-76.609550
21371.912345,-3034.844362,-12435.459826,-5286.058936
21371.912678,-4145.153275,-11029.068536,-2451.505594
21371.913011,-1776.494261,-9252.574275,0.000000
21371.913344,2886.803174,-8660.409521,4903.011187
21371.913677,5847.626942,-2812.782580,8197.221829
21371.914010,1480.411884,-5995.668130,5132.839837
21371.914343,-74.020594,-7105.977043,1149.143247
21371.914676,592.164754,-8438.347739,2987.772442
21371.915009,1554.432478,-9548.656652,-2451.505594
21371.915342,2294.638420,-7179.997637,0.000000
21371.915676,-2368.659014,-12213.398043,-5132.839837
21371.916009,-5773.606348,-16062.468941,-7354.516781
21371.916342,-3256.906145,-12213.398043,-3064.381992
21371.916675,-518.144159,-12657.521608,-689.485948
21371.917008,2812.782580,-6069.688724,3983.696590
21371.917341,2294.638420,-7105.977043,2374.896044
21371.917674,0.000000,-8142.265362,4519.963438
21371.918007,1332.370696,-5403.503377,5286.058936
21371.918340,3108.864956,-7476.080014,4213.525239
21371.918673,5329.482782,-4811.338623,5056.230287
21371.919006,3182.885551,-9326.594869,1762.019645
21371.919340,-3256.906145,-10732.986159,-4903.011187
21371.919673,-2146.597232,-14211.954086,-4979.620737
21371.920006,-2960.823768,-11917.315666,-3677.258390
21371.920339,0.000000,-8660.409521,0.000000
21371.920672,-74.020594,-10955.047942,-1302.362347
21371.921005,-5329.482782,-10436.903782,-3830.477490
21371.921338,-2146.597232,-9474.636058,1072.533697
21371.921671,4071.132681,-7476.080014,5592.497135
21371.922004,6143.709319,-3108.864956,7660.954980
21371.922337,5329.482782,-6587.832884,8503.660028
21371.922671,-74.020594,-9474.636058,1149.143247
21371.923004,-2368.659014,-7179.997637,0.000000
21371.923337,3849.070898,-11843.295072,1915.238745
21371.923670,666.185348,-8364.327145,-2145.067394
21371.924003,-370.102971,-8438.347739,-4443.353888
21371.924336,-7254.018232,-14211.954086,-7124.688131
21371.924669,-4811.338623,-11769.274478,-5132.839837
21371.925002,-2368.659014,-10732.986159,0.000000
21371.925335,4737.318029,-10362.883188,6052.154434
21371.925668,4515.256246,-5181.441594,5745.716235
21371.926001,-2146.597232,-5995.668130,1225.752797
21371.926335,296.082377,-9474.636058,2374.896044
21371.926668,2516.700203,-5995.668130,5056.230287
21371.927001,4885.359217,-7179.997637,3600.648841
21371.927334,5329.482782,-6587.832884,2911.162892
21371.927667,-4441.235652,-13915.871710,-6971.469032
21371.928000,-5773.606348,-15100.201217,-6205.373534
21371.928333,-1258.350101,-15396.283594,-3140.991542
21371.928666,888.247130,-9548.656652,0.000000
21371.928999,3552.988522,-7698.141797,5975.544884
21371.929332,-74.020594,-9474.636058,-1302.362347
21371.929666,0.000000,-6587.832884,2834.553343
21371.929999,2294.638420,-7698.141797,3907.087040
21371.930332,5033.400406,-7698.141797,6128.763984
21371.930665,3182.885551,-5403.503377,4673.182538
21371.930998,-1406.391290,-10807.006753,-1532.190996
21371.931331,-3923.091493,-9030.512492,-4903.011187
21371.931664,-2738.761985,-11547.212695,-3447.429741
21371.931997,2294.638420,-10362.883188,-766.095498
21371.932330,222.061783,-6365.771101,0.000000
21371.932663,-3849.070898,-8956.491898,-3677.258390
21371.932996,-3182.885551,-12731.542202,-2068.457845
21371.933330,-74.020594,-11251.130318,-689.485948
21371.933663,3849.070898,-7772.162391,5515.887586
21371.933996,7031.956449,-6513.812290,8197.221829
21371.934329,1924.535449,-9104.533087,3983.696590
21371.934662,-666.185348,-8586.388927,229.828649
21371.934995,-74.020594,-8290.306550,842.705048
21371.935328,2368.659014,-8068.244768,0.000000
21371.935661,2294.638420,-8068.244768,0.000000
21371.935994,-444.123565,-12435.459826,-2528.115143
21371.936327,-4811.338623,-10214.842000,-7967.393179
21371.936661,-3552.988522,-11917.315666,0.000000
21371.936994,0.000000,-11917.315666,1225.752797
21371.937327,4737.318029,-6143.709319,4366.744339
21371.937660,1702.473667,-7550.100608,2834.553343
21371.937993,-1258.350101,-9696.697840,689.485948
21371.938326,2294.638420,-8882.471304,2987.772442
21371.938659,2146.597232,-8660.409521,4903.011187
21371.938992,5255.462188,-7105.977043,3600.648841
21371.939325,0.000000,-7476.080014,1838.629195
21371.939658,-3627.009116,-11843.295072,-4366.744339
21371.939992,-2442.679609,-9326.594869,-3524.039291
21371.940325,-1184.329507,-12731.542202,-1302.362347
21371.940658,1850.514855,-7624.121203,459.657299
21371.940991,-2738.761985,-7994.224174,-2451.505594
21371.941324,-5255.462188,-11843.295072,-4749.792088
21371.941657,-2368.659014,-9548.656652,3294.210641
21371.941990,1554.432478,-7476.080014,3677.258390
21371.942323,3552.988522,-4811.338623,7354.516781
21371.942656,7031.956449,-7105.977043,7277.907231
21371.942989,814.226536,-7994.224174,229.828649
21371.943322,2294.638420,-9178.553681,995.924147
21371.943656,-592.164754,-11843.295072,-2068.457845
21371.943989,-444.123565,-9696.697840,-4290.134789
21371.944322,-2442.679609,-11251.130318,-3600.648841
21371.944655,-3034.844362,-14211.954086,-5592.497135
21371.944988,-6809.894666,-9548.656652,-4290.134789
21371.945321,1998.556043,-11843.295072,4213.525239
21371.945654,7031.956449,-5329.482782,6358.592633
21371.945987,5255.462188,-3404.947333,7814.174080
21371.946320,3478.967927,-9178.553681,2987.772442
21371.946653,888.247130,-9104.533087,3294.210641
21371.946987,1036.288319,-10288.862594,1762.019645
21371.947320,2960.823768,-8068.244768,919.314598
21371.947653,-74.020594,-10066.800811,-1608.800546
21371.947986,-5329.482782,-11029.068536,-8427.050478
21371.948319,-5995.668130,-13989.892304,-5286.058936
21371.948652,-2146.597232,-10732.986159,-1455.581446
21371.948985,1184.329507,-7772.162391,2451.505594
21371.949318,4885.359217,-5773.606348,6052.154434
21371.949651,-74.020594,-8290.306550,-76.609550
21371.949984,-888.247130,-7476.080014,2451.505594
21371.950317,1776.494261,-9548.656652,3753.867940
21371.950651,5847.626942,-6809.894666,2528.115143
21371.950984,3849.070898,-7254.018232,3217.601092
21371.951317,-3330.926739,-11103.089130,-3753.867940
21371.951650,-4441.235652,-10362.883188,-5898.935335
21371.951983,-4589.276840,-12509.480420,-3983.696590
21371.952316,1110.308913,-13027.624579,-76.609550
21371.952649,0.000000,-5403.503377,612.876398
21371.952982,-4737.318029,-9548.656652,0.000000
21371.953315,-74.020594,-9474.636058,-76.609550
21371.953648,1184.329507,-6587.832884,4903.011187
21371.953982,6587.832884,-7994.224174,7201.297681
21371.954315,6365.771101,-5625.565159,5362.668486
21371.954648,1702.473667,-9400.615463,1532.190996
21371.954981,-666.185348,-11843.295072,-689.485948
21371.955314,888.247130,-11843.295072,-689.485948
21371.955647,-3552.988522,-11325.150913,-1225.752797
21371.955980,1998.556043,-11251.130318,-76.609550
21371.956313,-666.185348,-10658.965565,-3140.991542
21371.956646,-1850.514855,-11843.295072,-2911.162892
21371.956979,-814.226536,-9992.780217,0.000000
21371.957312,1850.514855,-10807.006753,3294.210641
21371.957646,6439.791695,-3552.988522,5669.106685
21371.957979,1776.494261,-5107.421000,3753.867940
21371.958312,-370.102971,-8586.388927,-1915.238745
21371.958645,0.000000,-8364.327145,4136.915689
21371.958978,2886.803174,-10955.047942,842.705048
21371.959311,1702.473667,-8882.471304,1149.143247
21371.959644,-2294.638420,-8882.471304,-1915.238745
21371.959977,-5255.462188,-11325.150913,-5286.058936
21371.960310,-3552.988522,-10140.821405,-2451.505594
21371.960643,-666.185348,-9696.697840,-995.924147
21371.960977,1480.411884,-8586.388927,1532.190996
21371.961310,-2886.803174,-5995.668130,306.438199
21371.961643,-1406.391290,-11547.212695,-76.609550
21371.961976,2294.638420,-7994.224174,1762.019645
21371.962309,3108.864956,-7476.080014,4290.134789
21371.962642,6291.750507,-7994.224174,6052.154434
21371.962975,4145.153275,-7772.162391,3907.087040
21371.963308,-888.247130,-10807.006753,-1302.362347
21371.963641,-4145.153275,-11769.274478,-3064.381992
21371.963974,-1036.288319,-11029.068536,-3983.696590
21371.964308,0.000000,-10881.027347,459.657299
21371.964641,296.082377,-6291.750507,-766.095498
21371.964974,-4219.173869,-10807.006753,-3830.477490
21371.965307,-3997.112087,-9400.615463,-2221.676944
21371.965640,1184.329507,-9548.656652,3064.381992
21371.965973,3330.926739,-3701.029710,3524.039291
21371.966306,3552.988522,-5403.503377,5898.935335
21371.966639,814.226536,-9474.636058,76.609550
21371.966972,-74.020594,-9474.636058,2374.896044
21371.967305,2368.659014,-9918.759623,2987.772442
21371.967638,2146.597232,-11399.171507,1455.581446
21371.967972,518.144159,-7624.121203,-2221.676944
21371.968305,-5403.503377,-13841.851115,-6205.373534
21371.968638,-4811.338623,-13027.624579,-4366.744339
21371.968971,-5329.482782,-7476.080014,-4596.572988
21371.969304,0.000000,-9548.656652,4903.011187
21371.969637,7550.100608,-4737.318029,8503.660028
21371.969970,740.205942,-6291.750507,3064.381992
21371.970303,2590.720797,-8290.306550,2374.896044
21371.970636,3256.906145,-9400.615463,3830.477490
21371.970969,2886.803174,-10955.047942,2528.115143
21371.971303,5181.441594,-5329.482782,2451.505594
21371.971636,-4219.173869,-11547.212695,-5898.935335
21371.971969,-8290.306550,-10732.986159,-4903.011187
21371.972302,-4441.235652,-12805.562797,-3677.258390
21371.972635,-74.020594,-13027.624579,-1915.238745
21371.972968,0.000000,-5995.668130,1225.752797
21371.973301,-666.185348,-9548.656652,919.314598
21371.973634,1036.288319,-6217.729913,3064.381992
21371.973967,2738.761985,-7920.203579,5975.544884
21371.974300,6217.729913,-5995.668130,5362.668486
21371.974633,4737.318029,-3775.050304,2451.505594
21371.974967,1184.329507,-9844.739029,2911.162892
21371.975300,-1258.350101,-11547.212695,-5286.058936
21371.975633,-4737.318029,-10732.986159,-7354.516781
21371.975966,-2368.659014,-11473.192101,-2451.505594
21371.976299,-370.102971,-10510.924376,-3064.381992
21371.976632,-74.020594,-8808.450710,-842.705048
21371.976965,-3701.029710,-10140.821405,-1838.629195
21371.977298,3182.885551,-6143.709319,2451.505594
21371.977631,4071.132681,-8660.409521,4826.401637
21371.977964,7846.182985,-4737.318029,6665.030833
21371.978298,4811.338623,-8290.306550,3830.477490
21371.978631,-518.144159,-14137.933492,-459.657299
21371.978964,3182.885551,-9474.636058,1762.019645
21371.979297,1110.308913,-12435.459826,-2221.676944
21371.979630,1184.329507,-9548.656652,0.000000
21371.979963,-2368.659014,-9548.656652,-1378.971896
21371.980296,-3923.091493,-11843.295072,-4979.620737
21371.980629,-3256.906145,-10881.027347,0.000000
21371.980962,-74.020594,-8882.471304,383.047749
21371.981295,1850.514855,-8142.265362,4519.963438
21371.981628,2590.720797,-3108.864956,4136.915689
21371.981962,-2294.638420,-9178.553681,229.828649
21371.982295,740.205942,-6957.935855,-76.609550
21371.982628,0.000000,-8956.491898,3677.258390
21371.982961,4663.297435,-7402.059420,536.266849
21371.983294,4071.132681,-8586.388927,383.047749
21371.983627,-5403.503377,-13027.624579,-5745.716235
21371.983960,-2146.597232,-12953.603985,-3677.258390
21371.984293,-3034.844362,-13027.624579,-3217.601092
21371.984626,2590.720797,-9844.739029,229.828649
21371.984959,-3552.988522,-6587.832884,612.876398
21371.985293,-1850.514855,-10066.800811,-1915.238745
21371.985626,0.000000,-6587.832884,4519.963438
21371.985959,4071.132681,-8808.450710,4826.401637
21371.986292,5033.400406,-2442.679609,3064.381992
21371.986625,3256.906145,-5995.668130,4596.572988
21371.986958,-592.164754,-9844.739029,-459.657299
21371.987291,-2442.679609,-10584.944971,-1532.190996
21371.987624,-222.061783,-10955.047942,-2604.724693
21371.987957,2294.638420,-12953.603985,-76.609550
21371.988290,-1258.350101,-7179.997637,0.000000
21371.988624,-2442.679609,-10658.965565,-3753.867940
21371.988957,-4219.173869,-11843.295072,-3140.991542
21371.989290,-3552.988522,-7179.997637,612.876398
21371.989623,2960.823768,-10362.883188,6128.763984
21371.989956,6587.832884,-4737.318029,8197.221829
21371.990289,814.226536,-9622.677246,459.657299
21371.990622,814.226536,-9104.533087,2451.505594
21371.990955,2590.720797,-8290.306550,2987.772442
21371.991289,3552.988522,-7772.162391,4903.011187
21371.991622,4071.132681,-7105.977043,229.828649
21371.991955,-4737.318029,-9548.656652,-9193.145976
21371.992288,-4145.153275,-13619.789333,-3753.867940
21371.992622,-4515.256246,-13027.624579,-3140.991542
21371.992955,-1480.411884,-10362.883188,-1072.533697
21371.993288,-1998.556043,-6735.874072,1532.190996
21371.993621,-74.020594,-7402.059420,1149.143247
21371.993955,-666.185348,-7994.224174,536.266849
21371.994288,592.164754,-7179.997637,4903.011187
21371.994621,6587.832884,-7105.977043,4596.572988
21371.994954,6069.688724,-6439.791695,6281.983084
21371.995288,3849.070898,-9548.656652,1302.362347
21371.995621,-74.020594,-13027.624579,-3753.867940
21371.995954,0.000000,-10881.027347,-3983.696590
21371.996287,3478.967927,-16580.613101,-1608.800546
21371.996621,1850.514855,-5403.503377,-1225.752797
21371.996954,-2072.576638,-11399.171507,-3524.039291
21371.997287,-1258.350101,-12435.459826,-1608.800546
21371.997620,1480.411884,-7772.162391,3064.381992
21371.997954,5477.523971,-7772.162391,6205.373534
21371.998287,9030.512492,-4811.338623,9499.584175
21371.998620,2738.761985,-4219.173869,3677.258390
21371.998953,0.000000,-9548.656652,2374.896044
21371.999286,222.061783,-7772.162391,-2145.067394
21371.999620,0.000000,-10732.986159,-3677.258390
21371.999953,3182.885551,-9992.780217,-995.924147
21372.000286,-3034.844362,-10732.986159,-3677.258390
21372.000619,-3923.091493,-9696.697840,-7048.078582
21372.000953,-4811.338623,-12287.418637,-2298.286494
21372.001286,-740.205942,-9474.636058,-76.609550
21372.001619,4663.297435,-6735.874072,6894.859482
21372.001952,2368.659014,-9474.636058,8503.660028
21372.002286,-962.267725,-5995.668130,306.438199
21372.002619,-2072.576638,-8216.285956,5515.887586
21372.002952,4663.297435,-8290.306550,842.705048
21372.003285,2960.823768,-5403.503377,3677.258390
21372.003619,-74.020594,-11843.295072,-76.609550
21372.003952,-4589.276840,-10881.027347,-6665.030833
21372.004285,-8290.306550,-14137.933492,-6818.249932
21372.004618,-3330.926739,-11917.315666,-4749.792088
21372.004952,2294.638420,-8882.471304,842.705048
21372.005285,-2368.659014,-6587.832884,3677.258390
21372.005618,-74.020594,-7698.141797,-383.047749
21372.005951,-3256.906145,-8290.306550,2681.334243
21372.006285,740.205942,-8290.306550,4826.401637
21372.006618,2812.782580,-6587.832884,7277.907231
21372.006951,2368.659014,-4811.338623,5056.230287
21372.007284,-1554.432478,-10436.903782,-383.047749
21372.007618,-4737.318029,-9252.574275,-3370.820191
21372.007951,-4589.276840,-9548.656652,-4290.134789
21372.008284,-1258.350101,-11251.130318,-1915.238745
21372.008617,2294.638420,-8882.471304,-3753.867940
21372.008950,-7698.141797,-14582.057057,-2221.676944
21372.009284,-4737.318029,-9474.636058,-2528.115143
21372.009617,-2368.659014,-9696.697840,2987.772442
21372.009950,4663.297435,-4737.318029,6205.373534
21372.010283,6217.729913,-4737.318029,7890.783629
21372.010617,2960.823768,-8068.244768,4290.134789
21372.010950,1702.473667,-9178.553681,-689.485948
21372.011283,962.267725,-9844.739029,766.095498
21372.011616,2220.617826,-10807.006753,-1608.800546
21372.011950,148.041188,-8512.368333,-2834.553343
21372.012283,-3775.050304,-11325.150913,-6358.592633
21372.012616,-3552.988522,-12879.583391,-3140.991542
21372.012949,-74.020594,-11843.295072,-2374.896044
21372.013283,0.000000,-9548.656652,2451.505594
21372.013616,5329.482782,-7624.121203,8120.612279
21372.013949,2294.638420,-4811.338623,612.876398
21372.014282,3627.009116,-9326.594869,2374.896044
21372.014616,1406.391290,-10436.903782,4903.011187
21372.014949,7031.956449,-4737.318029,2528.115143
21372.015282,3552.988522,-7772.162391,4903.011187
21372.015615,4663.297435,-9474.636058,-2834.553343
21372.015949,-4589.276840,-10955.047942,-6511.811733
21372.016282,-7105.977043,-11325.150913,-4290.134789
21372.016615,1258.350101,-12435.459826,-3753.867940
21372.016948,-2072.576638,-8660.409521,306.438199
21372.017282,4367.215058,-5477.523971,-689.485948
21372.017615,-444.123565,-9548.656652,229.828649
21372.017948,6069.688724,-7105.977043,4749.792088
21372.018281,7105.977043,-9474.636058,6358.592633
21372.018614,11769.274478,-8290.306550,3600.648841
21372.018948,4737.318029,-9548.656652,3447.429741
21372.019281,-74.020594,-14211.954086,-2528.115143
21372.019614,222.061783,-11029.068536,-4903.011187
21372.019947,592.164754,-14211.954086,-229.828649
21372.020281,2442.679609,-9104.533087,153.219100
21372.020614,962.267725,-6957.935855,1532.190996
21372.020947,-3330.926739,-10214.842000,-2374.896044
21372.021280,-2442.679609,-9474.636058,-76.609550
21372.021614,-740.205942,-6587.832884,919.314598
21372.021947,2368.659014,-3627.009116,5056.230287
21372.022280,3330.926739,-6365.771101,536.266849
21372.022613,-3627.009116,-11917.315666,-3677.258390
21372.022947,-5329.482782,-11251.130318,1762.019645
21372.023280,-2368.659014,-8956.491898,-2145.067394
21372.023613,-1258.350101,-11251.130318,459.657299
21372.023946,-1480.411884,-7994.224174,-1378.971896
21372.024280,-4219.173869,-9474.636058,-2528.115143
21372.024613,-5625.565159,-8660.409521,-1838.629195
21372.024946,-2590.720797,-8512.368333,842.705048
21372.025279,-1332.370696,-7624.121203,2451.505594
21372.025613,1184.329507,-2442.679609,2451.505594
21372.025946,-2368.659014,-9844.739029,1608.800546
21372.026279,-1554.432478,-10955.047942,-1915.238745
21372.026612,0.000000,-9104.533087,1225.752797
21372.026946,1406.391290,-12435.459826,2374.896044
21372.027279,3552.988522,-5403.503377,2451.505594
21372.027612,-3997.112087,-12213.398043,153.219100
21372.027945,-2294.638420,-9252.574275,-2987.772442
21372.028278,-2738.761985,-11325.150913,383.047749
21372.028612,2886.803174,-8290.306550,1149.143247
21372.028945,1110.308913,-3923.091493,2068.457845
21372.029278,-2442.679609,-9474.636058,-3524.039291
21372.029611,-3701.029710,-7179.997637,-1838.629195
21372.029945,-2368.659014,-11029.068536,2987.772442
21372.030278,5033.400406,-6291.750507,3064.381992
21372.030611,3997.112087,-8142.265362,4826.401637
21372.030944,3256.906145,-8660.409521,1608.800546
21372.031278,1184.329507,-11029.068536,766.095498
21372.031611,2146.597232,-9474.636058,-1302.362347
21372.031944,592.164754,-11029.068536,-306.438199
21372.032277,0.000000,-7179.997637,-4290.134789
21372.032611,-3256.906145,-11325.150913,-3524.039291
21372.032944,-4219.173869,-10362.883188,-4366.744339
21372.033277,-1258.350101,-7476.080014,-689.485948
21372.033610,3775.050304,-9474.636058,2987.772442
21372.033944,5921.647536,-4959.379811,8273.831378
21372.034277,2442.679609,-6217.729913,2451.505594
21372.034610,2516.700203,-8512.368333,536.266849
21372.034943,4663.297435,-11547.212695,3600.648841
21372.035277,2368.659014,-9548.656652,1838.629195
21372.035610,5847.626942,-11251.130318,3600.648841
21372.035943,-962.267725,-9918.759623,-6128.763984
21372.036276,-6809.894666,-11917.315666,-7048.078582
21372.036610,-2442.679609,-10140.821405,-4749.792088
21372.036943,444.123565,-9474.636058,-919.314598
21372.037276,2590.720797,-6365.771101,2834.553343
21372.037609,4515.256246,-5699.585753,5209.449386
21372.037942,2072.576638,-5107.421000,612.876398
21372.038276,5329.482782,-8808.450710,7277.907231
21372.038609,5847.626942,-9918.759623,3064.381992
21372.038942,4737.318029,-5995.668130,5209.449386
21372.039275,1184.329507,-11325.150913,153.219100
21372.039609,-3330.926739,-12435.459826,-7354.516781
21372.039942,-5181.441594,-12583.501014,-6818.249932
21372.040275,-1850.514855,-13471.748144,-2834.553343
21372.040608,1554.432478,-9400.615463,1915.238745
21372.040942,-74.020594,-9474.636058,2374.896044
21372.041275,-2368.659014,-7328.038826,2757.943793
21372.041608,-2294.638420,-5995.668130,3217.601092
21372.041941,2442.679609,-6439.791695,5515.887586
21372.042275,592.164754,-3627.009116,4903.011187
21372.042608,2294.638420,-8882.471304,1149.143247
21372.042941,-3627.009116,-10510.924376,-4903.011187
21372.043274,-8290.306550,-13101.645173,-1838.629195
21372.043608,-3182.885551,-13027.624579,-4519.963438
21372.043941,-2072.576638,-8956.491898,-2374.896044
21372.044274,-1480.411884,-9474.636058,-536.266849
21372.044607,-3330.926739,-9104.533087,-2221.676944
21372.044941,-3997.112087,-8364.327145,0.000000
21372.045274,-74.020594,-8882.471304,3600.648841
21372.045607,3478.967927,-7698.141797,6052.154434
21372.045940,1184.329507,-3627.009116,7660.954980
21372.046274,1406.391290,-7105.977043,-76.609550
21372.046607,-1258.350101,-9918.759623,-2757.943793
21372.046940,-592.164754,-10732.986159,-1225.752797
21372.047273,1702.473667,-12731.542202,-306.438199
21372.047606,1110.308913,-9178.553681,-919.314598
21372.047940,-2590.720797,-12731.542202,-3524.039291
21372.048273,-3627.009116,-12139.377449,-1991.848295
21372.048606,666.185348,-9474.636058,2068.457845
21372.048939,0.000000,-5995.668130,3983.696590
21372.049273,4367.215058,-7105.977043,2987.772442
21372.049606,-2368.659014,-5921.647536,1455.581446
21372.049939,-2738.761985,-7105.977043,-76.609550
21372.050272,74.020594,-7254.018232,229.828649
21372.050606,1628.453072,-8660.409521,2757.943793
21372.050939,4663.297435,-6143.709319,2068.457845
21372.051272,0.000000,-11917.315666,0.000000
21372.051605,-74.020594,-13027.624579,-4673.182538
21372.051939,-1776.494261,-11917.315666,-3677.258390
21372.052272,0.000000,-13915.871710,-76.609550
21372.052605,2886.803174,-7031.956449,-1149.143247
21372.052938,-2368.659014,-8364.327145,-1838.629195
21372.053272,-1776.494261,-9474.636058,-842.705048
21372.053605,2516.700203,-6957.935855,3600.648841
21372.053938,5181.441594,-7550.100608,5592.497135
21372.054271,8216.285956,-7105.977043,7277.907231
21372.054605,2294.638420,-6587.832884,1225.752797
21372.054938,2294.638420,-10658.965565,-1302.362347
21372.055271,2664.741391,-9696.697840,-2451.505594
21372.055604,1184.329507,-10732.986159,459.657299
21372.055937,2368.659014,-7179.997637,-2451.505594
21372.056271,-2368.659014,-12139.377449,-4060.306139
21372.056604,-5329.482782,-12435.459826,-6128.763984
21372.056937,-3775.050304,-10140.821405,-3217.601092
21372.057270,-74.020594,-12287.418637,2374.896044
21372.057604,4071.132681,-1406.391290,4290.134789
21372.057937,5403.503377,-4367.215058,6741.640382
21372.058270,2368.659014,-7624.121203,4443.353888
21372.058603,4145.153275,-5995.668130,3600.648841
21372.058937,4145.153275,-12805.562797,2911.162892
21372.059270,5255.462188,-7846.182985,306.438199
21372.059603,0.000000,-11917.315666,-76.609550
21372.059936,-4219.173869,-13915.871710,-8350.440928
21372.060270,-5329.482782,-11769.274478,-6281.983084
21372.060603,-4145.153275,-14285.974681,-1225.752797
21372.060936,2368.659014,-7476.080014,2451.505594
21372.061269,-666.185348,-7994.224174,4136.915689
21372.061603,-1850.514855,-7179.997637,2528.115143
21372.061936,2146.597232,-7105.977043,7277.907231
21372.062269,1554.432478,-5107.421000,4290.134789
21372.062602,4737.318029,-5847.626942,6741.640382
21372.062936,1702.473667,-8882.471304,536.266849
21372.063269,-3034.844362,-10140.821405,-5515.887586
21372.063602,-5329.482782,-13915.871710,-5286.058936
21372.063935,-3034.844362,-13767.830521,-5132.839837
21372.064269,-1110.308913,-11029.068536,-1685.410096
21372.064602,-2072.576638,-9474.636058,-1225.752797
21372.064935,-4145.153275,-8290.306550,-3140.991542
21372.065268,-5551.544565,-6587.832884,612.876398
21372.065601,3478.967927,-7105.977043,3600.648841
21372.065935,3108.864956,-3627.009116,4903.011187
21372.066268,2960.823768,-5995.668130,7584.345430
21372.066601,1110.308913,-6809.894666,-1072.533697
21372.066934,-1776.494261,-9252.574275,689.485948
21372.067268,222.061783,-9474.636058,-1608.800546
21372.067601,0.000000,-11621.233289,-2221.676944
21372.067934,-1184.329507,-7179.997637,-3677.258390
21372.068267,-3849.070898,-13767.830521,-3140.991542
21372.068601,-1258.350101,-13619.789333,-1302.362347
21372.068934,-1480.411884,-8364.327145,612.876398
21372.069267,0.000000,-8364.327145,5209.449386
21372.069600,5847.626942,-4737.318029,4136.915689
21372.069934,1480.411884,-7550.100608,2681.334243
21372.070267,1332.370696,-7105.977043,2145.067394
21372.070600,1480.411884,-8660.409521,1838.629195
21372.070933,4145.153275,-8660.409521,1838.629195
21372.071267,4589.276840,-6957.935855,2834.553343
21372.071600,962.267725,-11251.130318,-2221.676944
21372.071933,-1628.453072,-11325.150913,-4826.401637
21372.072266,-1554.432478,-13471.748144,-2528.115143
21372.072600,962.267725,-10658.965565,-1455.581446
21372.072933,592.164754,-7179.997637,3064.381992
21372.073266,2146.597232,-9178.553681,-76.609550
21372.073599,-74.020594,-9474.636058,-76.609550
21372.073933,2294.638420,-7698.141797,3907.087040
21372.074266,4885.359217,-8586.388927,2987.772442
21372.074599,4441.235652,-8808.450710,4826.401637
21372.074932,2590.720797,-7846.182985,1455.581446
21372.075265,-444.123565,-9622.677246,-995.924147
21372.075599,1184.329507,-11029.068536,-76.609550
21372.075932,0.000000,-11029.068536,1685.410096
21372.076265,2886.803174,-7994.224174,-1455.581446
21372.076598,-1036.288319,-8290.306550,-3753.867940
21372.076932,-6439.791695,-11843.295072,-5362.668486
21372.077265,-2146.597232,-9400.615463,-2834.553343
21372.077598,0.000000,-10436.903782,2987.772442
21372.077931,3775.050304,-6069.688724,5745.716235
21372.078265,1480.411884,-7179.997637,3677.258390
21372.078598,-1258.350101,-10658.965565,-76.609550
21372.078931,296.082377,-9474.636058,4826.401637
21372.079264,4663.297435,-9178.553681,2681.334243
21372.079598,2368.659014,-8364.327145,5669.106685
21372.079931,-888.247130,-5995.668130,995.924147
21372.080264,-6587.832884,-8956.491898,-6741.640382
21372.080597,-5255.462188,-10807.006753,-4366.744339
21372.080931,-4737.318029,-11917.315666,-4060.306139
21372.081264,-2294.638420,-9252.574275,-1149.143247
21372.081597,-3552.988522,-5995.668130,-2451.505594
21372.081930,-2146.597232,-11843.295072,-383.047749
21372.082264,-370.102971,-9474.636058,2374.896044
21372.082597,1184.329507,-6587.832884,5056.230287
21372.082930,9400.615463,-7105.977043,9422.974625
21372.083263,3552.988522,-7476.080014,5362.668486
21372.083597,370.102971,-11251.130318,-153.219100
21372.083930,-3256.906145,-8290.306550,-3753.867940
21372.084263,-2368.659014,-11917.315666,-3677.258390
21372.084596,592.164754,-8660.409521,306.438199
21372.084929,-74.020594,-8290.306550,-3753.867940
21372.085263,-4071.132681,-11325.150913,-3064.381992
21372.085596,-4737.318029,-9548.656652,919.314598
21372.085929,4663.297435,-9474.636058,3294.210641
21372.086262,3849.070898,-7476.080014,7048.078582
21372.086596,7328.038826,-4367.215058,5056.230287
21372.086929,1702.473667,-8586.388927,995.924147
21372.087262,2072.576638,-9622.677246,1455.581446
21372.087595,1184.329507,-8364.327145,-306.438199
21372.087929,2368.659014,-10881.027347,-1838.629195
21372.088262,2590.720797,-7920.203579,-1149.143247
21372.088595,-2220.617826,-11399.171507,-6128.763984
21372.088928,-3330.926739,-11843.295072,-4979.620737
21372.089262,-2072.576638,-7179.997637,-2451.505594
21372.089595,4071.132681,-11843.295072,3600.648841
21372.089928,7624.121203,-4737.318029,6205.373534
21372.090261,1184.329507,-8364.327145,4290.134789
21372.090591,1110.308913,-9474.636058,3600.648841
21372.090924,1184.329507,-7846.182985,2757.943793
21372.091258,3330.926739,-8808.450710,2298.286494
21372.091591,2664.741391,-9474.636058,1149.143247
21372.091924,-4737.318029,-8364.327145,-6435.202183
21372.092257,-7994.224174,-10732.986159,-6128.763984
21372.092590,-1850.514855,-11251.130318,-3294.210641
21372.092923,-962.267725,-10658.965565,-689.485948
21372.093256,-2368.659014,-5995.668130,2451.505594
21372.093589,-666.185348,-7698.141797,1762.019645
21372.093923,-1628.453072,-8808.450710,2068.457845
21372.094256,1258.350101,-7402.059420,4060.306139
21372.094589,1850.514855,-10066.800811,2987.772442
21372.094922,4145.153275,-6291.750507,4903.011187
21372.095255,-1924.535449,-8364.327145,306.438199
21372.095588,-962.267725,-10658.965565,-3753.867940
21372.095921,-4737.318029,-10140.821405,-1225.752797
21372.096254,-814.226536,-12435.459826,-2834.553343
21372.096588,444.123565,-6291.750507,-2451.505594
21372.096921,-3627.009116,-10066.800811,-2068.457845
21372.097254,-2368.659014,-8660.409521,-2451.505594
21372.097587,-1480.411884,-8586.388927,2451.505594
21372.097920,4663.297435,-8882.471304,5439.278036
21372.098253,3552.988522,-5995.668130,8273.831378
21372.098586,2294.638420,-7698.141797,2987.772442
21372.098919,0.000000,-7179.997637,0.000000
21372.099252,-74.020594,-11251.130318,-76.609550
21372.099586,2294.638420,-11843.295072,-995.924147
21372.099919,222.061783,-8956.491898,-3064.381992
21372.100252,-1258.350101,-12953.603985,-4060.306139
21372.100585,-4737.318029,-14063.912898,-2528.115143
21372.100918,-5921.647536,-6291.750507,-1455.581446
21372.101251,3478.967927,-9474.636058,3600.648841
21372.101584,1776.494261,-3627.009116,7660.954980
21372.101917,2368.659014,-1850.514855,6894.859482
21372.102251,2294.638420,-8290.306550,1225.752797
21372.102584,1406.391290,-9844.739029,2451.505594
21372.102917,1406.391290,-11251.130318,-766.095498
21372.103250,814.226536,-10436.903782,-1302.362347
21372.103583,222.061783,-9696.697840,-5209.449386
21372.103916,-5403.503377,-12509.480420,-8886.707777
21372.104249,-370.102971,-12435.459826,-4060.306139
21372.104582,1554.432478,-11177.109724,536.266849
21372.104916,5181.441594,-7179.997637,4213.525239
21372.105249,3997.112087,-6143.709319,4290.134789
21372.105582,2590.720797,-6661.853478,1608.800546
21372.105915,3552.988522,-8364.327145,7277.907231
21372.106248,5847.626942,-7698.141797,2374.896044
21372.106581,2960.823768,-7476.080014,2451.505594
21372.106914,3552.988522,-8512.368333,1991.848295
21372.107247,-1554.432478,-12139.377449,-4596.572988
21372.107581,-2960.823768,-10510.924376,-4366.744339
21372.107914,-4515.256246,-11843.295072,-5669.106685
21372.108247,-1184.329507,-11325.150913,-1838.629195
21372.108580,0.000000,-5995.668130,1225.752797
21372.108913,-74.020594,-9474.636058,-76.609550
21372.109246,1110.308913,-8290.306550,2374.896044
21372.109579,-2368.659014,-6587.832884,3370.820191
21372.109912,6439.791695,-9474.636058,6052.154434
21372.110246,1184.329507,-6291.750507,3677.258390
21372.110579,1258.350101,-9030.512492,-2757.943793
21372.110912,-2072.576638,-13915.871710,-2145.067394
21372.111245,222.061783,-11547.212695,-1608.800546
21372.111578,4145.153275,-13249.686362,2757.943793
21372.111911,3478.967927,-9474.636058,2987.772442
21372.112244,518.144159,-6291.750507,0.000000
21372.112577,-7105.977043,-9548.656652,612.876398
21372.112911,-1850.514855,-7994.224174,-1608.800546
21372.113244,-2368.659014,-8512.368333,1149.143247
21372.113577,-740.205942,-6883.915261,2681.334243
21372.113910,-1110.308913,-4885.359217,0.000000
21372.114243,-4811.338623,-9474.636058,-1762.019645
21372.114576,-370.102971,-10066.800811,-76.609550
21372.114909,-370.102971,-9474.636058,-842.705048
21372.115242,592.164754,-7772.162391,2757.943793
21372.115576,2664.741391,-9474.636058,3600.648841
21372.115909,-1258.350101,-9474.636058,-4366.744339
21372.116242,296.082377,-10140.821405,1608.800546
21372.116575,740.205942,-11103.089130,1225.752797
21372.116908,3034.844362,-8068.244768,1302.362347
21372.117241,0.000000,-8660.409521,153.219100
21372.117574,-2442.679609,-12139.377449,-76.609550
21372.117907,0.000000,-7179.997637,383.047749
21372.118241,148.041188,-8512.368333,689.485948
21372.118574,4663.297435,-7105.977043,3600.648841
21372.118907,296.082377,-5995.668130,2451.505594
21372.119240,0.000000,-9548.656652,1991.848295
21372.119573,2294.638420,-8882.471304,-383.047749
21372.119906,-2368.659014,-9548.656652,-4290.134789
21372.120239,888.247130,-9844.739029,842.705048
21372.120572,-1850.514855,-6587.832884,-2451.505594
21372.120905,-3108.864956,-11399.171507,-3447.429741
21372.121239,-3034.844362,-9326.594869,-1608.800546
21372.121572,-296.082377,-9696.697840,919.314598
21372.121905,4663.297435,-8882.471304,5822.325785
21372.122238,3182.885551,-4219.173869,5286.058936
21372.122571,4663.297435,-6365.771101,306.438199
21372.122904,4441.235652,-10362.883188,4826.401637
21372.123237,2442.679609,-11251.130318,1762.019645
21372.123570,2960.823768,-9548.656652,1838.629195
21372.123904,-222.061783,-9326.594869,-3753.867940
21372.124237,-4737.318029,-14434.015869,-5898.935335
21372.124570,-5625.565159,-11473.192101,-6358.592633
21372.124903,-3034.844362,-13027.624579,-4060.306139
21372.125236,0.000000,-7772.162391,4290.134789
21372.125569,814.226536,-3552.988522,4213.525239
21372.125902,3552.988522,-3923.091493,9346.365076
21372.126235,2294.638420,-7105.977043,7277.907231
21372.126569,2886.803174,-4737.318029,2221.676944
21372.126902,2886.803174,-9178.553681,2374.896044
21372.127235,-1776.494261,-9548.656652,-1762.019645
21372.127568,-3108.864956,-10732.986159,-6052.154434
21372.127901,-8364.327145,-13249.686362,-8273.831378
21372.128234,-1406.391290,-12879.583391,-4366.744339
21372.128567,-3256.906145,-10732.986159,612.876398
21372.128900,592.164754,-7179.997637,3983.696590
21372.129234,2294.638420,-7105.977043,1762.019645
21372.129567,0.000000,-5995.668130,3064.381992
21372.129900,7624.121203,-5033.400406,5822.325785
21372.130233,7031.956449,-7698.141797,6818.249932
21372.130566,8512.368333,-6217.729913,3983.696590
21372.130899,2368.659014,-8808.450710,-1532.190996
21372.131232,-1258.350101,-13619.789333,-4979.620737
21372.131565,-2368.659014,-11621.233289,-3447.429741
21372.131899,-2590.720797,-14804.118840,-3753.867940
21372.132232,4071.132681,-9474.636058,-1915.238745
21372.132565,-3552.988522,-7772.162391,-1838.629195
21372.132898,-370.102971,-8290.306550,229.828649
21372.133231,-296.082377,-6735.874072,2374.896044
21372.133564,1998.556043,-9252.574275,5132.839837
21372.133897,5921.647536,-4811.338623,6971.469032
21372.134230,1110.308913,-7105.977043,2068.457845
21372.134564,-1036.288319,-9326.594869,-1991.848295
21372.134897,-222.061783,-10140.821405,-1762.019645
21372.135230,2738.761985,-11769.274478,-1685.410096
21372.135563,2960.823768,-11917.315666,1838.629195
21372.135896,-962.267725,-10066.800811,-2911.162892
21372.136229,-4589.276840,-10140.821405,-6435.202183
21372.136562,-4737.318029,-10881.027347,612.876398
21372.136895,-74.020594,-9474.636058,1762.019645
21372.137229,-666.185348,-3182.885551,2604.724693
21372.137562,74.020594,-5995.668130,2757.943793
21372.137895,-2072.576638,-7402.059420,2145.067394
21372.138228,-2146.597232,-6291.750507,1608.800546
21372.138561,-74.020594,-10658.965565,-76.609550
21372.138894,2886.803174,-8586.388927,-76.609550
21372.139227,-1776.494261,-8660.409521,1685.410096
21372.139560,0.000000,-11621.233289,-76.609550
21372.139894,-666.185348,-10066.800811,-1915.238745
21372.140227,0.000000,-11621.233289,306.438199
21372.140560,3552.988522,-8364.327145,2221.676944
21372.140893,0.000000,-8882.471304,919.314598
21372.141226,-2442.679609,-10732.986159,-2451.505594
21372.141559,-3775.050304,-9770.718434,842.705048
21372.141892,-74.020594,-8882.471304,-689.485948
21372.142225,2368.659014,-5995.668130,6511.811733
21372.142558,1998.556043,-7105.977043,4826.401637
21372.142892,962.267725,-6365.771101,689.485948
21372.143225,-962.267725,-8882.471304,2374.896044
21372.143558,222.061783,-9104.533087,-1225.752797
21372.143891,1036.288319,-9030.512492,-612.876398
21372.144224,-888.247130,-10955.047942,-1991.848295
21372.144557,-2368.659014,-10732.986159,-4903.011187
21372.144890,-5107.421000,-12213.398043,-5362.668486
21372.145223,-74.020594,-11547.212695,-1302.362347
21372.145557,1110.308913,-10214.842000,612.876398
21372.145890,2960.823768,-5995.668130,3983.696590
21372.146223,3997.112087,-6291.750507,3217.601092
21372.146556,2368.659014,-9844.739029,6511.811733
21372.146889,6365.771101,-4811.338623,5209.449386
21372.147222,5847.626942,-8142.265362,4519.963438
21372.147555,8808.450710,-5921.647536,2987.772442
21372.147888,0.000000,-11917.315666,-3064.381992
21372.148222,-2442.679609,-12435.459826,-5286.058936
21372.148555,-1850.514855,-9622.677246,-7354.516781
21372.148888,-4145.153275,-13693.809927,-3370.820191
21372.149221,592.164754,-6587.832884,-2221.676944
21372.149554,-2738.761985,-10066.800811,-689.485948
21372.149887,-740.205942,-9178.553681,2604.724693
21372.150220,3256.906145,-3478.967927,5745.716235
21372.150553,5847.626942,-10658.965565,9422.974625
21372.150887,7698.141797,-1998.556043,8197.221829
21372.151220,2442.679609,-8290.306550,995.924147
21372.151553,-74.020594,-11325.150913,-2987.772442
21372.151886,-1258.350101,-10288.862594,-4519.963438
21372.152219,-2960.823768,-15988.448347,-5515.887586
21372.152552,-1332.370696,-9548.656652,-4903.011187
21372.152885,-2368.659014,-12583.501014,-2528.115143
21372.153218,-74.020594,-10955.047942,-1455.581446
21372.153552,1110.308913,-7994.224174,3600.648841
21372.153885,5403.503377,-8882.471304,7277.907231
21372.154218,5477.523971,-5107.421000,9499.584175
21372.154551,1036.288319,-6957.935855,4290.134789
21372.154884,-370.102971,-8808.450710,229.828649
21372.155217,-1258.350101,-9474.636058,-1302.362347
21372.155550,0.000000,-9548.656652,-2757.943793
21372.155883,-296.082377,-11177.109724,-76.609550
21372.156217,-2442.679609,-10510.924376,-4213.525239
21372.156550,-5921.647536,-8364.327145,-6741.640382
21372.156883,-3330.926739,-12731.542202,-1302.362347
21372.157216,-518.144159,-8364.327145,-383.047749
21372.157549,-444.123565,-7772.162391,2681.334243
21372.157882,1776.494261,-5847.626942,3753.867940
21372.158215,-370.102971,-7402.059420,1532.190996
21372.158548,0.000000,-7328.038826,6052.154434
21372.158882,1702.473667,-8364.327145,612.876398
21372.159215,-1776.494261,-7179.997637,612.876398
21372.159548,2294.638420,-11843.295072,-76.609550
21372.159881,-4811.338623,-11917.315666,-3677.258390
21372.160214,-1110.308913,-9030.512492,-1915.238745
21372.160547,-888.247130,-10584.944971,76.609550
21372.160880,4515.256246,-6809.894666,3600.648841
21372.161213,0.000000,-7179.997637,1225.752797
21372.161547,2220.617826,-12731.542202,3600.648841
21372.161880,-370.102971,-8734.430116,1225.752797
21372.162213,592.164754,-9548.656652,2451.505594
21372.162546,7031.956449,-10658.965565,4826.401637
21372.162879,0.000000,-4811.338623,612.876398
21372.163212,1258.350101,-9474.636058,-1762.019645
21372.163545,-2220.617826,-10140.821405,-1149.143247
21372.163878,1332.370696,-8216.285956,-1532.190996
21372.164211,0.000000,-11325.150913,0.000000
21372.164545,2294.638420,-5477.523971,229.828649
21372.164878,-2294.638420,-10807.006753,0.000000
21372.165211,-444.123565,-7550.100608,306.438199
21372.165544,5255.462188,-9474.636058,2374.896044
21372.165877,4071.132681,-9548.656652,2451.505594
21372.166210,4737.318029,-5403.503377,2987.772442
21372.166543,-74.020594,-14211.954086,-76.609550
21372.166876,1110.308913,-10140.821405,-2298.286494
21372.167210,444.123565,-12435.459826,2681.334243
21372.167543,3478.967927,-9104.533087,766.095498
21372.167876,2812.782580,-6069.688724,306.438199
21372.168209,-1480.411884,-12139.377449,-1608.800546
21372.168542,-1628.453072,-7328.038826,612.876398
21372.168875,-1258.350101,-7772.162391,-1838.629195
21372.169208,1776.494261,-10658.965565,2374.896044
21372.169541,-666.185348,-4959.379811,306.438199
21372.169875,-3256.906145,-7179.997637,0.000000
21372.170208,-296.082377,-8882.471304,-995.924147
21372.170541,-1184.329507,-9992.780217,1225.752797
21372.170874,3182.885551,-11695.253884,1915.238745
21372.171207,2368.659014,-7698.141797,3447.429741
21372.171540,0.000000,-10732.986159,-2145.067394
21372.171873,-2146.597232,-11029.068536,-3677.258390
21372.172206,1554.432478,-10658.965565,-76.609550
21372.172540,-74.020594,-9622.677246,-1455.581446
21372.172873,296.082377,-5995.668130,612.876398
21372.173206,-1184.329507,-7328.038826,612.876398
21372.173539,-370.102971,-8956.491898,1762.019645
21372.173872,1110.308913,-6661.853478,2987.772442
21372.174205,1332.370696,-9400.615463,3370.820191
21372.174538,1998.556043,-7105.977043,1762.019645
21372.174871,-1776.494261,-7179.997637,0.000000
21372.175205,-2442.679609,-11843.295072,-3677.258390
21372.175538,-1554.432478,-8364.327145,-2451.505594
21372.175871,0.000000,-12065.356855,-383.047749
21372.176204,2294.638420,-10658.965565,1149.143247
21372.176537,0.000000,-9178.553681,1302.362347
21372.176870,-1628.453072,-7846.182985,-612.876398
21372.177203,-2220.617826,-7772.162391,612.876398
21372.177536,518.144159,-8956.491898,1302.362347
21372.177870,2516.700203,-8068.244768,7277.907231
21372.178203,1406.391290,-5403.503377,0.000000
21372.178536,-2368.659014,-11325.150913,0.000000
21372.178869,-74.020594,-9474.636058,-1302.362347
21372.179202,2294.638420,-11843.295072,842.705048
21372.179535,2442.679609,-10658.965565,2374.896044
21372.179868,-1184.329507,-6809.894666,-1762.019645
21372.180201,-666.185348,-11399.171507,-2298.286494
21372.180535,-2368.659014,-8956.491898,-1072.533697
21372.180868,0.000000,-12065.356855,1608.800546
21372.181201,1850.514855,-7772.162391,2911.162892
21372.181534,2664.741391,-5699.585753,1532.190996
21372.181867,1998.556043,-12435.459826,1685.410096
21372.182200,2886.803174,-7105.977043,1762.019645
21372.182533,2072.576638,-10732.986159,1762.019645
21372.182866,6735.874072,-11843.295072,4213.525239
21372.183200,0.000000,-5995.668130,1225.752797
21372.183533,814.226536,-10066.800811,-1455.581446
21372.183866,-74.020594,-8882.471304,-1915.238745
21372.184199,-1184.329507,-11177.109724,-1762.019645
21372.184532,1110.308913,-8660.409521,153.219100
21372.184865,-1110.308913,-7550.100608,-919.314598
21372.185198,-3256.906145,-8364.327145,-3370.820191
21372.185531,-3552.988522,-10140.821405,2374.896044
21372.185864,2294.638420,-7846.182985,1608.800546
21372.186198,1406.391290,-7179.997637,2451.505594
21372.186531,2960.823768,-5403.503377,3983.696590
21372.186864,2886.803174,-6883.915261,1225.752797
21372.187197,74.020594,-8882.471304,1455.581446
21372.187530,2368.659014,-10140.821405,306.438199
21372.187863,-1258.350101,-12065.356855,-1225.752797
21372.188196,1184.329507,-9474.636058,-612.876398
21372.188529,-3108.864956,-14063.912898,-1915.238745
21372.188863,-3034.844362,-10140.821405,-4903.011187
21372.189196,-2664.741391,-8660.409521,0.000000
21372.189529,2664.741391,-10658.965565,4060.306139
21372.189862,3849.070898,-4811.338623,9193.145976
21372.190195,2294.638420,-7328.038826,4290.134789
21372.190528,1998.556043,-7698.141797,2528.115143
21372.190861,-74.020594,-8660.409521,1991.848295
21372.191194,3478.967927,-10362.883188,-76.609550
21372.191528,2294.638420,-7698.141797,-76.609550
21372.191861,-6661.853478,-9548.656652,-7354.516781
21372.192194,-3330.926739,-14063.912898,-6205.373534
21372.192527,-4219.173869,-12435.459826,-3753.867940
21372.192860,1702.473667,-12361.439231,2068.457845
21372.193193,518.144159,-5995.668130,2528.115143
21372.193526,1924.535449,-8586.388927,2374.896044
21372.193859,2368.659014,-7994.224174,4826.401637
21372.194193,2368.659014,-5403.503377,4443.353888
21372.194526,7031.956449,-7994.224174,3830.477490
21372.194859,5329.482782,-7105.977043,8503.660028
21372.195192,3478.967927,-8290.306550,-76.609550
21372.195525,-4737.318029,-9696.697840,-4903.011187
21372.195858,-5995.668130,-12805.562797,-5745.716235
21372.196191,-3701.029710,-13101.645173,-6052.154434
21372.196524,-1554.432478,-9918.759623,-2451.505594
21372.196858,-1480.411884,-10510.924376,536.266849
21372.197191,-3552.988522,-7772.162391,0.000000
21372.197524,2886.803174,-5477.523971,3677.258390
21372.197857,6883.915261,-8808.450710,7277.907231
21372.198190,7920.203579,-6143.709319,9422.974625
21372.198523,3330.926739,-5995.668130,3677.258390
21372.198856,-962.267725,-10658.965565,-1915.238745
21372.199189,-1258.350101,-13027.624579,-3753.867940
21372.199523,-2368.659014,-11325.150913,-3370.820191
21372.199856,962.267725,-10955.047942,-383.047749
21372.200189,-2220.617826,-9104.533087,-3983.696590
21372.200522,-4737.318029,-11029.068536,-3370.820191
21372.200855,-2590.720797,-8216.285956,-383.047749
21372.201188,0.000000,-7698.141797,2221.676944
21372.201521,3182.885551,-7920.203579,4826.401637
21372.201854,1776.494261,-4219.173869,4903.011187
21372.202188,-1258.350101,-8734.430116,0.000000
21372.202521,0.000000,-3034.844362,0.000000
21372.202854,2294.638420,-13027.624579,2374.896044
21372.203187,4663.297435,-9474.636058,2374.896044
21372.203520,592.164754,-9104.533087,995.924147
21372.203853,-3627.009116,-13397.727550,-4290.134789
21372.204186,-2368.659014,-10584.944971,-2528.115143
21372.204519,-3108.864956,-11399.171507,-1762.019645
21372.204853,3478.967927,-9474.636058,3600.648841
21372.205186,-2146.597232,-4885.359217,0.000000
21372.205519,-1184.329507,-10732.986159,0.000000
21372.205852,1406.391290,-8882.471304,3294.210641
21372.206185,0.000000,-4811.338623,1225.752797
21372.206518,4663.297435,-10658.965565,4826.401637
21372.206851,4737.318029,-4515.256246,4290.134789
21372.207184,0.000000,-10436.903782,-1225.752797
21372.207517,-222.061783,-11843.295072,-76.609550
21372.207851,-962.267725,-10658.965565,-4060.306139
21372.208184,-2368.659014,-9548.656652,-4290.134789
21372.208517,2072.576638,-10066.800811,1149.143247
21372.208850,-2442.679609,-13027.624579,-5592.497135
21372.209183,-4737.318029,-9548.656652,-3677.258390
21372.209516,-74.020594,-11547.212695,1762.019645
21372.209849,5107.421000,-8660.409521,5898.935335
21372.210182,6809.894666,-5033.400406,9652.803275
21372.210516,3404.947333,-6957.935855,3983.696590
21372.210849,2886.803174,-8290.306550,1762.019645
21372.211182,-888.247130,-8068.244768,1762.019645
21372.211515,2072.576638,-8808.450710,-2987.772442
21372.211848,-814.226536,-9326.594869,-2987.772442
21372.212181,-5921.647536,-10732.986159,-7354.516781
21372.212514,-6513.812290,-14211.954086,-6818.249932
21372.212847,-5773.606348,-8956.491898,-3677.258390
21372.213181,-3552.988522,-9548.656652,1225.752797
21372.213514,3478.967927,-8882.471304,6052.154434
21372.213847,2368.659014,-4219.173869,4903.011187
21372.214180,3182.885551,-8512.368333,5898.935335
21372.214513,4737.318029,-5033.400406,7354.516781
21372.214846,5107.421000,-8216.285956,4903.011187
21372.215179,7031.956449,-8290.306550,5439.278036
21372.215512,2590.720797,-11621.233289,-76.609550
21372.215846,-4959.379811,-11325.150913,-7354.516781
21372.216179,-5477.523971,-12065.356855,-6128.763984
21372.216512,-3478.967927,-13027.624579,-4366.744339
21372.216845,-74.020594,-9770.718434,-1838.629195
21372.217178,-2590.720797,-9474.636058,459.657299
21372.217511,-1332.370696,-8808.450710,383.047749
21372.217844,1110.308913,-7402.059420,5362.668486
21372.218177,6439.791695,-8290.306550,5898.935335
21372.218511,7698.141797,-8734.430116,8963.317327
21372.218844,2664.741391,-3627.009116,4903.011187
21372.219177,1184.329507,-11251.130318,-689.485948
21372.219510,-3552.988522,-10362.883188,-4673.182538
21372.219843,-3330.926739,-11843.295072,-7124.688131
21372.220176,-2368.659014,-10732.986159,-5669.106685
21372.220509,-3108.864956,-8734.430116,-3217.601092
21372.220843,-4293.194464,-11473.192101,-2451.505594
21372.221176,-4441.235652,-8364.327145,0.000000
21372.221509,1702.473667,-9474.636058,2374.896044
21372.221842,3552.988522,-8734.430116,9729.412825
21372.222176,6439.791695,-4737.318029,5439.278036
21372.222509,-2072.576638,-8364.327145,2451.505594
21372.222842,-3256.906145,-7772.162391,0.000000
21372.223176,-1036.288319,-9992.780217,-306.438199
21372.223509,3108.864956,-11843.295072,2374.896044
21372.223842,518.144159,-6291.750507,-689.485948
21372.224175,1406.391290,-13027.624579,-76.609550
21372.224509,-2442.679609,-6291.750507,-3677.258390
21372.224842,-74.020594,-12435.459826,-76.609550
21372.225175,1702.473667,-9474.636058,-383.047749
21372.225508,592.164754,-8068.244768,4213.525239
21372.225842,74.020594,-10140.821405,766.095498
21372.226175,0.000000,-7920.203579,2528.115143
21372.226508,888.247130,-8734.430116,1149.143247
21372.226841,3849.070898,-8438.347739,3983.696590
21372.227175,5847.626942,-6809.894666,5439.278036
21372.227508,1480.411884,-8364.327145,0.000000
21372.227841,-3627.009116,-11177.109724,-1991.848295
21372.228174,-1850.514855,-9992.780217,-3753.867940
21372.228508,-1332.370696,-9548.656652,-2451.505594
21372.228841,2368.659014,-7254.018232,-1532.190996
21372.229174,-1258.350101,-11029.068536,-4290.134789
21372.229507,-4737.318029,-10732.986159,-766.095498
21372.229841,-370.102971,-13027.624579,-76.609550
21372.230174,222.061783,-8734.430116,2604.724693
21372.230507,5033.400406,-7031.956449,8503.660028
21372.230841,3997.112087,-7254.018232,5898.935335
21372.231174,2220.617826,-6883.915261,3830.477490
21372.231507,1258.350101,-7179.997637,2374.896044
21372.231840,2294.638420,-9474.636058,-1302.362347
21372.232174,1110.308913,-8068.244768,-2451.505594
21372.232507,-2516.700203,-11769.274478,-2451.505594
21372.232840,-3034.844362,-14211.954086,-6511.811733
21372.233173,-3775.050304,-11251.130318,-3370.820191
21372.233507,1110.308913,-12287.418637,-76.609550
21372.233840,4737.318029,-6587.832884,4979.620737
21372.234173,1702.473667,-6809.894666,4443.353888
21372.234506,1776.494261,-9178.553681,2451.505594
21372.234840,1850.514855,-7105.977043,4060.306139
21372.235173,2590.720797,-4811.338623,2451.505594
21372.235506,5773.606348,-8290.306550,4826.401637
21372.235839,518.144159,-6513.812290,-3447.429741
21372.236173,-4441.235652,-11621.233289,-4596.572988
21372.236506,-4811.338623,-10362.883188,-6052.154434
21372.236839,-2738.761985,-10510.924376,-4673.182538
21372.237172,-3404.947333,-8734.430116,-4213.525239
21372.237506,-2220.617826,-8808.450710,-2221.676944
21372.237839,-2072.576638,-10732.986159,612.876398
21372.238172,2072.576638,-8586.388927,7277.907231
21372.238506,6439.791695,-9474.636058,2834.553343
21372.238839,4737.318029,-9548.656652,9193.145976
21372.239172,5625.565159,-8290.306550,9729.412825
21372.239505,1702.473667,-9030.512492,-2298.286494
21372.239839,-1110.308913,-10362.883188,-689.485948
21372.240172,-2368.659014,-10140.821405,-4596.572988
21372.240505,592.164754,-10510.924376,-2528.115143
21372.240838,-1184.329507,-7772.162391,-1225.752797
21372.241172,-3108.864956,-12435.459826,-2221.676944
21372.241505,-1406.391290,-9104.533087,1302.362347
21372.241838,1628.453072,-8364.327145,3677.258390
21372.242171,4663.297435,-9474.636058,5439.278036
21372.242505,1406.391290,-7105.977043,4213.525239
21372.242838,0.000000,-7772.162391,306.438199
21372.243171,-1184.329507,-9400.615463,2374.896044
21372.243504,-74.020594,-10066.800811,-1915.238745
21372.243838,-74.020594,-10955.047942,-76.609550
21372.244171,148.041188,-8290.306550,-1915.238745
21372.244504,-1998.556043,-11177.109724,-3447.429741
21372.244838,-1850.514855,-9992.780217,-1072.533697
21372.245171,-666.185348,-10066.800811,-383.047749
21372.245504,3108.864956,-10066.800811,3907.087040
21372.245837,0.000000,-5995.668130,5209.449386
21372.246171,2516.700203,-9474.636058,1762.019645
21372.246504,0.000000,-7772.162391,0.000000
21372.246837,888.247130,-9548.656652,1455.581446
21372.247170,2886.803174,-9326.594869,842.705048
21372.247504,2072.576638,-5921.647536,2374.896044
21372.247837,-2146.597232,-11177.109724,-2911.162892
21372.248170,-3182.885551,-11177.109724,-3140.991542
21372.248503,-3627.009116,-11251.130318,-1302.362347
21372.248837,0.000000,-11251.130318,2145.067394
21372.249170,740.205942,-7698.141797,2987.772442
21372.249503,-74.020594,-7624.121203,-1225.752797
21372.249836,1184.329507,-8364.327145,3064.381992
21372.250170,1554.432478,-8660.409521,2604.724693
21372.250503,1776.494261,-11991.336260,2604.724693
21372.250836,3701.029710,-6143.709319,3447.429741
21372.251169,-592.164754,-11103.089130,-612.876398
21372.251503,0.000000,-8364.327145,-3064.381992
21372.251836,-74.020594,-11843.295072,-1302.362347
21372.252169,-888.247130,-10658.965565,-2528.115143
21372.252503,0.000000,-6291.750507,612.876398
21372.252836,-222.061783,-11547.212695,-76.609550
21372.253169,-1480.411884,-7846.182985,1225.752797
21372.253502,-2516.700203,-7624.121203,-995.924147
21372.253836,2146.597232,-9326.594869,1685.410096
21372.254169,2886.803174,-6069.688724,2451.505594
21372.254502,0.000000,-9548.656652,1225.752797
21372.254835,-74.020594,-11843.295072,-1302.362347
21372.255169,-1480.411884,-8364.327145,0.000000
21372.255502,0.000000,-9548.656652,1225.752797
21372.255835,4663.297435,-11843.295072,2374.896044
21372.256168,0.000000,-7476.080014,-919.314598
21372.256502,-2294.638420,-11769.274478,-2528.115143
21372.256835,-1332.370696,-9474.636058,-153.219100
21372.257168,0.000000,-9030.512492,-229.828649
21372.257501,1480.411884,-6291.750507,3983.696590
21372.257835,2590.720797,-5181.441594,2757.943793
21372.258168,1702.473667,-8142.265362,76.609550
21372.258501,1184.329507,-10140.821405,1915.238745
21372.258834,2294.638420,-10362.883188,995.924147
21372.259168,1184.329507,-8956.491898,1532.190996
21372.259501,1258.350101,-10955.047942,1762.019645
21372.259834,-2442.679609,-10140.821405,-6741.640382
21372.260168,-1628.453072,-10066.800811,-2834.553343
21372.260501,-74.020594,-14804.118840,-76.609550
21372.260834,1406.391290,-9400.615463,1762.019645
21372.261167,74.020594,-6957.935855,2145.067394
21372.261501,-1406.391290,-9474.636058,1225.752797
21372.261834,0.000000,-4811.338623,1838.629195
21372.262167,0.000000,-4811.338623,2451.505594
21372.262500,5847.626942,-8882.471304,2987.772442
21372.262834,0.000000,-5181.441594,-383.047749
21372.263167,-3552.988522,-11325.150913,-1762.019645
21372.263500,-3923.091493,-10066.800811,-2528.115143
21372.263833,-3552.988522,-12805.562797,-2757.943793
21372.264167,-740.205942,-10881.027347,-1378.971896
21372.264500,-1924.535449,-7624.121203,-536.266849
21372.264833,-1110.308913,-9474.636058,-1225.752797
21372.265166,-2368.659014,-8660.409521,3447.429741
21372.265500,3478.967927,-7105.977043,2068.457845
21372.265833,2960.823768,-8364.327145,5822.325785
21372.266166,5847.626942,-8290.306550,4826.401637
21372.266499,0.000000,-8660.409521,-2451.505594
21372.266833,222.061783,-10066.800811,-689.485948
21372.267166,592.164754,-9030.512492,-766.095498
21372.267499,1554.432478,-9696.697840,-536.266849
21372.267833,-666.185348,-8586.388927,-1915.238745
21372.268166,-3404.947333,-12213.398043,-1915.238745
21372.268499,-3923.091493,-11843.295072,-1915.238745
21372.268832,-1850.514855,-7179.997637,0.000000
21372.269166,1332.370696,-10066.800811,3983.696590
21372.269499,1998.556043,-8290.306550,4826.401637
21372.269832,148.041188,-6291.750507,2528.115143
21372.270165,-74.020594,-9844.739029,3370.820191
21372.270499,3182.885551,-6883.915261,1762.019645
21372.270832,1480.411884,-11917.315666,2757.943793
21372.271165,5551.544565,-5921.647536,1762.019645
21372.271498,-1184.329507,-7772.162391,-1532.190996
21372.271832,-3552.988522,-11029.068536,-2451.505594
21372.272165,-74.020594,-11843.295072,-1915.238745
21372.272498,-74.020594,-13619.789333,-1302.362347
21372.272831,2368.659014,-5995.668130,-766.095498
21372.273165,-3108.864956,-11843.295072,-3447.429741
21372.273498,-740.205942,-12435.459826,536.266849
21372.273831,0.000000,-6587.832884,3370.820191
21372.274165,7031.956449,-6809.894666,5745.716235
21372.274498,5773.606348,-4811.338623,5669.106685
21372.274831,1554.432478,-7920.203579,995.924147
21372.275164,222.061783,-9770.718434,-1072.533697
21372.275498,0.000000,-8364.327145,-1225.752797
21372.275831,1776.494261,-11843.295072,-689.485948
21372.276164,-74.020594,-9474.636058,-4979.620737
21372.276497,-4737.318029,-10140.821405,-6128.763984
21372.276831,-2368.659014,-14211.954086,-2528.115143
21372.277164,-2442.679609,-9178.553681,-1762.019645
21372.277497,1184.329507,-9104.533087,2374.896044
21372.277830,3404.947333,-6957.935855,7660.954980
21372.278164,4367.215058,-4589.276840,6435.202183
21372.278497,2960.823768,-7179.997637,6128.763984
21372.278830,5255.462188,-7105.977043,2987.772442
21372.279163,2368.659014,-7179.997637,1149.143247
21372.279497,1480.411884,-8956.491898,1915.238745
21372.279830,-666.185348,-11843.295072,-4366.744339
21372.280163,-7105.977043,-14285.974681,-7048.078582
21372.280496,-5699.585753,-11769.274478,-4979.620737
21372.280830,-3701.029710,-11547.212695,-2528.115143
21372.281163,-518.144159,-8512.368333,1455.581446
21372.281496,1480.411884,-8734.430116,5745.716235
21372.281830,3478.967927,-7105.977043,2374.896044
21372.282163,2368.659014,-5403.503377,7967.393179
21372.282496,4293.194464,-9400.615463,6971.469032
21372.282829,3923.091493,-6587.832884,1838.629195
21372.283163,3256.906145,-8290.306550,2374.896044
21372.283496,0.000000,-10288.862594,-4290.134789
21372.283829,-1998.556043,-13619.789333,-6205.373534
21372.284162,-1406.391290,-14063.912898,-7354.516781
21372.284496,-1850.514855,-16580.613101,-689.485948
21372.284829,0.000000,-4811.338623,-2451.505594
21372.285162,-2368.659014,-10436.903782,1762.019645
21372.285495,814.226536,-7698.141797,2374.896044
21372.285829,1110.308913,-5403.503377,2757.943793
21372.286162,5995.668130,-6513.812290,8503.660028
21372.286495,2960.823768,-4515.256246,4903.011187
21372.286828,-1258.350101,-8956.491898,-612.876398
21372.287162,-2738.761985,-10362.883188,-1838.629195
21372.287495,-4071.132681,-9104.533087,-4826.401637
21372.287828,-592.164754,-11769.274478,-3983.696590
21372.288161,-1628.453072,-9474.636058,-2834.553343
21372.288495,-2072.576638,-11029.068536,-3140.991542
21372.288828,0.000000,-9844.739029,0.000000
21372.289161,0.000000,-8364.327145,3370.820191
21372.289495,4663.297435,-10955.047942,3294.210641
21372.289828,2368.659014,-4811.338623,4903.011187
21372.290161,296.082377,-7179.997637,4136.915689
21372.290494,0.000000,-8364.327145,2451.505594
21372.290828,-1480.411884,-8512.368333,1915.238745
21372.291161,2886.803174,-5921.647536,1149.143247
21372.291494,518.144159,-7031.956449,536.266849
21372.291827,814.226536,-10658.965565,-1302.362347
21372.292161,-3997.112087,-10140.821405,-2528.115143
21372.292494,-1258.350101,-9178.553681,-5592.497135
21372.292827,0.000000,-11917.315666,-919.314598
21372.293160,592.164754,-10140.821405,1762.019645
21372.293494,2294.638420,-9474.636058,-229.828649
21372.293827,-74.020594,-12361.439231,2068.457845
21372.294160,1480.411884,-7254.018232,1378.971896
21372.294493,3478.967927,-9474.636058,3370.820191
21372.294827,4959.379811,-7994.224174,4903.011187
21372.295160,4145.153275,-7476.080014,4826.401637
21372.295493,1184.329507,-9548.656652,2451.505594
21372.295826,2590.720797,-10658.965565,-76.609550
21372.296160,-1406.391290,-8956.491898,-3064.381992
21372.296493,-2072.576638,-7179.997637,-3677.258390
21372.296826,-2442.679609,-9474.636058,-5592.497135
21372.297160,-4737.318029,-12509.480420,-5439.278036
21372.297493,-3923.091493,-10807.006753,-2528.115143
21372.297826,-2442.679609,-11991.336260,0.000000
21372.298159,1702.473667,-5921.647536,5439.278036
21372.298493,4145.153275,-7698.141797,8197.221829
21372.298826,2294.638420,-9474.636058,4826.401637
21372.299159,592.164754,-4811.338623,4596.572988
21372.299492,4071.132681,-9474.636058,3753.867940
21372.299826,2960.823768,-9548.656652,1225.752797
21372.300159,0.000000,-8438.347739,-2604.724693
21372.300492,-2442.679609,-13397.727550,-5745.716235
21372.300825,-3552.988522,-11621.233289,-2834.553343
21372.301159,-3849.070898,-10732.986159,-4290.134789
21372.301492,4071.132681,-11251.130318,-76.609550
21372.301825,1110.308913,-5699.585753,3064.381992
21372.302158,-2368.659014,-5995.668130,3064.381992
21372.302492,3775.050304,-9474.636058,6665.030833
21372.302825,444.123565,-6587.832884,4290.134789
21372.303158,3478.967927,-7994.224174,3753.867940
21372.303492,148.041188,-6291.750507,1762.019645
21372.303825,-1406.391290,-10955.047942,-4443.353888
21372.304158,-4219.173869,-8956.491898,-6128.763984
21372.304491,-3108.864956,-12065.356855,-5439.278036
21372.304825,-1110.308913,-13101.645173,-1378.971896
21372.305158,-1110.308913,-7476.080014,459.657299
21372.305491,-74.020594,-9474.636058,-383.047749
21372.305824,518.144159,-8660.409521,3064.381992
21372.306158,3849.070898,-6291.750507,3677.258390
21372.306491,6439.791695,-10658.965565,7277.907231
21372.306824,3478.967927,-5107.421000,3064.381992
21372.307157,1110.308913,-10436.903782,1149.143247
21372.307491,-3108.864956,-11029.068536,-1608.800546
21372.307824,-1998.556043,-8882.471304,-5209.449386
21372.308157,-3404.947333,-11843.295072,-5898.935335
21372.308490,0.000000,-7179.997637,-4290.134789
21372.308824,-3404.947333,-6587.832884,-2451.505594
21372.309157,1406.391290,-10658.965565,-76.609550
21372.309490,2516.700203,-9474.636058,2987.772442
21372.309823,2442.679609,-9252.574275,4903.011187
21372.310157,4737.318029,-3627.009116,5132.839837
21372.310490,0.000000,-10436.903782,1685.410096
