#time,accel_x,accel_y,accel_z
21888.969730,1480.411884,-8660.409521,-4903.011187
21888.970063,3182.885551,-10066.800811,-5286.058936
21888.970396,2590.720797,-10658.965565,-4136.915689
21888.970730,4441.235652,-10066.800811,-1762.019645
21888.971063,7624.121203,-10362.883188,1762.019645
21888.971397,9474.636058,-9104.533087,6052.154434
21888.971730,11769.274478,-7698.141797,3140.991542
21888.972063,10955.047942,-7772.162391,5822.325785
21888.972397,14137.933492,-9474.636058,4826.401637
21888.972730,12213.398043,-8290.306550,2681.334243
21888.973064,10140.821405,-8290.306550,-1225.752797
21888.973397,7994.224174,-9992.780217,-3294.210641
21888.973730,6069.688724,-11251.130318,-3907.087040
21888.974064,2960.823768,-10140.821405,-5515.887586
21888.974397,4071.132681,-13619.789333,-4979.620737
21888.974731,0.000000,-10732.986159,-4903.011187
21888.975064,1480.411884,-11473.192101,2451.505594
21888.975397,7031.956449,-7994.224174,5439.278036
21888.975731,7105.977043,-4219.173869,7354.516781
21888.976064,10066.800811,-4885.359217,9576.193725
21888.976398,11621.233289,-4737.318029,8733.488677
21888.976731,10140.821405,-5477.523971,4826.401637
21888.977064,9770.718434,-7105.977043,919.314598
21888.977398,6735.874072,-6439.791695,-7354.516781
21888.977731,4737.318029,-10436.903782,-6818.249932
21888.978065,6809.894666,-12213.398043,-6205.373534
21888.978398,5107.421000,-11621.233289,-9806.022374
21888.978731,4737.318029,-11917.315666,-5515.887586
21888.979065,8290.306550,-12435.459826,-1072.533697
21888.979398,11103.089130,-10436.903782,4060.306139
21888.979732,12139.377449,-9622.677246,6358.592633
21888.980065,14804.118840,-7920.203579,9806.022374
21888.980398,15322.262999,-4811.338623,7890.783629
21888.980732,14878.139434,-5329.482782,7737.564530
21888.981065,11843.295072,-5699.585753,4903.011187
21888.981399,8438.347739,-7328.038826,0.000000
21888.981732,3552.988522,-9548.656652,-4290.134789
21888.982065,2886.803174,-10066.800811,-7737.564530
21888.982399,-74.020594,-9622.677246,-9806.022374
21888.982732,0.000000,-11325.150913,-5669.106685
21888.983066,6439.791695,-11843.295072,-1302.362347
21888.983399,9474.636058,-8068.244768,4903.011187
21888.983732,12805.562797,-7254.018232,6741.640382
21888.984066,13693.809927,-6439.791695,5822.325785
21888.984399,13841.851115,-7476.080014,3983.696590
21888.984733,13101.645173,-8882.471304,3447.429741
21888.985066,12953.603985,-8290.306550,-2834.553343
21888.985399,7698.141797,-9548.656652,-4903.011187
21888.985733,8142.265362,-14211.954086,-2528.115143
21888.986066,5847.626942,-10510.924376,-3370.820191
21888.986400,7994.224174,-11843.295072,842.705048
21888.986733,10881.027347,-8586.388927,2145.067394
21888.987066,13471.748144,-8290.306550,4596.572988
21888.987400,15322.262999,-6365.771101,5209.449386
21888.987733,14137.933492,-6217.729913,2374.896044
21888.988067,13545.768739,-7179.997637,0.000000
21888.988400,11843.295072,-10584.944971,1762.019645
21888.988733,11177.109724,-11695.253884,-76.609550
21888.989067,7624.121203,-10214.842000,-5362.668486
21888.989400,9400.615463,-9918.759623,-3753.867940
21888.989734,7624.121203,-10362.883188,-1149.143247
21888.990067,9400.615463,-6069.688724,-76.609550
21888.990400,11547.212695,-7328.038826,2221.676944
21888.990734,11325.150913,-8956.491898,3217.601092
21888.991067,14211.954086,-9252.574275,4903.011187
21888.991401,16506.592507,-11251.130318,4826.401637
21888.991734,12657.521608,-6365.771101,0.000000
21888.992067,11991.336260,-8364.327145,1225.752797
21888.992401,15026.180623,-9474.636058,-842.705048
21888.992734,10584.944971,-11029.068536,-1455.581446
21888.993068,6587.832884,-11251.130318,-3217.601092
21888.993401,3627.009116,-10140.821405,-4903.011187
21888.993734,5921.647536,-9548.656652,0.000000
21888.994068,10066.800811,-7105.977043,3983.696590
21888.994401,11325.150913,-5551.544565,3370.820191
21888.994735,9844.739029,-7772.162391,2757.943793
21888.995068,13545.768739,-12435.459826,4826.401637
21888.995401,12065.356855,-8956.491898,6052.154434
21888.995735,12953.603985,-4811.338623,0.000000
21888.996068,13619.789333,-8216.285956,0.000000
21888.996402,12953.603985,-11251.130318,-3140.991542
21888.996735,7698.141797,-11843.295072,-2298.286494
21888.997069,6661.853478,-11029.068536,-2604.724693
21888.997402,7624.121203,-10955.047942,-2298.286494
21888.997735,11103.089130,-9548.656652,1685.410096
21888.998069,10214.842000,-7624.121203,1685.410096
21888.998402,5921.647536,-8956.491898,459.657299
21888.998736,5181.441594,-8364.327145,0.000000
21888.999069,10214.842000,-10066.800811,3907.087040
21888.999402,12953.603985,-7698.141797,4519.963438
21888.999736,7476.080014,-8216.285956,2987.772442
21889.000069,5255.462188,-11843.295072,-1915.238745
21889.000403,5477.523971,-10436.903782,-2298.286494
21889.000736,6883.915261,-9474.636058,229.828649
21889.001069,8956.491898,-7994.224174,2374.896044
21889.001403,4663.297435,-8290.306550,-76.609550
21889.001736,1184.329507,-11917.315666,-3677.258390
21889.002070,592.164754,-9548.656652,536.266849
21889.002403,4663.297435,-9326.594869,-76.609550
21889.002736,3552.988522,-5107.421000,1225.752797
21889.003070,2294.638420,-7476.080014,-1915.238745
21889.003403,4219.173869,-10955.047942,1685.410096
21889.003737,4441.235652,-8364.327145,919.314598
21889.004070,6439.791695,-11843.295072,2374.896044
21889.004403,5181.441594,-6217.729913,2374.896044
21889.004737,4737.318029,-9400.615463,3600.648841
21889.005070,6439.791695,-10658.965565,2374.896044
21889.005404,1850.514855,-8364.327145,0.000000
21889.005737,4367.215058,-7994.224174,-76.609550
21889.006070,888.247130,-7328.038826,-1762.019645
21889.006404,3256.906145,-8142.265362,-1915.238745
21889.006737,740.205942,-10881.027347,-2298.286494
21889.007071,1924.535449,-9548.656652,-766.095498
21889.007404,2368.659014,-8660.409521,1532.190996
21889.007737,8216.285956,-9474.636058,4213.525239
21889.008071,7402.059420,-8364.327145,3064.381992
21889.008404,4737.318029,-7179.997637,4903.011187
21889.008738,9992.780217,-9474.636058,3294.210641
21889.009071,4737.318029,-9548.656652,0.000000
21889.009404,4367.215058,-12287.418637,-689.485948
21889.009738,-370.102971,-10658.965565,-5132.839837
21889.010071,518.144159,-9030.512492,-3370.820191
21889.010405,-1776.494261,-9844.739029,-2451.505594
21889.010738,1850.514855,-8586.388927,-689.485948
21889.011071,1628.453072,-8956.491898,842.705048
21889.011405,3404.947333,-5329.482782,4213.525239
21889.011738,4071.132681,-11843.295072,4213.525239
21889.012072,6735.874072,-7624.121203,5515.887586
21889.012405,5033.400406,-7920.203579,6128.763984
21889.012738,4663.297435,-8882.471304,536.266849
21889.013072,2368.659014,-8364.327145,-459.657299
21889.013405,-370.102971,-14211.954086,-3753.867940
21889.013739,-814.226536,-10732.986159,-1838.629195
21889.014072,-3330.926739,-8882.471304,-3140.991542
21889.014405,0.000000,-10955.047942,-1838.629195
21889.014739,-2368.659014,-6291.750507,-2451.505594
21889.015072,-370.102971,-5995.668130,0.000000
21889.015406,5551.544565,-6513.812290,4519.963438
21889.015739,5403.503377,-8882.471304,4826.401637
21889.016072,3552.988522,-7772.162391,4903.011187
21889.016406,4959.379811,-8882.471304,4826.401637
21889.016739,1924.535449,-10732.986159,459.657299
21889.017073,1110.308913,-7846.182985,-3294.210641
21889.017406,-1184.329507,-10732.986159,-2451.505594
21889.017739,-2368.659014,-10140.821405,-2911.162892
21889.018073,-3478.967927,-7179.997637,-8580.269578
21889.018406,-3552.988522,-14656.077652,-2528.115143
21889.018740,-962.267725,-8142.265362,-2145.067394
21889.019073,0.000000,-8364.327145,1532.190996
21889.019406,2368.659014,-9548.656652,4903.011187
21889.019740,5255.462188,-5329.482782,4136.915689
21889.020073,2886.803174,-10955.047942,5286.058936
21889.020407,2664.741391,-8438.347739,7584.345430
21889.020740,3478.967927,-7698.141797,2374.896044
21889.021073,0.000000,-10140.821405,3830.477490
21889.021407,-74.020594,-9474.636058,-2834.553343
21889.021740,-4515.256246,-10288.862594,-4903.011187
21889.022074,-5329.482782,-10066.800811,-4290.134789
21889.022407,-2442.679609,-9474.636058,-2834.553343
21889.022740,-6735.874072,-10510.924376,-3983.696590
21889.023074,-2960.823768,-9104.533087,-2451.505594
21889.023407,-222.061783,-8512.368333,2374.896044
21889.023741,-1184.329507,-5699.585753,2451.505594
21889.024074,5847.626942,-9474.636058,6665.030833
21889.024407,518.144159,-6439.791695,3370.820191
21889.024741,1184.329507,-5995.668130,3677.258390
21889.025074,3034.844362,-9474.636058,2987.772442
21889.025408,3182.885551,-7698.141797,-76.609550
21889.025741,-3775.050304,-11843.295072,-2987.772442
21889.026074,-3404.947333,-8512.368333,-3524.039291
21889.026408,-3775.050304,-11695.253884,-5286.058936
21889.026741,-4441.235652,-9548.656652,-3370.820191
21889.027075,1110.308913,-9178.553681,-2528.115143
21889.027408,-370.102971,-13027.624579,1455.581446
21889.027741,3701.029710,-6883.915261,4443.353888
21889.028075,2812.782580,-7476.080014,1685.410096
21889.028408,3108.864956,-11547.212695,5439.278036
21889.028742,5033.400406,-6143.709319,7890.783629
21889.029075,6439.791695,-9474.636058,3600.648841
21889.029408,296.082377,-6291.750507,1838.629195
21889.029742,148.041188,-9770.718434,-2374.896044
21889.030075,-2442.679609,-9474.636058,-5439.278036
21889.030409,-1110.308913,-11177.109724,-2987.772442
21889.030742,-4219.173869,-11251.130318,-5362.668486
21889.031075,-2368.659014,-9030.512492,-3370.820191
21889.031409,-1628.453072,-8364.327145,0.000000
21889.031742,2294.638420,-10658.965565,3600.648841
21889.032076,5847.626942,-6513.812290,3600.648841
21889.032409,2960.823768,-8364.327145,6128.763984
21889.032742,7031.956449,-7105.977043,6052.154434
21889.033076,2960.823768,-8364.327145,3064.381992
21889.033409,2886.803174,-8290.306550,0.000000
21889.033743,1998.556043,-9326.594869,-2145.067394
21889.034076,-2368.659014,-10436.903782,-3217.601092
21889.034409,3552.988522,-8216.285956,-4903.011187
21889.034743,-1850.514855,-20133.601622,-6205.373534
21889.035076,-2368.659014,-10140.821405,0.000000
21889.035410,-2368.659014,-9548.656652,-76.609550
21889.035743,3478.967927,-8882.471304,4519.963438
21889.036076,2960.823768,-7254.018232,5669.106685
21889.036410,2220.617826,-7772.162391,6588.421283
21889.036743,2886.803174,-5921.647536,5822.325785
21889.037077,2590.720797,-7402.059420,2221.676944
21889.037410,1406.391290,-8290.306550,2987.772442
21889.037743,-3034.844362,-7105.977043,-3753.867940
21889.038077,-5921.647536,-10140.821405,-3370.820191
21889.038410,-4811.338623,-10510.924376,-5745.716235
21889.038744,-2442.679609,-9548.656652,-7967.393179
21889.039077,-4737.318029,-12139.377449,-689.485948
21889.039410,0.000000,-9252.574275,-229.828649
21889.039744,-1480.411884,-9696.697840,2987.772442
21889.040077,2294.638420,-7994.224174,4979.620737
21889.040411,4663.297435,-6513.812290,6971.469032
21889.040744,1406.391290,-9400.615463,5822.325785
21889.041077,4663.297435,-4441.235652,3830.477490
21889.041411,-2812.782580,-11103.089130,-919.314598
21889.041744,-3552.988522,-7476.080014,-2451.505594
21889.042078,-7698.141797,-9548.656652,-3677.258390
21889.042411,-3923.091493,-9474.636058,-4979.620737
21889.042744,-3552.988522,-6587.832884,-5822.325785
21889.043078,-2960.823768,-12213.398043,-2374.896044
21889.043411,740.205942,-8956.491898,1838.629195
21889.043745,0.000000,-9400.615463,3677.258390
21889.044078,4959.379811,-8216.285956,5132.839837
21889.044412,3478.967927,-10214.842000,5515.887586
21889.044745,4663.297435,-9474.636058,5439.278036
21889.045078,962.267725,-6661.853478,2604.724693
21889.045412,1702.473667,-7402.059420,-2451.505594
21889.045745,0.000000,-8956.491898,-689.485948
21889.046079,-148.041188,-9474.636058,-76.609550
21889.046412,444.123565,-8586.388927,-2911.162892
21889.046745,-1850.514855,-10955.047942,-1915.238745
21889.047079,-1110.308913,-8364.327145,-3294.210641
21889.047412,1036.288319,-11251.130318,842.705048
21889.047746,4959.379811,-7994.224174,2068.457845
21889.048079,2368.659014,-9548.656652,5209.449386
21889.048412,2664.741391,-7179.997637,1225.752797
21889.048746,3552.988522,-9474.636058,4826.401637
21889.049079,2294.638420,-8512.368333,-1455.581446
21889.049413,814.226536,-8882.471304,-1302.362347
21889.049746,1110.308913,-10955.047942,-2528.115143
21889.050079,0.000000,-11621.233289,-612.876398
21889.050413,444.123565,-7772.162391,536.266849
21889.050746,-296.082377,-10214.842000,383.047749
21889.051080,-74.020594,-9474.636058,1762.019645
21889.051413,-1776.494261,-7772.162391,1532.190996
21889.051746,0.000000,-6587.832884,3064.381992
21889.052080,3478.967927,-8882.471304,2374.896044
21889.052413,592.164754,-7772.162391,1838.629195
21889.052747,222.061783,-8364.327145,0.000000
21889.053080,-370.102971,-11399.171507,459.657299
21889.053413,222.061783,-8586.388927,-383.047749
21889.053747,-2294.638420,-10510.924376,-1608.800546
21889.054080,-3701.029710,-7994.224174,-5209.449386
21889.054414,-2368.659014,-8364.327145,-76.609550
21889.054747,-3034.844362,-8734.430116,-2374.896044
21889.055080,-2220.617826,-5995.668130,2451.505594
21889.055414,592.164754,-8438.347739,3677.258390
21889.055747,1702.473667,-8660.409521,3677.258390
21889.056081,2442.679609,-7105.977043,2987.772442
21889.056414,0.000000,-11177.109724,1915.238745
21889.056747,1998.556043,-7698.141797,459.657299
21889.057081,-3627.009116,-10658.965565,-1225.752797
21889.057414,370.102971,-6513.812290,-2681.334243
21889.057748,-4071.132681,-14211.954086,-3447.429741
21889.058081,814.226536,-10066.800811,-689.485948
21889.058414,-4737.318029,-12287.418637,-153.219100
21889.058748,-74.020594,-8290.306550,153.219100
21889.059081,0.000000,-5403.503377,0.000000
21889.059415,592.164754,-9548.656652,6665.030833
21889.059748,4071.132681,-5921.647536,4519.963438
21889.060081,-2072.576638,-7772.162391,1838.629195
21889.060415,1850.514855,-10955.047942,2451.505594
21889.060748,0.000000,-7254.018232,383.047749
21889.061082,3034.844362,-8956.491898,1455.581446
21889.061415,-74.020594,-10658.965565,-1302.362347
21889.061748,-666.185348,-9474.636058,-6205.373534
21889.062082,-4737.318029,-10288.862594,-3140.991542
21889.062415,-592.164754,-11843.295072,-76.609550
21889.062749,1110.308913,-8586.388927,-1225.752797
21889.063082,1036.288319,-9474.636058,3907.087040
21889.063415,3034.844362,-4811.338623,0.000000
21889.063749,1850.514855,-10362.883188,3140.991542
21889.064082,5551.544565,-7254.018232,3140.991542
21889.064415,4885.359217,-9548.656652,919.314598
21889.064749,7031.956449,-9548.656652,612.876398
21889.065082,6365.771101,-10658.965565,4213.525239
21889.065416,1406.391290,-10732.986159,0.000000
21889.065749,0.000000,-5995.668130,-2451.505594
21889.066082,-1406.391290,-14211.954086,-3753.867940
21889.066416,-1776.494261,-10066.800811,-2451.505594
21889.066749,-1332.370696,-8512.368333,-2451.505594
21889.067082,-2442.679609,-11103.089130,-2528.115143
21889.067416,0.000000,-8956.491898,1532.190996
21889.067749,0.000000,-5403.503377,3677.258390
21889.068083,4663.297435,-9474.636058,6665.030833
21889.068416,4663.297435,-6439.791695,2757.943793
21889.068749,2220.617826,-9622.677246,3064.381992
21889.069083,2960.823768,-6587.832884,0.000000
21889.069416,666.185348,-10362.883188,-153.219100
21889.069749,-4367.215058,-11177.109724,-4749.792088
21889.070083,-296.082377,-10732.986159,-2604.724693
21889.070416,-2442.679609,-11251.130318,-1608.800546
21889.070749,-1776.494261,-13101.645173,-76.609550
21889.071083,-1554.432478,-6661.853478,-2451.505594
21889.071416,-9178.553681,-10732.986159,0.000000
21889.071750,2294.638420,-4145.153275,2374.896044
21889.072083,-2072.576638,-6883.915261,1225.752797
21889.072416,5107.421000,-9326.594869,4826.401637
21889.072750,1554.432478,-7254.018232,5822.325785
21889.073083,-222.061783,-7105.977043,-842.705048
21889.073416,3478.967927,-8882.471304,2374.896044
21889.073750,-2368.659014,-11251.130318,-919.314598
21889.074083,0.000000,-10436.903782,-3447.429741
21889.074417,-5921.647536,-11917.315666,-3447.429741
21889.074750,-4145.153275,-10584.944971,-6741.640382
21889.075083,-3034.844362,-12435.459826,-689.485948
21889.075417,-1776.494261,-7179.997637,0.000000
21889.075750,2368.659014,-8956.491898,5286.058936
21889.076083,1110.308913,-7476.080014,3677.258390
21889.076417,1184.329507,-4811.338623,3677.258390
21889.076750,1110.308913,-8290.306550,3907.087040
21889.077084,3108.864956,-5773.606348,1838.629195
21889.077417,2220.617826,-8808.450710,4443.353888
21889.077750,518.144159,-7254.018232,0.000000
21889.078084,370.102971,-7772.162391,-6818.249932
21889.078417,-4737.318029,-14878.139434,-3140.991542
21889.078750,-74.020594,-11843.295072,-6511.811733
21889.079084,-2738.761985,-11917.315666,-3677.258390
21889.079417,2960.823768,-11843.295072,2374.896044
21889.079750,2738.761985,-8956.491898,1225.752797
21889.080084,3923.091493,-8364.327145,4213.525239
21889.080417,5995.668130,-9178.553681,7124.688131
21889.080751,5255.462188,-6069.688724,6205.373534
21889.081084,2368.659014,-7476.080014,3983.696590
21889.081417,3182.885551,-7698.141797,3600.648841
21889.081751,-1850.514855,-9104.533087,-3677.258390
21889.082084,-3552.988522,-7772.162391,-1838.629195
21889.082417,-1258.350101,-11251.130318,-3753.867940
21889.082751,-3552.988522,-10732.986159,-4903.011187
21889.083084,-1702.473667,-10436.903782,-4443.353888
21889.083418,-4293.194464,-12139.377449,-4749.792088
21889.083751,1110.308913,-8882.471304,-995.924147
21889.084084,3330.926739,-9474.636058,6052.154434
21889.084418,4071.132681,-9474.636058,4213.525239
21889.084751,4737.318029,-4811.338623,6128.763984
21889.085084,4737.318029,-10066.800811,9116.536426
21889.085418,7031.956449,-5921.647536,3600.648841
21889.085751,592.164754,-8364.327145,2451.505594
21889.086084,-962.267725,-10658.965565,-2374.896044
21889.086418,-4441.235652,-9400.615463,-5822.325785
21889.086751,-2738.761985,-11769.274478,-5286.058936
21889.087085,-1850.514855,-10658.965565,-2528.115143
21889.087418,-2294.638420,-9992.780217,-2451.505594
21889.087751,-592.164754,-9844.739029,1838.629195
21889.088085,-1036.288319,-8438.347739,2221.676944
21889.088418,444.123565,-5995.668130,1378.971896
21889.088751,0.000000,-7772.162391,9806.022374
21889.089085,4885.359217,-3552.988522,3447.429741
21889.089418,3478.967927,-8290.306550,3294.210641
21889.089752,-2368.659014,-6587.832884,0.000000
21889.090085,-2442.679609,-10066.800811,-4979.620737
21889.090418,-5773.606348,-9548.656652,-3907.087040
21889.090752,-5625.565159,-12657.521608,-8350.440928
21889.091085,-4293.194464,-9770.718434,-3140.991542
21889.091418,-3997.112087,-9696.697840,-2145.067394
21889.091752,1702.473667,-8586.388927,0.000000
21889.092085,5847.626942,-9474.636058,5439.278036
21889.092419,3923.091493,-7920.203579,6281.983084
21889.092752,2368.659014,-7179.997637,7354.516781
21889.093085,2516.700203,-8068.244768,2068.457845
21889.093419,1036.288319,-9474.636058,995.924147
21889.093752,2072.576638,-5847.626942,1685.410096
21889.094085,1332.370696,-8882.471304,-229.828649
21889.094419,1998.556043,-8290.306550,-3753.867940
21889.094752,0.000000,-11325.150913,-4596.572988
21889.095085,-3330.926739,-11917.315666,-6205.373534
21889.095419,0.000000,-10140.821405,-2451.505594
21889.095752,-74.020594,-13027.624579,-76.609550
21889.096086,5847.626942,-7105.977043,4213.525239
21889.096419,3849.070898,-8512.368333,4749.792088
21889.096752,6069.688724,-8142.265362,7431.126331
21889.097086,4663.297435,-6365.771101,3294.210641
21889.097419,2368.659014,-9178.553681,4443.353888
21889.097752,4145.153275,-6957.935855,2068.457845
21889.098086,-6809.894666,-10732.986159,-3677.258390
21889.098419,-3552.988522,-7772.162391,-2681.334243
21889.098753,-1850.514855,-11251.130318,-3753.867940
21889.099086,-1998.556043,-8068.244768,-1532.190996
21889.099419,-814.226536,-8586.388927,-1915.238745
21889.099753,2146.597232,-9252.574275,383.047749
21889.100086,1998.556043,-10955.047942,2987.772442
21889.100419,2072.576638,-7031.956449,2298.286494
21889.100753,3478.967927,-11843.295072,3600.648841
21889.101086,0.000000,-7179.997637,4826.401637
21889.101419,2294.638420,-9474.636058,842.705048
21889.101753,-1258.350101,-7772.162391,0.000000
21889.102086,-3552.988522,-7179.997637,-3677.258390
21889.102420,-3034.844362,-10658.965565,-2834.553343
21889.102753,-2072.576638,-8882.471304,-612.876398
21889.103086,-5625.565159,-10362.883188,-1838.629195
21889.103420,-1036.288319,-5699.585753,1915.238745
21889.103753,2294.638420,-8290.306550,995.924147
21889.104086,3330.926739,-9104.533087,5286.058936
21889.104420,1406.391290,-7179.997637,2911.162892
21889.104753,-222.061783,-12065.356855,1455.581446
21889.105087,0.000000,-9548.656652,0.000000
21889.105420,-1258.350101,-10658.965565,-2528.115143
21889.105753,-1110.308913,-7550.100608,-2987.772442
21889.106087,-1776.494261,-9400.615463,-76.609550
21889.106420,-2442.679609,-11103.089130,-2451.505594
21889.106753,-2368.659014,-5995.668130,0.000000
21889.107087,-74.020594,-10955.047942,1685.410096
21889.107420,666.185348,-5921.647536,995.924147
21889.107754,-296.082377,-8512.368333,1608.800546
21889.108087,2886.803174,-8290.306550,2298.286494
21889.108420,5255.462188,-7698.141797,1762.019645
21889.108754,0.000000,-12509.480420,3064.381992
21889.109087,5329.482782,-8956.491898,5439.278036
21889.109420,1110.308913,-10955.047942,1532.190996
21889.109754,2368.659014,-8364.327145,-76.609550
21889.110087,-1998.556043,-11769.274478,-4519.963438
21889.110420,-1998.556043,-10955.047942,-2604.724693
21889.110754,-666.185348,-10066.800811,-2528.115143
21889.111087,518.144159,-11251.130318,842.705048
21889.111421,2294.638420,-7105.977043,-76.609550
21889.111754,1184.329507,-8364.327145,4749.792088
21889.112087,4515.256246,-5181.441594,2987.772442
21889.112421,3182.885551,-5699.585753,1225.752797
21889.112754,3775.050304,-10658.965565,3294.210641
21889.113087,5403.503377,-6587.832884,2604.724693
21889.113421,518.144159,-13545.768739,153.219100
21889.113754,1554.432478,-8882.471304,-1378.971896
21889.114088,-2072.576638,-11325.150913,-3677.258390
21889.114421,-1258.350101,-11103.089130,-4903.011187
21889.114754,-4145.153275,-10732.986159,-1225.752797
21889.115088,-1258.350101,-11251.130318,-2528.115143
21889.115421,-2960.823768,-7550.100608,-2145.067394
21889.115754,0.000000,-7179.997637,3064.381992
21889.116088,3997.112087,-4737.318029,5209.449386
21889.116421,2886.803174,-7105.977043,6971.469032
21889.116754,2960.823768,-7920.203579,3907.087040
21889.117088,4071.132681,-9178.553681,3907.087040
21889.117421,-2368.659014,-8660.409521,612.876398
21889.117755,-74.020594,-10066.800811,-3447.429741
21889.118088,-2442.679609,-11843.295072,-4136.915689
21889.118421,-3552.988522,-11325.150913,-3294.210641
21889.118755,-5625.565159,-10732.986159,-3447.429741
21889.119088,-1850.514855,-10066.800811,-1915.238745
21889.119421,-3182.885551,-9770.718434,0.000000
21889.119755,-370.102971,-6735.874072,1225.752797
21889.120088,-74.020594,-8142.265362,6052.154434
21889.120422,-1776.494261,-4219.173869,6128.763984
21889.120755,2590.720797,-5625.565159,3447.429741
21889.121088,3256.906145,-6587.832884,2681.334243
21889.121422,1554.432478,-12287.418637,2451.505594
21889.121755,3478.967927,-9178.553681,-76.609550
21889.122088,-4737.318029,-14285.974681,-6741.640382
21889.122422,-3256.906145,-11843.295072,-4979.620737
21889.122755,-3923.091493,-12731.542202,-4903.011187
21889.123089,-2294.638420,-7402.059420,-3983.696590
21889.123422,1850.514855,-9326.594869,-76.609550
21889.123755,296.082377,-10436.903782,2068.457845
21889.124089,5477.523971,-6883.915261,7354.516781
21889.124422,3478.967927,-6069.688724,7277.907231
21889.124755,4367.215058,-7105.977043,2987.772442
21889.125089,1776.494261,-5403.503377,4290.134789
21889.125422,2294.638420,-9474.636058,1762.019645
21889.125755,2886.803174,-7105.977043,-1149.143247
21889.126089,0.000000,-9548.656652,-1838.629195
21889.126422,-1258.350101,-14063.912898,-6052.154434
21889.126756,-2072.576638,-11399.171507,-4673.182538
21889.127089,-1850.514855,-12139.377449,-4903.011187
21889.127422,-2072.576638,-10140.821405,-3064.381992
21889.127756,2664.741391,-7179.997637,1225.752797
21889.128089,296.082377,-11473.192101,6665.030833
21889.128422,5847.626942,-4737.318029,5745.716235
21889.128756,7031.956449,-5403.503377,4290.134789
21889.129089,7624.121203,-9474.636058,9729.412825
21889.129423,3849.070898,-4959.379811,4290.134789
21889.129756,666.185348,-6735.874072,-1838.629195
21889.130089,-1924.535449,-12805.562797,-3294.210641
21889.130423,-2738.761985,-9548.656652,-7048.078582
21889.130756,-3997.112087,-14285.974681,-4596.572988
21889.131089,-1258.350101,-13027.624579,-1302.362347
21889.131423,-4219.173869,-10732.986159,-5822.325785
21889.131756,-4145.153275,-12287.418637,1225.752797
21889.132089,4071.132681,-8882.471304,2374.896044
21889.132423,0.000000,-5403.503377,4903.011187
21889.132756,5403.503377,-7031.956449,9422.974625
21889.133090,4367.215058,-6365.771101,6052.154434
21889.133423,2960.823768,-7624.121203,5056.230287
21889.133756,0.000000,-7772.162391,0.000000
21889.134090,-74.020594,-12731.542202,-1455.581446
21889.134423,-3330.926739,-9548.656652,-4979.620737
21889.134756,-6069.688724,-13693.809927,-5132.839837
21889.135090,-2738.761985,-8290.306550,-5592.497135
21889.135423,-6439.791695,-12805.562797,-3370.820191
21889.135757,-888.247130,-7402.059420,-76.609550
21889.136090,-74.020594,-11103.089130,4826.401637
21889.136423,3182.885551,-7698.141797,6281.983084
21889.136757,3182.885551,-2368.659014,6052.154434
21889.137090,222.061783,-9104.533087,4290.134789
21889.137423,3182.885551,-4293.194464,4213.525239
21889.137757,-518.144159,-7476.080014,-1991.848295
21889.138090,0.000000,-10732.986159,-1225.752797
21889.138424,-74.020594,-9474.636058,-4903.011187
21889.138757,-2442.679609,-16580.613101,-7431.126331
21889.139090,-4145.153275,-11029.068536,-3677.258390
21889.139424,-5921.647536,-10288.862594,-3677.258390
21889.139757,592.164754,-9844.739029,1225.752797
21889.140090,962.267725,-6587.832884,4596.572988
21889.140424,2812.782580,-6143.709319,3217.601092
21889.140757,3256.906145,-5995.668130,7507.735880
21889.141090,4367.215058,-8290.306550,6665.030833
21889.141424,3478.967927,-4811.338623,2757.943793
21889.141757,-74.020594,-9474.636058,-689.485948
21889.142091,592.164754,-8364.327145,-2451.505594
21889.142424,-1110.308913,-9474.636058,-153.219100
21889.142757,-74.020594,-10658.965565,-3217.601092
21889.143091,1480.411884,-8660.409521,-5056.230287
21889.143424,-2812.782580,-16136.489536,-3524.039291
21889.143757,-2886.803174,-11843.295072,-4749.792088
21889.144091,2442.679609,-10955.047942,383.047749
21889.144424,4737.318029,-7772.162391,7507.735880
21889.144758,8216.285956,-2738.761985,5209.449386
21889.145091,4663.297435,-5995.668130,7354.516781
21889.145424,5551.544565,-9178.553681,3600.648841
21889.145758,3478.967927,-6513.812290,1149.143247
21889.146091,296.082377,-10510.924376,-995.924147
21889.146424,-962.267725,-9992.780217,-4060.306139
21889.146758,-5699.585753,-11325.150913,-6281.983084
21889.147091,-3552.988522,-11325.150913,-3524.039291
21889.147424,1998.556043,-10658.965565,-76.609550
21889.147758,-3552.988522,-9548.656652,1225.752797
21889.148091,518.144159,-8216.285956,1225.752797
21889.148425,-1850.514855,-13619.789333,1762.019645
21889.148758,-74.020594,-5329.482782,1455.581446
21889.149091,2294.638420,-8734.430116,4213.525239
21889.149425,3775.050304,-6365.771101,5209.449386
21889.149758,2146.597232,-8586.388927,3294.210641
21889.150091,-1998.556043,-9326.594869,-995.924147
21889.150425,-74.020594,-8882.471304,-3447.429741
21889.150758,-5033.400406,-13471.748144,-2834.553343
21889.151092,1184.329507,-7402.059420,-1072.533697
21889.151425,-4367.215058,-12953.603985,-1225.752797
21889.151758,-2368.659014,-8364.327145,0.000000
21889.152092,-740.205942,-9474.636058,2374.896044
21889.152425,2294.638420,-4737.318029,76.609550
21889.152758,2368.659014,-8364.327145,6511.811733
21889.153092,2886.803174,-9474.636058,4826.401637
21889.153425,1702.473667,-6291.750507,0.000000
21889.153759,-592.164754,-8068.244768,766.095498
21889.154092,3034.844362,-8068.244768,-3294.210641
21889.154425,-1332.370696,-14582.057057,-612.876398
21889.154759,0.000000,-8660.409521,-612.876398
21889.155092,-2812.782580,-11843.295072,-1608.800546
21889.155425,-2960.823768,-8364.327145,0.000000
21889.155759,-2368.659014,-5403.503377,0.000000
21889.156092,2294.638420,-8290.306550,2374.896044
21889.156425,0.000000,-5995.668130,3064.381992
21889.156759,2294.638420,-6661.853478,1225.752797
21889.157092,592.164754,-9696.697840,1685.410096
21889.157426,1998.556043,-8586.388927,536.266849
21889.157759,1702.473667,-10066.800811,-76.609550
21889.158092,2590.720797,-14211.954086,-76.609550
21889.158426,0.000000,-9548.656652,1685.410096
21889.158759,-74.020594,-7698.141797,-1915.238745
21889.159092,1702.473667,-11695.253884,-3753.867940
21889.159426,-74.020594,-12953.603985,2374.896044
21889.159759,1036.288319,-7476.080014,0.000000
21889.160093,3330.926739,-9474.636058,2068.457845
21889.160426,2960.823768,-9770.718434,3907.087040
21889.160759,3552.988522,-4219.173869,2451.505594
21889.161093,3182.885551,-10658.965565,2911.162892
21889.161426,2368.659014,-7772.162391,4519.963438
21889.161759,4367.215058,-11251.130318,2374.896044
21889.162093,0.000000,-7179.997637,-1225.752797
21889.162426,-1702.473667,-9474.636058,-4060.306139
21889.162759,-4663.297435,-12953.603985,-3140.991542
21889.163093,-3404.947333,-10140.821405,-3064.381992
21889.163426,-2590.720797,-9770.718434,-2374.896044
21889.163759,-1776.494261,-9474.636058,306.438199
21889.164092,0.000000,-5403.503377,3677.258390
21889.164426,3478.967927,-7994.224174,5745.716235
21889.164759,2886.803174,-3034.844362,2451.505594
21889.165092,1924.535449,-10510.924376,4060.306139
21889.165425,3034.844362,-8290.306550,-76.609550
21889.165758,740.205942,-10658.965565,1072.533697
21889.166092,-1110.308913,-10436.903782,-995.924147
21889.166425,-3034.844362,-11843.295072,-2068.457845
21889.166758,-3849.070898,-11473.192101,-2451.505594
21889.167091,-4737.318029,-8956.491898,-2451.505594
21889.167424,-1850.514855,-6291.750507,-3907.087040
21889.167758,-1628.453072,-12435.459826,1149.143247
21889.168091,-296.082377,-7179.997637,2604.724693
21889.168424,-1776.494261,-6291.750507,2604.724693
21889.168757,1110.308913,-3182.885551,306.438199
21889.169090,3552.988522,-9252.574275,5439.278036
21889.169423,6439.791695,-8290.306550,2298.286494
21889.169757,2294.638420,-11843.295072,2374.896044
21889.170090,592.164754,-10881.027347,-76.609550
21889.170423,-3552.988522,-12509.480420,-3677.258390
21889.170756,-888.247130,-8512.368333,-2221.676944
21889.171089,-2738.761985,-11621.233289,-2528.115143
21889.171423,-74.020594,-9474.636058,-1302.362347
21889.171756,-4737.318029,-7772.162391,-1225.752797
21889.172089,-2960.823768,-7179.997637,0.000000
21889.172422,4367.215058,-7105.977043,2987.772442
21889.172755,0.000000,-5995.668130,4903.011187
21889.173089,4663.297435,-7994.224174,2987.772442
21889.173422,1332.370696,-6809.894666,1991.848295
21889.173755,1332.370696,-10807.006753,-1378.971896
21889.174088,3627.009116,-9696.697840,689.485948
21889.174421,2294.638420,-11547.212695,-2834.553343
21889.174755,0.000000,-12509.480420,306.438199
21889.175088,1702.473667,-11843.295072,-76.609550
21889.175421,-74.020594,-10066.800811,-6052.154434
21889.175754,-2368.659014,-11325.150913,919.314598
21889.176087,518.144159,-6957.935855,-2451.505594
21889.176420,2516.700203,-9178.553681,5669.106685
21889.176754,3552.988522,-4219.173869,5209.449386
21889.177087,4071.132681,-8364.327145,5515.887586
21889.177420,2960.823768,-4811.338623,2757.943793
21889.177753,1776.494261,-11029.068536,3600.648841
21889.178086,-74.020594,-8882.471304,-2834.553343
21889.178420,-3552.988522,-9548.656652,-6128.763984
21889.178753,-592.164754,-13471.748144,-1302.362347
21889.179086,-2146.597232,-7550.100608,-3677.258390
21889.179419,-1702.473667,-11251.130318,-2451.505594
21889.179752,592.164754,-7846.182985,-306.438199
21889.180086,-370.102971,-11843.295072,995.924147
21889.180419,1480.411884,-6883.915261,0.000000
21889.180752,2368.659014,-7402.059420,5439.278036
21889.181085,296.082377,-8364.327145,4903.011187
21889.181418,4811.338623,-4737.318029,3983.696590
21889.181752,-74.020594,-12435.459826,4826.401637
21889.182085,2886.803174,-6513.812290,-1225.752797
21889.182418,-4737.318029,-10140.821405,0.000000
21889.182751,-1258.350101,-10362.883188,-4979.620737
21889.183084,-3034.844362,-12731.542202,-3600.648841
21889.183417,-2738.761985,-11103.089130,-1608.800546
21889.183751,-370.102971,-7179.997637,-4290.134789
21889.184084,-1628.453072,-11695.253884,229.828649
21889.184417,2664.741391,-9326.594869,3907.087040
21889.184750,444.123565,-5699.585753,3217.601092
21889.185083,2294.638420,-7698.141797,842.705048
21889.185417,1184.329507,-7772.162391,4749.792088
21889.185750,1998.556043,-7105.977043,2528.115143
21889.186083,3330.926739,-7179.997637,1532.190996
21889.186416,0.000000,-8142.265362,-995.924147
21889.186749,-2960.823768,-9548.656652,-3983.696590
21889.187083,-4219.173869,-11251.130318,-5132.839837
21889.187416,-2368.659014,-10214.842000,-4060.306139
21889.187749,-4441.235652,-9992.780217,-3064.381992
21889.188082,-74.020594,-8808.450710,0.000000
21889.188415,1776.494261,-5181.441594,3294.210641
21889.188749,3478.967927,-10066.800811,383.047749
21889.189082,2664.741391,-7179.997637,3677.258390
21889.189415,5921.647536,-8364.327145,4903.011187
21889.189748,3701.029710,-9696.697840,3907.087040
21889.190081,3923.091493,-8586.388927,1685.410096
21889.190414,1184.329507,-11325.150913,-842.705048
21889.190748,814.226536,-11251.130318,-1915.238745
21889.191081,-1480.411884,-8364.327145,-3677.258390
21889.191414,-1258.350101,-12287.418637,-4060.306139
21889.191747,518.144159,-7179.997637,-3064.381992
21889.192080,-3849.070898,-12435.459826,-76.609550
21889.192414,2294.638420,-7105.977043,2374.896044
21889.192747,-1628.453072,-9770.718434,4060.306139
21889.193080,4737.318029,-4367.215058,3600.648841
21889.193413,2368.659014,-9474.636058,4060.306139
21889.193746,2738.761985,-5551.544565,3600.648841
21889.194080,3552.988522,-9104.533087,7277.907231
21889.194413,-666.185348,-8364.327145,-3370.820191
21889.194746,740.205942,-10066.800811,-3677.258390
21889.195079,-4515.256246,-14211.954086,-3140.991542
21889.195412,3478.967927,-9474.636058,-2528.115143
21889.195746,-5921.647536,-14063.912898,-2834.553343
21889.196079,-1554.432478,-9474.636058,-1762.019645
21889.196412,-1554.432478,-7254.018232,1302.362347
21889.196745,0.000000,-10140.821405,3294.210641
21889.197078,5625.565159,-2072.576638,5745.716235
21889.197411,1110.308913,-12139.377449,3753.867940
21889.197745,7772.162391,-4959.379811,7124.688131
21889.198078,-1776.494261,-7402.059420,1838.629195
21889.198411,1406.391290,-8364.327145,-2451.505594
21889.198744,-1628.453072,-8364.327145,-1608.800546
21889.199077,-2442.679609,-14211.954086,-5286.058936
21889.199411,-2886.803174,-9548.656652,-3064.381992
21889.199744,-6735.874072,-13471.748144,-3294.210641
21889.200077,-666.185348,-8734.430116,-4060.306139
21889.200410,-1258.350101,-10066.800811,2681.334243
21889.200743,3256.906145,-7179.997637,4290.134789
21889.201077,3034.844362,-4737.318029,4443.353888
21889.201410,1184.329507,-9252.574275,4903.011187
21889.201743,4663.297435,-6809.894666,2221.676944
21889.202076,-1776.494261,-8364.327145,1225.752797
21889.202409,0.000000,-8364.327145,1455.581446
21889.202743,-74.020594,-8882.471304,-1915.238745
21889.203076,-4145.153275,-7179.997637,-5822.325785
21889.203409,-666.185348,-10362.883188,-4979.620737
21889.203742,-3330.926739,-13693.809927,-3447.429741
21889.204075,2368.659014,-9030.512492,-536.266849
21889.204408,2294.638420,-13027.624579,4213.525239
21889.204742,1480.411884,-4811.338623,612.876398
21889.205075,4737.318029,-8364.327145,6894.859482
21889.205408,3478.967927,-7402.059420,2451.505594
21889.205741,3552.988522,-4811.338623,2451.505594
21889.206074,-74.020594,-11843.295072,4213.525239
21889.206408,2590.720797,-7179.997637,0.000000
21889.206741,-3034.844362,-9030.512492,-1378.971896
21889.207074,-2738.761985,-10288.862594,-3370.820191
21889.207407,-1554.432478,-7031.956449,-3600.648841
21889.207740,-1258.350101,-11843.295072,-1455.581446
21889.208074,-1776.494261,-5995.668130,-4903.011187
21889.208407,-1776.494261,-10140.821405,5745.716235
21889.208740,1110.308913,-6513.812290,306.438199
21889.209073,1184.329507,-7179.997637,3064.381992
21889.209406,3552.988522,-11547.212695,4519.963438
21889.209740,5255.462188,-8068.244768,3600.648841
21889.210073,1776.494261,-9030.512492,3370.820191
21889.210406,3256.906145,-9178.553681,2068.457845
21889.210739,-2442.679609,-11473.192101,-2451.505594
21889.211072,888.247130,-10362.883188,-689.485948
21889.211405,-666.185348,-13397.727550,-76.609550
21889.211739,-1258.350101,-7179.997637,-3064.381992
21889.212072,-3552.988522,-7179.997637,0.000000
21889.212405,-3108.864956,-10066.800811,4443.353888
21889.212738,2368.659014,-4515.256246,4060.306139
21889.213071,-2886.803174,-11029.068536,2374.896044
21889.213405,5847.626942,-7105.977043,4519.963438
21889.213738,-740.205942,-8364.327145,1838.629195
21889.214071,1554.432478,-9770.718434,612.876398
21889.214404,-296.082377,-8586.388927,-1608.800546
21889.214737,-3404.947333,-12805.562797,-1225.752797
21889.215071,1702.473667,-11251.130318,-689.485948
21889.215404,-1850.514855,-10140.821405,-2451.505594
21889.215737,-3552.988522,-9548.656652,306.438199
21889.216070,-74.020594,-8882.471304,536.266849
21889.216403,0.000000,-7772.162391,3370.820191
21889.216737,2368.659014,-7772.162391,4519.963438
21889.217070,1184.329507,-8068.244768,4290.134789
21889.217403,1998.556043,-6957.935855,1762.019645
21889.217736,1702.473667,-8512.368333,459.657299
21889.218069,1702.473667,-7105.977043,-76.609550
21889.218402,-1850.514855,-9548.656652,0.000000
21889.218736,-370.102971,-8290.306550,-4979.620737
21889.219069,-4219.173869,-12361.439231,-7201.297681
21889.219402,-3552.988522,-13101.645173,-2451.505594
21889.219735,2294.638420,-9474.636058,-1302.362347
21889.220068,-1110.308913,-9918.759623,689.485948
21889.220402,3256.906145,-8512.368333,1991.848295
21889.220735,5181.441594,-8068.244768,6741.640382
21889.221068,2960.823768,-7772.162391,4903.011187
21889.221401,2368.659014,-3034.844362,6128.763984
21889.221734,4071.132681,-10066.800811,1455.581446
21889.222068,1924.535449,-6587.832884,0.000000
21889.222401,0.000000,-9548.656652,-153.219100
21889.222734,-1850.514855,-10732.986159,-4903.011187
21889.223067,-3108.864956,-10584.944971,-3447.429741
21889.223400,-4515.256246,-10584.944971,-5439.278036
21889.223733,-1924.535449,-9770.718434,-766.095498
21889.224067,-4737.318029,-9770.718434,-2145.067394
21889.224400,1924.535449,-9326.594869,2987.772442
21889.224733,1702.473667,-8142.265362,3907.087040
21889.225066,2368.659014,-6291.750507,6205.373534
21889.225399,4515.256246,-8142.265362,7277.907231
21889.225733,3478.967927,-5403.503377,1532.190996
21889.226066,3404.947333,-9104.533087,3447.429741
21889.226399,1998.556043,-8216.285956,0.000000
21889.226732,1480.411884,-12361.439231,-1991.848295
21889.227065,-2960.823768,-13619.789333,-4903.011187
21889.227399,666.185348,-11547.212695,-3753.867940
21889.227732,-5033.400406,-13397.727550,-2987.772442
21889.228065,-2368.659014,-9844.739029,-1149.143247
21889.228398,-1998.556043,-7698.141797,-1302.362347
21889.228731,-4737.318029,-8364.327145,-1838.629195
21889.229065,3552.988522,-74.020594,4903.011187
21889.229398,3478.967927,-11251.130318,9729.412825
21889.229731,9104.533087,-3552.988522,8886.707777
21889.230064,1702.473667,-5921.647536,4213.525239
21889.230397,-74.020594,-13027.624579,-1608.800546
21889.230730,0.000000,-10288.862594,-2221.676944
21889.231064,-6143.709319,-12805.562797,-7814.174080
21889.231397,-2960.823768,-11177.109724,-6511.811733
21889.231730,-3627.009116,-14211.954086,-3140.991542
21889.232063,-4145.153275,-10140.821405,-1225.752797
21889.232396,1702.473667,-8290.306550,1149.143247
21889.232730,2294.638420,-9474.636058,3600.648841
21889.233063,2516.700203,-3923.091493,5515.887586
21889.233396,3182.885551,-5403.503377,4596.572988
21889.233729,3034.844362,-5477.523971,3753.867940
21889.234062,3108.864956,-7254.018232,5132.839837
21889.234396,2738.761985,-7328.038826,0.000000
21889.234729,0.000000,-7476.080014,-5515.887586
21889.235062,-2442.679609,-16580.613101,-4979.620737
21889.235395,-1850.514855,-12435.459826,-8197.221829
21889.235728,-4737.318029,-13101.645173,-3983.696590
21889.236062,-2442.679609,-15100.201217,-1915.238745
21889.236395,2368.659014,-7179.997637,3983.696590
21889.236728,1554.432478,-7328.038826,5745.716235
21889.237061,5921.647536,-5477.523971,8580.269578
21889.237394,1776.494261,-3627.009116,7354.516781
21889.237727,2960.823768,-6587.832884,4903.011187
21889.238061,3478.967927,-7105.977043,2374.896044
21889.238394,-1184.329507,-7328.038826,-2451.505594
21889.238727,-4145.153275,-11917.315666,-1915.238745
21889.239060,-3034.844362,-8882.471304,-8044.002729
21889.239393,-2812.782580,-15692.365970,-3983.696590
21889.239727,-1480.411884,-9548.656652,-3983.696590
21889.240060,-962.267725,-12953.603985,-1149.143247
21889.240393,-1184.329507,-8956.491898,0.000000
21889.240726,2886.803174,-10362.883188,4213.525239
21889.241059,4071.132681,-5921.647536,2834.553343
21889.241393,4737.318029,-6883.915261,8503.660028
21889.241726,5847.626942,-9474.636058,7277.907231
21889.242059,2886.803174,-4293.194464,689.485948
21889.242392,592.164754,-10436.903782,1149.143247
21889.242725,-1480.411884,-10510.924376,-2451.505594
21889.243059,-4515.256246,-10807.006753,-4443.353888
21889.243392,-4811.338623,-11251.130318,-6511.811733
21889.243725,-1776.494261,-9844.739029,-1302.362347
21889.244058,-4219.173869,-11399.171507,-3217.601092
21889.244391,2072.576638,-8364.327145,1915.238745
21889.244724,-74.020594,-10362.883188,2145.067394
21889.245058,2516.700203,-6291.750507,3677.258390
21889.245391,2664.741391,-6883.915261,7354.516781
21889.245724,5847.626942,-5329.482782,2987.772442
21889.246057,3478.967927,-4219.173869,612.876398
21889.246390,1184.329507,-9400.615463,459.657299
21889.246724,1110.308913,-11843.295072,-689.485948
21889.247057,-4367.215058,-9696.697840,-3753.867940
21889.247390,-814.226536,-10955.047942,-3753.867940
21889.247723,-3034.844362,-11769.274478,-4060.306139
21889.248056,-1184.329507,-9252.574275,-3370.820191
21889.248390,-4737.318029,-10732.986159,1991.848295
21889.248723,3478.967927,-3997.112087,459.657299
21889.249056,148.041188,-5995.668130,3064.381992
21889.249389,3849.070898,-4959.379811,2374.896044
21889.249722,3552.988522,-9844.739029,2757.943793
21889.250056,1554.432478,-8290.306550,1378.971896
21889.250389,4441.235652,-8882.471304,383.047749
21889.250722,2072.576638,-12657.521608,-383.047749
21889.251055,3478.967927,-13619.789333,-689.485948
21889.251388,-2072.576638,-11917.315666,2374.896044
21889.251721,1110.308913,-8364.327145,-3677.258390
21889.252055,-2960.823768,-9548.656652,306.438199
21889.252388,0.000000,-8956.491898,2145.067394
21889.252721,-74.020594,-5921.647536,2374.896044
21889.253054,-666.185348,-7105.977043,2604.724693
21889.253387,148.041188,-6439.791695,2374.896044
21889.253721,-592.164754,-7920.203579,3217.601092
21889.254054,0.000000,-4811.338623,0.000000
21889.254387,2294.638420,-11251.130318,-76.609550
21889.254720,-1776.494261,-11325.150913,0.000000
21889.255053,-3701.029710,-13027.624579,-3140.991542
21889.255387,-5107.421000,-10732.986159,-5515.887586
21889.255720,0.000000,-7179.997637,-1991.848295
21889.256053,740.205942,-10732.986159,842.705048
21889.256386,3256.906145,-6883.915261,3140.991542
21889.256719,2220.617826,-9326.594869,4136.915689
21889.257053,1924.535449,-8882.471304,3983.696590
21889.257386,2886.803174,-6957.935855,1838.629195
21889.257719,1406.391290,-10658.965565,2374.896044
21889.258052,518.144159,-5551.544565,-2145.067394
21889.258385,0.000000,-8956.491898,-76.609550
21889.258718,-2220.617826,-11917.315666,-2374.896044
21889.259052,-1480.411884,-7624.121203,-1455.581446
21889.259385,-2294.638420,-12065.356855,-2757.943793
21889.259718,-2368.659014,-10140.821405,-383.047749
21889.260051,-296.082377,-9474.636058,1302.362347
21889.260384,-1850.514855,-6587.832884,0.000000
21889.260718,1184.329507,-6661.853478,2374.896044
21889.261051,3552.988522,-5847.626942,4596.572988
21889.261384,2294.638420,-8882.471304,4060.306139
21889.261717,2368.659014,-8956.491898,2451.505594
21889.262050,2886.803174,-8882.471304,-689.485948
21889.262384,-2368.659014,-9548.656652,0.000000
21889.262717,2294.638420,-10362.883188,-2834.553343
21889.263050,-1850.514855,-11103.089130,-2528.115143
21889.263383,-2220.617826,-10140.821405,0.000000
21889.263716,370.102971,-5107.421000,-1915.238745
21889.264050,-2664.741391,-12435.459826,-2221.676944
21889.264383,1332.370696,-7920.203579,0.000000
21889.264716,1110.308913,-10362.883188,2374.896044
21889.265049,5107.421000,-4959.379811,2757.943793
21889.265382,4959.379811,-9474.636058,7277.907231
21889.265715,4663.297435,-7994.224174,0.000000
21889.266049,3108.864956,-10732.986159,3064.381992
21889.266382,3849.070898,-11843.295072,2987.772442
21889.266715,2368.659014,-10436.903782,612.876398
21889.267048,-1998.556043,-9474.636058,-3294.210641
21889.267381,-2368.659014,-10658.965565,-3907.087040
21889.267714,-3330.926739,-10510.924376,-2221.676944
21889.268048,-74.020594,-5403.503377,-3677.258390
21889.268381,-2738.761985,-8290.306550,0.000000
21889.268714,-2368.659014,-5403.503377,2451.505594
21889.269047,-74.020594,-6217.729913,0.000000
21889.269380,1702.473667,-4959.379811,0.000000
21889.269713,4663.297435,-11251.130318,3600.648841
21889.270046,2294.638420,-8808.450710,2451.505594
21889.270380,4811.338623,-8438.347739,2451.505594
21889.270713,-1480.411884,-12731.542202,-1225.752797
21889.271046,592.164754,-11843.295072,-689.485948
21889.271379,-1850.514855,-11251.130318,-5822.325785
21889.271712,-1776.494261,-11325.150913,-1838.629195
21889.272045,-1184.329507,-11251.130318,1762.019645
21889.272378,-2146.597232,-6661.853478,-2451.505594
21889.272712,-1258.350101,-9104.533087,3600.648841
21889.273045,888.247130,-5847.626942,4290.134789
21889.273378,1110.308913,-6587.832884,4749.792088
21889.273711,0.000000,-7476.080014,4290.134789
21889.274044,3775.050304,-7105.977043,2834.553343
21889.274377,-4737.318029,-11325.150913,1378.971896
21889.274710,1036.288319,-6587.832884,-4673.182538
21889.275044,-3923.091493,-14211.954086,-995.924147
21889.275377,592.164754,-5995.668130,-6511.811733
21889.275710,0.000000,-14137.933492,2068.457845
21889.276043,-2738.761985,-11547.212695,-3753.867940
21889.276376,2294.638420,-7994.224174,-1455.581446
21889.276709,-2442.679609,-11251.130318,1762.019645
21889.277042,5551.544565,-6217.729913,1991.848295
21889.277376,74.020594,-8216.285956,6741.640382
21889.277709,3701.029710,-7254.018232,3524.039291
21889.278042,5181.441594,-6217.729913,5439.278036
21889.278375,2294.638420,-10066.800811,3294.210641
21889.278708,4737.318029,-9548.656652,4826.401637
21889.279041,-666.185348,-8586.388927,-3677.258390
21889.279374,-2368.659014,-9548.656652,-7354.516781
21889.279708,-5921.647536,-13101.645173,-4290.134789
21889.280041,-74.020594,-6661.853478,-5669.106685
21889.280374,-2072.576638,-12139.377449,-1302.362347
21889.280707,2368.659014,-5403.503377,-1532.190996
21889.281040,2294.638420,-13619.789333,3600.648841
21889.281373,2590.720797,-6217.729913,5439.278036
21889.281706,5847.626942,-9474.636058,2374.896044
21889.282040,4663.297435,-7179.997637,3677.258390
21889.282373,5921.647536,-7105.977043,6358.592633
21889.282706,5551.544565,-9178.553681,2987.772442
21889.283039,0.000000,-7476.080014,0.000000
21889.283372,-2146.597232,-10584.944971,-6818.249932
21889.283705,-2664.741391,-12953.603985,-2221.676944
21889.284038,-4663.297435,-9548.656652,-5362.668486
21889.284372,-4737.318029,-10288.862594,-4903.011187
21889.284705,-1850.514855,-11843.295072,-1302.362347
21889.285038,1110.308913,-7105.977043,1762.019645
21889.285371,1184.329507,-4811.338623,6741.640382
21889.285704,6439.791695,-7105.977043,4826.401637
21889.286037,4145.153275,-8660.409521,5592.497135
21889.286370,888.247130,-8216.285956,3524.039291
21889.286704,1924.535449,-9178.553681,-689.485948
21889.287037,-4293.194464,-12583.501014,-2681.334243
21889.287370,-74.020594,-10288.862594,-2681.334243
21889.287703,-1850.514855,-12435.459826,-4903.011187
21889.288036,-2368.659014,-8660.409521,-1532.190996
21889.288369,-3552.988522,-10732.986159,-76.609550
21889.288702,-1258.350101,-9474.636058,-689.485948
21889.289036,-2220.617826,-8586.388927,-76.609550
21889.289369,-2220.617826,-9548.656652,3983.696590
21889.289702,2590.720797,-4589.276840,8044.002729
21889.290035,3182.885551,-4589.276840,3370.820191
21889.290368,5773.606348,-9252.574275,7277.907231
21889.290701,-1702.473667,-7476.080014,0.000000
21889.291034,-2368.659014,-11695.253884,-3217.601092
21889.291368,-6069.688724,-10214.842000,-6128.763984
21889.291701,-7105.977043,-11325.150913,-8580.269578
21889.292034,-2960.823768,-10140.821405,-1838.629195
21889.292367,-1258.350101,-9474.636058,-1608.800546
21889.292700,3478.967927,-9474.636058,995.924147
21889.293033,1036.288319,-5699.585753,5209.449386
21889.293366,4811.338623,-7698.141797,6052.154434
21889.293700,2442.679609,-6069.688724,3677.258390
21889.294033,2590.720797,-9844.739029,2681.334243
21889.294366,1850.514855,-7179.997637,1762.019645
21889.294699,3552.988522,-7476.080014,1532.190996
21889.295032,2960.823768,-7179.997637,919.314598
21889.295365,1702.473667,-9770.718434,-7354.516781
21889.295698,-1184.329507,-13989.892304,-4903.011187
21889.296032,-1776.494261,-14063.912898,-2528.115143
21889.296365,-1184.329507,-9548.656652,-5515.887586
21889.296698,1110.308913,-12361.439231,2528.115143
21889.297031,4959.379811,-6513.812290,3907.087040
21889.297364,5773.606348,-5699.585753,8197.221829
21889.297697,5551.544565,-6513.812290,6665.030833
21889.298030,5033.400406,-5995.668130,5439.278036
21889.298364,518.144159,-7179.997637,0.000000
21889.298697,1480.411884,-10288.862594,1149.143247
21889.299030,-2442.679609,-9474.636058,-6205.373534
21889.299363,-3182.885551,-14952.160028,-3217.601092
21889.299696,-1554.432478,-10214.842000,-3370.820191
21889.300029,-814.226536,-8586.388927,-3907.087040
21889.300362,-1776.494261,-9474.636058,-842.705048
21889.300696,0.000000,-7179.997637,76.609550
21889.301029,3330.926739,-9474.636058,4826.401637
21889.301362,1184.329507,-5403.503377,3677.258390
21889.301695,1776.494261,-9400.615463,6358.592633
21889.302028,-962.267725,-9474.636058,1149.143247
21889.302361,1554.432478,-4589.276840,-1225.752797
21889.302694,0.000000,-8956.491898,766.095498
21889.303028,-296.082377,-10732.986159,-2451.505594
21889.303361,-4293.194464,-12213.398043,-3677.258390
21889.303694,-5921.647536,-9548.656652,-6128.763984
21889.304027,-2442.679609,-12879.583391,-4903.011187
21889.304360,-4145.153275,-8808.450710,2681.334243
21889.304693,-370.102971,-7105.977043,2374.896044
21889.305026,-2368.659014,-2442.679609,3677.258390
21889.305360,2886.803174,-9770.718434,5439.278036
21889.305693,2368.659014,-5403.503377,6128.763984
21889.306026,2590.720797,-8142.265362,3600.648841
21889.306359,-148.041188,-8586.388927,0.000000
21889.306692,0.000000,-8364.327145,-1225.752797
21889.307025,-1850.514855,-11843.295072,-4213.525239
21889.307358,-74.020594,-10214.842000,-2451.505594
21889.307692,-4145.153275,-11991.336260,-3907.087040
21889.308025,-666.185348,-10881.027347,-229.828649
21889.308358,-2960.823768,-7179.997637,1838.629195
21889.308691,1110.308913,-7105.977043,-842.705048
21889.309024,0.000000,-7179.997637,3677.258390
21889.309357,3923.091493,-7105.977043,2068.457845
21889.309690,4515.256246,-9178.553681,2374.896044
21889.310024,1776.494261,-9548.656652,2911.162892
21889.310357,2886.803174,-9400.615463,0.000000
21889.310690,444.123565,-8512.368333,-383.047749
21889.311023,592.164754,-10881.027347,-3064.381992
21889.311356,-370.102971,-12435.459826,-76.609550
21889.311689,-74.020594,-7920.203579,-3064.381992
21889.312023,1036.288319,-9474.636058,612.876398
21889.312356,1702.473667,-8882.471304,-76.609550
21889.312689,222.061783,-7624.121203,-766.095498
21889.313022,1332.370696,-8586.388927,3294.210641
21889.313355,2368.659014,-6883.915261,689.485948
21889.313688,3182.885551,-8734.430116,1149.143247
21889.314021,444.123565,-12583.501014,459.657299
21889.314355,2590.720797,-7105.977043,842.705048
21889.314688,3478.967927,-7476.080014,0.000000
21889.315021,5329.482782,-11547.212695,1149.143247
21889.315354,1998.556043,-14211.954086,-76.609550
21889.315687,-3034.844362,-9844.739029,-3983.696590
21889.316020,-74.020594,-11547.212695,-1915.238745
21889.316353,-3552.988522,-10732.986159,0.000000
21889.316687,-888.247130,-6883.915261,919.314598
21889.317020,-962.267725,-7846.182985,2681.334243
21889.317353,1184.329507,-4811.338623,2528.115143
21889.317686,0.000000,-7476.080014,4903.011187
21889.318019,4663.297435,-8882.471304,2374.896044
21889.318352,740.205942,-7476.080014,1838.629195
21889.318685,0.000000,-12509.480420,4749.792088
21889.319019,2294.638420,-9474.636058,-459.657299
21889.319352,-2442.679609,-11547.212695,-2528.115143
21889.319685,-2960.823768,-10732.986159,-2681.334243
21889.320018,-3775.050304,-10288.862594,-2221.676944
21889.320351,-4737.318029,-8660.409521,-1225.752797
21889.320684,-4663.297435,-6809.894666,-76.609550
21889.321017,-1776.494261,-7328.038826,2911.162892
21889.321351,1998.556043,-6143.709319,5132.839837
21889.321684,4071.132681,-8290.306550,6052.154434
21889.322017,518.144159,-9178.553681,2374.896044
21889.322350,3256.906145,-4811.338623,1838.629195
21889.322683,2294.638420,-13619.789333,1762.019645
21889.323016,-370.102971,-10362.883188,-4596.572988
21889.323349,-3182.885551,-14804.118840,-4060.306139
21889.323683,-3182.885551,-11843.295072,-4366.744339
21889.324016,296.082377,-8660.409521,-3217.601092
21889.324349,1702.473667,-11251.130318,612.876398
21889.324682,2294.638420,-9400.615463,1455.581446
21889.325015,1184.329507,-9326.594869,6894.859482
21889.325348,0.000000,-3627.009116,4903.011187
21889.325681,4663.297435,-8882.471304,5745.716235
21889.326015,3182.885551,-2664.741391,1991.848295
21889.326348,1480.411884,-8290.306550,229.828649
21889.326681,1998.556043,-9992.780217,842.705048
21889.327014,888.247130,-9770.718434,-2451.505594
21889.327347,-1110.308913,-11399.171507,-2451.505594
21889.327680,-3701.029710,-11695.253884,-5286.058936
21889.328013,-2442.679609,-11843.295072,-5286.058936
21889.328347,-3552.988522,-12805.562797,0.000000
21889.328680,1110.308913,-8290.306550,-76.609550
21889.329013,888.247130,-3034.844362,3370.820191
21889.329346,2664.741391,-5107.421000,3217.601092
21889.329679,5403.503377,-6883.915261,4903.011187
21889.330012,1406.391290,-9104.533087,2528.115143
21889.330345,5921.647536,-7328.038826,1378.971896
21889.330679,2220.617826,-12583.501014,2298.286494
21889.331012,2442.679609,-8512.368333,-1072.533697
21889.331345,2294.638420,-11843.295072,-1915.238745
21889.331678,-1850.514855,-14211.954086,-3140.991542
21889.332011,-1110.308913,-8364.327145,-2451.505594
21889.332344,-2442.679609,-11843.295072,-76.609550
21889.332677,-3404.947333,-9030.512492,-1302.362347
21889.333011,-1628.453072,-10140.821405,995.924147
21889.333344,0.000000,-8364.327145,6588.421283
21889.333677,4885.359217,-1406.391290,7584.345430
21889.334010,1184.329507,-6587.832884,7048.078582
21889.334343,6439.791695,-5921.647536,2987.772442
21889.334676,-3256.906145,-9548.656652,766.095498
21889.335009,-4737.318029,-9548.656652,-2451.505594
21889.335343,-1554.432478,-13619.789333,-3753.867940
21889.335676,-5329.482782,-13397.727550,-3983.696590
21889.336009,-1998.556043,-10362.883188,-4213.525239
21889.336342,-2590.720797,-11695.253884,-1915.238745
21889.336675,-1850.514855,-9622.677246,-766.095498
21889.337008,0.000000,-8068.244768,5056.230287
21889.337341,2590.720797,-5773.606348,5056.230287
21889.337675,1036.288319,-7476.080014,3983.696590
21889.338008,1702.473667,-8068.244768,5439.278036
21889.338341,-666.185348,-5329.482782,2298.286494
21889.338674,2368.659014,-5995.668130,919.314598
21889.339007,4071.132681,-13915.871710,1149.143247
21889.339340,-74.020594,-10436.903782,-3370.820191
21889.339673,-4145.153275,-10732.986159,-2451.505594
21889.340007,-3034.844362,-11547.212695,-4979.620737
21889.340340,-3997.112087,-13397.727550,-3907.087040
21889.340673,-3627.009116,-8290.306550,-2221.676944
21889.341006,740.205942,-9104.533087,995.924147
21889.341339,296.082377,-5107.421000,1225.752797
21889.341672,1776.494261,-5995.668130,6128.763984
21889.342005,4663.297435,-5921.647536,2834.553343
21889.342339,4145.153275,-4145.153275,1302.362347
21889.342672,0.000000,-9548.656652,0.000000
21889.343005,2738.761985,-10807.006753,1149.143247
21889.343338,0.000000,-7476.080014,-2221.676944
21889.343671,1406.391290,-8586.388927,-4596.572988
21889.344004,0.000000,-12731.542202,-2374.896044
21889.344337,2516.700203,-9918.759623,-1532.190996
21889.344671,-2368.659014,-12509.480420,766.095498
21889.345004,4071.132681,-11843.295072,-76.609550
21889.345337,1776.494261,-7772.162391,3677.258390
21889.345670,2368.659014,-7476.080014,6971.469032
21889.346003,6957.935855,-4071.132681,3677.258390
21889.346336,2590.720797,-9474.636058,4213.525239
21889.346669,3849.070898,-7550.100608,2604.724693
21889.347003,222.061783,-8438.347739,-383.047749
21889.347336,-2738.761985,-11547.212695,-5286.058936
21889.347669,-1184.329507,-9844.739029,-1608.800546
21889.348002,-5329.482782,-12139.377449,-3524.039291
21889.348335,-2368.659014,-7179.997637,-2451.505594
21889.348668,-1998.556043,-12435.459826,-76.609550
21889.349001,3478.967927,-11251.130318,-76.609550
21889.349335,888.247130,-9548.656652,5975.544884
21889.349668,3552.988522,-6069.688724,4290.134789
21889.350001,2590.720797,-9030.512492,4136.915689
21889.350334,0.000000,-7179.997637,1838.629195
21889.350667,3478.967927,-8290.306550,-76.609550
21889.351000,-3552.988522,-10288.862594,1838.629195
21889.351333,-296.082377,-10288.862594,-76.609550
21889.351667,-4219.173869,-9474.636058,-5286.058936
21889.352000,-3034.844362,-11251.130318,-3447.429741
21889.352333,-5551.544565,-10510.924376,-2604.724693
21889.352666,-4737.318029,-10436.903782,-919.314598
21889.352999,222.061783,-7254.018232,1762.019645
21889.353332,0.000000,-5403.503377,2451.505594
21889.353665,3775.050304,-8882.471304,3907.087040
21889.353999,1628.453072,-8734.430116,3524.039291
21889.354332,1850.514855,-6291.750507,306.438199
21889.354665,666.185348,-11103.089130,1225.752797
21889.354998,1332.370696,-8364.327145,0.000000
21889.355331,-222.061783,-10658.965565,-2528.115143
21889.355664,-444.123565,-7772.162391,-4903.011187
21889.355997,-222.061783,-13323.706956,1762.019645
21889.356331,1998.556043,-9474.636058,3294.210641
21889.356664,-1406.391290,-5995.668130,0.000000
21889.356997,-2442.679609,-9622.677246,-229.828649
21889.357330,0.000000,-6883.915261,0.000000
21889.357663,962.267725,-7624.121203,2757.943793
21889.357996,1184.329507,-7179.997637,2757.943793
21889.358329,3478.967927,-7105.977043,1149.143247
21889.358663,592.164754,-7772.162391,612.876398
21889.358996,1998.556043,-11843.295072,-1302.362347
21889.359329,-1554.432478,-7698.141797,-5286.058936
21889.359662,-2368.659014,-14285.974681,-2528.115143
21889.359995,-74.020594,-11473.192101,-995.924147
21889.360328,1110.308913,-8068.244768,0.000000
21889.360661,2442.679609,-9178.553681,1149.143247
21889.360995,7031.956449,-7994.224174,4826.401637
21889.361328,6439.791695,-7105.977043,2221.676944
21889.361661,3849.070898,-9104.533087,5592.497135
21889.361994,2294.638420,-11843.295072,1149.143247
21889.362327,2738.761985,-6883.915261,612.876398
21889.362660,2294.638420,-12435.459826,1762.019645
21889.362993,148.041188,-10140.821405,-1532.190996
21889.363327,-3627.009116,-12509.480420,-4136.915689
21889.363660,-4367.215058,-10362.883188,-5209.449386
21889.363993,-2516.700203,-8808.450710,-2374.896044
21889.364326,-2368.659014,-7179.997637,0.000000
21889.364659,962.267725,-10658.965565,2987.772442
21889.364992,-444.123565,-5107.421000,2451.505594
21889.365325,0.000000,-4219.173869,2451.505594
21889.365659,5551.544565,-7105.977043,4213.525239
21889.365992,1628.453072,-9844.739029,3064.381992
21889.366325,888.247130,-9474.636058,-1072.533697
21889.366658,-518.144159,-12731.542202,-1225.752797
21889.366991,444.123565,-9178.553681,-2681.334243
21889.367324,0.000000,-12805.562797,-76.609550
21889.367657,-1554.432478,-7772.162391,0.000000
21889.367991,-2886.803174,-7994.224174,-1685.410096
21889.368324,-4145.153275,-11251.130318,-1225.752797
21889.368657,-74.020594,-10881.027347,1762.019645
21889.368990,-2368.659014,-7772.162391,3524.039291
21889.369323,1628.453072,-5921.647536,2987.772442
21889.369656,0.000000,-7179.997637,4903.011187
21889.369989,592.164754,-7328.038826,1225.752797
21889.370322,3478.967927,-8882.471304,-1762.019645
21889.370656,1184.329507,-12805.562797,1915.238745
21889.370989,2072.576638,-9178.553681,-1149.143247
21889.371322,-814.226536,-13027.624579,-2528.115143
21889.371655,-3256.906145,-8364.327145,-2911.162892
21889.371988,-3627.009116,-8364.327145,-6128.763984
21889.372321,0.000000,-9622.677246,1149.143247
21889.372654,-888.247130,-9104.533087,-76.609550
21889.372987,-74.020594,-10658.965565,2068.457845
21889.373321,3330.926739,-4737.318029,4673.182538
21889.373654,666.185348,-6365.771101,5056.230287
21889.373987,4959.379811,-2368.659014,2451.505594
21889.374320,1110.308913,-12509.480420,2068.457845
21889.374653,5255.462188,-11177.109724,2374.896044
21889.374986,0.000000,-10288.862594,0.000000
21889.375319,1184.329507,-14211.954086,-1608.800546
21889.375653,1110.308913,-10288.862594,-4290.134789
21889.375986,-4441.235652,-9844.739029,-4290.134789
21889.376319,2294.638420,-10066.800811,-2374.896044
21889.376652,-2442.679609,-11843.295072,383.047749
21889.376985,-1036.288319,-7772.162391,-612.876398
21889.377318,1702.473667,-4515.256246,4060.306139
21889.377651,2294.638420,-4737.318029,3600.648841
21889.377984,2664.741391,-8068.244768,7737.564530
21889.378318,2294.638420,-9474.636058,4826.401637
21889.378651,2960.823768,-4811.338623,0.000000
21889.378984,740.205942,-11473.192101,2757.943793
21889.379317,962.267725,-11325.150913,-2374.896044
21889.379650,-2442.679609,-9548.656652,-6435.202183
21889.379983,-2812.782580,-13767.830521,-8044.002729
21889.380316,-2146.597232,-15914.427753,-2221.676944
21889.380649,-1776.494261,-8364.327145,0.000000
21889.380983,814.226536,-12731.542202,4826.401637
21889.381316,814.226536,-3923.091493,1838.629195
21889.381649,1184.329507,-1850.514855,4903.011187
21889.381982,5699.585753,-7105.977043,6971.469032
21889.382315,296.082377,-4811.338623,3677.258390
21889.382648,-1110.308913,-9770.718434,2451.505594
21889.382981,-4219.173869,-10658.965565,-1072.533697
21889.383314,370.102971,-6365.771101,-2451.505594
21889.383648,-3923.091493,-9844.739029,-6741.640382
21889.383981,518.144159,-10807.006753,-4979.620737
21889.384314,-3849.070898,-15174.221811,-2145.067394
21889.384647,-3997.112087,-10288.862594,-4596.572988
21889.384980,-1554.432478,-13619.789333,-76.609550
21889.385313,-1554.432478,-6883.915261,0.000000
21889.385646,4737.318029,-6587.832884,3677.258390
21889.385980,8216.285956,-7994.224174,9116.536426
21889.386313,3108.864956,-8660.409521,9806.022374
21889.386646,5921.647536,-3627.009116,7890.783629
21889.386979,-666.185348,-10362.883188,1455.581446
21889.387312,-1776.494261,-7179.997637,-5209.449386
21889.387645,-2516.700203,-11029.068536,-4596.572988
21889.387978,-7105.977043,-11251.130318,-6052.154434
21889.388311,-1554.432478,-5995.668130,-4903.011187
21889.388645,-3330.926739,-13619.789333,-1302.362347
21889.388978,3478.967927,-8290.306550,-689.485948
21889.389311,0.000000,-5995.668130,1225.752797
21889.389644,3478.967927,-9474.636058,2374.896044
21889.389977,3849.070898,-7920.203579,3524.039291
21889.390310,3256.906145,-9696.697840,3830.477490
21889.390643,6069.688724,-7624.121203,3677.258390
21889.390976,5033.400406,-8364.327145,6128.763984
21889.391310,6439.791695,-7179.997637,0.000000
21889.391643,2886.803174,-13027.624579,-1302.362347
21889.391976,-2072.576638,-10732.986159,-4749.792088
21889.392309,-1776.494261,-7476.080014,-4903.011187
21889.392642,-2960.823768,-12509.480420,-689.485948
21889.392975,-148.041188,-7846.182985,-1608.800546
21889.393308,-888.247130,-9252.574275,2757.943793
21889.393642,-740.205942,-7031.956449,1915.238745
21889.393975,4071.132681,-4737.318029,4213.525239
21889.394308,-3552.988522,-9548.656652,1991.848295
21889.394641,518.144159,-9474.636058,-76.609550
21889.394974,-2368.659014,-7179.997637,1225.752797
21889.395307,-74.020594,-11843.295072,-1302.362347
21889.395640,2294.638420,-9178.553681,-153.219100
21889.395973,-3182.885551,-12509.480420,-1455.581446
21889.396307,2886.803174,-7994.224174,-1302.362347
21889.396640,-2146.597232,-13619.789333,-1302.362347
21889.396973,-666.185348,-10510.924376,1762.019645
21889.397306,3330.926739,-8882.471304,4826.401637
21889.397639,2072.576638,-6587.832884,5515.887586
21889.397972,1184.329507,-4811.338623,7431.126331
21889.398305,-74.020594,-7105.977043,1302.362347
21889.398638,-1850.514855,-7624.121203,612.876398
21889.398972,-4219.173869,-8586.388927,-1455.581446
21889.399305,-5181.441594,-11177.109724,-4826.401637
21889.399638,-2442.679609,-9548.656652,-4596.572988
21889.399971,-6513.812290,-11103.089130,-4749.792088
21889.400304,-666.185348,-6957.935855,-3753.867940
21889.400637,-1924.535449,-11029.068536,842.705048
21889.400970,-1332.370696,-9104.533087,153.219100
21889.401304,2442.679609,-7402.059420,2374.896044
21889.401637,1406.391290,-10066.800811,2681.334243
21889.401970,5625.565159,-8216.285956,6741.640382
21889.402303,5847.626942,-11251.130318,5745.716235
21889.402636,3552.988522,-7179.997637,4903.011187
21889.402969,592.164754,-9252.574275,1532.190996
21889.403302,1998.556043,-9474.636058,-1762.019645
21889.403635,-592.164754,-10807.006753,-4290.134789
21889.403969,-1924.535449,-11473.192101,-1532.190996
21889.404302,-2294.638420,-9548.656652,-1225.752797
21889.404635,-2960.823768,-6587.832884,-2451.505594
21889.404968,-74.020594,-10658.965565,-76.609550
21889.405301,-74.020594,-9474.636058,-76.609550
21889.405634,592.164754,-7476.080014,3677.258390
21889.405967,4663.297435,-9474.636058,4213.525239
21889.406300,2368.659014,-9548.656652,3677.258390
21889.406634,6143.709319,-8734.430116,1072.533697
21889.406967,6143.709319,-11325.150913,3064.381992
21889.407300,5551.544565,-9252.574275,1608.800546
21889.407633,3552.988522,-10140.821405,-1225.752797
21889.407966,1998.556043,-14211.954086,-2528.115143
21889.408299,-1776.494261,-9548.656652,-1225.752797
21889.408632,-3552.988522,-8364.327145,919.314598
21889.408966,-74.020594,-6809.894666,-2834.553343
21889.409299,0.000000,-10214.842000,4213.525239
21889.409632,-444.123565,-5181.441594,1685.410096
21889.409965,814.226536,-6957.935855,1838.629195
21889.410298,-1776.494261,-10584.944971,1838.629195
21889.410631,2886.803174,-9178.553681,1762.019645
21889.410964,-1554.432478,-9178.553681,-536.266849
21889.411297,1184.329507,-7179.997637,919.314598
21889.411631,-74.020594,-12731.542202,-689.485948
21889.411964,-814.226536,-8364.327145,-3983.696590
21889.412297,-2368.659014,-10732.986159,-229.828649
21889.412630,-2368.659014,-11103.089130,-1608.800546
21889.412963,-666.185348,-8882.471304,842.705048
21889.413296,-1850.514855,-11695.253884,2298.286494
21889.413629,2886.803174,-5329.482782,4826.401637
21889.413962,592.164754,-7179.997637,3064.381992
21889.414296,-370.102971,-11251.130318,4826.401637
21889.414629,2220.617826,-3330.926739,5439.278036
21889.414962,-2960.823768,-9548.656652,0.000000
21889.415295,1184.329507,-8956.491898,3294.210641
21889.415628,-4811.338623,-11547.212695,-4673.182538
21889.415961,-4441.235652,-8364.327145,-6741.640382
21889.416294,-4737.318029,-9622.677246,-4060.306139
21889.416627,-5625.565159,-11029.068536,-4903.011187
21889.416961,-4145.153275,-7550.100608,-1991.848295
21889.417294,-4737.318029,-10140.821405,-1532.190996
21889.417627,2220.617826,-8290.306550,2068.457845
21889.417960,3404.947333,-11251.130318,9729.412825
21889.418293,6735.874072,-2442.679609,7890.783629
21889.418626,6439.791695,-7698.141797,2374.896044
21889.418959,3552.988522,-10732.986159,4443.353888
21889.419293,4737.318029,-8660.409521,689.485948
21889.419626,-518.144159,-15248.242405,-1225.752797
21889.419959,1258.350101,-10510.924376,-2834.553343
21889.420292,-3701.029710,-11399.171507,-3294.210641
21889.420625,296.082377,-8734.430116,-2604.724693
21889.420958,-962.267725,-8290.306550,-3753.867940
21889.421291,2368.659014,-10436.903782,1762.019645
21889.421624,2368.659014,-4811.338623,3064.381992
21889.421958,2368.659014,-7772.162391,6741.640382
21889.422291,4515.256246,-6809.894666,4213.525239
21889.422624,1702.473667,-6513.812290,1762.019645
21889.422957,4367.215058,-8290.306550,536.266849
21889.423290,2072.576638,-8586.388927,1378.971896
21889.423623,-2590.720797,-12435.459826,-4673.182538
21889.423956,-2368.659014,-9474.636058,-4903.011187
21889.424289,-4219.173869,-12879.583391,-3753.867940
21889.424623,-3552.988522,-8956.491898,-3064.381992
21889.424956,-5921.647536,-11325.150913,1532.190996
21889.425289,1406.391290,-8290.306550,-76.609550
21889.425622,1184.329507,-4811.338623,3677.258390
21889.425955,4663.297435,-6439.791695,5056.230287
21889.426288,7179.997637,-6957.935855,6741.640382
21889.426621,2294.638420,-9252.574275,4673.182538
21889.426955,5847.626942,-7772.162391,2987.772442
21889.427288,-1554.432478,-11991.336260,-3294.210641
21889.427621,592.164754,-13619.789333,-76.609550
21889.427954,-4811.338623,-10436.903782,-5822.325785
21889.428287,-4959.379811,-9548.656652,-6741.640382
21889.428620,-3552.988522,-9548.656652,-1225.752797
21889.428953,-4515.256246,-6587.832884,-3217.601092
21889.429286,-3404.947333,-9104.533087,995.924147
21889.429620,-4737.318029,-8364.327145,3294.210641
21889.429953,1110.308913,-3182.885551,4213.525239
21889.430286,814.226536,-8068.244768,4136.915689
21889.430619,4885.359217,-5773.606348,5592.497135
21889.430952,1850.514855,-10140.821405,5898.935335
21889.431285,2664.741391,-7994.224174,995.924147
21889.431618,-814.226536,-11325.150913,-689.485948
21889.431951,-5995.668130,-11843.295072,-7814.174080
21889.432285,-4441.235652,-10140.821405,-7354.516781
21889.432618,-4737.318029,-12879.583391,-1302.362347
21889.432951,-1258.350101,-9326.594869,-2221.676944
21889.433284,-1776.494261,-5995.668130,1225.752797
21889.433617,2072.576638,-7179.997637,3907.087040
21889.433950,2590.720797,-5551.544565,2604.724693
21889.434283,2516.700203,-7402.059420,3294.210641
21889.434617,2294.638420,-11251.130318,1762.019645
21889.434950,5847.626942,-7994.224174,1991.848295
21889.435283,1184.329507,-7476.080014,1455.581446
21889.435616,5255.462188,-12953.603985,-76.609550
21889.435949,2294.638420,-7846.182985,-3294.210641
21889.436282,-74.020594,-13101.645173,-2528.115143
21889.436615,666.185348,-11029.068536,-3064.381992
21889.436948,2072.576638,-12361.439231,-689.485948
21889.437282,4959.379811,-12879.583391,1149.143247
21889.437615,6217.729913,-7179.997637,6281.983084
21889.437948,5847.626942,-5403.503377,1225.752797
21889.438281,6809.894666,-9474.636058,7277.907231
21889.438614,4071.132681,-7179.997637,3064.381992
21889.438947,0.000000,-7179.997637,0.000000
21889.439280,-74.020594,-9474.636058,-76.609550
21889.439613,-5625.565159,-11399.171507,-5056.230287
21889.439947,-1110.308913,-5773.606348,-3830.477490
21889.440280,-3997.112087,-10510.924376,-1915.238745
21889.440613,-1776.494261,-8068.244768,-3064.381992
21889.440946,-5921.647536,-8956.491898,-3677.258390
21889.441279,-1332.370696,-10066.800811,-689.485948
21889.441612,1110.308913,-8512.368333,0.000000
21889.441945,3849.070898,-8956.491898,4903.011187
21889.442278,5329.482782,-8364.327145,4290.134789
21889.442612,2812.782580,-8734.430116,4596.572988
21889.442945,3182.885551,-7994.224174,2451.505594
21889.443278,2294.638420,-10584.944971,536.266849
21889.443611,-74.020594,-13619.789333,-1302.362347
21889.443944,-4737.318029,-11325.150913,-1302.362347
21889.444277,-6291.750507,-11917.315666,-3294.210641
21889.444610,-3627.009116,-2442.679609,-3064.381992
21889.444944,-3256.906145,-10362.883188,-76.609550
21889.445277,-1776.494261,-10732.986159,3677.258390
21889.445610,2368.659014,-3775.050304,4213.525239
21889.445943,-3108.864956,-8364.327145,3140.991542
21889.446276,-1110.308913,-7402.059420,2221.676944
21889.446609,-370.102971,-8882.471304,-76.609550
21889.446942,0.000000,-8660.409521,1532.190996
21889.447275,-222.061783,-10140.821405,-612.876398
21889.447609,-2590.720797,-10436.903782,-1915.238745
21889.447942,-3256.906145,-9548.656652,-3907.087040
21889.448275,-2442.679609,-11843.295072,-1302.362347
21889.448608,-2368.659014,-8364.327145,-3677.258390
21889.448941,-148.041188,-10658.965565,3600.648841
21889.449274,814.226536,-7624.121203,1838.629195
21889.449607,592.164754,-3627.009116,3677.258390
21889.449940,6735.874072,-6809.894666,4519.963438
21889.450274,4737.318029,-7920.203579,3294.210641
21889.450607,3330.926739,-9992.780217,1991.848295
21889.450940,666.185348,-11325.150913,-2068.457845
21889.451273,1998.556043,-9400.615463,-3753.867940
21889.451606,2368.659014,-13101.645173,-1302.362347
21889.451939,3478.967927,-13619.789333,-2834.553343
21889.452272,666.185348,-7476.080014,0.000000
21889.452606,2368.659014,-9400.615463,1685.410096
21889.452939,1998.556043,-8512.368333,842.705048
21889.453272,1702.473667,-7402.059420,1608.800546
21889.453605,1110.308913,-7772.162391,1608.800546
21889.453938,2294.638420,-8068.244768,3677.258390
21889.454271,2960.823768,-6291.750507,3677.258390
21889.454604,2368.659014,-11251.130318,2987.772442
21889.454937,2516.700203,-6365.771101,0.000000
21889.455271,-74.020594,-7624.121203,-3677.258390
21889.455604,592.164754,-11843.295072,-3753.867940
21889.455937,0.000000,-10881.027347,-1455.581446
21889.456270,-1850.514855,-9992.780217,-4673.182538
21889.456603,444.123565,-12287.418637,229.828649
21889.456936,444.123565,-7550.100608,919.314598
21889.457269,1998.556043,-8882.471304,3294.210641
21889.457602,3478.967927,-8290.306550,3600.648841
21889.457936,1184.329507,-8364.327145,4903.011187
21889.458269,1702.473667,-8290.306550,2374.896044
21889.458602,814.226536,-9178.553681,0.000000
21889.458935,0.000000,-8068.244768,1991.848295
21889.459268,962.267725,-6809.894666,229.828649
21889.459601,-1998.556043,-11251.130318,-1838.629195
21889.459934,-3478.967927,-10362.883188,-2987.772442
21889.460268,-4811.338623,-11103.089130,-2451.505594
21889.460601,-1924.535449,-7476.080014,-5439.278036
21889.460934,-3108.864956,-12287.418637,1608.800546
21889.461267,-2294.638420,-6291.750507,4136.915689
21889.461600,0.000000,-5847.626942,2068.457845
21889.461933,148.041188,-6291.750507,5515.887586
21889.462266,2294.638420,-8290.306550,2374.896044
21889.462599,-1036.288319,-5107.421000,0.000000
21889.462933,-1776.494261,-9696.697840,1532.190996
21889.463266,-2442.679609,-10066.800811,-2221.676944
21889.463599,-2146.597232,-11621.233289,-1225.752797
21889.463932,-2294.638420,-10658.965565,-2221.676944
21889.464265,-2220.617826,-8882.471304,-2221.676944
21889.464598,-2368.659014,-8364.327145,-1225.752797
21889.464931,-74.020594,-5625.565159,0.000000
21889.465264,-74.020594,-11843.295072,-76.609550
21889.465598,1850.514855,-8364.327145,2451.505594
21889.465931,296.082377,-7179.997637,4903.011187
21889.466264,4737.318029,-5107.421000,3677.258390
21889.466597,2960.823768,-6735.874072,3524.039291
21889.466930,2960.823768,-9326.594869,-612.876398
21889.467263,3034.844362,-12361.439231,459.657299
21889.467596,1702.473667,-13619.789333,-1302.362347
21889.467929,0.000000,-10732.986159,-3677.258390
21889.468262,-2294.638420,-11843.295072,-3753.867940
21889.468595,-1776.494261,-9548.656652,-1838.629195
21889.468928,1702.473667,-9474.636058,1149.143247
21889.469262,1110.308913,-7920.203579,766.095498
21889.469595,3552.988522,-9030.512492,3600.648841
21889.469928,2812.782580,-4811.338623,3677.258390
21889.470261,2664.741391,-8068.244768,2451.505594
21889.470594,2886.803174,-7402.059420,0.000000
21889.470927,0.000000,-9548.656652,1378.971896
21889.471260,-74.020594,-11251.130318,-76.609550
21889.471593,3478.967927,-4885.359217,-3064.381992
21889.471926,1184.329507,-9548.656652,0.000000
21889.472259,2294.638420,-10658.965565,-995.924147
21889.472592,518.144159,-8882.471304,-1762.019645
21889.472925,-1406.391290,-10436.903782,-383.047749
21889.473258,-592.164754,-9844.739029,-306.438199
21889.473591,2590.720797,-9918.759623,3753.867940
21889.473925,2886.803174,-9474.636058,3600.648841
21889.474258,1776.494261,-5995.668130,2757.943793
21889.474591,2294.638420,-11547.212695,3907.087040
21889.474924,3182.885551,-6587.832884,-2451.505594
21889.475257,-2368.659014,-8808.450710,2681.334243
21889.475590,2294.638420,-6957.935855,-1915.238745
21889.475923,-1480.411884,-15322.262999,1225.752797
21889.476256,-962.267725,-6809.894666,-689.485948
21889.476589,-4737.318029,-7476.080014,-4060.306139
21889.476922,-1258.350101,-9178.553681,-76.609550
21889.477255,-2220.617826,-7254.018232,-1608.800546
21889.477588,-5255.462188,-13545.768739,306.438199
21889.477921,-1184.329507,-7476.080014,612.876398
21889.478254,-2368.659014,-6291.750507,0.000000
21889.478588,1406.391290,-9474.636058,2374.896044
21889.478921,3034.844362,-3849.070898,3140.991542
21889.479254,0.000000,-9844.739029,5515.887586
21889.479587,1998.556043,-8586.388927,-76.609550
21889.479920,-666.185348,-10214.842000,-3370.820191
21889.480253,-2368.659014,-11103.089130,-2528.115143
21889.480586,-2368.659014,-10732.986159,-919.314598
21889.480919,-1406.391290,-11843.295072,459.657299
21889.481252,-74.020594,-9474.636058,1762.019645
21889.481585,3775.050304,-11843.295072,-76.609550
21889.481918,592.164754,-10732.986159,5515.887586
21889.482251,1184.329507,-5995.668130,4290.134789
21889.482584,3478.967927,-7994.224174,383.047749
21889.482917,592.164754,-7476.080014,2451.505594
21889.483251,-444.123565,-11547.212695,-306.438199
21889.483584,1998.556043,-5477.523971,1149.143247
21889.483917,-1702.473667,-10140.821405,-3370.820191
21889.484250,-666.185348,-9030.512492,-3753.867940
21889.484583,-74.020594,-9474.636058,-2528.115143
21889.484916,-4145.153275,-5995.668130,-1225.752797
21889.485249,-1554.432478,-10658.965565,-1915.238745
21889.485582,-74.020594,-11399.171507,1072.533697
21889.485915,5551.544565,-7402.059420,5439.278036
21889.486248,4071.132681,-7698.141797,3064.381992
21889.486581,3552.988522,-9178.553681,3217.601092
21889.486914,4737.318029,-8068.244768,1149.143247
21889.487247,3849.070898,-10140.821405,3064.381992
21889.487581,4663.297435,-8512.368333,153.219100
21889.487914,0.000000,-10140.821405,-76.609550
21889.488247,-1258.350101,-11251.130318,-4519.963438
21889.488580,-2960.823768,-10066.800811,-3753.867940
21889.488913,-2960.823768,-10140.821405,-2451.505594
21889.489246,0.000000,-9474.636058,2298.286494
21889.489579,-2294.638420,-9252.574275,1149.143247
21889.489912,-1480.411884,-7328.038826,1991.848295
21889.490245,2294.638420,-7698.141797,5439.278036
21889.490578,2368.659014,-4811.338623,1838.629195
21889.490911,5847.626942,-10955.047942,5745.716235
21889.491244,1998.556043,-7476.080014,612.876398
21889.491577,4737.318029,-7476.080014,2068.457845
21889.491910,-4145.153275,-11325.150913,-3907.087040
21889.492244,-222.061783,-9474.636058,-4903.011187
21889.492577,-4219.173869,-11251.130318,-2681.334243
21889.492910,-3627.009116,-12509.480420,-2604.724693
21889.493243,-2146.597232,-8586.388927,-689.485948
21889.493576,-4737.318029,-11917.315666,1991.848295
21889.493909,3478.967927,-5329.482782,4903.011187
21889.494242,1924.535449,-6291.750507,5822.325785
21889.494575,4219.173869,-4737.318029,3907.087040
21889.494908,1776.494261,-9474.636058,4290.134789
21889.495241,0.000000,-7179.997637,-3677.258390
21889.495574,1036.288319,-13619.789333,-76.609550
21889.495907,-2442.679609,-10362.883188,-3370.820191
21889.496240,-370.102971,-8290.306550,-4673.182538
21889.496573,-4589.276840,-11991.336260,-4673.182538
21889.496907,-2368.659014,-12805.562797,-2298.286494
21889.497240,-3034.844362,-9474.636058,-2221.676944
21889.497573,1406.391290,-9548.656652,2757.943793
21889.497906,4663.297435,-8290.306550,4826.401637
21889.498239,592.164754,-4811.338623,6281.983084
21889.498572,2960.823768,-8512.368333,6665.030833
21889.498905,3478.967927,-7254.018232,1225.752797
21889.499238,0.000000,-9844.739029,306.438199
21889.499571,1702.473667,-9474.636058,-2451.505594
21889.499904,-740.205942,-9696.697840,-4749.792088
21889.500237,-4885.359217,-12287.418637,-6052.154434
21889.500570,-3552.988522,-8956.491898,-4903.011187
21889.500903,-3256.906145,-10140.821405,-3064.381992
21889.501237,0.000000,-10140.821405,4673.182538
21889.501570,2146.597232,-8882.471304,1762.019645
21889.501903,2886.803174,-3701.029710,766.095498
21889.502236,2812.782580,-8290.306550,6052.154434
21889.502569,5329.482782,-5995.668130,6128.763984
21889.502902,3108.864956,-7920.203579,2604.724693
21889.503235,4071.132681,-8734.430116,2068.457845
21889.503568,1850.514855,-10955.047942,0.000000
21889.503901,1110.308913,-10510.924376,-2528.115143
21889.504234,-74.020594,-13619.789333,-4979.620737
21889.504567,-2738.761985,-9696.697840,-6435.202183
21889.504900,-444.123565,-14582.057057,0.000000
21889.505233,-666.185348,-11843.295072,-2528.115143
21889.505566,296.082377,-8364.327145,3600.648841
21889.505900,1924.535449,-7476.080014,7584.345430
21889.506233,4663.297435,-5329.482782,5286.058936
21889.506566,1776.494261,-8364.327145,5209.449386
21889.506899,2294.638420,-9474.636058,2987.772442
21889.507232,1998.556043,-7402.059420,-383.047749
21889.507565,592.164754,-11473.192101,76.609550
21889.507898,-666.185348,-11029.068536,-2681.334243
21889.508231,-4737.318029,-9548.656652,-4903.011187
21889.508564,-6513.812290,-11029.068536,-4903.011187
21889.508897,-666.185348,-9474.636058,-5592.497135
21889.509230,-5847.626942,-10732.986159,-1762.019645
21889.509563,-1184.329507,-6587.832884,3294.210641
21889.509896,444.123565,-5995.668130,4903.011187
21889.510229,4219.173869,-1554.432478,7124.688131
21889.510563,2664.741391,-5995.668130,4060.306139
21889.510896,2812.782580,-10584.944971,3217.601092
21889.511229,2294.638420,-12731.542202,2374.896044
21889.511562,-2812.782580,-7476.080014,-76.609550
21889.511895,-1850.514855,-10881.027347,-6128.763984
21889.512228,-3552.988522,-10140.821405,-2911.162892
21889.512561,-2960.823768,-10066.800811,-2834.553343
21889.512894,-74.020594,-7402.059420,-1685.410096
21889.513227,-1924.535449,-8512.368333,0.000000
21889.513560,-2368.659014,-8660.409521,306.438199
21889.513893,814.226536,-9030.512492,3907.087040
21889.514226,296.082377,-5847.626942,2068.457845
21889.514559,3182.885551,-8290.306550,612.876398
21889.514892,0.000000,-8364.327145,306.438199
21889.515226,2368.659014,-7624.121203,2681.334243
21889.515559,3330.926739,-9400.615463,229.828649
21889.515892,2294.638420,-13027.624579,-2528.115143
21889.516225,-74.020594,-11547.212695,-4060.306139
21889.516558,-2072.576638,-11029.068536,-4290.134789
21889.516891,2664.741391,-10436.903782,-1532.190996
21889.517224,1480.411884,-10658.965565,1072.533697
21889.517557,3330.926739,-9474.636058,1762.019645
21889.517890,2294.638420,-6587.832884,1225.752797
21889.518223,4589.276840,-8290.306550,4826.401637
21889.518556,3478.967927,-7105.977043,1915.238745
21889.518889,0.000000,-5995.668130,2757.943793
21889.519222,1702.473667,-8882.471304,536.266849
21889.519556,-1924.535449,-11177.109724,76.609550
21889.519889,-2072.576638,-8142.265362,-1225.752797
21889.520222,518.144159,-9548.656652,1072.533697
21889.520555,3478.967927,-7105.977043,1149.143247
21889.520888,-3552.988522,-7476.080014,0.000000
21889.521221,-3182.885551,-9474.636058,-2528.115143
21889.521554,-3182.885551,-10658.965565,-4366.744339
21889.521887,-3552.988522,-10732.986159,1225.752797
21889.522220,4071.132681,-7698.141797,1149.143247
21889.522553,1850.514855,-10807.006753,2374.896044
21889.522886,4959.379811,-9104.533087,3677.258390
21889.523219,1110.308913,-6957.935855,536.266849
21889.523552,4219.173869,-9474.636058,1762.019645
21889.523885,740.205942,-11843.295072,1302.362347
21889.524219,-2072.576638,-10140.821405,-2834.553343
21889.524552,-2590.720797,-9918.759623,-2757.943793
21889.524885,-3552.988522,-9696.697840,-766.095498
21889.525218,3478.967927,-6513.812290,-3140.991542
21889.525551,-2368.659014,-12805.562797,2451.505594
21889.525884,592.164754,-6587.832884,5056.230287
21889.526217,-1554.432478,-10955.047942,1455.581446
21889.526550,-2220.617826,-8660.409521,0.000000
21889.526883,1702.473667,-8290.306550,1915.238745
21889.527216,-74.020594,-5921.647536,2298.286494
21889.527549,3256.906145,-8216.285956,2681.334243
21889.527882,-1850.514855,-9178.553681,-76.609550
21889.528215,-3701.029710,-11251.130318,-2528.115143
21889.528548,-5921.647536,-7772.162391,-3064.381992
21889.528882,-3108.864956,-11843.295072,-1225.752797
21889.529215,-1110.308913,-9326.594869,-229.828649
21889.529548,-1258.350101,-9178.553681,2987.772442
21889.529881,1998.556043,-6143.709319,2451.505594
21889.530214,3108.864956,-8068.244768,5209.449386
21889.530547,4367.215058,-6217.729913,2451.505594
21889.530880,1554.432478,-7772.162391,1838.629195
21889.531213,5551.544565,-10658.965565,1149.143247
21889.531546,592.164754,-11917.315666,4903.011187
21889.531879,2886.803174,-8142.265362,-3753.867940
21889.532212,148.041188,-9548.656652,-3907.087040
21889.532545,-3552.988522,-9770.718434,-3753.867940
21889.532878,888.247130,-8364.327145,-3677.258390
21889.533212,-2220.617826,-11991.336260,-689.485948
21889.533545,-592.164754,-8364.327145,-842.705048
21889.533878,2368.659014,-8734.430116,4596.572988
21889.534211,4071.132681,-5699.585753,3447.429741
21889.534544,6809.894666,-7105.977043,5209.449386
21889.534877,5255.462188,-9474.636058,4519.963438
21889.535210,1776.494261,-8364.327145,2604.724693
21889.535543,0.000000,-10881.027347,1225.752797
21889.535876,1332.370696,-10140.821405,-2987.772442
21889.536209,-2664.741391,-10584.944971,-4213.525239
21889.536542,-1776.494261,-11399.171507,-3447.429741
21889.536875,-74.020594,-7698.141797,-3140.991542
21889.537208,-5625.565159,-11917.315666,0.000000
21889.537541,2294.638420,-9474.636058,-76.609550
21889.537875,-1258.350101,-11843.295072,2987.772442
21889.538208,0.000000,-4811.338623,3677.258390
21889.538541,2368.659014,-8364.327145,7507.735880
21889.538874,222.061783,-8290.306550,4749.792088
21889.539207,3701.029710,-3849.070898,1455.581446
21889.539540,0.000000,-10732.986159,2068.457845
21889.539873,2886.803174,-11251.130318,-1302.362347
21889.540206,-2960.823768,-10436.903782,-1378.971896
21889.540539,-4811.338623,-11695.253884,-6052.154434
21889.540872,-4219.173869,-10214.842000,-6358.592633
21889.541205,-1776.494261,-12583.501014,-2451.505594
21889.541538,-666.185348,-11843.295072,1149.143247
21889.541871,0.000000,-5995.668130,6128.763984
21889.542204,3849.070898,-6587.832884,8503.660028
21889.542538,2886.803174,-4811.338623,5515.887586
21889.542871,0.000000,-6587.832884,4903.011187
21889.543204,3034.844362,-7994.224174,1762.019645
21889.543537,-3552.988522,-11991.336260,766.095498
21889.543870,-1628.453072,-8142.265362,-3524.039291
21889.544203,-3404.947333,-10510.924376,-3447.429741
21889.544536,-5921.647536,-9548.656652,-4596.572988
21889.544869,740.205942,-11547.212695,-3753.867940
21889.545202,-1850.514855,-12435.459826,-1302.362347
21889.545535,-74.020594,-9326.594869,-2757.943793
21889.545868,0.000000,-8956.491898,2757.943793
21889.546201,7031.956449,-9474.636058,9729.412825
21889.546534,5329.482782,-4811.338623,6128.763984
21889.546867,6513.812290,-8808.450710,7124.688131
21889.547201,5773.606348,-8512.368333,3447.429741
21889.547534,1184.329507,-8364.327145,-1225.752797
21889.547867,-74.020594,-8364.327145,-6128.763984
21889.548200,962.267725,-15396.283594,-4366.744339
21889.548533,-3627.009116,-12583.501014,-4903.011187
21889.548866,-814.226536,-5403.503377,-5822.325785
21889.549199,-2072.576638,-11547.212695,-1302.362347
21889.549532,592.164754,-7994.224174,-383.047749
21889.549865,-2368.659014,-11103.089130,229.828649
21889.550198,3108.864956,-5107.421000,6511.811733
21889.550531,5477.523971,-8660.409521,8273.831378
21889.550864,5329.482782,-4811.338623,7354.516781
21889.551197,6439.791695,-8882.471304,4826.401637
21889.551531,296.082377,-6587.832884,0.000000
21889.551864,1850.514855,-10362.883188,-2298.286494
21889.552197,-4589.276840,-14137.933492,-8580.269578
21889.552530,-1406.391290,-11843.295072,-6205.373534
21889.552863,-5477.523971,-12953.603985,-5362.668486
21889.553196,-592.164754,-12805.562797,-1378.971896
21889.553529,-1406.391290,-8290.306550,536.266849
21889.553862,1184.329507,-8734.430116,7890.783629
21889.554195,5551.544565,-1258.350101,6281.983084
21889.554528,1776.494261,-5995.668130,7354.516781
21889.554861,5847.626942,-8290.306550,4826.401637
21889.555194,0.000000,-9104.533087,2451.505594
21889.555527,1110.308913,-8142.265362,-842.705048
21889.555860,0.000000,-9844.739029,-2451.505594
21889.556194,-3034.844362,-12435.459826,-5132.839837
21889.556527,-3034.844362,-13027.624579,-3753.867940
21889.556860,-4737.318029,-11843.295072,-4366.744339
21889.557193,-3627.009116,-11695.253884,-689.485948
21889.557526,-3256.906145,-6661.853478,0.000000
21889.557859,444.123565,-6735.874072,3677.258390
21889.558192,3478.967927,-9178.553681,7890.783629
21889.558525,2368.659014,-3627.009116,4903.011187
21889.558858,-74.020594,-11843.295072,2987.772442
21889.559191,1850.514855,-6587.832884,3064.381992
21889.559524,-2368.659014,-8660.409521,0.000000
21889.559857,2294.638420,-8734.430116,-4366.744339
21889.560190,-2072.576638,-12287.418637,-3294.210641
21889.560523,-2072.576638,-10732.986159,-6358.592633
21889.560857,-222.061783,-11991.336260,-2681.334243
21889.561190,0.000000,-10140.821405,-2145.067394
21889.561523,2368.659014,-11769.274478,2374.896044
21889.561856,2294.638420,-9474.636058,4213.525239
21889.562189,1776.494261,-5995.668130,3677.258390
21889.562522,3552.988522,-7105.977043,7277.907231
21889.562855,2442.679609,-7328.038826,2451.505594
21889.563188,2590.720797,-8512.368333,3907.087040
21889.563521,-370.102971,-8290.306550,-76.609550
21889.563854,518.144159,-9622.677246,-2604.724693
21889.564187,-3552.988522,-9548.656652,-2451.505594
21889.564520,-1258.350101,-13027.624579,-6205.373534
21889.564853,-2442.679609,-9622.677246,-3524.039291
21889.565186,222.061783,-7772.162391,-6741.640382
21889.565520,74.020594,-13619.789333,2374.896044
21889.565853,1776.494261,-6587.832884,5745.716235
21889.566186,6291.750507,-6513.812290,5898.935335
21889.566519,4145.153275,-7624.121203,5745.716235
21889.566852,2220.617826,-7402.059420,2068.457845
21889.567185,2886.803174,-9474.636058,4519.963438
21889.567518,-74.020594,-11843.295072,-689.485948
21889.567851,-3256.906145,-11325.150913,2145.067394
21889.568185,-4293.194464,-8586.388927,-1302.362347
21889.568518,-1850.514855,-10658.965565,-4979.620737
21889.568851,-2368.659014,-5995.668130,-612.876398
21889.569184,-666.185348,-9400.615463,-1838.629195
21889.569517,1036.288319,-9474.636058,3830.477490
21889.569850,518.144159,-8216.285956,536.266849
21889.570183,4367.215058,-12139.377449,5745.716235
21889.570516,2590.720797,-6439.791695,2911.162892
21889.570850,4071.132681,-9474.636058,1149.143247
21889.571183,2664.741391,-10881.027347,2528.115143
21889.571516,0.000000,-9548.656652,0.000000
21889.571849,0.000000,-8068.244768,0.000000
21889.572182,-74.020594,-10362.883188,-3753.867940
21889.572515,1184.329507,-9548.656652,-2451.505594
21889.572848,-2368.659014,-9548.656652,3370.820191
21889.573182,148.041188,-5181.441594,-2528.115143
21889.573515,-3627.009116,-11769.274478,0.000000
21889.573848,-1184.329507,-8290.306550,-76.609550
21889.574181,-370.102971,-7328.038826,536.266849
21889.574514,0.000000,-9548.656652,4596.572988
21889.574847,2294.638420,-5033.400406,-76.609550
21889.575180,-74.020594,-12731.542202,-1915.238745
21889.575513,592.164754,-7179.997637,1838.629195
21889.575847,-74.020594,-11843.295072,-76.609550
21889.576180,1184.329507,-8956.491898,-1838.629195
21889.576513,-1480.411884,-13027.624579,-1302.362347
21889.576846,-592.164754,-7920.203579,-1072.533697
21889.577179,2072.576638,-9252.574275,2068.457845
21889.577512,1406.391290,-11251.130318,-76.609550
21889.577845,592.164754,-6587.832884,2757.943793
21889.578179,666.185348,-7254.018232,995.924147
21889.578512,2664.741391,-8364.327145,4519.963438
21889.578845,1702.473667,-7994.224174,-76.609550
21889.579178,-74.020594,-9918.759623,-383.047749
21889.579511,370.102971,-10955.047942,-76.609550
21889.579844,222.061783,-9696.697840,842.705048
21889.580177,-370.102971,-6661.853478,-2528.115143
21889.580510,-2664.741391,-9030.512492,-1838.629195
21889.580844,-2368.659014,-8882.471304,-689.485948
21889.581177,-1258.350101,-7179.997637,0.000000
21889.581510,-3552.988522,-8956.491898,3830.477490
21889.581843,4071.132681,-7698.141797,536.266849
21889.582176,1332.370696,-8364.327145,4903.011187
21889.582509,3478.967927,-6957.935855,1762.019645
21889.582842,2516.700203,-10807.006753,-689.485948
21889.583176,1702.473667,-11547.212695,1225.752797
21889.583509,2294.638420,-10732.986159,1762.019645
21889.583842,4071.132681,-8290.306550,-76.609550
21889.584175,0.000000,-11325.150913,2298.286494
21889.584508,-3330.926739,-11251.130318,-383.047749
21889.584841,-74.020594,-4441.235652,-3677.258390
21889.585174,-7105.977043,-9548.656652,-3064.381992
21889.585507,-370.102971,-5921.647536,-2834.553343
21889.585841,-3404.947333,-12583.501014,1225.752797
21889.586174,1554.432478,-8734.430116,1608.800546
21889.586507,666.185348,-7846.182985,1302.362347
21889.586840,1702.473667,-8882.471304,2221.676944
21889.587173,2812.782580,-9326.594869,2757.943793
21889.587506,2294.638420,-6439.791695,1991.848295
21889.587839,2368.659014,-11917.315666,1685.410096
21889.588173,740.205942,-7772.162391,0.000000
21889.588506,-74.020594,-11103.089130,-3753.867940
21889.588839,0.000000,-4811.338623,-4903.011187
21889.589172,0.000000,-14878.139434,919.314598
21889.589505,-962.267725,-10658.965565,842.705048
21889.589838,-814.226536,-7772.162391,-2298.286494
21889.590171,370.102971,-9400.615463,2911.162892
21889.590505,2146.597232,-5995.668130,5362.668486
21889.590838,2960.823768,-1554.432478,1762.019645
21889.591171,1702.473667,-11547.212695,3600.648841
21889.591504,-74.020594,-7698.141797,-3753.867940
21889.591837,0.000000,-12509.480420,612.876398
21889.592170,2294.638420,-13619.789333,-76.609550
21889.592503,222.061783,-7772.162391,-3677.258390
21889.592836,-3552.988522,-10732.986159,-842.705048
21889.593170,1110.308913,-9400.615463,-612.876398
21889.593503,-3182.885551,-10066.800811,-842.705048
21889.593836,2368.659014,-7624.121203,1991.848295
21889.594169,1702.473667,-9326.594869,3907.087040
21889.594502,4663.297435,-7105.977043,2987.772442
21889.594835,2368.659014,-6883.915261,6665.030833
21889.595168,2886.803174,-8586.388927,2987.772442
21889.595502,2294.638420,-8290.306550,-995.924147
21889.595835,-1554.432478,-12731.542202,-689.485948
21889.596168,-2368.659014,-11177.109724,-5592.497135
21889.596501,-4441.235652,-12139.377449,-4673.182538
21889.596834,-3330.926739,-11399.171507,-3600.648841
21889.597167,-2368.659014,-8364.327145,-1225.752797
21889.597500,-666.185348,-6587.832884,0.000000
21889.597833,0.000000,-7179.997637,3217.601092
21889.598167,3182.885551,-9474.636058,3600.648841
21889.598500,1184.329507,-6587.832884,4060.306139
21889.598833,296.082377,-7179.997637,2911.162892
21889.599166,3404.947333,-10955.047942,4979.620737
21889.599499,2664.741391,-5995.668130,766.095498
21889.599832,-1184.329507,-11029.068536,-1072.533697
21889.600165,3478.967927,-10362.883188,-4060.306139
21889.600499,-7105.977043,-14582.057057,-2451.505594
21889.600832,-74.020594,-6661.853478,-3907.087040
21889.601165,-1258.350101,-11695.253884,-2451.505594
21889.601498,-296.082377,-8586.388927,2374.896044
21889.601831,-1480.411884,-6883.915261,0.000000
21889.602164,1776.494261,-5699.585753,4826.401637
21889.602497,3552.988522,-7179.997637,4519.963438
21889.602830,370.102971,-8882.471304,3370.820191
21889.603164,2294.638420,-9474.636058,2374.896044
21889.603497,-2960.823768,-7920.203579,-1838.629195
21889.603830,814.226536,-11029.068536,-919.314598
21889.604163,666.185348,-10436.903782,-919.314598
21889.604496,0.000000,-8734.430116,-1685.410096
21889.604829,-74.020594,-11843.295072,-2145.067394
21889.605162,0.000000,-7179.997637,-3677.258390
21889.605496,0.000000,-10436.903782,2221.676944
21889.605829,2294.638420,-7698.141797,2681.334243
21889.606162,1184.329507,-5403.503377,3677.258390
21889.606495,6735.874072,-8290.306550,2681.334243
21889.606828,3404.947333,-9548.656652,2911.162892
21889.607161,2368.659014,-10140.821405,4673.182538
21889.607494,1776.494261,-7179.997637,-1225.752797
21889.607827,-74.020594,-11843.295072,536.266849
21889.608161,0.000000,-8956.491898,-1302.362347
21889.608494,-74.020594,-9474.636058,-1915.238745
21889.608827,-666.185348,-8364.327145,-2451.505594
21889.609160,-1776.494261,-7920.203579,-3064.381992
21889.609493,-1258.350101,-10510.924376,-536.266849
21889.609826,-1332.370696,-7994.224174,-1302.362347
21889.610159,-370.102971,-9696.697840,2298.286494
21889.610493,148.041188,-8364.327145,3370.820191
21889.610826,0.000000,-6883.915261,612.876398
21889.611159,1184.329507,-12213.398043,6052.154434
21889.611492,962.267725,-6291.750507,306.438199
21889.611825,0.000000,-7179.997637,3677.258390
21889.612158,4071.132681,-9474.636058,2068.457845
21889.612491,-1776.494261,-10732.986159,0.000000
21889.612825,-666.185348,-7105.977043,-2834.553343
21889.613158,-3034.844362,-10955.047942,-4136.915689
21889.613491,-370.102971,-9326.594869,-2145.067394
21889.613824,-2368.659014,-11473.192101,-1838.629195
21889.614157,-74.020594,-13027.624579,-76.609550
21889.614490,-888.247130,-8660.409521,1225.752797
21889.614823,-74.020594,-10510.924376,4826.401637
21889.615156,2294.638420,-6513.812290,2374.896044
21889.615490,-4145.153275,-5995.668130,2757.943793
21889.615823,3182.885551,-5403.503377,766.095498
21889.616156,148.041188,-12361.439231,1302.362347
21889.616489,1998.556043,-9104.533087,1455.581446
21889.616822,-2812.782580,-9548.656652,0.000000
21889.617155,-740.205942,-9474.636058,-2374.896044
21889.617488,-148.041188,-9474.636058,-1455.581446
21889.617822,-1332.370696,-9178.553681,-1762.019645
21889.618155,4071.132681,-8290.306550,-76.609550
21889.618488,-1332.370696,-9548.656652,612.876398
21889.618821,592.164754,-8660.409521,-76.609550
21889.619154,2294.638420,-9474.636058,2987.772442
21889.619487,1850.514855,-8660.409521,1378.971896
21889.619820,4367.215058,-7994.224174,1762.019645
21889.620153,-1258.350101,-10288.862594,-919.314598
21889.620487,-888.247130,-9104.533087,-3677.258390
21889.620820,444.123565,-9104.533087,0.000000
21889.621153,0.000000,-7179.997637,0.000000
21889.621486,2886.803174,-5921.647536,0.000000
21889.621819,1110.308913,-11843.295072,-383.047749
21889.622152,1258.350101,-9548.656652,612.876398
21889.622485,148.041188,-8364.327145,1838.629195
21889.622819,5699.585753,-7920.203579,3064.381992
21889.623152,1332.370696,-13545.768739,3830.477490
21889.623485,3849.070898,-7179.997637,3064.381992
21889.623818,0.000000,-10584.944971,1685.410096
21889.624151,4219.173869,-7698.141797,2374.896044
21889.624484,-1924.535449,-8660.409521,-2451.505594
21889.624817,-74.020594,-9178.553681,-3140.991542
21889.625150,-3552.988522,-7772.162391,-3064.381992
21889.625484,-3034.844362,-11251.130318,-2221.676944
21889.625817,-1110.308913,-9252.574275,1225.752797
21889.626150,-3034.844362,-8290.306550,-76.609550
21889.626483,1332.370696,-11547.212695,2681.334243
21889.626816,1776.494261,-6143.709319,3370.820191
21889.627149,2368.659014,-9474.636058,1149.143247
21889.627482,0.000000,-5107.421000,2145.067394
21889.627816,1554.432478,-10510.924376,0.000000
21889.628149,740.205942,-8364.327145,612.876398
21889.628482,-74.020594,-11843.295072,-76.609550
21889.628815,-2146.597232,-7550.100608,-4519.963438
21889.629148,-1258.350101,-11473.192101,-76.609550
21889.629481,-1258.350101,-9992.780217,306.438199
21889.629814,-1036.288319,-6809.894666,1302.362347
21889.630147,-3627.009116,-9104.533087,536.266849
21889.630481,4071.132681,-7698.141797,2374.896044
21889.630814,-2664.741391,-8364.327145,1225.752797
21889.631147,4145.153275,-8290.306550,2987.772442
21889.631480,-74.020594,-11251.130318,0.000000
21889.631813,222.061783,-8660.409521,1225.752797
21889.632146,1998.556043,-9474.636058,-1608.800546
21889.632479,-4737.318029,-11695.253884,-2604.724693
21889.632813,518.144159,-5847.626942,-4290.134789
21889.633146,-5033.400406,-11843.295072,-1149.143247
21889.633479,1998.556043,-9474.636058,-689.485948
21889.633812,-2368.659014,-9622.677246,2757.943793
21889.634145,2812.782580,-7031.956449,3064.381992
21889.634478,4737.318029,-6513.812290,5056.230287
21889.634811,0.000000,-9548.656652,3677.258390
21889.635144,3256.906145,-8882.471304,1455.581446
21889.635478,740.205942,-9548.656652,0.000000
21889.635811,1776.494261,-8660.409521,2374.896044
21889.636144,2294.638420,-7846.182985,-459.657299
21889.636477,2294.638420,-7698.141797,-3217.601092
21889.636810,74.020594,-9696.697840,-1302.362347
21889.637143,-1924.535449,-9548.656652,-3064.381992
21889.637476,296.082377,-9548.656652,-2298.286494
21889.637810,-1184.329507,-13989.892304,1838.629195
21889.638143,2812.782580,-11251.130318,3294.210641
21889.638476,1998.556043,-7179.997637,3677.258390
21889.638809,0.000000,-7179.997637,6128.763984
21889.639142,5255.462188,-7105.977043,842.705048
21889.639475,0.000000,-8364.327145,3064.381992
21889.639808,2294.638420,-8216.285956,-1302.362347
21889.640142,962.267725,-10510.924376,-612.876398
21889.640475,-2368.659014,-9696.697840,-1378.971896
21889.640808,-1258.350101,-9474.636058,-3140.991542
21889.641141,-814.226536,-11843.295072,-2528.115143
21889.641474,-2368.659014,-9548.656652,383.047749
21889.641807,-1258.350101,-9474.636058,-76.609550
21889.642140,-74.020594,-9178.553681,-689.485948
21889.642473,3034.844362,-9844.739029,5439.278036
21889.642807,1850.514855,-9252.574275,4290.134789
21889.643140,2442.679609,-7105.977043,3524.039291
21889.643473,2072.576638,-9770.718434,3753.867940
21889.643806,0.000000,-7476.080014,0.000000
21889.644139,-74.020594,-8290.306550,-2374.896044
21889.644472,-6809.894666,-9844.739029,-3064.381992
21889.644805,-962.267725,-9474.636058,-4979.620737
21889.645139,-3997.112087,-9548.656652,-2911.162892
21889.645472,-888.247130,-7105.977043,-689.485948
21889.645805,-2368.659014,-10214.842000,1302.362347
21889.646138,-1184.329507,-8216.285956,2987.772442
21889.646471,592.164754,-8290.306550,2987.772442
21889.646804,2368.659014,-8734.430116,3677.258390
21889.647137,1776.494261,-8364.327145,3983.696590
21889.647470,5255.462188,-10658.965565,7277.907231
21889.647804,3478.967927,-5995.668130,0.000000
21889.648137,-1776.494261,-9548.656652,0.000000
21889.648470,-2590.720797,-9474.636058,-4979.620737
21889.648803,-3775.050304,-11621.233289,-5362.668486
21889.649136,-3627.009116,-9474.636058,-5056.230287
21889.649469,-3552.988522,-11399.171507,-1915.238745
21889.649802,148.041188,-8216.285956,0.000000
21889.650136,0.000000,-6291.750507,3524.039291
21889.650469,4071.132681,-5921.647536,3907.087040
21889.650802,4737.318029,-9918.759623,6435.202183
21889.651135,2664.741391,-9252.574275,2911.162892
21889.651468,3552.988522,-8956.491898,2451.505594
21889.651801,0.000000,-8364.327145,0.000000
21889.652134,5329.482782,-6735.874072,3447.429741
21889.652467,-74.020594,-9474.636058,-4290.134789
21889.652801,2294.638420,-7994.224174,-4060.306139
21889.653134,-2812.782580,-14878.139434,-4673.182538
21889.653467,-814.226536,-12509.480420,-1608.800546
21889.653800,-592.164754,-10732.986159,229.828649
21889.654133,-740.205942,-10510.924376,3140.991542
21889.654466,5847.626942,-6513.812290,7890.783629
21889.654799,1184.329507,-5403.503377,4903.011187
21889.655133,9400.615463,-7698.141797,7277.907231
21889.655466,222.061783,-7179.997637,0.000000
21889.655799,592.164754,-9548.656652,306.438199
21889.656132,-1258.350101,-10658.965565,-2528.115143
21889.656465,-3552.988522,-11843.295072,-4826.401637
21889.656798,-3404.947333,-9548.656652,-4060.306139
21889.657131,-2516.700203,-10140.821405,-3140.991542
21889.657464,1110.308913,-7105.977043,-1455.581446
21889.657798,0.000000,-7772.162391,2451.505594
21889.658131,3701.029710,-9252.574275,2451.505594
21889.658464,1332.370696,-10658.965565,4826.401637
21889.658797,740.205942,-8956.491898,3677.258390
21889.659130,2294.638420,-9770.718434,2834.553343
21889.659463,814.226536,-11621.233289,3370.820191
21889.659796,2738.761985,-8512.368333,1685.410096
21889.660130,-1554.432478,-6809.894666,0.000000
21889.660463,-4145.153275,-8364.327145,-5822.325785
21889.660796,-3552.988522,-9548.656652,1455.581446
21889.661129,-5403.503377,-9178.553681,-7201.297681
21889.661462,-3404.947333,-8956.491898,0.000000
21889.661795,-592.164754,-9474.636058,4213.525239
21889.662128,-222.061783,-8808.450710,1225.752797
21889.662461,2812.782580,-5921.647536,5975.544884
21889.662795,-1332.370696,-9548.656652,1149.143247
21889.663128,1480.411884,-8290.306550,995.924147
21889.663461,-2368.659014,-11029.068536,-1532.190996
21889.663794,-888.247130,-9474.636058,-2221.676944
21889.664127,-592.164754,-10807.006753,1685.410096
21889.664460,-1332.370696,-8808.450710,-2834.553343
21889.664793,2294.638420,-8290.306550,-76.609550
21889.665127,-1258.350101,-8882.471304,-1455.581446
21889.665460,1776.494261,-8068.244768,536.266849
21889.665793,-666.185348,-11843.295072,-76.609550
21889.666126,0.000000,-8364.327145,-1838.629195
21889.666459,4367.215058,-11547.212695,6894.859482
21889.666792,4885.359217,-7328.038826,5209.449386
21889.667125,8068.244768,-4441.235652,229.828649
21889.667459,2664.741391,-13101.645173,-383.047749
21889.667792,4959.379811,-10955.047942,-1991.848295
21889.668125,2146.597232,-11769.274478,1149.143247
21889.668458,1184.329507,-8956.491898,-1302.362347
21889.668791,1110.308913,-12731.542202,-383.047749
21889.669124,1110.308913,-3627.009116,-1225.752797
21889.669457,2590.720797,-6809.894666,-1455.581446
21889.669790,-1850.514855,-9548.656652,1225.752797
21889.670124,444.123565,-8586.388927,-2451.505594
21889.670457,-370.102971,-12731.542202,1302.362347
21889.670790,2368.659014,-7179.997637,1838.629195
21889.671123,-74.020594,-11843.295072,-2221.676944
21889.671456,2294.638420,-7624.121203,2068.457845
21889.671790,2368.659014,-9178.553681,2987.772442
21889.672123,1998.556043,-7698.141797,1762.019645
21889.672456,1184.329507,-7772.162391,1225.752797
21889.672789,296.082377,-10436.903782,0.000000
21889.673122,-296.082377,-8660.409521,-689.485948
21889.673455,-2368.659014,-9992.780217,-2298.286494
21889.673789,-1850.514855,-10362.883188,-2068.457845
21889.674122,-4737.318029,-9844.739029,1225.752797
21889.674455,-74.020594,-9252.574275,0.000000
21889.674788,-1036.288319,-8364.327145,1225.752797
21889.675121,3478.967927,-11843.295072,2068.457845
21889.675455,-74.020594,-9474.636058,3294.210641
21889.675788,-2812.782580,-8882.471304,-76.609550
21889.676121,-3330.926739,-8364.327145,842.705048
21889.676454,0.000000,-5181.441594,536.266849
21889.676787,-2368.659014,-7328.038826,-1608.800546
21889.677120,-518.144159,-11843.295072,2374.896044
21889.677454,-4145.153275,-6291.750507,0.000000
21889.677787,-1850.514855,-12435.459826,1532.190996
21889.678120,-74.020594,-8290.306550,-1915.238745
21889.678453,-3923.091493,-13323.706956,-229.828649
21889.678786,1850.514855,-10066.800811,2068.457845
21889.679120,-3552.988522,-9992.780217,0.000000
21889.679453,1036.288319,-8512.368333,2451.505594
21889.679786,2590.720797,-7031.956449,3983.696590
21889.680119,888.247130,-8882.471304,2681.334243
21889.680452,-888.247130,-6661.853478,-1378.971896
21889.680785,-4515.256246,-9770.718434,-4366.744339
21889.681119,-74.020594,-10658.965565,-1915.238745
21889.681452,0.000000,-5995.668130,0.000000
21889.681785,3404.947333,-7994.224174,1149.143247
21889.682118,1702.473667,-10658.965565,-1302.362347
21889.682451,1184.329507,-8660.409521,766.095498
21889.682785,3627.009116,-12879.583391,842.705048
21889.683118,7031.956449,-11251.130318,-766.095498
21889.683451,6217.729913,-15248.242405,5669.106685
21889.683784,5625.565159,-8660.409521,3830.477490
21889.684117,5773.606348,-5699.585753,3447.429741
21889.684450,2960.823768,-9548.656652,3677.258390
21889.684784,2664.741391,-5329.482782,-76.609550
21889.685117,-2812.782580,-6587.832884,-4290.134789
21889.685450,-4145.153275,-7772.162391,-4596.572988
21889.685783,-2886.803174,-11251.130318,-3907.087040
21889.686116,-2664.741391,-6291.750507,-2451.505594
21889.686450,-74.020594,-10066.800811,2068.457845
21889.686783,2960.823768,-8734.430116,3600.648841
21889.687116,2072.576638,-9992.780217,3524.039291
21889.687449,2294.638420,-11251.130318,4826.401637
21889.687782,4663.297435,-9474.636058,-76.609550
21889.688115,4071.132681,-7772.162391,1838.629195
21889.688449,2368.659014,-10732.986159,3677.258390
21889.688782,-740.205942,-6809.894666,-689.485948
21889.689115,-2664.741391,-11769.274478,-1915.238745
21889.689448,-1776.494261,-9844.739029,-1991.848295
21889.689781,-3552.988522,-11473.192101,-1149.143247
21889.690114,-3775.050304,-9918.759623,-1685.410096
21889.690448,-3108.864956,-7846.182985,-76.609550
21889.690781,-74.020594,-9326.594869,2681.334243
21889.691114,0.000000,-5403.503377,5515.887586
21889.691447,-148.041188,-7402.059420,4213.525239
21889.691780,1702.473667,-10658.965565,2374.896044
21889.692114,2146.597232,-8290.306550,4213.525239
21889.692447,-2960.823768,-11325.150913,-306.438199
21889.692780,-4811.338623,-7476.080014,-5898.935335
21889.693113,-6587.832884,-11769.274478,-5822.325785
21889.693446,-4737.318029,-10881.027347,-5822.325785
21889.693779,-4515.256246,-6587.832884,-2451.505594
21889.694113,-2738.761985,-12731.542202,1072.533697
21889.694446,4663.297435,-7105.977043,2374.896044
21889.694779,-1628.453072,-7772.162391,7354.516781
21889.695112,2516.700203,-5773.606348,7277.907231
21889.695445,4589.276840,-5403.503377,5362.668486
21889.695779,3478.967927,-12805.562797,2604.724693
21889.696112,1702.473667,-8956.491898,919.314598
21889.696445,-2368.659014,-11621.233289,-3064.381992
21889.696778,-1776.494261,-8364.327145,-6435.202183
21889.697111,-3108.864956,-11695.253884,-5362.668486
21889.697444,148.041188,-9178.553681,-3447.429741
21889.697778,444.123565,-11769.274478,-383.047749
21889.698111,296.082377,-8364.327145,612.876398
21889.698444,4071.132681,-9474.636058,3600.648841
21889.698777,3034.844362,-5995.668130,7354.516781
21889.699110,7920.203579,-7105.977043,7048.078582
21889.699444,4663.297435,-8882.471304,2374.896044
21889.699777,2368.659014,-9696.697840,1762.019645
21889.700110,-1258.350101,-10140.821405,-3600.648841
21889.700443,1406.391290,-10066.800811,-3524.039291
21889.700776,-2294.638420,-10955.047942,-3140.991542
21889.701109,962.267725,-10658.965565,-383.047749
21889.701443,-1110.308913,-7179.997637,0.000000
21889.701776,0.000000,-7179.997637,306.438199
21889.702109,666.185348,-10362.883188,-76.609550
21889.702442,1850.514855,-4811.338623,0.000000
21889.702775,8512.368333,-11843.295072,5745.716235
21889.703109,5477.523971,-10658.965565,7354.516781
21889.703442,4293.194464,-7031.956449,3370.820191
21889.703775,2146.597232,-10362.883188,1762.019645
21889.704108,1998.556043,-10066.800811,-1302.362347
21889.704441,-4145.153275,-9548.656652,-612.876398
21889.704774,-3182.885551,-9474.636058,-3064.381992
21889.705108,-1998.556043,-11843.295072,-4979.620737
21889.705441,-3552.988522,-7772.162391,0.000000
21889.705774,-1850.514855,-7994.224174,-1225.752797
21889.706107,-3330.926739,-9770.718434,2604.724693
21889.706440,-296.082377,-7031.956449,3217.601092
21889.706774,666.185348,-10510.924376,4213.525239
21889.707107,740.205942,-6587.832884,2757.943793
21889.707440,-2368.659014,-9548.656652,4136.915689
21889.707773,2294.638420,-7994.224174,1149.143247
21889.708106,-2590.720797,-7698.141797,-2834.553343
21889.708439,-2368.659014,-8956.491898,0.000000
21889.708773,-2442.679609,-8068.244768,-4136.915689
21889.709106,-1628.453072,-9030.512492,-3983.696590
21889.709439,-5107.421000,-10436.903782,-2681.334243
21889.709772,-4145.153275,-7550.100608,-3600.648841
21889.710105,-2812.782580,-7772.162391,0.000000
21889.710439,370.102971,-9474.636058,1072.533697
21889.710772,2368.659014,-10288.862594,5592.497135
21889.711105,518.144159,-10955.047942,4213.525239
21889.711438,5847.626942,-11251.130318,4213.525239
21889.711771,-74.020594,-9992.780217,0.000000
21889.712104,1776.494261,-7179.997637,1532.190996
21889.712438,3478.967927,-11843.295072,-76.609550
21889.712771,1554.432478,-9030.512492,-612.876398
21889.713104,-148.041188,-7476.080014,-2451.505594
21889.713437,-1554.432478,-10214.842000,-1455.581446
21889.713770,0.000000,-6661.853478,-2604.724693
21889.714103,-1924.535449,-10807.006753,-1762.019645
21889.714437,-666.185348,-8734.430116,-2221.676944
21889.714770,1628.453072,-11103.089130,-76.609550
21889.715103,2368.659014,-11621.233289,5209.449386
21889.715436,4071.132681,-7105.977043,2374.896044
21889.715769,4071.132681,-6957.935855,2451.505594
21889.716103,3478.967927,-9474.636058,4213.525239
21889.716436,-370.102971,-8512.368333,766.095498
21889.716769,1184.329507,-5403.503377,-5132.839837
21889.717102,1406.391290,-12139.377449,-1608.800546
21889.717435,3552.988522,-5995.668130,306.438199
21889.717768,2886.803174,-10066.800811,-1302.362347
21889.718102,2368.659014,-11251.130318,-76.609550
21889.718435,1702.473667,-11251.130318,-2145.067394
21889.718768,-2072.576638,-10732.986159,-1838.629195
21889.719101,4737.318029,-8956.491898,3677.258390
21889.719434,-592.164754,-11177.109724,2911.162892
21889.719768,3849.070898,-6439.791695,3677.258390
21889.720101,666.185348,-9178.553681,3370.820191
21889.720434,4663.297435,-8882.471304,2068.457845
21889.720767,-3849.070898,-8364.327145,1838.629195
21889.721100,-74.020594,-5329.482782,-2528.115143
21889.721433,-1258.350101,-8586.388927,-3294.210641
21889.721767,-4441.235652,-7476.080014,-1838.629195
21889.722100,-740.205942,-9918.759623,-1915.238745
21889.722433,-2590.720797,-11695.253884,-842.705048
21889.722766,2220.617826,-9918.759623,-459.657299
21889.723099,-1110.308913,-12805.562797,2604.724693
21889.723433,3552.988522,-9696.697840,2681.334243
21889.723766,0.000000,-9548.656652,4826.401637
21889.724099,-74.020594,-10510.924376,0.000000
21889.724432,1332.370696,-6587.832884,1225.752797
21889.724765,-814.226536,-12731.542202,3600.648841
21889.725098,-74.020594,-6513.812290,-2528.115143
21889.725432,-3775.050304,-9844.739029,-76.609550
21889.725765,-5699.585753,-10510.924376,-3217.601092
21889.726098,-1554.432478,-7624.121203,-842.705048
21889.726431,-3330.926739,-9548.656652,-459.657299
21889.726764,1776.494261,-7179.997637,536.266849
21889.727098,1184.329507,-11917.315666,2451.505594
21889.727431,2886.803174,-10807.006753,3600.648841
21889.727764,2146.597232,-7698.141797,1608.800546
21889.728097,1702.473667,-9474.636058,1149.143247
21889.728430,592.164754,-8660.409521,-76.609550
21889.728763,-1258.350101,-13027.624579,-689.485948
21889.729097,-3997.112087,-7179.997637,-3677.258390
21889.729430,-2368.659014,-7624.121203,-536.266849
21889.729763,-74.020594,-9474.636058,-76.609550
21889.730096,0.000000,-4811.338623,612.876398
21889.730429,740.205942,-9770.718434,3140.991542
21889.730763,3034.844362,-5699.585753,3447.429741
21889.731096,2368.659014,-8364.327145,1225.752797
21889.731429,2368.659014,-9548.656652,3294.210641
21889.731762,4071.132681,-10658.965565,0.000000
21889.732095,592.164754,-10732.986159,2451.505594
21889.732428,4367.215058,-10658.965565,-689.485948
21889.732762,-370.102971,-10881.027347,-4136.915689
21889.733095,1332.370696,-8438.347739,-1302.362347
21889.733428,-1184.329507,-6735.874072,-3600.648841
21889.733761,-296.082377,-7920.203579,-1225.752797
21889.734094,-888.247130,-9844.739029,459.657299
21889.734427,2368.659014,-9252.574275,6052.154434
21889.734761,-814.226536,-7772.162391,2451.505594
21889.735094,3997.112087,-9104.533087,6052.154434
21889.735427,1110.308913,-10955.047942,2374.896044
21889.735760,2368.659014,-5995.668130,1838.629195
21889.736093,3182.885551,-9474.636058,-383.047749
21889.736427,518.144159,-12583.501014,612.876398
21889.736760,3701.029710,-6957.935855,842.705048
21889.737093,-4811.338623,-11547.212695,-3140.991542
21889.737426,2294.638420,-8142.265362,-1302.362347
21889.737759,-7772.162391,-9548.656652,-2451.505594
21889.738092,1406.391290,-7994.224174,-76.609550
21889.738426,-4219.173869,-11251.130318,-689.485948
21889.738759,-370.102971,-10658.965565,2068.457845
21889.739092,2442.679609,-7105.977043,4749.792088
21889.739425,1184.329507,-7402.059420,3140.991542
21889.739758,2220.617826,-5699.585753,1762.019645
21889.740092,-1184.329507,-8956.491898,-995.924147
21889.740425,2294.638420,-11251.130318,-1225.752797
21889.740758,-1184.329507,-15766.386565,0.000000
21889.741091,-74.020594,-7105.977043,-4366.744339
21889.741424,-2516.700203,-11917.315666,-2451.505594
21889.741757,2590.720797,-7105.977043,-1608.800546
21889.742091,518.144159,-3034.844362,-3064.381992
21889.742424,-3034.844362,-21614.013506,2145.067394
21889.742757,-74.020594,-18061.024985,5056.230287
21889.743090,5329.482782,2294.638420,3677.258390
21889.743423,6143.709319,2960.823768,5209.449386
21889.743757,74.020594,-8438.347739,3907.087040
21889.744090,-2590.720797,-12731.542202,2374.896044
21889.744423,-7402.059420,-14359.995275,-229.828649
21889.744756,-1776.494261,-9844.739029,-5286.058936
21889.745089,-2442.679609,-14211.954086,-4979.620737
21889.745422,0.000000,-2442.679609,-9193.145976
21889.745756,1924.535449,-5921.647536,-2911.162892
21889.746089,1406.391290,-10658.965565,-1685.410096
21889.746422,3108.864956,-7772.162391,3983.696590
21889.746755,444.123565,-9548.656652,6435.202183
21889.747088,5107.421000,-5033.400406,6052.154434
21889.747422,2812.782580,-9400.615463,7737.564530
21889.747755,5329.482782,-5699.585753,6435.202183
21889.748088,5551.544565,-5625.565159,4060.306139
21889.748421,0.000000,-8364.327145,2451.505594
21889.748754,1998.556043,-13915.871710,-1302.362347
21889.749087,-3627.009116,-12731.542202,-4060.306139
21889.749421,-3849.070898,-12805.562797,-5592.497135
21889.749754,-4293.194464,-14211.954086,-5286.058936
21889.750087,-5033.400406,-11917.315666,-4749.792088
21889.750420,-3552.988522,-8882.471304,-3064.381992
21889.750753,-74.020594,-10658.965565,2068.457845
21889.751087,4515.256246,-3627.009116,1225.752797
21889.751420,7846.182985,-8290.306550,6052.154434
21889.751753,4663.297435,-11843.295072,2374.896044
21889.752086,3552.988522,-5995.668130,1838.629195
21889.752419,3478.967927,-11251.130318,-383.047749
21889.752752,3330.926739,-11029.068536,0.000000
21889.753086,-3478.967927,-8068.244768,-5822.325785
21889.753419,-2516.700203,-12287.418637,-5439.278036
21889.753752,-3034.844362,-9474.636058,-4060.306139
21889.754085,-6809.894666,-5403.503377,-1838.629195
21889.754418,-2738.761985,-7698.141797,-1302.362347
21889.754751,-666.185348,-6513.812290,-383.047749
21889.755085,-3552.988522,-8364.327145,4903.011187
21889.755418,3478.967927,-4737.318029,5132.839837
21889.755751,666.185348,-11769.274478,3600.648841
21889.756084,4145.153275,-8364.327145,4826.401637
21889.756417,-740.205942,-10732.986159,3907.087040
21889.756751,1702.473667,-8290.306550,2374.896044
21889.757084,-1332.370696,-8586.388927,-536.266849
21889.757417,-962.267725,-7105.977043,-2298.286494
21889.757750,962.267725,-8068.244768,-919.314598
21889.758083,-2368.659014,-11399.171507,3447.429741
21889.758416,4515.256246,-8290.306550,1762.019645
21889.758750,0.000000,-5995.668130,2451.505594
21889.759083,2072.576638,-4811.338623,1225.752797
21889.759416,1184.329507,-10510.924376,2068.457845
21889.759749,3552.988522,-8364.327145,3217.601092
21889.760082,-740.205942,-10066.800811,2374.896044
21889.760416,222.061783,-9030.512492,-995.924147
21889.760749,-444.123565,-11843.295072,-689.485948
21889.761082,-666.185348,-9326.594869,-1302.362347
21889.761415,296.082377,-10658.965565,-76.609550
21889.761748,-3256.906145,-7179.997637,-2451.505594
