#time,accel_x,accel_y,accel_z
20334.765618,7920.203579,-7698.141797,2374.896044
20334.765952,8290.306550,-8956.491898,6128.763984
20334.766285,11769.274478,-9474.636058,2374.896044
20334.766619,9474.636058,-8364.327145,3064.381992
20334.766952,9992.780217,-9474.636058,0.000000
20334.767286,7550.100608,-10140.821405,-1915.238745
20334.767619,6069.688724,-9622.677246,-3064.381992
20334.767953,9252.574275,-10066.800811,-1608.800546
20334.768286,10584.944971,-11251.130318,-2528.115143
20334.768620,7994.224174,-7920.203579,-1225.752797
20334.768953,9474.636058,-8364.327145,3677.258390
20334.769287,14137.933492,-8882.471304,3600.648841
20334.769620,12139.377449,-9770.718434,5286.058936
20334.769954,11177.109724,-10881.027347,2221.676944
20334.770287,7698.141797,-10955.047942,1685.410096
20334.770621,4663.297435,-11251.130318,-383.047749
20334.770954,4071.132681,-10362.883188,-689.485948
20334.771288,1628.453072,-7179.997637,-3677.258390
20334.771621,2368.659014,-7772.162391,995.924147
20334.771955,5847.626942,-7105.977043,2374.896044
20334.772288,7031.956449,-4219.173869,-2451.505594
20334.772622,8290.306550,-7624.121203,2374.896044
20334.772955,9104.533087,-7476.080014,1225.752797
20334.773289,10066.800811,-8364.327145,2068.457845
20334.773623,7698.141797,-9844.739029,-766.095498
20334.773956,7031.956449,-11843.295072,-2221.676944
20334.774290,5551.544565,-12361.439231,-2068.457845
20334.774623,3849.070898,-11917.315666,-2451.505594
20334.774957,2442.679609,-12361.439231,-2145.067394
20334.775290,0.000000,-11917.315666,-1225.752797
20334.775624,0.000000,-8956.491898,1225.752797
20334.775957,4071.132681,-7105.977043,2681.334243
20334.776291,3404.947333,-3627.009116,3140.991542
20334.776624,4737.318029,-5107.421000,6588.421283
20334.776958,4145.153275,-5107.421000,4290.134789
20334.777291,4737.318029,-7328.038826,4060.306139
20334.777625,2294.638420,-9178.553681,-689.485948
20334.777958,-1554.432478,-12731.542202,-3217.601092
20334.778292,-2738.761985,-14211.954086,-4979.620737
20334.778625,-7031.956449,-10881.027347,-4519.963438
20334.778959,-2442.679609,-11843.295072,-4979.620737
20334.779292,-4663.297435,-8956.491898,153.219100
20334.779626,0.000000,-7179.997637,5209.449386
20334.779959,5255.462188,-4145.153275,6358.592633
20334.780293,6809.894666,-4441.235652,5975.544884
20334.780626,8068.244768,-3182.885551,3524.039291
20334.780960,9178.553681,-5995.668130,1838.629195
20334.781293,9474.636058,-7476.080014,0.000000
20334.781627,6513.812290,-11029.068536,-919.314598
20334.781960,3552.988522,-11917.315666,-7354.516781
20334.782294,2960.823768,-15470.304188,-2681.334243
20334.782627,1998.556043,-15840.407159,-3140.991542
20334.782961,518.144159,-11843.295072,-1915.238745
20334.783294,2294.638420,-11547.212695,1302.362347
20334.783628,4145.153275,-7772.162391,5592.497135
20334.783961,6883.915261,-3923.091493,7507.735880
20334.784295,8808.450710,-2886.803174,7201.297681
20334.784628,10584.944971,-4737.318029,6665.030833
20334.784962,7846.182985,-3034.844362,1838.629195
20334.785295,10066.800811,-7179.997637,2374.896044
20334.785629,7624.121203,-9326.594869,-5592.497135
20334.785963,2368.659014,-11325.150913,-7967.393179
20334.786296,1998.556043,-15618.345376,-8733.488677
20334.786630,-2220.617826,-18579.169144,-6205.373534
20334.786963,-3775.050304,-17764.942608,-4366.744339
20334.787297,-3627.009116,-15322.262999,459.657299
20334.787630,-666.185348,-9622.677246,3294.210641
20334.787964,2368.659014,-4811.338623,11184.994271
20334.788297,8216.285956,0.000000,10648.727422
20334.788631,8216.285956,518.144159,6894.859482
20334.788964,5921.647536,-74.020594,5515.887586
20334.789298,6439.791695,-4885.359217,459.657299
20334.789631,1480.411884,-8882.471304,-4443.353888
20334.789965,-1480.411884,-12583.501014,-8733.488677
20334.790298,-3256.906145,-15100.201217,-8886.707777
20334.790632,-3627.009116,-16210.510130,-7814.174080
20334.790965,-4885.359217,-15248.242405,-3370.820191
20334.791299,-4959.379811,-14508.036463,766.095498
20334.791632,-3256.906145,-11177.109724,4290.134789
20334.791966,-592.164754,-7179.997637,9193.145976
20334.792299,2442.679609,-5329.482782,8810.098227
20334.792633,0.000000,-1776.494261,5439.278036
20334.792966,0.000000,-1258.350101,3677.258390
20334.793300,2294.638420,-3849.070898,842.705048
20334.793633,-1184.329507,-4219.173869,-2145.067394
20334.793967,-3849.070898,-11399.171507,-5975.544884
20334.794300,-6143.709319,-13175.665768,-7354.516781
20334.794634,-8734.430116,-15618.345376,-6741.640382
20334.794967,-3627.009116,-14211.954086,-1915.238745
20334.795301,-74.020594,-13027.624579,2374.896044
20334.795634,-2368.659014,-10732.986159,4903.011187
20334.795968,-1776.494261,-7179.997637,6435.202183
20334.796301,1702.473667,-8882.471304,3600.648841
20334.796635,592.164754,-6735.874072,4213.525239
20334.796968,1628.453072,-3923.091493,229.828649
20334.797302,888.247130,-5995.668130,0.000000
20334.797635,222.061783,-6957.935855,-1838.629195
20334.797969,-1406.391290,-8438.347739,-3064.381992
20334.798303,1110.308913,-9474.636058,-3140.991542
20334.798636,0.000000,-9548.656652,2451.505594
20334.798970,4663.297435,-10066.800811,3600.648841
20334.799303,4663.297435,-10955.047942,995.924147
20334.799637,4071.132681,-11251.130318,1762.019645
20334.799970,1406.391290,-10955.047942,-612.876398
20334.800304,2738.761985,-10658.965565,-1915.238745
20334.800637,296.082377,-10140.821405,-3447.429741
20334.800971,-1776.494261,-10732.986159,-2451.505594
20334.801304,-3330.926739,-9548.656652,-3677.258390
20334.801638,-4737.318029,-9548.656652,1762.019645
20334.801971,2886.803174,-7105.977043,2681.334243
20334.802305,5625.565159,-1554.432478,6435.202183
20334.802638,9474.636058,-2442.679609,9193.145976
20334.802972,10288.862594,-6809.894666,7890.783629
20334.803305,5477.523971,-9770.718434,2068.457845
20334.803639,1776.494261,-11325.150913,-4596.572988
20334.803972,1702.473667,-15396.283594,-6205.373534
20334.804306,-3552.988522,-14285.974681,-7354.516781
20334.804639,-4811.338623,-16284.530724,-9882.631924
20334.804973,-6587.832884,-13915.871710,-8273.831378
20334.805306,-7105.977043,-11917.315666,0.000000
20334.805640,0.000000,-7179.997637,5669.106685
20334.805973,4441.235652,-3182.885551,11721.261119
20334.806307,7920.203579,-2072.576638,13713.109414
20334.806640,8364.327145,-1332.370696,12487.356617
20334.806974,7624.121203,-2960.823768,7277.907231
20334.807307,2368.659014,-7179.997637,-459.657299
20334.807641,-1998.556043,-10658.965565,-8580.269578
20334.807974,-7105.977043,-15544.324782,-13023.623466
20334.808308,-11695.253884,-18283.086767,-14096.157163
20334.808641,-11695.253884,-18949.272115,-11031.775171
20334.808975,-11473.192101,-12879.583391,-7201.297681
20334.809308,-4737.318029,-9548.656652,4749.792088
20334.809642,4663.297435,-3256.906145,10572.117872
20334.809975,6217.729913,-962.267725,14096.157163
20334.810309,10288.862594,-2368.659014,15704.957709
20334.810643,8216.285956,-1776.494261,10648.727422
20334.810976,5107.421000,-5181.441594,3600.648841
20334.811310,1924.535449,-7698.141797,-3140.991542
20334.811643,-3627.009116,-11843.295072,-11721.261119
20334.811977,-11843.295072,-15470.304188,-13789.718964
20334.812310,-12731.542202,-16358.551318,-11797.870669
20334.812644,-7476.080014,-16284.530724,-8350.440928
20334.812977,-4737.318029,-11029.068536,0.000000
20334.813311,3478.967927,-8586.388927,6358.592633
20334.813644,6957.935855,-5921.647536,12793.794817
20334.813978,8438.347739,-3478.967927,12947.013916
20334.814311,9104.533087,-3404.947333,9576.193725
20334.814645,7920.203579,-2146.597232,4290.134789
20334.814978,2664.741391,-5403.503377,1991.848295
20334.815312,1110.308913,-11177.109724,-4979.620737
20334.815645,-4811.338623,-14211.954086,-11414.822920
20334.815979,-7772.162391,-15988.448347,-11108.384721
20334.816312,-7105.977043,-11917.315666,-7354.516781
20334.816646,-1258.350101,-10362.883188,-1991.848295
20334.816979,2812.782580,-9400.615463,4443.353888
20334.817312,7698.141797,-7920.203579,8427.050478
20334.817646,9770.718434,-7179.997637,10418.898773
20334.817979,9770.718434,-9252.574275,11414.822920
20334.818313,8808.450710,-7698.141797,3140.991542
20334.818646,6735.874072,-10658.965565,-76.609550
20334.818979,-2590.720797,-10436.903782,-3217.601092
20334.819313,-4737.318029,-10436.903782,-4903.011187
20334.819646,-5995.668130,-11695.253884,-7431.126331
20334.819979,-3775.050304,-10436.903782,-2757.943793
20334.820313,-222.061783,-5773.606348,1302.362347
20334.820646,1776.494261,-8068.244768,4903.011187
20334.820980,2590.720797,-7031.956449,5209.449386
20334.821313,2960.823768,-8512.368333,4213.525239
20334.821646,4737.318029,-7920.203579,3677.258390
20334.821980,2886.803174,-7550.100608,-76.609550
20334.822313,-814.226536,-9992.780217,-4136.915689
20334.822646,-3849.070898,-14211.954086,-2528.115143
20334.822980,-7772.162391,-14211.954086,-4979.620737
20334.823313,-7698.141797,-9696.697840,-3983.696590
20334.823647,-5403.503377,-8290.306550,-76.609550
20334.823980,-1628.453072,-5033.400406,3294.210641
20334.824313,2294.638420,-4441.235652,5745.716235
20334.824647,3997.112087,-5551.544565,6971.469032
20334.824980,2368.659014,-6291.750507,2757.943793
20334.825313,1998.556043,-9400.615463,0.000000
20334.825647,1554.432478,-11843.295072,-1915.238745
20334.825980,-3627.009116,-10881.027347,-7354.516781
20334.826313,-7105.977043,-14434.015869,-4213.525239
20334.826647,-6365.771101,-13397.727550,-4596.572988
20334.826980,-4737.318029,-10732.986159,0.000000
20334.827314,0.000000,-7179.997637,3753.867940
20334.827647,2072.576638,-6217.729913,6358.592633
20334.827980,4663.297435,-6809.894666,9422.974625
20334.828314,4663.297435,-1554.432478,3677.258390
20334.828647,5773.606348,-7105.977043,4213.525239
20334.828980,4663.297435,-6809.894666,-1455.581446
20334.829314,0.000000,-10140.821405,-3677.258390
20334.829647,-1332.370696,-14804.118840,-4979.620737
20334.829981,-4811.338623,-15988.448347,-6358.592633
20334.830314,-5773.606348,-15322.262999,-4673.182538
20334.830647,-1924.535449,-10436.903782,306.438199
20334.830981,3478.967927,-6513.812290,4519.963438
20334.831314,5329.482782,-5107.421000,9499.584175
20334.831647,8808.450710,-4737.318029,7354.516781
20334.831981,6143.709319,-4811.338623,4903.011187
20334.832314,7105.977043,-8290.306550,2374.896044
20334.832647,4663.297435,-8882.471304,-1915.238745
20334.832981,1480.411884,-9474.636058,-5286.058936
20334.833314,-2738.761985,-13915.871710,-6358.592633
20334.833648,-3627.009116,-13249.686362,-6128.763984
20334.833981,-3182.885551,-12879.583391,-3140.991542
20334.834314,1332.370696,-13323.706956,4213.525239
20334.834648,4515.256246,-6883.915261,5056.230287
20334.834981,5329.482782,-6587.832884,7967.393179
20334.835314,9104.533087,-7698.141797,9116.536426
20334.835648,4367.215058,-4219.173869,4060.306139
20334.835981,4959.379811,-7105.977043,842.705048
20334.836315,1850.514855,-7920.203579,-2528.115143
20334.836648,-3849.070898,-11325.150913,-7354.516781
20334.836981,-8808.450710,-15026.180623,-10112.460574
20334.837315,-10066.800811,-15988.448347,-8656.879127
20334.837648,-7105.977043,-12435.459826,-2757.943793
20334.837981,-740.205942,-7920.203579,4060.306139
20334.838315,4071.132681,-6365.771101,8580.269578
20334.838648,5995.668130,-3627.009116,10418.898773
20334.838981,6365.771101,-7105.977043,11568.042020
20334.839315,5847.626942,-8734.430116,7277.907231
20334.839648,518.144159,-6587.832884,0.000000
20334.839982,-3108.864956,-9474.636058,-4903.011187
20334.840315,-5995.668130,-11251.130318,-10801.946522
20334.840648,-11103.089130,-15100.201217,-11108.384721
20334.840982,-12139.377449,-13545.768739,-9576.193725
20334.841315,-7624.121203,-12213.398043,-2911.162892
20334.841648,0.000000,-7772.162391,6128.763984
20334.841982,5329.482782,-6735.874072,14019.547613
20334.842315,6735.874072,-3701.029710,12257.527968
20334.842649,7328.038826,-1258.350101,9806.022374
20334.842982,5033.400406,-5773.606348,6435.202183
20334.843315,3552.988522,-5403.503377,0.000000
20334.843649,-1036.288319,-11177.109724,-4979.620737
20334.843982,-8586.388927,-13767.830521,-12104.308868
20334.844315,-12065.356855,-15322.262999,-13866.328514
20334.844649,-9844.739029,-14656.077652,-9882.631924
20334.844982,-3627.009116,-14211.954086,-2528.115143
20334.845316,2294.638420,-5403.503377,4060.306139
20334.845649,7105.977043,-5995.668130,11031.775171
20334.845982,10955.047942,-5921.647536,15245.300410
20334.846316,10658.965565,-5403.503377,13330.061665
20334.846649,9400.615463,-6513.812290,6511.811733
20334.846982,7772.162391,-7550.100608,1838.629195
20334.847316,2442.679609,-10807.006753,-4366.744339
20334.847649,-4589.276840,-13471.748144,-9882.631924
20334.847982,-7772.162391,-15396.283594,-12947.013916
20334.848316,-10140.821405,-12509.480420,-9806.022374
20334.848649,-4737.318029,-11473.192101,-1762.019645
20334.848983,3478.967927,-9474.636058,4826.401637
20334.849316,5255.462188,-5921.647536,7277.907231
20334.849649,8586.388927,-4737.318029,10878.556072
20334.849983,9844.739029,-3923.091493,10265.679673
20334.850316,8956.491898,-6069.688724,6281.983084
20334.850649,7105.977043,-8068.244768,2451.505594
20334.850983,518.144159,-8364.327145,-4903.011187
20334.851316,-3923.091493,-16580.613101,-5592.497135
20334.851650,-5995.668130,-14804.118840,-11108.384721
20334.851983,-8882.471304,-13101.645173,-7967.393179
20334.852316,-2442.679609,-11843.295072,-689.485948
20334.852650,1480.411884,-6883.915261,4443.353888
20334.852983,4515.256246,-6217.729913,6741.640382
20334.853316,6365.771101,-5107.421000,8273.831378
20334.853650,5329.482782,-7179.997637,7967.393179
20334.853983,5181.441594,-4959.379811,3677.258390
20334.854316,2738.761985,-8882.471304,-306.438199
20334.854650,-3330.926739,-11695.253884,-4673.182538
20334.854983,-7254.018232,-13249.686362,-6741.640382
20334.855317,-9474.636058,-11029.068536,-8197.221829
20334.855650,-5107.421000,-13027.624579,-4366.744339
20334.855983,-4737.318029,-7476.080014,2451.505594
20334.856317,-444.123565,-8290.306550,5209.449386
20334.856650,3182.885551,-7105.977043,5439.278036
20334.856983,1184.329507,-5403.503377,4903.011187
20334.857317,3182.885551,-6217.729913,2221.676944
20334.857650,2442.679609,-7846.182985,1608.800546
20334.857984,0.000000,-8438.347739,-2681.334243
20334.858317,-2146.597232,-13767.830521,-3677.258390
20334.858650,-5403.503377,-12805.562797,-5822.325785
20334.858984,-8290.306550,-11917.315666,-2451.505594
20334.859317,-1850.514855,-10658.965565,-76.609550
20334.859650,0.000000,-5255.462188,1915.238745
20334.859984,4663.297435,-7105.977043,6665.030833
20334.860317,4071.132681,-5699.585753,6205.373534
20334.860650,5255.462188,-7772.162391,3753.867940
20334.860984,2294.638420,-8808.450710,766.095498
20334.861317,2294.638420,-9474.636058,-1915.238745
20334.861651,-4441.235652,-8364.327145,-4290.134789
20334.861984,-3330.926739,-13027.624579,-3753.867940
20334.862317,-2442.679609,-12435.459826,-5898.935335
20334.862651,-3552.988522,-10732.986159,0.000000
20334.862984,1406.391290,-8438.347739,3140.991542
20334.863317,3552.988522,-6291.750507,6588.421283
20334.863651,5255.462188,-6809.894666,6818.249932
20334.863984,4959.379811,-6439.791695,5975.544884
20334.864318,3478.967927,-4811.338623,766.095498
20334.864651,1184.329507,-6587.832884,1225.752797
20334.864984,1998.556043,-10362.883188,-3140.991542
20334.865318,-2812.782580,-9548.656652,-8120.612279
20334.865651,-5921.647536,-14285.974681,-6128.763984
20334.865984,-4811.338623,-13915.871710,-6665.030833
20334.866318,-2146.597232,-11843.295072,-842.705048
20334.866651,3552.988522,-7031.956449,5592.497135
20334.866985,7179.997637,-4737.318029,8886.707777
20334.867318,8290.306550,-3701.029710,9422.974625
20334.867651,7476.080014,-5699.585753,6818.249932
20334.867985,3923.091493,-7328.038826,995.924147
20334.868318,592.164754,-8734.430116,-3140.991542
20334.868651,-592.164754,-12139.377449,-6511.811733
20334.868985,-4811.338623,-14211.954086,-10189.070123
20334.869318,-8734.430116,-12805.562797,-9806.022374
20334.869651,-8290.306550,-14285.974681,-2911.162892
20334.869985,0.000000,-10658.965565,3600.648841
20334.870318,3849.070898,-6587.832884,6128.763984
20334.870652,7105.977043,-5773.606348,11261.603821
20334.870985,7698.141797,-5329.482782,10955.165621
20334.871318,6439.791695,-4663.297435,7048.078582
20334.871652,5847.626942,-5773.606348,2374.896044
20334.871985,296.082377,-9474.636058,-2528.115143
20334.872318,-7105.977043,-10732.986159,-7201.297681
20334.872652,-9030.512492,-15692.365970,-11108.384721
20334.872985,-11325.150913,-15396.283594,-12104.308868
20334.873319,-9548.656652,-14211.954086,-6205.373534
20334.873652,-4959.379811,-9548.656652,229.828649
20334.873985,2886.803174,-5329.482782,7737.564530
20334.874319,6513.812290,-3849.070898,12410.747068
20334.874652,7772.162391,-4219.173869,12257.527968
20334.874985,9400.615463,-6513.812290,9116.536426
20334.875319,3552.988522,-6587.832884,6052.154434
20334.875652,3182.885551,-8882.471304,-3140.991542
20334.875985,-5329.482782,-10732.986159,-10725.336972
20334.876319,-10362.883188,-13397.727550,-11721.261119
20334.876652,-11103.089130,-14434.015869,-11184.994271
20334.876986,-8290.306550,-13767.830521,-5515.887586
20334.877319,-3404.947333,-10140.821405,1532.190996
20334.877652,3997.112087,-7105.977043,8886.707777
20334.877986,7031.956449,-3182.885551,9806.022374
20334.878319,9400.615463,-4737.318029,13100.233016
20334.878652,9400.615463,-5921.647536,9116.536426
20334.878986,5403.503377,-3627.009116,3983.696590
20334.879319,2960.823768,-8364.327145,0.000000
20334.879653,-666.185348,-13027.624579,-6281.983084
20334.879986,-9474.636058,-15544.324782,-12180.918418
20334.880319,-11029.068536,-15544.324782,-12640.575717
20334.880653,-7179.997637,-13915.871710,-6818.249932
20334.880986,-3552.988522,-7772.162391,1838.629195
20334.881319,5847.626942,-7105.977043,5286.058936
20334.881653,7920.203579,-2738.761985,8733.488677
20334.881986,9474.636058,-5995.668130,14019.547613
20334.882319,9770.718434,-6513.812290,8886.707777
20334.882653,7402.059420,-7624.121203,4213.525239
20334.882986,3182.885551,-8808.450710,-1915.238745
20334.883320,-2664.741391,-11621.233289,-7354.516781
20334.883653,-5403.503377,-13027.624579,-10189.070123
20334.883986,-8290.306550,-13693.809927,-8886.707777
20334.884320,-3997.112087,-12583.501014,-4366.744339
20334.884653,-296.082377,-9326.594869,2374.896044
20334.884986,3182.885551,-7328.038826,4596.572988
20334.885320,6439.791695,-7698.141797,8503.660028
20334.885653,5107.421000,-4811.338623,6435.202183
20334.885987,4737.318029,-5403.503377,8886.707777
20334.886320,6439.791695,-6809.894666,1762.019645
20334.886653,1702.473667,-9104.533087,-2451.505594
20334.886987,-2812.782580,-13989.892304,-2911.162892
20334.887320,-7550.100608,-13693.809927,-6588.421283
20334.887653,-6291.750507,-11769.274478,-6588.421283
20334.887987,-4737.318029,-9992.780217,-2068.457845
20334.888320,0.000000,-5403.503377,1225.752797
20334.888653,1184.329507,-5995.668130,7048.078582
20334.888987,4663.297435,-4959.379811,4519.963438
20334.889320,1998.556043,-5995.668130,3677.258390
20334.889654,3256.906145,-8882.471304,3600.648841
20334.889987,2294.638420,-7402.059420,-1225.752797
20334.890320,-2368.659014,-10140.821405,-2681.334243
20334.890654,-5033.400406,-12213.398043,-5439.278036
20334.890987,-5773.606348,-13027.624579,-3447.429741
20334.891320,-2886.803174,-12435.459826,1762.019645
20334.891654,1628.453072,-11251.130318,4826.401637
20334.891987,814.226536,-6883.915261,3677.258390
20334.892321,1628.453072,-7031.956449,4903.011187
20334.892654,2072.576638,-6513.812290,4060.306139
20334.892987,0.000000,-6143.709319,919.314598
20334.893321,1332.370696,-7994.224174,-689.485948
20334.893654,-1776.494261,-11325.150913,-2528.115143
20334.893987,-4219.173869,-12435.459826,-4596.572988
20334.894321,-7105.977043,-13619.789333,-5439.278036
20334.894654,-4811.338623,-14211.954086,-3140.991542
20334.894988,-1554.432478,-7179.997637,1838.629195
20334.895321,3552.988522,-6365.771101,8197.221829
20334.895654,8216.285956,-7105.977043,9729.412825
20334.895988,6439.791695,-6513.812290,8197.221829
20334.896321,4959.379811,-7031.956449,4596.572988
20334.896654,3552.988522,-7920.203579,536.266849
20334.896988,1258.350101,-9104.533087,-3753.867940
20334.897321,-4145.153275,-9548.656652,-7354.516781
20334.897654,-4811.338623,-12287.418637,-10418.898773
20334.897988,-4737.318029,-13989.892304,-7048.078582
20334.898321,-1258.350101,-14211.954086,-2528.115143
20334.898655,0.000000,-9844.739029,3370.820191
20334.898988,4367.215058,-8438.347739,9422.974625
20334.899321,6439.791695,-4811.338623,8733.488677
20334.899655,7402.059420,-4885.359217,8580.269578
20334.899988,5625.565159,-5329.482782,4366.744339
20334.900321,3552.988522,-5403.503377,612.876398
20334.900655,1776.494261,-7624.121203,-3677.258390
20334.900988,-1850.514855,-11695.253884,-8044.002729
20334.901322,-6291.750507,-16284.530724,-9882.631924
20334.901655,-8142.265362,-16580.613101,-8963.317327
20334.901988,-5329.482782,-10732.986159,-3677.258390
20334.902322,2294.638420,-8290.306550,2068.457845
20334.902655,5403.503377,-5403.503377,8886.707777
20334.902988,10584.944971,-6217.729913,12563.966167
20334.903322,10584.944971,-5921.647536,9729.412825
20334.903655,5033.400406,-5995.668130,4903.011187
20334.903988,4071.132681,-7550.100608,229.828649
20334.904322,-962.267725,-10214.842000,-4443.353888
20334.904655,-6883.915261,-11843.295072,-8886.707777
20334.904989,-10658.965565,-13101.645173,-9806.022374
20334.905322,-8364.327145,-13619.789333,-9882.631924
20334.905655,-6513.812290,-9844.739029,-3753.867940
20334.905989,0.000000,-7179.997637,6435.202183
20334.906322,5255.462188,-7105.977043,9116.536426
20334.906655,5033.400406,-4219.173869,11031.775171
20334.906989,6439.791695,-5773.606348,8963.317327
20334.907322,5699.585753,-5477.523971,4749.792088
20334.907656,3701.029710,-7476.080014,536.266849
20334.907989,1110.308913,-11547.212695,-3753.867940
20334.908322,-4811.338623,-14211.954086,-11108.384721
20334.908656,-11843.295072,-15470.304188,-10342.289223
20334.908989,-7698.141797,-15174.221811,-5592.497135
20334.909322,-3627.009116,-10362.883188,-2451.505594
20334.909656,3108.864956,-7994.224174,6358.592633
20334.909989,5921.647536,-5921.647536,10189.070123
20334.910322,8808.450710,-4737.318029,11721.261119
20334.910656,7624.121203,-5477.523971,9652.803275
20334.910989,6217.729913,-6217.729913,4136.915689
20334.911323,2960.823768,-4811.338623,-2451.505594
20334.911656,-1776.494261,-11029.068536,-3753.867940
20334.911989,-5403.503377,-13619.789333,-10495.508323
20334.912323,-9548.656652,-14285.974681,-13483.280765
20334.912656,-7624.121203,-15100.201217,-6511.811733
20334.912989,-3775.050304,-10436.903782,-383.047749
20334.913323,222.061783,-7920.203579,4060.306139
20334.913656,3849.070898,-5477.523971,7354.516781
20334.913990,7105.977043,-4441.235652,9729.412825
20334.914323,8290.306550,-4071.132681,9729.412825
20334.914656,7846.182985,-5329.482782,6281.983084
20334.914990,4441.235652,-7920.203579,1072.533697
20334.915323,0.000000,-11029.068536,-3524.039291
20334.915656,-5921.647536,-16062.468941,-6894.859482
20334.915990,-7772.162391,-14211.954086,-12257.527968
20334.916323,-9474.636058,-11917.315666,-9806.022374
20334.916657,-4145.153275,-10140.821405,-76.609550
20334.916990,592.164754,-5995.668130,4136.915689
20334.917323,4145.153275,-6069.688724,8044.002729
20334.917656,6439.791695,-5699.585753,8197.221829
20334.917989,6513.812290,-6143.709319,7660.954980
20334.918322,7624.121203,-7105.977043,6665.030833
20334.918655,2368.659014,-5995.668130,536.266849
20334.918988,-1184.329507,-10732.986159,-2987.772442
20334.919322,-5329.482782,-11325.150913,-7048.078582
20334.919655,-7105.977043,-14582.057057,-4366.744339
20334.919988,-1258.350101,-13619.789333,-3140.991542
20334.920321,-222.061783,-10436.903782,0.000000
20334.920654,296.082377,-8808.450710,4826.401637
20334.920987,2368.659014,-5477.523971,5592.497135
20334.921320,2812.782580,-5329.482782,4366.744339
20334.921653,6439.791695,-6513.812290,5745.716235
20334.921987,3552.988522,-5995.668130,1225.752797
20334.922320,1776.494261,-8660.409521,1762.019645
20334.922653,-2738.761985,-10510.924376,-5362.668486
20334.922986,-7846.182985,-12805.562797,-7048.078582
20334.923319,-5403.503377,-12879.583391,-4903.011187
20334.923652,-2146.597232,-9474.636058,153.219100
20334.923985,3034.844362,-7105.977043,4213.525239
20334.924318,3404.947333,-7402.059420,6052.154434
20334.924652,4663.297435,-6513.812290,4826.401637
20334.924985,4737.318029,-9326.594869,4826.401637
20334.925318,3923.091493,-9474.636058,-76.609550
20334.925651,0.000000,-7772.162391,-2145.067394
20334.925984,-2664.741391,-12065.356855,-3983.696590
20334.926317,-4737.318029,-11325.150913,-5669.106685
20334.926650,-5773.606348,-12953.603985,-4443.353888
20334.926983,-2146.597232,-11399.171507,459.657299
20334.927317,740.205942,-8808.450710,6358.592633
20334.927650,2368.659014,-5403.503377,7354.516781
20334.927983,5847.626942,-8290.306550,8503.660028
20334.928316,2886.803174,-5255.462188,2911.162892
20334.928649,1184.329507,-7328.038826,4213.525239
20334.928982,4663.297435,-8882.471304,-229.828649
20334.929315,-2220.617826,-7179.997637,-4903.011187
20334.929648,-4811.338623,-12065.356855,-8044.002729
20334.929982,-8882.471304,-15322.262999,-8733.488677
20334.930315,-9474.636058,-14878.139434,-4903.011187
20334.930648,-3997.112087,-8956.491898,0.000000
20334.930981,3552.988522,-6661.853478,7814.174080
20334.931314,7624.121203,-5625.565159,11568.042020
20334.931647,8586.388927,-4293.194464,11414.822920
20334.931980,8216.285956,-7105.977043,8503.660028
20334.932313,2738.761985,-4811.338623,1225.752797
20334.932647,1998.556043,-8882.471304,-995.924147
20334.932980,-74.020594,-11251.130318,-8656.879127
20334.933313,-8142.265362,-13101.645173,-12257.527968
20334.933646,-9030.512492,-17024.736666,-7431.126331
20334.933979,-7698.141797,-12879.583391,-4826.401637
20334.934312,-1776.494261,-11695.253884,2834.553343
20334.934645,4367.215058,-7105.977043,9422.974625
20334.934978,5773.606348,-4071.132681,9422.974625
20334.935312,6217.729913,-2442.679609,10418.898773
20334.935645,8808.450710,-4737.318029,7277.907231
20334.935978,5255.462188,-4737.318029,1149.143247
20334.936311,1480.411884,-7772.162391,-1532.190996
20334.936644,-2590.720797,-12435.459826,-8044.002729
20334.936977,-10140.821405,-15766.386565,-12104.308868
20334.937310,-11695.253884,-14582.057057,-12793.794817
20334.937643,-8734.430116,-15026.180623,-6588.421283
20334.937977,0.000000,-7772.162391,2451.505594
20334.938310,5255.462188,-5995.668130,11031.775171
20334.938643,11177.109724,-4737.318029,12180.918418
20334.938976,9696.697840,-3627.009116,11031.775171
20334.939309,5329.482782,-6587.832884,9193.145976
20334.939642,7550.100608,-5107.421000,2145.067394
20334.939975,2812.782580,-9104.533087,-2221.676944
20334.940309,-3182.885551,-12731.542202,-8350.440928
20334.940642,-9030.512492,-13397.727550,-12334.137518
20334.940975,-9548.656652,-15396.283594,-11108.384721
20334.941308,-7105.977043,-12213.398043,-4136.915689
20334.941641,-1258.350101,-13027.624579,2374.896044
20334.941974,1702.473667,-5995.668130,3983.696590
20334.942307,4145.153275,-6587.832884,9806.022374
20334.942640,8808.450710,-5329.482782,12180.918418
20334.942974,7031.956449,-4663.297435,7660.954980
20334.943307,7105.977043,-5921.647536,4749.792088
20334.943640,1184.329507,-8142.265362,-383.047749
20334.943973,-4367.215058,-10436.903782,-8197.221829
20334.944306,-8364.327145,-17468.860231,-10189.070123
20334.944639,-12287.418637,-13101.645173,-10418.898773
20334.944972,-8290.306550,-13101.645173,-2604.724693
20334.945305,-74.020594,-7105.977043,229.828649
20334.945639,4071.132681,-7105.977043,7354.516781
20334.945972,7031.956449,-4441.235652,8580.269578
20334.946305,7550.100608,-6661.853478,9729.412825
20334.946638,6439.791695,-7105.977043,6818.249932
20334.946971,3552.988522,-5403.503377,1838.629195
20334.947304,1110.308913,-10066.800811,-3753.867940
20334.947637,-4219.173869,-12435.459826,-7124.688131
20334.947970,-7402.059420,-13323.706956,-8120.612279
20334.948304,-7920.203579,-13027.624579,-6588.421283
20334.948637,-3404.947333,-10362.883188,-1302.362347
20334.948970,-740.205942,-9474.636058,6052.154434
20334.949303,4071.132681,-5921.647536,4519.963438
20334.949636,2368.659014,-5403.503377,6128.763984
20334.949969,5329.482782,-5403.503377,5515.887586
20334.950302,7031.956449,-5625.565159,3983.696590
20334.950635,4589.276840,-8290.306550,1455.581446
20334.950969,1998.556043,-10807.006753,-3447.429741
20334.951302,-3256.906145,-14211.954086,-5745.716235
20334.951635,-6513.812290,-12509.480420,-7967.393179
20334.951968,-3034.844362,-14211.954086,-4979.620737
20334.952301,-2368.659014,-8290.306550,-995.924147
20334.952634,296.082377,-5995.668130,4903.011187
20334.952967,5551.544565,-7105.977043,7890.783629
20334.953300,6069.688724,-3627.009116,6741.640382
20334.953634,5107.421000,-8364.327145,5132.839837
20334.953967,7328.038826,-6069.688724,1915.238745
20334.954300,2368.659014,-8216.285956,-1455.581446
20334.954633,296.082377,-10140.821405,-5056.230287
20334.954966,-74.020594,-15396.283594,-7431.126331
20334.955299,-3552.988522,-12805.562797,-4136.915689
20334.955632,-2368.659014,-12509.480420,0.000000
20334.955965,4367.215058,-10658.965565,3447.429741
20334.956299,4145.153275,-9622.677246,6052.154434
20334.956632,5107.421000,-6735.874072,5592.497135
20334.956965,6217.729913,-4885.359217,4290.134789
20334.957298,5107.421000,-7105.977043,2221.676944
20334.957631,4663.297435,-7105.977043,-76.609550
20334.957964,370.102971,-8364.327145,-5286.058936
20334.958297,-4145.153275,-12065.356855,-3753.867940
20334.958630,-5995.668130,-14211.954086,-6818.249932
20334.958964,-6587.832884,-12805.562797,-6665.030833
20334.959297,-2368.659014,-10658.965565,2681.334243
20334.959630,1258.350101,-6365.771101,5745.716235
20334.959963,3552.988522,-5995.668130,7584.345430
20334.960296,4885.359217,-5921.647536,7737.564530
20334.960629,3478.967927,-8290.306550,6052.154434
20334.960962,592.164754,-7994.224174,612.876398
20334.961295,-1924.535449,-8586.388927,-4366.744339
20334.961629,-8068.244768,-11843.295072,-8580.269578
20334.961962,-10658.965565,-10732.986159,-9806.022374
20334.962295,-11251.130318,-13101.645173,-4903.011187
20334.962628,-4811.338623,-11547.212695,-1685.410096
20334.962961,-3552.988522,-8364.327145,3677.258390
20334.963294,1184.329507,-5403.503377,9806.022374
20334.963627,2960.823768,-4367.215058,9346.365076
20334.963961,4441.235652,-4515.256246,8427.050478
20334.964294,2590.720797,-5921.647536,3294.210641
20334.964627,666.185348,-6883.915261,-1532.190996
20334.964960,-1258.350101,-9474.636058,-3140.991542
20334.965293,-6587.832884,-11029.068536,-8350.440928
20334.965626,-9548.656652,-15396.283594,-12487.356617
20334.965959,-11843.295072,-14878.139434,-7967.393179
20334.966292,-4737.318029,-12361.439231,-689.485948
20334.966626,1332.370696,-7772.162391,6128.763984
20334.966959,6587.832884,-5477.523971,10572.117872
20334.967292,9474.636058,-3775.050304,12793.794817
20334.967625,10066.800811,-3775.050304,11874.480219
20334.967958,8216.285956,-6513.812290,6052.154434
20334.968291,5921.647536,-6291.750507,1991.848295
20334.968624,0.000000,-9548.656652,-8273.831378
20334.968957,-5921.647536,-12509.480420,-10725.336972
20334.969291,-7179.997637,-15396.283594,-12334.137518
20334.969624,-5995.668130,-13027.624579,-10495.508323
20334.969957,-3256.906145,-13101.645173,-2451.505594
20334.970290,4441.235652,-7846.182985,6205.373534
20334.970623,9326.594869,-6661.853478,11184.994271
20334.970956,11769.274478,-4293.194464,12947.013916
20334.971289,14137.933492,-7105.977043,12180.918418
20334.971622,8290.306550,-4811.338623,7354.516781
20334.971956,4737.318029,-5995.668130,2451.505594
20334.972289,3182.885551,-9474.636058,-5592.497135
20334.972622,-6217.729913,-12509.480420,-11874.480219
20334.972955,-9844.739029,-15026.180623,-14096.157163
20334.973288,-8438.347739,-14582.057057,-10265.679673
20334.973621,-4663.297435,-11843.295072,-3524.039291
20334.973954,296.082377,-8068.244768,3370.820191
20334.974287,5255.462188,-4737.318029,6971.469032
20334.974621,8290.306550,-5403.503377,15551.738609
20334.974954,9400.615463,-4737.318029,10955.165621
20334.975287,6735.874072,-3923.091493,4903.011187
20334.975620,3552.988522,-5403.503377,1378.971896
20334.975953,-1258.350101,-9918.759623,-4596.572988
20334.976286,-5995.668130,-14063.912898,-9039.926876
20334.976619,-11621.233289,-15248.242405,-11644.651570
20334.976952,-10436.903782,-14285.974681,-8733.488677
20334.977286,-5107.421000,-11547.212695,-2987.772442
20334.977619,-1258.350101,-8290.306550,4213.525239
20334.977952,1184.329507,-5551.544565,7660.954980
20334.978285,3775.050304,-4589.276840,9806.022374
20334.978618,5033.400406,-4515.256246,10725.336972
20334.978951,4663.297435,-5329.482782,5745.716235
20334.979284,0.000000,-6587.832884,0.000000
20334.979617,-3552.988522,-13027.624579,-2834.553343
20334.979951,-10288.862594,-13693.809927,-8886.707777
20334.980284,-12731.542202,-12509.480420,-9806.022374
20334.980617,-9548.656652,-11769.274478,-5975.544884
20334.980950,-5181.441594,-9104.533087,-536.266849
20334.981283,-296.082377,-6513.812290,4979.620737
20334.981616,4663.297435,-5921.647536,8503.660028
20334.981949,7031.956449,-5921.647536,6665.030833
20334.982282,4145.153275,-6291.750507,7507.735880
20334.982616,4737.318029,-6587.832884,5286.058936
20334.982949,4515.256246,-8882.471304,-1915.238745
20334.983282,0.000000,-12805.562797,-2604.724693
20334.983615,-2590.720797,-13619.789333,-6588.421283
20334.983948,-4737.318029,-13471.748144,-5515.887586
20334.984281,-1258.350101,-11621.233289,-2834.553343
20334.984614,-370.102971,-10066.800811,536.266849
20334.984947,3478.967927,-6809.894666,1762.019645
20334.985281,4737.318029,-5995.668130,7737.564530
20334.985614,6735.874072,-6513.812290,5439.278036
20334.985947,6439.791695,-4663.297435,2451.505594
20334.986280,5551.544565,-8882.471304,2374.896044
20334.986613,2368.659014,-8364.327145,-2221.676944
20334.986946,-2812.782580,-11917.315666,-5286.058936
20334.987279,-4737.318029,-14804.118840,-6435.202183
20334.987613,-4737.318029,-13397.727550,-3064.381992
20334.987946,-148.041188,-7772.162391,0.000000
20334.988279,2960.823768,-7772.162391,6818.249932
20334.988612,6439.791695,-6957.935855,6665.030833
20334.988945,4441.235652,-7105.977043,5439.278036
20334.989278,3552.988522,-5403.503377,2451.505594
20334.989611,3627.009116,-8734.430116,383.047749
20334.989944,296.082377,-8364.327145,-2757.943793
20334.990278,-2738.761985,-11103.089130,-5515.887586
20334.990611,-3627.009116,-13027.624579,-5898.935335
20334.990944,-4737.318029,-11917.315666,-2145.067394
20334.991277,-1258.350101,-11843.295072,-76.609550
20334.991610,2886.803174,-7698.141797,3677.258390
20334.991943,2368.659014,-8068.244768,8810.098227
20334.992276,4145.153275,-5403.503377,5515.887586
20334.992609,4145.153275,-6809.894666,4903.011187
20334.992943,2960.823768,-7698.141797,1915.238745
20334.993276,2442.679609,-7994.224174,-383.047749
20334.993609,-1258.350101,-11843.295072,-5592.497135
20334.993942,-6513.812290,-12509.480420,-7431.126331
20334.994275,-9622.677246,-14878.139434,-7737.564530
20334.994608,-7031.956449,-13175.665768,-3447.429741
20334.994941,-2368.659014,-8882.471304,2987.772442
20334.995274,5107.421000,-7105.977043,10572.117872
20334.995608,5921.647536,-1258.350101,9806.022374
20334.995941,5921.647536,-3923.091493,12180.918418
20334.996274,6439.791695,-6217.729913,5362.668486
20334.996607,74.020594,-6291.750507,0.000000
20334.996940,-814.226536,-10362.883188,-5592.497135
20334.997273,-4737.318029,-10362.883188,-9039.926876
20334.997606,-7328.038826,-13767.830521,-11414.822920
20334.997939,-8660.409521,-14137.933492,-9882.631924
20334.998273,-4219.173869,-13619.789333,-4366.744339
20334.998606,0.000000,-10140.821405,5669.106685
20334.998939,6513.812290,-7254.018232,12180.918418
20334.999272,9400.615463,-4737.318029,9806.022374
20334.999605,9474.636058,-3627.009116,11031.775171
20334.999938,10584.944971,-4737.318029,6511.811733
20335.000271,7402.059420,-6587.832884,2834.553343
20335.000604,3034.844362,-9178.553681,-3370.820191
20335.000938,-2442.679609,-12213.398043,-9422.974625
20335.001271,-10510.924376,-14878.139434,-13483.280765
20335.001604,-9474.636058,-16062.468941,-9882.631924
20335.001937,-7772.162391,-14211.954086,-5592.497135
20335.002270,-74.020594,-8290.306550,689.485948
20335.002603,4663.297435,-6513.812290,9729.412825
20335.002936,7105.977043,-3923.091493,12563.966167
20335.003269,9548.656652,-4589.276840,12180.918418
20335.003603,6957.935855,-5403.503377,8580.269578
20335.003936,5847.626942,-5921.647536,2451.505594
20335.004269,0.000000,-8364.327145,-2451.505594
20335.004602,-2590.720797,-14211.954086,-7431.126331
20335.004935,-9548.656652,-14359.995275,-13789.718964
20335.005268,-10658.965565,-14285.974681,-11644.651570
20335.005601,-5551.544565,-15988.448347,-2528.115143
20335.005934,-4441.235652,-9548.656652,1532.190996
20335.006268,1702.473667,-7402.059420,6971.469032
20335.006601,5329.482782,-5329.482782,11721.261119
20335.006934,8068.244768,-3478.967927,11874.480219
20335.007267,5921.647536,-4219.173869,7354.516781
20335.007600,4663.297435,-5625.565159,3524.039291
20335.007933,1258.350101,-8290.306550,-1608.800546
20335.008266,-4589.276840,-11917.315666,-6818.249932
20335.008599,-8364.327145,-14211.954086,-12027.699319
20335.008933,-10140.821405,-13323.706956,-12717.185267
20335.009266,-7105.977043,-14211.954086,-4060.306139
20335.009599,-1258.350101,-9474.636058,-76.609550
20335.009932,1258.350101,-6587.832884,4903.011187
20335.010265,7624.121203,-6513.812290,9729.412825
20335.010598,6439.791695,-6439.791695,9806.022374
20335.010931,8216.285956,-5699.585753,7660.954980
20335.011265,7179.997637,-6217.729913,3753.867940
20335.011598,0.000000,-9548.656652,-1225.752797
20335.011931,-370.102971,-10732.986159,-7967.393179
20335.012264,-6513.812290,-17172.777854,-6818.249932
20335.012597,-5403.503377,-10436.903782,-8503.660028
20335.012930,-4219.173869,-12879.583391,-3370.820191
20335.013263,0.000000,-6587.832884,1532.190996
20335.013596,3108.864956,-7550.100608,5975.544884
20335.013930,4959.379811,-5995.668130,6052.154434
20335.014263,7698.141797,-4367.215058,5669.106685
20335.014596,6217.729913,-8512.368333,7048.078582
20335.014929,5255.462188,-5699.585753,0.000000
20335.015262,-74.020594,-13027.624579,-3753.867940
20335.015595,-3034.844362,-11917.315666,-7354.516781
20335.015928,-5921.647536,-13841.851115,-7048.078582
20335.016261,-3552.988522,-12583.501014,-3677.258390
20335.016595,-74.020594,-10658.965565,-76.609550
20335.016928,2812.782580,-7476.080014,4213.525239
20335.017261,4441.235652,-6291.750507,5132.839837
20335.017594,6291.750507,-6809.894666,4826.401637
20335.017927,2664.741391,-7179.997637,4903.011187
20335.018260,5551.544565,-6513.812290,0.000000
20335.018593,2590.720797,-6587.832884,-2451.505594
20335.018926,-888.247130,-12435.459826,-3140.991542
20335.019259,-3627.009116,-13915.871710,-6205.373534
20335.019592,-5181.441594,-14211.954086,-3447.429741
20335.019925,-3627.009116,-9548.656652,-1838.629195
20335.020258,1332.370696,-8734.430116,4519.963438
20335.020591,1480.411884,-7179.997637,6128.763984
20335.020924,4663.297435,-7105.977043,7890.783629
20335.021258,1332.370696,-3627.009116,3064.381992
20335.021591,2368.659014,-6439.791695,2451.505594
20335.021924,-74.020594,-9474.636058,-3294.210641
20335.022257,-2738.761985,-8882.471304,-6358.592633
20335.022590,-6291.750507,-13471.748144,-7431.126331
20335.022923,-9696.697840,-14508.036463,-7201.297681
20335.023256,-6587.832884,-13619.789333,-3294.210641
20335.023589,-3034.844362,-10288.862594,2451.505594
20335.023922,3330.926739,-7105.977043,8963.317327
20335.024255,4145.153275,-5403.503377,10112.460574
20335.024588,5181.441594,-4737.318029,9116.536426
20335.024921,3775.050304,-6069.688724,4290.134789
20335.025254,148.041188,-5995.668130,-1685.410096
20335.025588,148.041188,-9474.636058,-3753.867940
20335.025921,-5551.544565,-10362.883188,-9576.193725
20335.026254,-7105.977043,-14285.974681,-7737.564530
20335.026587,-7179.997637,-14508.036463,-7890.783629
20335.026920,-3923.091493,-11695.253884,-4443.353888
20335.027253,444.123565,-10584.944971,4136.915689
20335.027586,7031.956449,-6365.771101,10342.289223
20335.027919,7772.162391,-6365.771101,12180.918418
20335.028252,7698.141797,-3627.009116,9806.022374
20335.028585,5921.647536,-7550.100608,7277.907231
20335.028918,4071.132681,-5107.421000,-1532.190996
20335.029251,-2368.659014,-7772.162391,-4290.134789
20335.029584,-4515.256246,-13027.624579,-10495.508323
20335.029917,-10140.821405,-13397.727550,-13483.280765
20335.030251,-9104.533087,-15396.283594,-10189.070123
20335.030584,-3627.009116,-12361.439231,-2145.067394
20335.030917,3404.947333,-8142.265362,6894.859482
20335.031250,10436.903782,-6809.894666,13406.671215
20335.031583,12731.542202,-7105.977043,15858.176809
20335.031916,9992.780217,-3627.009116,9806.022374
20335.032249,5921.647536,-6587.832884,4903.011187
20335.032582,4145.153275,-8882.471304,1149.143247
20335.032915,-3552.988522,-10288.862594,-7048.078582
20335.033248,-8142.265362,-13397.727550,-11874.480219
20335.033581,-9400.615463,-14211.954086,-11338.213370
20335.033914,-9104.533087,-13323.706956,-7660.954980
20335.034247,-4071.132681,-11251.130318,-842.705048
20335.034580,2294.638420,-8882.471304,5439.278036
20335.034914,4885.359217,-3627.009116,9806.022374
20335.035247,8882.471304,-4145.153275,13100.233016
20335.035580,10436.903782,-7624.121203,10955.165621
20335.035913,8216.285956,-5329.482782,4826.401637
20335.036246,3108.864956,-8364.327145,1149.143247
20335.036579,148.041188,-10436.903782,-6205.373534
20335.036912,-7402.059420,-14730.098246,-10878.556072
20335.037245,-11251.130318,-15470.304188,-12563.966167
20335.037578,-9252.574275,-12805.562797,-9499.584175
20335.037911,-4589.276840,-11843.295072,612.876398
20335.038244,2294.638420,-9474.636058,5898.935335
20335.038577,6217.729913,-3034.844362,10725.336972
20335.038910,9400.615463,-3997.112087,14325.985813
20335.039243,8660.409521,-4293.194464,10725.336972
20335.039577,5921.647536,-5403.503377,4213.525239
20335.039910,4219.173869,-4885.359217,-1072.533697
20335.040243,-1776.494261,-9548.656652,-6128.763984
20335.040576,-5477.523971,-12805.562797,-10572.117872
20335.040909,-9770.718434,-15322.262999,-13100.233016
20335.041242,-9030.512492,-15914.427753,-9959.241474
20335.041575,-2294.638420,-12509.480420,-1532.190996
20335.041908,1184.329507,-7179.997637,3830.477490
20335.042241,9104.533087,-9474.636058,10955.165621
20335.042574,8216.285956,-1850.514855,10418.898773
20335.042907,11695.253884,-5625.565159,11338.213370
20335.043240,11769.274478,-4737.318029,8503.660028
20335.043573,4737.318029,-6587.832884,1685.410096
20335.043907,518.144159,-10066.800811,-5209.449386
20335.044240,-7698.141797,-15692.365970,-9576.193725
20335.044573,-7698.141797,-13323.706956,-11338.213370
20335.044906,-7105.977043,-15026.180623,-5515.887586
20335.045239,-2738.761985,-8660.409521,-2451.505594
20335.045572,0.000000,-4811.338623,3677.258390
20335.045905,4367.215058,-8290.306550,7277.907231
20335.046238,4219.173869,-4441.235652,5209.449386
20335.046571,5773.606348,-7624.121203,6665.030833
20335.046904,4737.318029,-6883.915261,4673.182538
20335.047237,814.226536,-7105.977043,-536.266849
20335.047570,-2368.659014,-11547.212695,-4213.525239
20335.047903,-4219.173869,-14211.954086,-4979.620737
20335.048236,-9474.636058,-11917.315666,-6128.763984
20335.048570,-3034.844362,-12435.459826,-689.485948
20335.048903,-1258.350101,-11251.130318,1149.143247
20335.049236,-2368.659014,-7179.997637,4903.011187
20335.049569,1554.432478,-5329.482782,5132.839837
20335.049902,1702.473667,-6957.935855,4290.134789
20335.050235,2146.597232,-5255.462188,3524.039291
20335.050568,740.205942,-6957.935855,1532.190996
20335.050901,-1480.411884,-8290.306550,-3140.991542
20335.051234,-8290.306550,-10140.821405,-3217.601092
20335.051567,-6291.750507,-14804.118840,-6511.811733
20335.051900,-6661.853478,-9548.656652,-4903.011187
20335.052233,-3552.988522,-7179.997637,2451.505594
20335.052566,3182.885551,-7105.977043,4673.182538
20335.052899,3923.091493,-6143.709319,6971.469032
20335.053233,3923.091493,-7179.997637,5669.106685
20335.053566,4737.318029,-5551.544565,2604.724693
20335.053899,3404.947333,-7698.141797,-76.609550
20335.054232,2368.659014,-8438.347739,-2987.772442
20335.054565,-3108.864956,-12065.356855,-5745.716235
20335.054898,-3923.091493,-11843.295072,-7277.907231
20335.055231,-3849.070898,-14211.954086,-2757.943793
20335.055564,-74.020594,-13027.624579,-76.609550
20335.055897,2664.741391,-7476.080014,5515.887586
20335.056230,2368.659014,-7179.997637,9193.145976
20335.056563,10436.903782,-4737.318029,8044.002729
20335.056896,4737.318029,-5403.503377,5209.449386
20335.057229,6957.935855,-7105.977043,2068.457845
20335.057563,2664.741391,-7179.997637,-2451.505594
20335.057896,-814.226536,-11473.192101,-7048.078582
20335.058229,-2442.679609,-11843.295072,-9269.755526
20335.058562,-7105.977043,-15396.283594,-8656.879127
20335.058895,-4737.318029,-13101.645173,-3064.381992
20335.059228,-370.102971,-11695.253884,4136.915689
20335.059561,7476.080014,-8142.265362,7277.907231
20335.059894,8808.450710,-6513.812290,12180.918418
20335.060227,9918.759623,-3627.009116,10418.898773
20335.060560,8364.327145,-6143.709319,7431.126331
20335.060893,3997.112087,-7846.182985,2145.067394
20335.061226,888.247130,-7179.997637,-4213.525239
20335.061559,-1850.514855,-11843.295072,-7431.126331
20335.061892,-8290.306550,-12509.480420,-8886.707777
20335.062226,-9548.656652,-15988.448347,-11108.384721
20335.062559,-9474.636058,-11917.315666,-7814.174080
20335.062892,-3701.029710,-9992.780217,1149.143247
20335.063225,1776.494261,-7328.038826,8810.098227
20335.063558,6587.832884,-5403.503377,11414.822920
20335.063891,8216.285956,-3775.050304,12563.966167
20335.064224,7105.977043,-5551.544565,9959.241474
20335.064557,4367.215058,-4293.194464,1378.971896
20335.064890,1110.308913,-9474.636058,-1915.238745
20335.065223,-4811.338623,-13027.624579,-10189.070123
20335.065556,-13027.624579,-13693.809927,-12257.527968
20335.065889,-13619.789333,-16062.468941,-11031.775171
20335.066222,-9770.718434,-13915.871710,-5439.278036
20335.066555,-3404.947333,-9178.553681,1991.848295
20335.066889,1480.411884,-5773.606348,9806.022374
20335.067222,6439.791695,-4145.153275,12180.918418
20335.067555,3552.988522,-3627.009116,12257.527968
20335.067888,7624.121203,-4737.318029,6665.030833
20335.068221,3775.050304,-5921.647536,1149.143247
20335.068554,0.000000,-7179.997637,-766.095498
20335.068887,-3701.029710,-13989.892304,-7814.174080
20335.069220,-9992.780217,-13989.892304,-13253.452115
20335.069553,-10436.903782,-15322.262999,-11721.261119
20335.069886,-5403.503377,-14211.954086,-6511.811733
20335.070219,-222.061783,-11251.130318,1762.019645
20335.070552,1776.494261,-7179.997637,7354.516781
20335.070885,7402.059420,-5329.482782,11338.213370
20335.071218,9104.533087,-3478.967927,11721.261119
20335.071552,9400.615463,-4219.173869,9193.145976
20335.071885,9104.533087,-6513.812290,4826.401637
20335.072218,2516.700203,-7328.038826,-2451.505594
20335.072551,-3552.988522,-11917.315666,-4979.620737
20335.072884,-6587.832884,-15692.365970,-12027.699319
20335.073217,-9326.594869,-14285.974681,-10572.117872
20335.073550,-5921.647536,-15988.448347,-4979.620737
20335.073883,-814.226536,-8882.471304,612.876398
20335.074216,2812.782580,-8216.285956,6052.154434
20335.074549,6957.935855,-5181.441594,9116.536426
20335.074882,8216.285956,-4441.235652,9269.755526
20335.075215,7698.141797,-3923.091493,8580.269578
20335.075548,8216.285956,-5921.647536,4826.401637
20335.075882,1998.556043,-8142.265362,-3983.696590
20335.076215,-2886.803174,-11695.253884,-5898.935335
20335.076548,-4811.338623,-14211.954086,-9422.974625
20335.076881,-6661.853478,-13989.892304,-8120.612279
20335.077214,-3182.885551,-11991.336260,-2911.162892
20335.077547,-148.041188,-12213.398043,2987.772442
20335.077880,1776.494261,-6291.750507,3677.258390
20335.078213,0.000000,-4811.338623,8580.269578
20335.078546,7031.956449,-4737.318029,5132.839837
20335.078879,4145.153275,-3627.009116,2757.943793
20335.079212,4737.318029,-5995.668130,3907.087040
20335.079545,1110.308913,-6883.915261,-2911.162892
20335.079878,-2590.720797,-12435.459826,-4673.182538
20335.080211,-5699.585753,-13397.727550,-6741.640382
20335.080545,-4959.379811,-12139.377449,-4596.572988
20335.080878,-666.185348,-11843.295072,536.266849
20335.081211,1184.329507,-8364.327145,5898.935335
20335.081544,4071.132681,-8290.306550,3907.087040
20335.081877,4219.173869,-4219.173869,4903.011187
20335.082210,3552.988522,-7772.162391,5439.278036
20335.082543,3849.070898,-5699.585753,3064.381992
20335.082876,1924.535449,-7254.018232,-919.314598
20335.083209,-2738.761985,-9770.718434,-5439.278036
20335.083542,-3923.091493,-12435.459826,-7277.907231
20335.083875,-4219.173869,-13619.789333,-4673.182538
20335.084208,-74.020594,-11843.295072,-76.609550
20335.084541,1184.329507,-7698.141797,2987.772442
20335.084874,2960.823768,-7179.997637,6435.202183
20335.085208,4367.215058,-8882.471304,6052.154434
20335.085541,4145.153275,-4515.256246,3294.210641
20335.085874,2812.782580,-8882.471304,1072.533697
20335.086207,1776.494261,-6291.750507,-1991.848295
20335.086540,-74.020594,-10214.842000,-3140.991542
20335.086873,-5107.421000,-12435.459826,-6205.373534
20335.087206,-4811.338623,-11843.295072,-5745.716235
20335.087539,-6883.915261,-13619.789333,-3907.087040
20335.087872,1184.329507,-8364.327145,3370.820191
20335.088205,1258.350101,-6439.791695,6358.592633
20335.088538,6439.791695,-6513.812290,7277.907231
20335.088871,4737.318029,-5995.668130,9652.803275
20335.089204,5255.462188,-7105.977043,2757.943793
20335.089538,2368.659014,-7179.997637,0.000000
20335.089871,-2072.576638,-8364.327145,-3983.696590
20335.090204,-6291.750507,-11029.068536,-9499.584175
20335.090537,-10288.862594,-13027.624579,-10342.289223
20335.090870,-8216.285956,-13915.871710,-6588.421283
20335.091203,-7105.977043,-11325.150913,-1302.362347
20335.091536,-2294.638420,-7772.162391,3753.867940
20335.091869,4071.132681,-7105.977043,9116.536426
20335.092202,4663.297435,-4441.235652,9806.022374
20335.092535,4737.318029,-2590.720797,9806.022374
20335.092868,6291.750507,-7698.141797,6358.592633
20335.093201,1184.329507,-6291.750507,0.000000
20335.093534,-1924.535449,-9178.553681,-5286.058936
20335.093867,-5921.647536,-12805.562797,-10189.070123
20335.094201,-9992.780217,-15470.304188,-11491.432470
20335.094534,-9474.636058,-15026.180623,-8580.269578
20335.094867,-3627.009116,-13027.624579,-2834.553343
20335.095200,296.082377,-6587.832884,3753.867940
20335.095533,3849.070898,-5403.503377,11951.089769
20335.095866,10584.944971,-3552.988522,12180.918418
20335.096199,11103.089130,-3849.070898,12947.013916
20335.096532,8882.471304,-5329.482782,7660.954980
20335.096865,7105.977043,-5625.565159,1608.800546
20335.097198,-74.020594,-9918.759623,-6741.640382
20335.097531,-4219.173869,-14211.954086,-11721.261119
20335.097864,-8364.327145,-14211.954086,-16547.662757
20335.098197,-8882.471304,-14878.139434,-10112.460574
20335.098530,-2368.659014,-14804.118840,-1608.800546
20335.098864,3478.967927,-8882.471304,2987.772442
20335.099197,7994.224174,-8290.306550,11568.042020
20335.099530,10362.883188,-3478.967927,13483.280765
20335.099863,11769.274478,-4145.153275,11108.384721
20335.100196,9400.615463,-5033.400406,6818.249932
20335.100529,9104.533087,-6069.688724,3600.648841
20335.100862,0.000000,-9844.739029,-4136.915689
20335.101195,-4959.379811,-13767.830521,-10112.460574
20335.101528,-9474.636058,-15692.365970,-13023.623466
20335.101861,-10510.924376,-14285.974681,-9806.022374
20335.102194,-4737.318029,-12509.480420,-1608.800546
20335.102527,-74.020594,-8290.306550,2068.457845
20335.102860,4071.132681,-3923.091493,6128.763984
20335.103193,7402.059420,-4663.297435,12793.794817
20335.103527,9104.533087,-4145.153275,10648.727422
20335.103860,7105.977043,-5921.647536,7737.564530
20335.104193,5255.462188,-6291.750507,1915.238745
20335.104526,-2072.576638,-9844.739029,-3447.429741
20335.104859,-6513.812290,-13989.892304,-8580.269578
20335.105192,-10436.903782,-15988.448347,-8963.317327
20335.105525,-9548.656652,-13027.624579,-9806.022374
20335.105858,-5921.647536,-10732.986159,-2451.505594
20335.106191,-888.247130,-9030.512492,5286.058936
20335.106524,888.247130,-5403.503377,5209.449386
20335.106857,4515.256246,-5773.606348,9116.536426
20335.107190,5699.585753,-4589.276840,8733.488677
20335.107523,3552.988522,-4959.379811,4903.011187
20335.107857,2294.638420,-8290.306550,-76.609550
20335.108190,-4737.318029,-10807.006753,-2681.334243
20335.108523,-9548.656652,-11917.315666,-9806.022374
20335.108856,-9474.636058,-13841.851115,-7201.297681
20335.109189,-5995.668130,-15396.283594,-3753.867940
20335.109522,-2738.761985,-10658.965565,1762.019645
20335.109855,-592.164754,-7624.121203,5286.058936
20335.110188,3182.885551,-5773.606348,7354.516781
20335.110521,4441.235652,-5403.503377,7584.345430
20335.110854,3552.988522,-3923.091493,4903.011187
20335.111187,7031.956449,-7698.141797,3600.648841
20335.111520,296.082377,-5995.668130,-3677.258390
20335.111853,-1184.329507,-14211.954086,-3140.991542
20335.112186,-3923.091493,-12657.521608,-7354.516781
20335.112520,-4737.318029,-12435.459826,-5209.449386
20335.112853,-1332.370696,-11473.192101,-1991.848295
20335.113186,1036.288319,-11103.089130,2681.334243
20335.113519,2886.803174,-8364.327145,4596.572988
20335.113852,4737.318029,-5995.668130,6128.763984
20335.114185,7031.956449,-4145.153275,2604.724693
20335.114518,5625.565159,-6069.688724,5439.278036
20335.114851,6439.791695,-9474.636058,-76.609550
20335.115184,740.205942,-7179.997637,-3064.381992
20335.115517,-3552.988522,-10955.047942,-5286.058936
20335.115850,-4441.235652,-13989.892304,-6128.763984
20335.116183,-2368.659014,-13693.809927,-2528.115143
20335.116516,1036.288319,-10510.924376,1149.143247
20335.116850,4737.318029,-9548.656652,5056.230287
20335.117183,4367.215058,-6661.853478,4903.011187
20335.117516,5625.565159,-7328.038826,5286.058936
20335.117849,5181.441594,-7994.224174,4213.525239
20335.118182,3552.988522,-7105.977043,1532.190996
20335.118515,0.000000,-8364.327145,-1838.629195
20335.118848,-1258.350101,-10362.883188,-4979.620737
20335.119181,-5625.565159,-9548.656652,-6128.763984
20335.119515,-2886.803174,-13027.624579,-2528.115143
20335.119848,-962.267725,-11843.295072,-76.609550
20335.120181,0.000000,-8364.327145,5515.887586
20335.120514,2886.803174,-7994.224174,6281.983084
20335.120847,5329.482782,-6809.894666,7277.907231
20335.121180,2812.782580,-7624.121203,4443.353888
20335.121513,4663.297435,-8290.306550,2374.896044
20335.121847,3478.967927,-7698.141797,-2451.505594
20335.122180,-2072.576638,-10510.924376,-4903.011187
20335.122513,-3627.009116,-13027.624579,-7737.564530
20335.122846,-9252.574275,-13989.892304,-8580.269578
20335.123179,-5329.482782,-13027.624579,-1915.238745
20335.123512,-2664.741391,-9178.553681,2298.286494
20335.123845,4071.132681,-7105.977043,7890.783629
20335.124179,7550.100608,-4737.318029,10955.165621
20335.124512,7624.121203,-4737.318029,9116.536426
20335.124845,8808.450710,-3034.844362,3677.258390
20335.125178,3552.988522,-9326.594869,2374.896044
20335.125511,962.267725,-9474.636058,-6205.373534
20335.125844,-5847.626942,-10732.986159,-9652.803275
20335.126177,-7179.997637,-14804.118840,-12334.137518
20335.126510,-9696.697840,-15100.201217,-10878.556072
20335.126844,-5625.565159,-13915.871710,-3753.867940
20335.127177,1110.308913,-10955.047942,4673.182538
20335.127510,4737.318029,-5403.503377,10112.460574
20335.127843,7402.059420,-3627.009116,11031.775171
20335.128176,11769.274478,-5921.647536,11874.480219
20335.128509,7105.977043,-2590.720797,7660.954980
20335.128842,4737.318029,-7772.162391,4290.134789
20335.129176,3478.967927,-8290.306550,-4979.620737
20335.129509,-6217.729913,-14656.077652,-10035.851024
20335.129842,-8216.285956,-14285.974681,-12487.356617
20335.130175,-10140.821405,-16506.592507,-11184.994271
20335.130508,-8734.430116,-13693.809927,-6435.202183
20335.130841,-1184.329507,-8956.491898,2298.286494
20335.131174,2960.823768,-7179.997637,9116.536426
20335.131508,9400.615463,-4219.173869,13406.671215
20335.131841,9400.615463,-5921.647536,14632.424012
20335.132174,9400.615463,-6809.894666,9729.412825
20335.132507,5847.626942,-4515.256246,3217.601092
20335.132840,1184.329507,-8364.327145,0.000000
20335.133173,-4219.173869,-12435.459826,-8963.317327
20335.133506,-10362.883188,-14804.118840,-12257.527968
20335.133839,-11103.089130,-15692.365970,-12334.137518
20335.134173,-8956.491898,-14730.098246,-5975.544884
20335.134506,-3923.091493,-10955.047942,0.000000
20335.134839,0.000000,-7402.059420,4673.182538
20335.135172,3701.029710,-4811.338623,11951.089769
20335.135505,7624.121203,-1258.350101,9806.022374
20335.135838,7698.141797,-4663.297435,10955.165621
20335.136171,8216.285956,-7105.977043,4826.401637
20335.136505,1406.391290,-7402.059420,-689.485948
20335.136838,-2146.597232,-12435.459826,-6588.421283
20335.137171,-7624.121203,-15322.262999,-10189.070123
20335.137504,-9326.594869,-15766.386565,-10418.898773
20335.137837,-6069.688724,-13693.809927,-4749.792088
20335.138170,-74.020594,-11843.295072,2068.457845
20335.138503,2368.659014,-6587.832884,4903.011187
20335.138836,5329.482782,-6291.750507,10648.727422
20335.139170,8216.285956,-3849.070898,9193.145976
20335.139503,6217.729913,-3034.844362,7507.735880
20335.139836,5847.626942,-4367.215058,1838.629195
20335.140169,518.144159,-8734.430116,-2528.115143
20335.140502,-3256.906145,-11399.171507,-7431.126331
20335.140835,-7772.162391,-15470.304188,-8886.707777
20335.141168,-6587.832884,-10214.842000,-10572.117872
20335.141502,-2220.617826,-15322.262999,-383.047749
20335.141835,2738.761985,-10436.903782,4826.401637
20335.142168,5847.626942,-5921.647536,4903.011187
20335.142501,5033.400406,-6587.832884,7660.954980
20335.142834,7402.059420,-4811.338623,6435.202183
20335.143167,6217.729913,-6143.709319,5209.449386
20335.143500,5477.523971,-6661.853478,1225.752797
20335.143834,1184.329507,-10436.903782,-3600.648841
20335.144167,-4737.318029,-12509.480420,-6128.763984
20335.144500,-3627.009116,-16580.613101,-6511.811733
20335.144833,-5181.441594,-11325.150913,-4596.572988
20335.145166,-2368.659014,-9548.656652,0.000000
20335.145499,2812.782580,-11251.130318,6358.592633
20335.145832,2368.659014,-5107.421000,5669.106685
20335.146165,4145.153275,-5477.523971,6052.154434
20335.146499,4367.215058,-6957.935855,4749.792088
20335.146832,3997.112087,-5551.544565,2145.067394
20335.147165,148.041188,-7179.997637,-1225.752797
20335.147498,-1850.514855,-10362.883188,-4826.401637
20335.147831,-4515.256246,-13471.748144,-6588.421283
20335.148164,-4811.338623,-13841.851115,-4060.306139
20335.148497,-1554.432478,-13027.624579,-76.609550
20335.148831,1110.308913,-8438.347739,3983.696590
20335.149164,2368.659014,-9104.533087,7354.516781
20335.149497,3108.864956,-7698.141797,6971.469032
20335.149830,1110.308913,-4811.338623,2451.505594
20335.150163,2368.659014,-6587.832884,2374.896044
20335.150496,-518.144159,-6513.812290,-919.314598
20335.150829,-3404.947333,-9178.553681,-4903.011187
20335.151163,-6735.874072,-11843.295072,-6894.859482
20335.151496,-10066.800811,-13101.645173,-8044.002729
20335.151829,-7476.080014,-10436.903782,-6128.763984
20335.152162,-74.020594,-11843.295072,3294.210641
20335.152495,4071.132681,-8290.306550,7277.907231
20335.152828,4219.173869,-5107.421000,8580.269578
20335.153161,5551.544565,-6513.812290,7277.907231
20335.153494,4145.153275,-8216.285956,4826.401637
20335.153828,2294.638420,-7254.018232,459.657299
20335.154161,1036.288319,-8216.285956,-3753.867940
20335.154494,-4737.318029,-11399.171507,-7660.954980
20335.154827,-6883.915261,-11917.315666,-9193.145976
20335.155160,-3627.009116,-14211.954086,-8044.002729
20335.155493,-4145.153275,-11325.150913,-1532.190996
20335.155826,0.000000,-8956.491898,5209.449386
20335.156160,5773.606348,-6587.832884,7354.516781
20335.156493,7031.956449,-5625.565159,10801.946522
20335.156826,7476.080014,-4737.318029,8120.612279
20335.157159,5477.523971,-6217.729913,3907.087040
20335.157492,4071.132681,-7698.141797,-689.485948
20335.157825,-1776.494261,-8956.491898,-4826.401637
20335.158158,-6291.750507,-11843.295072,-12334.137518
20335.158491,-11843.295072,-14434.015869,-11644.651570
20335.158825,-8364.327145,-15100.201217,-8656.879127
20335.159158,-2442.679609,-13027.624579,-76.609550
20335.159491,3478.967927,-7179.997637,7354.516781
20335.159824,6809.894666,-5477.523971,11644.651570
20335.160157,10140.821405,-3552.988522,13406.671215
20335.160490,7994.224174,-3627.009116,9806.022374
20335.160823,9400.615463,-7105.977043,6052.154434
20335.161157,2368.659014,-7179.997637,0.000000
20335.161490,-4737.318029,-10140.821405,-7354.516781
20335.161823,-5995.668130,-14211.954086,-12640.575717
20335.162156,-8364.327145,-15692.365970,-11568.042020
20335.162489,-8956.491898,-15396.283594,-7737.564530
20335.162822,-4737.318029,-11103.089130,-1608.800546
20335.163155,1998.556043,-9178.553681,7277.907231
20335.163489,6217.729913,-2146.597232,11644.651570
20335.163822,9992.780217,-4737.318029,14325.985813
20335.164155,8438.347739,-3923.091493,10572.117872
20335.164488,7254.018232,-3701.029710,4749.792088
20335.164821,4441.235652,-7254.018232,0.000000
20335.165154,-74.020594,-9474.636058,-7277.907231
20335.165487,-7550.100608,-15100.201217,-11031.775171
20335.165820,-9548.656652,-16580.613101,-15398.519510
20335.166154,-9474.636058,-15174.221811,-7814.174080
20335.166487,-2368.659014,-12509.480420,0.000000
20335.166820,2294.638420,-8438.347739,4903.011187
20335.167153,6661.853478,-5477.523971,10648.727422
20335.167486,8660.409521,-3330.926739,12717.185267
20335.167819,9252.574275,-3034.844362,10955.165621
20335.168152,7402.059420,-2442.679609,5515.887586
20335.168486,7920.203579,-7105.977043,1762.019645
20335.168819,-370.102971,-9474.636058,-5286.058936
20335.169152,-7105.977043,-13693.809927,-8120.612279
20335.169485,-8364.327145,-15988.448347,-12947.013916
20335.169818,-7254.018232,-16062.468941,-7737.564530
20335.170151,-3330.926739,-14211.954086,-1608.800546
20335.170484,1332.370696,-10214.842000,2757.943793
20335.170818,2368.659014,-6661.853478,7048.078582
20335.171151,7105.977043,-5107.421000,11031.775171
20335.171484,11769.274478,-5921.647536,9729.412825
20335.171817,6513.812290,-2738.761985,7354.516781
20335.172150,2368.659014,-5995.668130,3370.820191
20335.172483,-1258.350101,-9178.553681,-5439.278036
20335.172816,-8290.306550,-14285.974681,-6818.249932
20335.173149,-8216.285956,-13915.871710,-10112.460574
20335.173483,-6809.894666,-13175.665768,-5898.935335
20335.173816,-3997.112087,-11325.150913,-1455.581446
20335.174149,-74.020594,-9178.553681,4519.963438
20335.174482,1702.473667,-5921.647536,3600.648841
20335.174815,1184.329507,-5995.668130,7967.393179
20335.175148,5477.523971,-7105.977043,6971.469032
20335.175481,4071.132681,-4441.235652,2068.457845
20335.175815,0.000000,-6883.915261,1378.971896
20335.176148,-3923.091493,-10510.924376,-3907.087040
20335.176481,-5921.647536,-12361.439231,-5209.449386
20335.176814,-7698.141797,-13175.665768,-5132.839837
20335.177147,-3627.009116,-12435.459826,-1302.362347
20335.177480,-2368.659014,-9548.656652,3217.601092
20335.177813,444.123565,-7031.956449,4903.011187
20335.178146,2812.782580,-4737.318029,6435.202183
20335.178480,1184.329507,-3627.009116,3677.258390
20335.178813,2368.659014,-4811.338623,3983.696590
20335.179146,2886.803174,-8290.306550,-76.609550
20335.179479,-2294.638420,-7550.100608,-5439.278036
20335.179812,-6365.771101,-11325.150913,-5975.544884
20335.180145,-7105.977043,-12805.562797,-6435.202183
20335.180478,-4441.235652,-12139.377449,-3064.381992
20335.180812,0.000000,-9252.574275,1915.238745
20335.181145,3404.947333,-9178.553681,5745.716235
20335.181478,6069.688724,-6809.894666,8503.660028
20335.181811,5255.462188,-5995.668130,7048.078582
20335.182144,9400.615463,-5921.647536,2987.772442
20335.182477,2960.823768,-7179.997637,1838.629195
20335.182810,4663.297435,-9474.636058,-1302.362347
20335.183144,-1776.494261,-11399.171507,-5515.887586
20335.183477,-4145.153275,-13619.789333,-7431.126331
20335.183810,-4293.194464,-14656.077652,-5515.887586
20335.184143,0.000000,-11177.109724,0.000000
20335.184476,4071.132681,-10658.965565,5439.278036
20335.184809,5329.482782,-5699.585753,9499.584175
20335.185142,7031.956449,-5625.565159,7277.907231
20335.185475,2368.659014,-5403.503377,6128.763984
20335.185809,7031.956449,-6957.935855,4213.525239
20335.186142,3478.967927,-6513.812290,-2987.772442
20335.186475,-74.020594,-9992.780217,-5898.935335
20335.186808,-5773.606348,-11251.130318,-9422.974625
20335.187141,-7994.224174,-14285.974681,-9806.022374
20335.187474,-4515.256246,-13323.706956,-4903.011187
20335.187807,-74.020594,-11843.295072,1762.019645
20335.188141,1184.329507,-8956.491898,9193.145976
20335.188474,7105.977043,-7179.997637,13406.671215
20335.188807,7624.121203,-3034.844362,8580.269578
20335.189140,5329.482782,-5995.668130,8580.269578
20335.189473,4367.215058,-6069.688724,2911.162892
20335.189806,518.144159,-8364.327145,-2298.286494
20335.190139,-4737.318029,-10658.965565,-7814.174080
20335.190473,-9326.594869,-13323.706956,-10572.117872
20335.190806,-13027.624579,-12509.480420,-12257.527968
20335.191139,-7105.977043,-14211.954086,-2528.115143
20335.191472,-1998.556043,-8660.409521,2451.505594
20335.191805,592.164754,-4811.338623,9806.022374
20335.192138,4737.318029,-6883.915261,12793.794817
20335.192471,6143.709319,-3627.009116,9806.022374
20335.192804,5255.462188,-5625.565159,6894.859482
20335.193138,4367.215058,-6217.729913,1762.019645
20335.193471,-888.247130,-8956.491898,-3983.696590
20335.193804,-6735.874072,-10732.986159,-9806.022374
20335.194137,-9622.677246,-15100.201217,-11338.213370
20335.194470,-10584.944971,-16136.489536,-10265.679673
20335.194803,-6957.935855,-13249.686362,-4366.744339
20335.195136,-370.102971,-10658.965565,4519.963438
20335.195470,3256.906145,-4219.173869,9806.022374
20335.195803,6809.894666,-4589.276840,14632.424012
20335.196136,7624.121203,-4441.235652,9116.536426
20335.196469,5625.565159,-3330.926739,7354.516781
20335.196802,4145.153275,-5699.585753,4519.963438
20335.197135,74.020594,-5995.668130,-3677.258390
20335.197468,-4811.338623,-11843.295072,-10572.117872
20335.197801,-9474.636058,-15470.304188,-13176.842566
20335.198135,-10288.862594,-14285.974681,-13330.061665
20335.198468,-7402.059420,-13101.645173,-4903.011187
20335.198801,740.205942,-11843.295072,2374.896044
20335.199134,5847.626942,-9474.636058,8503.660028
20335.199467,8512.368333,-4441.235652,10955.165621
20335.199800,9252.574275,-4145.153275,12793.794817
20335.200133,9696.697840,-4441.235652,6971.469032
20335.200467,7402.059420,-5625.565159,3370.820191
20335.200800,1184.329507,-9474.636058,-3524.039291
20335.201133,-3849.070898,-12213.398043,-7890.783629
20335.201466,-9474.636058,-15174.221811,-10189.070123
20335.201799,-6587.832884,-15100.201217,-12563.966167
20335.202132,-5329.482782,-13693.809927,-3677.258390
20335.202465,0.000000,-11325.150913,3370.820191
20335.202799,4663.297435,-7328.038826,6128.763984
20335.203132,5921.647536,-6217.729913,10035.851024
20335.203465,7550.100608,-3923.091493,9806.022374
20335.203798,7994.224174,-4737.318029,8197.221829
20335.204131,5847.626942,-4737.318029,2068.457845
20335.204464,1480.411884,-9474.636058,-76.609550
20335.204797,-3478.967927,-9474.636058,-6818.249932
20335.205130,-7698.141797,-13693.809927,-7354.516781
20335.205464,-5107.421000,-14211.954086,-6818.249932
20335.205797,-2442.679609,-13619.789333,-2528.115143
20335.206130,-1480.411884,-9844.739029,1072.533697
20335.206463,2368.659014,-7031.956449,4366.744339
20335.206796,2886.803174,-6661.853478,5669.106685
20335.207129,3849.070898,-4811.338623,5209.449386
20335.207462,8216.285956,-5921.647536,4826.401637
20335.207796,3552.988522,-5403.503377,3677.258390
20335.208129,3775.050304,-9104.533087,-76.609550
20335.208462,-2738.761985,-10732.986159,-6128.763984
20335.208795,-5403.503377,-13471.748144,-6818.249932
20335.209128,-3330.926739,-12879.583391,-4903.011187
20335.209461,-1184.329507,-12139.377449,-383.047749
20335.209794,1998.556043,-9622.677246,2911.162892
20335.210128,2368.659014,-6143.709319,4903.011187
20335.210461,5551.544565,-6809.894666,4519.963438
20335.210794,4367.215058,-6735.874072,4903.011187
20335.211127,3997.112087,-6809.894666,2681.334243
20335.211460,1628.453072,-7550.100608,-76.609550
20335.211793,-3552.988522,-8364.327145,-4290.134789
20335.212126,-2738.761985,-12435.459826,-4979.620737
20335.212459,-3923.091493,-10436.903782,-6128.763984
20335.212793,-1184.329507,-13323.706956,1149.143247
20335.213126,4663.297435,-9474.636058,4826.401637
20335.213459,814.226536,-8660.409521,3370.820191
20335.213792,3997.112087,-6291.750507,4213.525239
20335.214125,1702.473667,-7994.224174,2374.896044
20335.214458,4737.318029,-5107.421000,689.485948
20335.214791,1776.494261,-8068.244768,766.095498
20335.215125,-74.020594,-9474.636058,-5592.497135
20335.215458,-4589.276840,-10732.986159,-7354.516781
20335.215791,-7105.977043,-15248.242405,-4979.620737
20335.216124,-4811.338623,-13619.789333,-4366.744339
20335.216457,-2368.659014,-9844.739029,3983.696590
20335.216790,4293.194464,-6809.894666,7431.126331
20335.217123,5551.544565,-5921.647536,8886.707777
20335.217456,5847.626942,-6365.771101,7660.954980
20335.217790,4663.297435,-8290.306550,4519.963438
20335.218123,3478.967927,-8290.306550,-1608.800546
20335.218456,-3552.988522,-8956.491898,-3677.258390
20335.218789,-4811.338623,-13619.789333,-6205.373534
20335.219122,-8660.409521,-12509.480420,-11031.775171
20335.219455,-6883.915261,-14211.954086,-5286.058936
20335.219788,-5033.400406,-12361.439231,-919.314598
20335.220122,-518.144159,-9474.636058,5515.887586
20335.220455,4145.153275,-6661.853478,10112.460574
20335.220788,4515.256246,-2960.823768,9116.536426
20335.221121,5329.482782,-2442.679609,4903.011187
20335.221454,5847.626942,-5033.400406,3753.867940
20335.221788,4515.256246,-7698.141797,2374.896044
20335.222121,-74.020594,-7994.224174,-7354.516781
20335.222454,-4219.173869,-13027.624579,-11108.384721
20335.222787,-10658.965565,-16654.633695,-9882.631924
20335.223120,-8956.491898,-14804.118840,-10878.556072
20335.223453,-3108.864956,-12287.418637,-1685.410096
20335.223787,1924.535449,-7179.997637,5822.325785
20335.224120,7402.059420,-5477.523971,11184.994271
20335.224453,9326.594869,-4071.132681,12563.966167
20335.224786,9178.553681,-3923.091493,9882.631924
20335.225119,9400.615463,-6513.812290,8197.221829
20335.225453,5847.626942,-9474.636058,-76.609550
20335.225786,-1776.494261,-7179.997637,-7354.516781
20335.226119,-8142.265362,-14508.036463,-8656.879127
20335.226452,-5403.503377,-13619.789333,-13636.499864
20335.226785,-7254.018232,-17690.922014,-6205.373534
20335.227118,-1776.494261,-13619.789333,-76.609550
20335.227452,1184.329507,-10140.821405,6128.763984
20335.227785,4663.297435,-5699.585753,9039.926876
20335.228118,10362.883188,-3552.988522,11491.432470
20335.228451,6513.812290,-4811.338623,11031.775171
20335.228784,10288.862594,-74.020594,6128.763984
20335.229118,4737.318029,-8216.285956,2834.553343
20335.229451,1110.308913,-10658.965565,-6818.249932
20335.229784,-8956.491898,-13915.871710,-12334.137518
20335.230117,-11399.171507,-17764.942608,-13636.499864
20335.230450,-7994.224174,-14211.954086,-9729.412825
20335.230783,-5033.400406,-12657.521608,-2145.067394
20335.231117,2516.700203,-8734.430116,4596.572988
20335.231450,5847.626942,-7105.977043,10342.289223
20335.231783,10066.800811,-4219.173869,15015.471761
20335.232116,9400.615463,-6513.812290,11568.042020
20335.232449,6439.791695,-4071.132681,3983.696590
20335.232783,2368.659014,-4811.338623,919.314598
20335.233116,-2738.761985,-10140.821405,-6128.763984
20335.233449,-5699.585753,-12435.459826,-10725.336972
20335.233782,-11547.212695,-15914.427753,-11568.042020
20335.234115,-8586.388927,-14878.139434,-7737.564530
20335.234448,-6661.853478,-10732.986159,-2451.505594
20335.234782,-74.020594,-10658.965565,4826.401637
20335.235115,592.164754,-6809.894666,7277.907231
20335.235448,2664.741391,-3627.009116,10418.898773
20335.235781,8808.450710,-4145.153275,12180.918418
20335.236114,4885.359217,-3775.050304,6435.202183
20335.236448,2960.823768,-7254.018232,919.314598
20335.236781,-2442.679609,-9992.780217,-4290.134789
20335.237114,-8734.430116,-14878.139434,-8580.269578
20335.237447,-10658.965565,-14285.974681,-9806.022374
20335.237780,-5403.503377,-15396.283594,-7124.688131
20335.238113,-3552.988522,-9548.656652,0.000000
20335.238447,0.000000,-6587.832884,4903.011187
20335.238780,6439.791695,-7105.977043,9729.412825
20335.239113,3552.988522,-4811.338623,8733.488677
20335.239446,4441.235652,-4737.318029,6052.154434
20335.239779,4959.379811,-4959.379811,4136.915689
20335.240113,1998.556043,-5699.585753,-2145.067394
20335.240446,-2072.576638,-10140.821405,-3064.381992
20335.240779,-2812.782580,-13619.789333,-6435.202183
20335.241112,-4811.338623,-14730.098246,-6205.373534
20335.241445,-1406.391290,-13249.686362,-3217.601092
20335.241778,1110.308913,-11843.295072,536.266849
20335.242112,1480.411884,-7772.162391,4290.134789
20335.242445,6291.750507,-6809.894666,8503.660028
20335.242778,6439.791695,-6217.729913,3600.648841
20335.243111,4737.318029,-4811.338623,4443.353888
20335.243444,6439.791695,-8586.388927,3600.648841
20335.243778,740.205942,-8216.285956,-1302.362347
20335.244111,-2664.741391,-10140.821405,-4903.011187
20335.244444,-4811.338623,-13545.768739,-5209.449386
20335.244777,-4441.235652,-10732.986159,-4290.134789
20335.245110,0.000000,-8364.327145,1838.629195
20335.245443,5847.626942,-10362.883188,5745.716235
20335.245777,4663.297435,-9474.636058,5439.278036
20335.246110,2368.659014,-5403.503377,2451.505594
20335.246443,3330.926739,-7994.224174,1149.143247
20335.246776,888.247130,-7179.997637,-383.047749
20335.247109,518.144159,-7846.182985,-2681.334243
20335.247443,-3108.864956,-9844.739029,-4213.525239
20335.247776,-4737.318029,-12139.377449,-3064.381992
20335.248109,-5921.647536,-9548.656652,-1838.629195
20335.248442,-370.102971,-12435.459826,1149.143247
20335.248775,1406.391290,-5995.668130,4903.011187
20335.249108,1924.535449,-5995.668130,7354.516781
20335.249442,4293.194464,-6587.832884,6128.763984
20335.249775,2590.720797,-6291.750507,3064.381992
20335.250108,148.041188,-7476.080014,0.000000
20335.250441,444.123565,-7846.182985,-3677.258390
20335.250774,-2442.679609,-10658.965565,-5592.497135
20335.251107,-7698.141797,-12805.562797,-7431.126331
20335.251441,-8364.327145,-15396.283594,-8044.002729
20335.251774,-7031.956449,-11917.315666,-4443.353888
20335.252107,-1184.329507,-10140.821405,3677.258390
20335.252440,7031.956449,-7698.141797,10955.165621
20335.252773,6587.832884,-4219.173869,11031.775171
20335.253107,8216.285956,-4589.276840,10572.117872
20335.253440,6143.709319,-6291.750507,6052.154434
20335.253773,1776.494261,-5403.503377,612.876398
20335.254106,-74.020594,-10658.965565,-4060.306139
20335.254439,-5625.565159,-9548.656652,-8273.831378
20335.254772,-7476.080014,-16284.530724,-9882.631924
20335.255106,-8364.327145,-13101.645173,-12257.527968
20335.255439,-4515.256246,-14804.118840,-3294.210641
20335.255772,1998.556043,-10066.800811,4519.963438
20335.256105,5255.462188,-6439.791695,9422.974625
20335.256438,7772.162391,-5921.647536,12104.308868
20335.256772,7994.224174,-2442.679609,11031.775171
20335.257105,8808.450710,-4145.153275,7277.907231
20335.257438,8660.409521,-5625.565159,3600.648841
20335.257771,2590.720797,-8142.265362,-2987.772442
20335.258104,-4071.132681,-13619.789333,-9959.241474
20335.258437,-8290.306550,-11917.315666,-13789.718964
20335.258771,-8882.471304,-18801.230927,-9882.631924
20335.259104,-4811.338623,-12805.562797,-7354.516781
20335.259437,0.000000,-11177.109724,4443.353888
20335.259770,7105.977043,-8290.306550,11951.089769
20335.260103,9252.574275,-1850.514855,12257.527968
20335.260437,9400.615463,-4589.276840,11951.089769
20335.260770,9400.615463,-4441.235652,9116.536426
20335.261103,4885.359217,-5181.441594,3370.820191
20335.261436,0.000000,-8364.327145,-3064.381992
20335.261769,-4811.338623,-13027.624579,-10495.508323
20335.262102,-11547.212695,-14285.974681,-15168.690860
20335.262436,-11251.130318,-14878.139434,-9193.145976
20335.262769,-5107.421000,-15396.283594,-4979.620737
20335.263102,-3552.988522,-9548.656652,3370.820191
20335.263435,2146.597232,-5921.647536,7507.735880
20335.263768,6143.709319,-4367.215058,11338.213370
20335.264102,7994.224174,-2590.720797,12334.137518
20335.264435,8216.285956,-4737.318029,9116.536426
20335.264768,5847.626942,-5625.565159,536.266849
20335.265101,-2072.576638,-8660.409521,-1532.190996
20335.265434,-3627.009116,-16580.613101,-7431.126331
20335.265767,-11029.068536,-14285.974681,-13483.280765
20335.266101,-10066.800811,-17172.777854,-10189.070123
20335.266434,-6365.771101,-13471.748144,-4213.525239
20335.266767,-2220.617826,-9548.656652,2451.505594
20335.267100,3034.844362,-6513.812290,7354.516781
20335.267433,6291.750507,-4737.318029,10648.727422
20335.267767,7105.977043,-1258.350101,7967.393179
20335.268100,7105.977043,-4959.379811,10189.070123
20335.268433,4663.297435,-4737.318029,383.047749
20335.268766,1554.432478,-7179.997637,-6128.763984
20335.269099,-4145.153275,-14582.057057,-6205.373534
20335.269432,-6513.812290,-13989.892304,-9193.145976
20335.269766,-8438.347739,-16284.530724,-8580.269578
20335.270099,-3330.926739,-12287.418637,-3983.696590
20335.270432,-1850.514855,-11399.171507,1991.848295
20335.270765,2516.700203,-5403.503377,5745.716235
20335.271098,5403.503377,-4589.276840,8503.660028
20335.271432,6365.771101,-4515.256246,7048.078582
20335.271765,9474.636058,-2442.679609,7354.516781
20335.272098,2664.741391,-6883.915261,3524.039291
20335.272431,2886.803174,-8290.306550,-5286.058936
20335.272764,-4737.318029,-13101.645173,-8580.269578
20335.273097,-6661.853478,-17616.901420,-8656.879127
20335.273431,-4145.153275,-11917.315666,-6741.640382
20335.273764,-1554.432478,-13767.830521,459.657299
20335.274097,4071.132681,-9474.636058,4213.525239
20335.274430,4663.297435,-7179.997637,6741.640382
20335.274763,7920.203579,-7105.977043,7890.783629
20335.275097,3849.070898,-5403.503377,7890.783629
20335.275430,6439.791695,-5181.441594,1532.190996
20335.275763,2072.576638,-5107.421000,0.000000
20335.276096,-1776.494261,-9104.533087,-3217.601092
20335.276429,-666.185348,-13027.624579,-4979.620737
20335.276762,-4737.318029,-14359.995275,-4060.306139
20335.277096,-1702.473667,-13471.748144,-1302.362347
20335.277429,222.061783,-10955.047942,1762.019645
20335.277762,1110.308913,-9548.656652,4136.915689
20335.278095,3552.988522,-7179.997637,6971.469032
20335.278428,1184.329507,-4811.338623,1225.752797
20335.278762,4737.318029,-7698.141797,4826.401637
20335.279095,74.020594,-5403.503377,0.000000
20335.279428,-2590.720797,-8142.265362,-3983.696590
20335.279761,-3627.009116,-11695.253884,-5132.839837
20335.280094,-7846.182985,-13915.871710,-5592.497135
20335.280427,-6957.935855,-13693.809927,-3140.991542
20335.280761,-222.061783,-9178.553681,2834.553343
20335.281094,4663.297435,-9474.636058,7277.907231
20335.281427,4737.318029,-6883.915261,10572.117872
20335.281760,6513.812290,-8216.285956,9729.412825
20335.282093,2294.638420,-7179.997637,1838.629195
20335.282427,1184.329507,-7179.997637,1685.410096
20335.282760,-2368.659014,-6587.832884,-4903.011187
20335.283093,-4959.379811,-9918.759623,-7814.174080
20335.283426,-7402.059420,-12213.398043,-8963.317327
20335.283759,-8290.306550,-13841.851115,-5439.278036
20335.284092,-5107.421000,-8956.491898,-3677.258390
20335.284426,0.000000,-11399.171507,6665.030833
20335.284759,6439.791695,-6365.771101,8503.660028
20335.285092,5699.585753,-3034.844362,8580.269578
20335.285425,7105.977043,-5995.668130,9193.145976
20335.285758,3923.091493,-5995.668130,2451.505594
20335.286092,1998.556043,-7254.018232,-1685.410096
20335.286425,-1480.411884,-10658.965565,-5592.497135
20335.286758,-7105.977043,-13693.809927,-10495.508323
20335.287091,-10140.821405,-13989.892304,-12870.404366
20335.287424,-8956.491898,-14804.118840,-7814.174080
20335.287757,-1924.535449,-11103.089130,1455.581446
20335.288091,4441.235652,-7105.977043,8963.317327
20335.288424,8956.491898,-6217.729913,13406.671215
20335.288757,9400.615463,-2960.823768,11338.213370
20335.289090,7402.059420,-4811.338623,7354.516781
20335.289423,7698.141797,-7105.977043,5439.278036
20335.289757,2886.803174,-7994.224174,-2604.724693
20335.290090,-3552.988522,-9548.656652,-7967.393179
20335.290423,-6957.935855,-13619.789333,-12180.918418
20335.290756,-8290.306550,-15396.283594,-12027.699319
20335.291089,-7476.080014,-14952.160028,-7584.345430
20335.291422,-2442.679609,-12731.542202,-1302.362347
20335.291756,3478.967927,-7772.162391,5286.058936
20335.292089,5921.647536,-4959.379811,13100.233016
20335.292422,11399.171507,-5329.482782,15858.176809
20335.292755,8660.409521,-3478.967927,9729.412825
20335.293088,9400.615463,-5403.503377,6971.469032
20335.293422,5329.482782,-6513.812290,1378.971896
20335.293755,-74.020594,-11399.171507,-6205.373534
20335.294088,-7031.956449,-13915.871710,-12334.137518
20335.294421,-11251.130318,-16136.489536,-14709.033562
20335.294754,-9474.636058,-15766.386565,-5286.058936
20335.295087,-1258.350101,-11843.295072,-1915.238745
20335.295421,1184.329507,-8364.327145,5592.497135
20335.295754,5329.482782,-4811.338623,12257.527968
20335.296087,10584.944971,-4737.318029,12180.918418
20335.296420,8660.409521,-3330.926739,10418.898773
20335.296753,7328.038826,-4219.173869,6128.763984
20335.297087,4293.194464,-4367.215058,-612.876398
20335.297420,-1776.494261,-9548.656652,-4903.011187
20335.297753,-5403.503377,-13619.789333,-11108.384721
20335.298086,-10362.883188,-15174.221811,-12257.527968
20335.298419,-7476.080014,-18357.107362,-8656.879127
20335.298752,-2590.720797,-11917.315666,-3064.381992
20335.299086,0.000000,-8364.327145,3830.477490
20335.299419,3849.070898,-5921.647536,8503.660028
20335.299752,6587.832884,-5033.400406,9729.412825
20335.300085,7179.997637,-4663.297435,8963.317327
20335.300418,9400.615463,-4589.276840,8503.660028
20335.300752,592.164754,-6587.832884,0.000000
20335.301085,-814.226536,-10658.965565,-3907.087040
20335.301418,-9548.656652,-16580.613101,-9882.631924
20335.301751,-10362.883188,-13101.645173,-11031.775171
20335.302084,-7698.141797,-11917.315666,-4903.011187
20335.302417,-2664.741391,-12065.356855,842.705048
20335.302751,2072.576638,-7476.080014,4979.620737
20335.303084,2368.659014,-6291.750507,6665.030833
20335.303417,7031.956449,-6809.894666,8503.660028
20335.303750,3552.988522,-4367.215058,6588.421283
20335.304083,4515.256246,-5625.565159,2528.115143
20335.304417,74.020594,-7698.141797,-1991.848295
20335.304750,-4219.173869,-11473.192101,-4749.792088
20335.305083,-5107.421000,-14211.954086,-4979.620737
20335.305416,-7328.038826,-13397.727550,-5515.887586
20335.305749,-4737.318029,-11917.315666,1608.800546
20335.306082,-74.020594,-11103.089130,2068.457845
20335.306416,888.247130,-6439.791695,3983.696590
20335.306749,2368.659014,-5403.503377,7277.907231
20335.307082,3034.844362,-5921.647536,5286.058936
20335.307415,5181.441594,-4071.132681,3600.648841
20335.307748,2442.679609,-7402.059420,1608.800546
20335.308082,-74.020594,-9474.636058,-3753.867940
20335.308415,-5995.668130,-10436.903782,-7967.393179
20335.308748,-5773.606348,-16580.613101,-4979.620737
20335.309081,-2442.679609,-14211.954086,-3753.867940
20335.309414,-518.144159,-9548.656652,919.314598
20335.309747,5255.462188,-10955.047942,5439.278036
20335.310081,5625.565159,-6069.688724,7277.907231
20335.310414,5107.421000,-6143.709319,6281.983084
20335.310747,6217.729913,-5551.544565,4136.915689
20335.311080,2368.659014,-5107.421000,76.609550
20335.311413,-2294.638420,-4811.338623,-3677.258390
20335.311747,-74.020594,-10658.965565,-5286.058936
20335.312080,-3034.844362,-13027.624579,-6971.469032
20335.312413,-4589.276840,-11917.315666,-4903.011187
20335.312746,-74.020594,-12139.377449,-1532.190996
20335.313079,4219.173869,-9178.553681,4519.963438
20335.313412,5107.421000,-9992.780217,7124.688131
20335.313746,7105.977043,-5477.523971,7048.078582
20335.314079,3256.906145,-6735.874072,3983.696590
20335.314412,5033.400406,-6217.729913,3600.648841
20335.314745,5847.626942,-7105.977043,-1608.800546
20335.315078,-3552.988522,-9844.739029,-4903.011187
20335.315412,-5921.647536,-11029.068536,-7431.126331
20335.315745,-8956.491898,-13693.809927,-11031.775171
20335.316078,-4589.276840,-13619.789333,-4979.620737
20335.316411,-1184.329507,-9400.615463,2451.505594
20335.316744,5329.482782,-8142.265362,8273.831378
20335.317077,6365.771101,-5847.626942,11031.775171
20335.317411,8660.409521,-6217.729913,10955.165621
20335.317744,6217.729913,-6735.874072,6818.249932
20335.318077,2886.803174,-6809.894666,919.314598
20335.318410,-814.226536,-8882.471304,-4979.620737
20335.318743,-6809.894666,-9622.677246,-9882.631924
20335.319077,-10658.965565,-11917.315666,-9806.022374
20335.319410,-8660.409521,-15100.201217,-7431.126331
20335.319743,-5403.503377,-12435.459826,-3830.477490
20335.320076,-74.020594,-10955.047942,6665.030833
20335.320409,3330.926739,-6809.894666,8427.050478
20335.320742,4885.359217,-4885.359217,10955.165621
20335.321076,5847.626942,-3108.864956,9499.584175
20335.321409,5551.544565,-4293.194464,6358.592633
20335.321742,5847.626942,-7105.977043,3600.648841
20335.322075,-3552.988522,-8660.409521,-2911.162892
20335.322409,-5403.503377,-13619.789333,-11108.384721
20335.322742,-11843.295072,-13101.645173,-14019.547613
20335.323075,-12435.459826,-16062.468941,-11338.213370
20335.323408,-6735.874072,-13175.665768,-5056.230287
20335.323741,-296.082377,-10066.800811,5286.058936
20335.324075,6143.709319,-8290.306550,13100.233016
20335.324408,8438.347739,-2442.679609,14249.376263
20335.324741,9400.615463,-3478.967927,9422.974625
20335.325074,9326.594869,-7105.977043,9729.412825
20335.325407,5255.462188,-4293.194464,1455.581446
20335.325741,-1628.453072,-5995.668130,-4903.011187
20335.326074,-5921.647536,-12213.398043,-9806.022374
20335.326407,-9400.615463,-15026.180623,-13789.718964
20335.326740,-8586.388927,-16580.613101,-11108.384721
20335.327073,-4663.297435,-14359.995275,-4749.792088
20335.327407,-592.164754,-11621.233289,2374.896044
20335.327740,2960.823768,-4811.338623,6128.763984
20335.328073,10288.862594,-5921.647536,12793.794817
20335.328406,9400.615463,-4145.153275,10955.165621
20335.328740,7402.059420,-1406.391290,7967.393179
20335.329073,7920.203579,-5921.647536,5745.716235
20335.329406,592.164754,-9030.512492,-2221.676944
20335.329739,-4219.173869,-11769.274478,-9729.412825
20335.330072,-8808.450710,-16284.530724,-13253.452115
20335.330406,-8142.265362,-14804.118840,-11108.384721
20335.330739,-4145.153275,-14804.118840,-1991.848295
20335.331072,3478.967927,-10658.965565,1149.143247
20335.331405,2368.659014,-6587.832884,7967.393179
20335.331738,5921.647536,-5995.668130,12793.794817
20335.332072,11177.109724,-5921.647536,11874.480219
20335.332405,7105.977043,-3627.009116,8886.707777
20335.332738,5107.421000,-4663.297435,1838.629195
20335.333071,444.123565,-8808.450710,-2451.505594
20335.333404,-4071.132681,-11843.295072,-6818.249932
20335.333738,-7994.224174,-13249.686362,-7737.564530
20335.334071,-7105.977043,-14285.974681,-7354.516781
20335.334404,-3997.112087,-14211.954086,-2528.115143
20335.334737,-1480.411884,-10807.006753,2451.505594
20335.335070,1998.556043,-5921.647536,4366.744339
20335.335404,1776.494261,-4811.338623,7660.954980
20335.335737,5477.523971,-5921.647536,9652.803275
20335.336070,6735.874072,-5625.565159,5745.716235
20335.336403,1776.494261,-4811.338623,919.314598
20335.336737,-666.185348,-10658.965565,-1915.238745
20335.337070,-5551.544565,-12361.439231,-5898.935335
20335.337403,-6661.853478,-14211.954086,-7124.688131
20335.337736,-4663.297435,-13175.665768,-4366.744339
20335.338069,-2368.659014,-11325.150913,0.000000
20335.338403,0.000000,-7179.997637,3064.381992
20335.338736,5551.544565,-7105.977043,4826.401637
20335.339069,2664.741391,-4811.338623,3753.867940
20335.339402,2368.659014,-5995.668130,6052.154434
20335.339735,2664.741391,-5107.421000,1608.800546
20335.340069,2146.597232,-6661.853478,-76.609550
20335.340402,-1184.329507,-8882.471304,-3447.429741
20335.340735,-3923.091493,-12287.418637,-4826.401637
20335.341068,-1554.432478,-13619.789333,-2834.553343
20335.341401,-3256.906145,-12509.480420,1149.143247
20335.341735,4071.132681,-11251.130318,536.266849
20335.342068,1628.453072,-9548.656652,3677.258390
20335.342401,2960.823768,-8364.327145,6665.030833
20335.342734,5773.606348,-6365.771101,3677.258390
20335.343068,5255.462188,-7105.977043,2987.772442
20335.343401,4145.153275,-6069.688724,1455.581446
20335.343734,518.144159,-9252.574275,-2374.896044
20335.344067,-2146.597232,-11251.130318,-5286.058936
20335.344400,-5181.441594,-14211.954086,-3753.867940
20335.344734,-7105.977043,-11917.315666,-4903.011187
20335.345067,-1184.329507,-9844.739029,2528.115143
20335.345400,3256.906145,-9474.636058,7814.174080
20335.345733,5847.626942,-7105.977043,6665.030833
20335.346066,2664.741391,-5107.421000,5515.887586
20335.346400,2516.700203,-6513.812290,2604.724693
20335.346733,2738.761985,-7105.977043,1149.143247
20335.347066,-1776.494261,-7476.080014,-3983.696590
20335.347399,-2442.679609,-10658.965565,-7737.564530
20335.347732,-8290.306550,-13249.686362,-6435.202183
20335.348066,-3627.009116,-14211.954086,-3753.867940
20335.348399,-2146.597232,-10436.903782,-1838.629195
20335.348732,1702.473667,-10362.883188,4826.401637
20335.349065,5551.544565,-7402.059420,8197.221829
20335.349398,4885.359217,-6587.832884,9729.412825
20335.349732,6513.812290,-4959.379811,7048.078582
20335.350065,2368.659014,-4811.338623,3677.258390
20335.350398,3478.967927,-6365.771101,0.000000
20335.350731,-1332.370696,-8956.491898,-4060.306139
20335.351065,-6883.915261,-12065.356855,-9806.022374
20335.351398,-10288.862594,-14434.015869,-11108.384721
20335.351731,-11251.130318,-13397.727550,-8580.269578
20335.352064,-2146.597232,-11843.295072,-76.609550
20335.352397,2294.638420,-6365.771101,4903.011187
20335.352731,4737.318029,-5995.668130,11108.384721
20335.353064,10584.944971,-5625.565159,14019.547613
20335.353397,7105.977043,-3627.009116,8580.269578
20335.353730,7031.956449,-5921.647536,4826.401637
20335.354063,2146.597232,-7550.100608,-1608.800546
20335.354397,-2738.761985,-10436.903782,-7890.783629
20335.354730,-6809.894666,-14211.954086,-9806.022374
20335.355063,-7179.997637,-16580.613101,-11721.261119
20335.355396,-8734.430116,-14285.974681,-9193.145976
20335.355729,-2960.823768,-12805.562797,1762.019645
20335.356063,3478.967927,-8882.471304,6818.249932
20335.356396,5329.482782,-4219.173869,12563.966167
20335.356729,8512.368333,-3108.864956,10495.508323
20335.357062,8216.285956,-3627.009116,9269.755526
20335.357396,7031.956449,-4293.194464,4903.011187
20335.357729,4663.297435,-8290.306550,-76.609550
20335.358062,-1258.350101,-10658.965565,-10878.556072
20335.358395,-8882.471304,-16580.613101,-11874.480219
20335.358728,-10140.821405,-18949.272115,-13559.890315
20335.359062,-9474.636058,-14285.974681,-7354.516781
20335.359395,-1702.473667,-13027.624579,-76.609550
20335.359728,1776.494261,-7624.121203,7048.078582
20335.360061,6217.729913,-4219.173869,11644.651570
20335.360394,10288.862594,-2812.782580,13942.938064
20335.360728,8512.368333,-2442.679609,10572.117872
20335.361061,6217.729913,-3627.009116,3677.258390
20335.361394,2368.659014,-8142.265362,-76.609550
20335.361727,-2442.679609,-10732.986159,-8580.269578
20335.362060,-8290.306550,-12509.480420,-12257.527968
20335.362394,-7772.162391,-17468.860231,-11721.261119
20335.362727,-7105.977043,-16506.592507,-5975.544884
20335.363060,-3552.988522,-12509.480420,0.000000
20335.363393,888.247130,-8882.471304,5745.716235
20335.363726,3256.906145,-3627.009116,9269.755526
20335.364060,7105.977043,-2146.597232,11491.432470
20335.364393,8660.409521,-2072.576638,10418.898773
20335.364726,6735.874072,-3404.947333,5286.058936
20335.365059,3552.988522,-7624.121203,1378.971896
20335.365393,-666.185348,-12361.439231,-4979.620737
20335.365726,-7179.997637,-15248.242405,-11414.822920
20335.366059,-9474.636058,-16062.468941,-13483.280765
20335.366392,-4811.338623,-16580.613101,-6205.373534
20335.366725,-1776.494261,-11917.315666,0.000000
20335.367059,3701.029710,-8956.491898,5362.668486
20335.367392,5773.606348,-6661.853478,8810.098227
20335.367725,6365.771101,-5255.462188,9729.412825
20335.368058,7105.977043,-4145.153275,9116.536426
20335.368391,3552.988522,-2738.761985,5209.449386
20335.368725,1110.308913,-3034.844362,-2451.505594
20335.369058,-2368.659014,-11547.212695,-3753.867940
20335.369391,-4811.338623,-14804.118840,-7737.564530
20335.369724,-4811.338623,-14804.118840,-6358.592633
20335.370057,-2590.720797,-15396.283594,-2834.553343
20335.370391,-888.247130,-11843.295072,689.485948
20335.370724,740.205942,-9474.636058,2757.943793
20335.371057,3923.091493,-6069.688724,4749.792088
20335.371390,5847.626942,-6957.935855,6971.469032
20335.371724,4737.318029,-4515.256246,4903.011187
20335.372057,5255.462188,-8290.306550,2987.772442
20335.372390,-1776.494261,-6883.915261,-1838.629195
20335.372723,-5921.647536,-9844.739029,-5209.449386
20335.373056,-5995.668130,-13471.748144,-7048.078582
20335.373390,-4663.297435,-12731.542202,-3983.696590
20335.373723,-444.123565,-9992.780217,1072.533697
20335.374056,2738.761985,-9992.780217,4519.963438
20335.374389,3478.967927,-7105.977043,4213.525239
20335.374722,3552.988522,-7846.182985,6052.154434
20335.375056,5255.462188,-8882.471304,4826.401637
20335.375389,1406.391290,-4959.379811,0.000000
20335.375722,-1184.329507,-8364.327145,-3524.039291
20335.376055,-3997.112087,-9548.656652,-5439.278036
20335.376388,-5773.606348,-12065.356855,-5439.278036
20335.376722,-4663.297435,-12583.501014,-3447.429741
20335.377055,-1184.329507,-11399.171507,1991.848295
20335.377388,740.205942,-5995.668130,2451.505594
20335.377721,7031.956449,-9474.636058,7277.907231
20335.378054,4737.318029,-5625.565159,5822.325785
20335.378388,2368.659014,-4811.338623,3677.258390
20335.378721,3552.988522,-8512.368333,3294.210641
20335.379054,1110.308913,-5995.668130,-2451.505594
20335.379387,-3627.009116,-9548.656652,-6588.421283
20335.379721,-6365.771101,-11177.109724,-8963.317327
20335.380054,-7031.956449,-14063.912898,-7584.345430
20335.380387,-6809.894666,-12509.480420,-3677.258390
20335.380720,-370.102971,-10955.047942,2221.676944
20335.381053,4145.153275,-7105.977043,7890.783629
20335.381387,6069.688724,-5255.462188,10418.898773
20335.381720,9400.615463,-5625.565159,9729.412825
20335.382053,4145.153275,-5403.503377,4903.011187
20335.382386,3775.050304,-6513.812290,2451.505594
20335.382719,1702.473667,-9474.636058,-4979.620737
20335.383053,-4293.194464,-9844.739029,-7660.954980
20335.383386,-8290.306550,-13693.809927,-9193.145976
20335.383719,-7179.997637,-13693.809927,-9499.584175
20335.384052,-3627.009116,-13619.789333,-3600.648841
20335.384385,592.164754,-10288.862594,3370.820191
20335.384719,4663.297435,-7698.141797,7584.345430
20335.385052,7031.956449,-4293.194464,8580.269578
20335.385385,8290.306550,-4737.318029,11874.480219
20335.385718,8808.450710,-7105.977043,8503.660028
20335.386052,6143.709319,-4219.173869,1838.629195
20335.386385,2294.638420,-9178.553681,-2528.115143
20335.386718,-5107.421000,-11843.295072,-9806.022374
20335.387051,-9844.739029,-15544.324782,-12334.137518
20335.387384,-11621.233289,-16210.510130,-12104.308868
20335.387718,-6513.812290,-13101.645173,-4903.011187
20335.388051,-74.020594,-8660.409521,1225.752797
20335.388384,7328.038826,-8290.306550,9729.412825
20335.388717,7624.121203,-3256.906145,11414.822920
20335.389050,7402.059420,-2442.679609,10418.898773
20335.389384,7105.977043,-3997.112087,7431.126331
20335.389717,4515.256246,-5699.585753,2987.772442
20335.390050,-666.185348,-9252.574275,-4903.011187
20335.390383,-7994.224174,-12805.562797,-11568.042020
20335.390716,-7846.182985,-16136.489536,-10801.946522
20335.391050,-9474.636058,-14285.974681,-7354.516781
20335.391383,-1850.514855,-15988.448347,-689.485948
20335.391716,-666.185348,-10658.965565,2834.553343
20335.392049,2368.659014,-5995.668130,6128.763984
20335.392382,7994.224174,-4219.173869,12257.527968
20335.392716,8216.285956,-2368.659014,9499.584175
20335.393049,7402.059420,-4145.153275,6435.202183
20335.393382,4811.338623,-5699.585753,2374.896044
20335.393715,-74.020594,-9474.636058,-4673.182538
20335.394049,-4589.276840,-15396.283594,-7431.126331
20335.394382,-10881.027347,-14285.974681,-13789.718964
20335.394715,-11547.212695,-14878.139434,-9806.022374
20335.395048,-3997.112087,-14211.954086,-1302.362347
20335.395381,2146.597232,-10066.800811,4903.011187
20335.395715,3997.112087,-4885.359217,8120.612279
20335.396048,7550.100608,-3701.029710,11184.994271
20335.396381,7402.059420,-3849.070898,10725.336972
20335.396714,5255.462188,-2960.823768,5132.839837
20335.397047,3552.988522,-6809.894666,-76.609550
20335.397381,-1184.329507,-10140.821405,-5209.449386
20335.397714,-5403.503377,-13767.830521,-7890.783629
20335.398047,-7698.141797,-15470.304188,-9269.755526
20335.398380,-5995.668130,-14211.954086,-6358.592633
20335.398713,-2812.782580,-14211.954086,2068.457845
20335.399047,2294.638420,-9474.636058,2374.896044
20335.399380,2368.659014,-5403.503377,6741.640382
20335.399713,2368.659014,-3923.091493,6128.763984
20335.400046,7031.956449,-4737.318029,6971.469032
20335.400380,6513.812290,-3997.112087,6358.592633
20335.400713,5033.400406,-4737.318029,1608.800546
20335.401046,444.123565,-10066.800811,-3447.429741
20335.401379,-4441.235652,-11917.315666,-7354.516781
20335.401712,-5329.482782,-17172.777854,-6205.373534
20335.402046,-3330.926739,-15396.283594,-5592.497135
20335.402379,-2368.659014,-10732.986159,0.000000
20335.402712,3478.967927,-12435.459826,6052.154434
20335.403045,3627.009116,-4811.338623,5209.449386
20335.403378,4367.215058,-6513.812290,5132.839837
20335.403712,3849.070898,-4515.256246,4596.572988
20335.404045,2442.679609,-5995.668130,2834.553343
20335.404378,1184.329507,-5995.668130,0.000000
20335.404711,-74.020594,-9474.636058,-3140.991542
20335.405044,-4367.215058,-11325.150913,-4290.134789
20335.405378,-4737.318029,-11917.315666,-1838.629195
20335.405711,-74.020594,-13027.624579,-689.485948
20335.406044,1776.494261,-11325.150913,4443.353888
20335.406377,1554.432478,-9474.636058,3524.039291
20335.406710,2590.720797,-7402.059420,2987.772442
20335.407044,1554.432478,-6587.832884,1991.848295
20335.407377,3478.967927,-7105.977043,2374.896044
20335.407710,2886.803174,-6513.812290,-1915.238745
20335.408043,-2368.659014,-7772.162391,-1685.410096
20335.408377,-3108.864956,-11843.295072,-2528.115143
20335.408710,-5995.668130,-11251.130318,-7277.907231
20335.409043,-4737.318029,-13397.727550,-76.609550
20335.409376,1110.308913,-9400.615463,2911.162892
20335.409709,4737.318029,-7846.182985,6128.763984
20335.410043,6735.874072,-7846.182985,7277.907231
20335.410376,5255.462188,-8734.430116,6052.154434
20335.410709,1480.411884,-8216.285956,1991.848295
20335.411042,1332.370696,-7698.141797,-229.828649
20335.411375,-2738.761985,-9104.533087,-4903.011187
20335.411709,-6513.812290,-7772.162391,-8580.269578
20335.412042,-8882.471304,-11029.068536,-6128.763984
20335.412375,-4811.338623,-13619.789333,-3140.991542
20335.412708,-3552.988522,-8364.327145,0.000000
20335.413041,0.000000,-9548.656652,7354.516781
20335.413375,3997.112087,-5625.565159,8197.221829
20335.413708,4737.318029,-5107.421000,10112.460574
20335.414041,5847.626942,-5329.482782,6205.373534
20335.414374,3701.029710,-6809.894666,2528.115143
20335.414708,2368.659014,-7772.162391,-919.314598
20335.415041,-74.020594,-9326.594869,-4979.620737
20335.415374,-4811.338623,-13027.624579,-10648.727422
20335.415707,-9474.636058,-14285.974681,-9652.803275
20335.416040,-8882.471304,-15174.221811,-6205.373534
20335.416374,-2368.659014,-11325.150913,0.000000
20335.416707,3849.070898,-7105.977043,8503.660028
20335.417040,6587.832884,-4663.297435,11031.775171
20335.417373,8956.491898,-3552.988522,11568.042020
20335.417706,7328.038826,-5921.647536,8503.660028
20335.418040,4737.318029,-4811.338623,3677.258390
20335.418373,2294.638420,-8290.306550,-3753.867940
20335.418706,-3552.988522,-9844.739029,-7201.297681
20335.419039,-4367.215058,-14211.954086,-9882.631924
20335.419372,-7179.997637,-16284.530724,-10801.946522
20335.419706,-5403.503377,-15914.427753,-5975.544884
20335.420039,-2368.659014,-12065.356855,689.485948
20335.420372,4367.215058,-8142.265362,7660.954980
20335.420705,6735.874072,-4737.318029,11338.213370
20335.421038,9770.718434,-5107.421000,14632.424012
20335.421371,5625.565159,-1554.432478,8580.269578
20335.421704,3552.988522,-3923.091493,6818.249932
20335.422037,4071.132681,-5329.482782,-2145.067394
20335.422370,-4145.153275,-9548.656652,-7967.393179
20335.422703,-7179.997637,-13619.789333,-12947.013916
20335.423037,-10288.862594,-17098.757260,-12257.527968
20335.423370,-8290.306550,-15618.345376,-6894.859482
20335.423703,-2442.679609,-12435.459826,-1378.971896
20335.424036,4071.132681,-9474.636058,6052.154434
20335.424369,4737.318029,-5403.503377,14249.376263
20335.424702,9400.615463,-4589.276840,11568.042020
20335.425035,6661.853478,-2516.700203,7737.564530
20335.425368,5551.544565,-4367.215058,4826.401637
20335.425701,3330.926739,-6957.935855,-76.609550
20335.426034,-2442.679609,-11029.068536,-5975.544884
20335.426367,-7476.080014,-14804.118840,-11184.994271
20335.426701,-8956.491898,-15396.283594,-11031.775171
20335.427034,-5995.668130,-15396.283594,-5592.497135
20335.427367,-2516.700203,-12213.398043,459.657299
20335.427700,0.000000,-8734.430116,4903.011187
20335.428033,3923.091493,-5403.503377,8733.488677
20335.428366,5329.482782,-2442.679609,9806.022374
20335.428699,8216.285956,-3552.988522,8503.660028
20335.429032,6143.709319,-4737.318029,2987.772442
20335.429365,592.164754,-5995.668130,0.000000
20335.429698,-3478.967927,-12583.501014,-5669.106685
20335.430031,-7179.997637,-14211.954086,-11031.775171
20335.430365,-8808.450710,-16432.571912,-10035.851024
20335.430698,-5403.503377,-14952.160028,-4673.182538
20335.431031,-1924.535449,-10881.027347,1685.410096
20335.431364,3701.029710,-7920.203579,7124.688131
20335.431697,7031.956449,-5921.647536,8503.660028
20335.432030,5329.482782,-3034.844362,8886.707777
20335.432363,5329.482782,-4811.338623,9729.412825
20335.432696,4663.297435,-5329.482782,1915.238745
20335.433029,0.000000,-7179.997637,-2451.505594
20335.433362,-3330.926739,-12435.459826,-6741.640382
20335.433695,-5847.626942,-15100.201217,-7584.345430
20335.434029,-5403.503377,-14063.912898,-6128.763984
20335.434362,-2442.679609,-14063.912898,-2221.676944
20335.434695,2886.803174,-11843.295072,2374.896044
20335.435028,592.164754,-7476.080014,7354.516781
20335.435361,5477.523971,-5033.400406,8273.831378
20335.435694,5255.462188,-6513.812290,5439.278036
20335.436027,6439.791695,-5847.626942,4826.401637
20335.436360,3552.988522,-5403.503377,1149.143247
20335.436693,-74.020594,-8882.471304,-3140.991542
20335.437026,-3108.864956,-12139.377449,-5822.325785
20335.437359,-6513.812290,-14285.974681,-6435.202183
20335.437693,-2442.679609,-13471.748144,-4443.353888
20335.438026,0.000000,-10140.821405,3217.601092
20335.438359,4071.132681,-10658.965565,4826.401637
20335.438692,3478.967927,-7105.977043,4213.525239
20335.439025,2664.741391,-5033.400406,4673.182538
20335.439358,4219.173869,-6661.853478,3140.991542
20335.439691,1998.556043,-6291.750507,689.485948
20335.440024,74.020594,-8216.285956,-3064.381992
20335.440357,-2220.617826,-9770.718434,-4596.572988
20335.440690,-5921.647536,-11325.150913,-4903.011187
20335.441023,-2738.761985,-14804.118840,-1915.238745
20335.441356,-74.020594,-11251.130318,0.000000
20335.441690,1480.411884,-10436.903782,5669.106685
20335.442023,3552.988522,-6957.935855,6665.030833
20335.442356,2590.720797,-7254.018232,5669.106685
20335.442689,2960.823768,-6883.915261,2987.772442
20335.443022,2072.576638,-6809.894666,1762.019645
20335.443355,2368.659014,-7105.977043,-229.828649
20335.443688,-5255.462188,-9252.574275,-4903.011187
20335.444021,-7772.162391,-11399.171507,-8503.660028
20335.444354,-8364.327145,-13323.706956,-6205.373534
20335.444687,-5921.647536,-12213.398043,-2528.115143
20335.445020,0.000000,-9548.656652,3064.381992
20335.445354,4367.215058,-4737.318029,7277.907231
20335.445687,5329.482782,-4219.173869,11031.775171
20335.446020,8808.450710,-6809.894666,9116.536426
20335.446353,4367.215058,-7698.141797,2374.896044
20335.446686,1184.329507,-8734.430116,-995.924147
20335.447019,-1110.308913,-9770.718434,-5898.935335
20335.447352,-3849.070898,-11251.130318,-9116.536426
20335.447685,-7105.977043,-13397.727550,-9652.803275
20335.448018,-4811.338623,-15396.283594,-4979.620737
20335.448351,-5921.647536,-11917.315666,0.000000
20335.448684,592.164754,-9104.533087,7814.174080
20335.449018,5847.626942,-6217.729913,8503.660028
20335.449351,4737.318029,-2738.761985,11338.213370
20335.449684,8216.285956,-3552.988522,7890.783629
20335.450017,6069.688724,-4663.297435,5286.058936
20335.450350,4145.153275,-5847.626942,0.000000
20335.450683,370.102971,-9548.656652,-4979.620737
20335.451016,-6069.688724,-13915.871710,-11261.603821
20335.451349,-11843.295072,-15766.386565,-11797.870669
20335.451682,-10140.821405,-16876.695478,-11414.822920
20335.452015,-3923.091493,-12213.398043,-5515.887586
20335.452348,2960.823768,-8956.491898,8580.269578
20335.452682,8808.450710,-4071.132681,11491.432470
20335.453015,11029.068536,-2960.823768,14172.766713
20335.453348,10140.821405,-4441.235652,12180.918418
20335.453681,8142.265362,-4441.235652,6971.469032
20335.454014,3552.988522,-5403.503377,0.000000
20335.454347,0.000000,-9548.656652,-3753.867940
20335.454680,-5107.421000,-11547.212695,-13253.452115
20335.455013,-10362.883188,-15470.304188,-14709.033562
20335.455346,-8290.306550,-15470.304188,-8273.831378
20335.455679,-4811.338623,-14730.098246,-4213.525239
20335.456012,-888.247130,-11029.068536,3600.648841
20335.456346,3849.070898,-7031.956449,9116.536426
20335.456679,7179.997637,-3701.029710,13100.233016
20335.457012,7402.059420,-962.267725,9959.241474
20335.457345,8216.285956,-3256.906145,7890.783629
20335.457678,6513.812290,-4367.215058,3217.601092
20335.458011,1184.329507,-8956.491898,-3524.039291
20335.458344,-4811.338623,-15396.283594,-9882.631924
20335.458677,-10732.986159,-16284.530724,-16547.662757
20335.459010,-11843.295072,-17246.798449,-10418.898773
20335.459343,-3034.844362,-15396.283594,-689.485948
20335.459676,1110.308913,-9178.553681,3600.648841
20335.460010,5033.400406,-6069.688724,10112.460574
20335.460343,8216.285956,-3034.844362,11491.432470
20335.460676,9030.512492,-2368.659014,11568.042020
20335.461009,6291.750507,-2960.823768,6894.859482
20335.461342,2590.720797,-4737.318029,76.609550
20335.461675,-740.205942,-8882.471304,-6818.249932
20335.462008,-8290.306550,-14285.974681,-7814.174080
20335.462341,-8068.244768,-15692.365970,-11721.261119
20335.462674,-7179.997637,-15692.365970,-9806.022374
20335.463007,-3627.009116,-14804.118840,-995.924147
20335.463340,888.247130,-9548.656652,4136.915689
20335.463674,4293.194464,-6365.771101,7660.954980
20335.464007,5551.544565,-3997.112087,8886.707777
20335.464340,5329.482782,-3330.926739,8733.488677
20335.464673,7031.956449,-3997.112087,4673.182538
20335.465006,3552.988522,-6587.832884,3600.648841
20335.465339,-666.185348,-10066.800811,-5592.497135
20335.465672,-6957.935855,-13989.892304,-9193.145976
20335.466005,-8882.471304,-14285.974681,-9193.145976
20335.466338,-5477.523971,-14434.015869,-4826.401637
20335.466671,-1332.370696,-11843.295072,-76.609550
20335.467004,1776.494261,-9474.636058,4673.182538
20335.467338,5847.626942,-7105.977043,7890.783629
20335.467671,4145.153275,-3034.844362,7354.516781
20335.468004,6439.791695,-4589.276840,6052.154434
20335.468337,5551.544565,-5921.647536,1149.143247
20335.468670,148.041188,-6883.915261,-1532.190996
20335.469003,-74.020594,-11251.130318,-3907.087040
20335.469336,-4145.153275,-14434.015869,-5286.058936
20335.469669,-4737.318029,-12657.521608,-4596.572988
20335.470002,-1998.556043,-13397.727550,-229.828649
20335.470335,1554.432478,-12065.356855,3524.039291
20335.470668,2368.659014,-7772.162391,8810.098227
20335.471002,3478.967927,-5107.421000,4290.134789
20335.471335,4145.153275,-4811.338623,3677.258390
20335.471668,4441.235652,-6809.894666,4213.525239
20335.472001,4663.297435,-6809.894666,-76.609550
20335.472334,0.000000,-8956.491898,-2604.724693
20335.472667,-4367.215058,-11917.315666,-6511.811733
20335.473000,-5625.565159,-13175.665768,-7354.516781
20335.473333,-5181.441594,-13841.851115,-4060.306139
20335.473666,296.082377,-11103.089130,2834.553343
20335.473999,4367.215058,-8660.409521,5592.497135
20335.474332,5625.565159,-8068.244768,7201.297681
20335.474666,5255.462188,-6291.750507,6052.154434
20335.474999,3478.967927,-7105.977043,2681.334243
20335.475332,2664.741391,-6069.688724,2068.457845
20335.475665,1332.370696,-9030.512492,-689.485948
20335.475998,-4219.173869,-7179.997637,-8580.269578
20335.476331,-5625.565159,-12435.459826,-6358.592633
20335.476664,-4811.338623,-14211.954086,-4979.620737
20335.476997,-2072.576638,-11769.274478,153.219100
20335.477330,1776.494261,-9030.512492,5056.230287
20335.477663,4885.359217,-7920.203579,7967.393179
20335.477996,3849.070898,-4811.338623,6741.640382
20335.478329,3552.988522,-6587.832884,7048.078582
20335.478663,3182.885551,-5329.482782,229.828649
20335.478996,0.000000,-5403.503377,-2451.505594
20335.479329,-1776.494261,-9548.656652,-4443.353888
20335.479662,-7476.080014,-10807.006753,-10955.165621
20335.479995,-9326.594869,-13619.789333,-9422.974625
20335.480328,-7698.141797,-13471.748144,-5056.230287
20335.480661,-1776.494261,-10214.842000,2757.943793
20335.480994,3849.070898,-6735.874072,9193.145976
20335.481327,6217.729913,-7031.956449,14632.424012
20335.481660,6735.874072,-2516.700203,7967.393179
20335.481993,5921.647536,-6291.750507,8580.269578
20335.482327,5255.462188,-8290.306550,2068.457845
20335.482660,0.000000,-6587.832884,-4290.134789
20335.482993,-2886.803174,-11103.089130,-9269.755526
20335.483326,-6661.853478,-13471.748144,-10265.679673
20335.483659,-7994.224174,-14878.139434,-9729.412825
20335.483992,-5995.668130,-14211.954086,-4979.620737
20335.484325,-74.020594,-12731.542202,3600.648841
20335.484658,4367.215058,-5551.544565,7354.516781
20335.484991,6365.771101,-3182.885551,12257.527968
20335.485324,9474.636058,-4367.215058,13406.671215
20335.485657,8808.450710,-3923.091493,9422.974625
20335.485991,5847.626942,-4515.256246,3983.696590
20335.486324,3478.967927,-7550.100608,-2145.067394
20335.486657,-2886.803174,-11325.150913,-9116.536426
20335.486990,-10362.883188,-14582.057057,-14709.033562
20335.487323,-10140.821405,-15470.304188,-14555.814462
20335.487656,-7994.224174,-16802.674883,-6741.640382
20335.487989,-1554.432478,-14211.954086,1149.143247
20335.488322,2812.782580,-5995.668130,7431.126331
20335.488655,8216.285956,-4737.318029,14479.204912
20335.488988,8586.388927,-2294.638420,13406.671215
20335.489321,7994.224174,-2960.823768,9346.365076
20335.489655,6957.935855,-3552.988522,5209.449386
20335.489988,2368.659014,-4811.338623,0.000000
20335.490321,-518.144159,-10510.924376,-6894.859482
20335.490654,-7105.977043,-15914.427753,-12334.137518
20335.490987,-8808.450710,-17987.004391,-13100.233016
20335.491320,-6735.874072,-15914.427753,-7354.516781
20335.491653,-2960.823768,-11917.315666,-1685.410096
20335.491986,4663.297435,-11843.295072,6052.154434
20335.492319,6735.874072,-5181.441594,8810.098227
20335.492652,7698.141797,-3627.009116,10418.898773
20335.492985,9400.615463,-2368.659014,10955.165621
20335.493319,6513.812290,-4515.256246,6665.030833
20335.493652,1628.453072,-6513.812290,-612.876398
20335.493985,-4515.256246,-11251.130318,-6894.859482
20335.494318,-8734.430116,-14285.974681,-11031.775171
20335.494651,-8586.388927,-15988.448347,-8733.488677
20335.494984,-6439.791695,-13101.645173,-5822.325785
20335.495317,-2368.659014,-11325.150913,3600.648841
20335.495650,4071.132681,-8882.471304,5439.278036
20335.495983,3330.926739,-3034.844362,6435.202183
20335.496316,6291.750507,-6957.935855,8810.098227
20335.496649,5773.606348,-3330.926739,6741.640382
20335.496983,3701.029710,-5033.400406,2911.162892
20335.497316,518.144159,-7550.100608,-2757.943793
20335.497649,-1554.432478,-10658.965565,-4673.182538
20335.497982,-9474.636058,-13101.645173,-5822.325785
20335.498315,-4293.194464,-13915.871710,-3753.867940
20335.498648,-2442.679609,-14211.954086,-2528.115143
20335.498981,0.000000,-11029.068536,2451.505594
20335.499314,1406.391290,-5995.668130,4903.011187
20335.499647,3627.009116,-5255.462188,5132.839837
20335.499980,3552.988522,-4885.359217,4749.792088
20335.500313,4367.215058,-5033.400406,2451.505594
20335.500647,2368.659014,-5995.668130,0.000000
20335.500980,0.000000,-9548.656652,-689.485948
20335.501313,-4219.173869,-13619.789333,-7354.516781
20335.501646,-6957.935855,-14285.974681,-8427.050478
20335.501979,-3256.906145,-15544.324782,-76.609550
20335.502312,0.000000,-9844.739029,2451.505594
20335.502645,3478.967927,-7476.080014,6281.983084
20335.502978,4959.379811,-5921.647536,7277.907231
20335.503311,5329.482782,-5255.462188,8503.660028
20335.503644,3552.988522,-5625.565159,3064.381992
20335.503977,3478.967927,-4737.318029,689.485948
20335.504311,444.123565,-7550.100608,-2681.334243
20335.504644,-2368.659014,-10584.944971,-6588.421283
20335.504977,-4811.338623,-13027.624579,-7737.564530
20335.505310,-6143.709319,-13397.727550,-7354.516781
20335.505643,-1036.288319,-14211.954086,-689.485948
20335.505976,1702.473667,-8882.471304,2528.115143
20335.506309,4737.318029,-7772.162391,7967.393179
20335.506642,8068.244768,-6809.894666,8503.660028
20335.506975,4441.235652,-5403.503377,5286.058936
20335.507308,4663.297435,-5181.441594,2374.896044
20335.507641,3330.926739,-6291.750507,536.266849
20335.507975,-1776.494261,-7179.997637,-4596.572988
20335.508308,-1850.514855,-10955.047942,-9193.145976
20335.508641,-5847.626942,-16580.613101,-6205.373534
20335.508974,-7031.956449,-12509.480420,-6128.763984
20335.509307,-2220.617826,-11917.315666,1838.629195
20335.509640,3552.988522,-7772.162391,5669.106685
20335.509973,6217.729913,-6291.750507,9806.022374
20335.510306,6735.874072,-5625.565159,8427.050478
20335.510639,5107.421000,-5921.647536,5132.839837
20335.510972,3997.112087,-7105.977043,3830.477490
20335.511305,1702.473667,-5403.503377,-3677.258390
20335.511639,-1258.350101,-12731.542202,-4979.620737
20335.511972,-8364.327145,-12509.480420,-10725.336972
20335.512305,-9474.636058,-15322.262999,-9499.584175
20335.512638,-5181.441594,-14508.036463,-1991.848295
20335.512971,1406.391290,-9474.636058,4519.963438
20335.513304,3997.112087,-8586.388927,9959.241474
20335.513637,7254.018232,-4663.297435,11491.432470
20335.513970,4959.379811,-5329.482782,8197.221829
20335.514303,2368.659014,-4219.173869,5515.887586
20335.514636,1702.473667,-5403.503377,-2298.286494
20335.514969,-3478.967927,-7772.162391,-6128.763984
20335.515302,-6883.915261,-13027.624579,-8963.317327
20335.515636,-10732.986159,-15988.448347,-12334.137518
20335.515969,-10288.862594,-15396.283594,-9116.536426
20335.516302,-5921.647536,-12139.377449,-1991.848295
20335.516635,2368.659014,-7920.203579,7431.126331
20335.516968,5773.606348,-5699.585753,11721.261119
20335.517301,8512.368333,-7105.977043,14632.424012
20335.517634,6291.750507,-2442.679609,7967.393179
20335.517967,5181.441594,-5847.626942,6128.763984
20335.518300,6439.791695,-7105.977043,-76.609550
20335.518633,-74.020594,-9474.636058,-6205.373534
20335.518966,-5181.441594,-13323.706956,-11491.432470
20335.519300,-8734.430116,-15692.365970,-12257.527968
20335.519633,-8586.388927,-16802.674883,-9039.926876
20335.519964,-4145.153275,-13471.748144,-2374.896044
20335.520297,1998.556043,-11251.130318,5439.278036
20335.520630,5329.482782,-5699.585753,10495.508323
20335.520963,8956.491898,-3108.864956,13253.452115
20335.521296,8364.327145,-2516.700203,11721.261119
20335.521629,7624.121203,-1406.391290,6128.763984
20335.521963,6809.894666,-5921.647536,4060.306139
20335.522296,1702.473667,-9474.636058,-4979.620737
20335.522629,-7105.977043,-14285.974681,-9499.584175
20335.522962,-9844.739029,-16580.613101,-15551.738609
20335.523295,-8364.327145,-17764.942608,-12947.013916
20335.523628,-3034.844362,-14656.077652,-3294.210641
20335.523961,1036.288319,-10140.821405,4060.306139
20335.524295,5921.647536,-6217.729913,10495.508323
20335.524628,7402.059420,-3627.009116,12563.966167
20335.524961,9474.636058,-1850.514855,13636.499864
20335.525294,7105.977043,-2442.679609,9729.412825
20335.525627,7624.121203,-5921.647536,1149.143247
20335.525960,74.020594,-8882.471304,-5132.839837
20335.526293,-6513.812290,-13101.645173,-8580.269578
20335.526627,-6883.915261,-15914.427753,-12410.747068
20335.526960,-5255.462188,-15026.180623,-8350.440928
20335.527293,-1924.535449,-15766.386565,-1378.971896
20335.527626,2886.803174,-10510.924376,4213.525239
20335.527959,2886.803174,-11843.295072,7277.907231
20335.528292,2368.659014,-3627.009116,6435.202183
20335.528625,6143.709319,-4145.153275,11568.042020
20335.528959,7624.121203,-4145.153275,7277.907231
20335.529292,5847.626942,-5107.421000,3907.087040
20335.529625,-3182.885551,-9696.697840,-3064.381992
20335.529958,-5625.565159,-12657.521608,-6971.469032
20335.530291,-9474.636058,-14582.057057,-7584.345430
20335.530624,-6809.894666,-14285.974681,-6741.640382
20335.530957,-3627.009116,-12583.501014,-2374.896044
20335.531291,-3552.988522,-10436.903782,3370.820191
20335.531624,1628.453072,-7402.059420,6052.154434
20335.531957,2294.638420,-6809.894666,5439.278036
20335.532290,3552.988522,-2442.679609,6281.983084
20335.532623,2812.782580,-5033.400406,4903.011187
20335.532956,814.226536,-5921.647536,-689.485948
20335.533289,-1850.514855,-10658.965565,-4979.620737
20335.533623,-3330.926739,-15396.283594,-3140.991542
20335.533956,-7105.977043,-12509.480420,-3830.477490
20335.534289,-2442.679609,-12879.583391,-2221.676944
20335.534622,-666.185348,-9548.656652,0.000000
20335.534955,1628.453072,-9696.697840,5439.278036
20335.535288,2664.741391,-5403.503377,4213.525239
20335.535621,4145.153275,-4663.297435,4290.134789
20335.535955,3256.906145,-5107.421000,3447.429741
20335.536288,2812.782580,-6809.894666,842.705048
20335.536621,1110.308913,-9474.636058,-2528.115143
20335.536954,-4441.235652,-12509.480420,-4979.620737
20335.537287,-7105.977043,-14285.974681,-8580.269578
20335.537620,-3330.926739,-13619.789333,-3753.867940
20335.537953,-1036.288319,-11103.089130,1915.238745
20335.538287,6661.853478,-9178.553681,7048.078582
20335.538620,5403.503377,-5403.503377,7354.516781
20335.538953,7698.141797,-6957.935855,9116.536426
20335.539286,6735.874072,-4145.153275,4213.525239
20335.539619,2442.679609,-4811.338623,0.000000
20335.539952,1110.308913,-9474.636058,-4366.744339
20335.540285,-4441.235652,-11029.068536,-8120.612279
20335.540619,-5847.626942,-13841.851115,-9116.536426
20335.540952,-6365.771101,-14730.098246,-7277.907231
20335.541285,-1850.514855,-13619.789333,-1302.362347
20335.541618,1184.329507,-10140.821405,7354.516781
20335.541951,8808.450710,-9474.636058,9729.412825
20335.542284,8216.285956,-4515.256246,9882.631924
20335.542617,4737.318029,-3627.009116,9806.022374
20335.542950,5847.626942,-4737.318029,2068.457845
20335.543284,2146.597232,-7105.977043,-995.924147
20335.543617,-592.164754,-9178.553681,-6358.592633
20335.543950,-6365.771101,-13027.624579,-10342.289223
20335.544283,-9474.636058,-14434.015869,-12257.527968
20335.544616,-8290.306550,-15766.386565,-4060.306139
20335.544949,-1258.350101,-11251.130318,229.828649
20335.545282,5847.626942,-8882.471304,6511.811733
20335.545616,9770.718434,-5255.462188,13406.671215
20335.545949,7328.038826,-4219.173869,12257.527968
