#time,accel_x,accel_y,accel_z
22139.300702,3552.988522,-9548.656652,-3677.258390
22139.301035,4071.132681,-9992.780217,-4213.525239
22139.301369,3849.070898,-10955.047942,-4519.963438
22139.301703,2960.823768,-9844.739029,-3677.258390
22139.302037,7624.121203,-9474.636058,-995.924147
22139.302371,7105.977043,-9548.656652,5515.887586
22139.302704,12361.439231,-9178.553681,5745.716235
22139.303038,10955.047942,-5995.668130,2451.505594
22139.303372,11843.295072,-7179.997637,4903.011187
22139.303706,11251.130318,-7846.182985,4060.306139
22139.304040,10955.047942,-7476.080014,1072.533697
22139.304374,8882.471304,-10658.965565,-1302.362347
22139.304707,7031.956449,-12879.583391,-2528.115143
22139.305041,1628.453072,-10732.986159,-6741.640382
22139.305375,1702.473667,-14211.954086,-4979.620737
22139.305709,1110.308913,-13619.789333,-4060.306139
22139.306043,1924.535449,-8364.327145,0.000000
22139.306376,7179.997637,-7476.080014,8580.269578
22139.306710,9918.759623,-4589.276840,10342.289223
22139.307044,11103.089130,-3997.112087,9193.145976
22139.307378,11769.274478,-5403.503377,7584.345430
22139.307712,12065.356855,-5329.482782,3753.867940
22139.308046,9474.636058,-5995.668130,1532.190996
22139.308379,9104.533087,-10658.965565,-6205.373534
22139.308713,3627.009116,-10066.800811,-10648.727422
22139.309047,2368.659014,-12509.480420,-8273.831378
22139.309381,6661.853478,-14952.160028,-5745.716235
22139.309715,4737.318029,-14211.954086,-4366.744339
22139.310048,5329.482782,-12287.418637,-1149.143247
22139.310382,8956.491898,-10955.047942,4673.182538
22139.310716,13545.768739,-6661.853478,9039.926876
22139.311050,15396.283594,-5107.421000,12410.747068
22139.311384,15544.324782,-4811.338623,10418.898773
22139.311718,14434.015869,-5255.462188,7660.954980
22139.312051,11103.089130,-7550.100608,3447.429741
22139.312385,7031.956449,-9474.636058,-1915.238745
22139.312719,814.226536,-10732.986159,-7354.516781
22139.313053,0.000000,-11917.315666,-7431.126331
22139.313387,2294.638420,-11547.212695,-8197.221829
22139.313720,3849.070898,-9696.697840,-4443.353888
22139.314054,8808.450710,-10658.965565,1149.143247
22139.314388,9622.677246,-8660.409521,4443.353888
22139.314722,12287.418637,-6143.709319,4596.572988
22139.315056,12879.583391,-7328.038826,4903.011187
22139.315390,12731.542202,-6365.771101,1991.848295
22139.315723,10955.047942,-5995.668130,2451.505594
22139.316057,12657.521608,-10362.883188,1762.019645
22139.316391,9400.615463,-10658.965565,-3140.991542
22139.316725,4737.318029,-10732.986159,-3064.381992
22139.317059,9104.533087,-10955.047942,-2374.896044
22139.317392,10807.006753,-8438.347739,-76.609550
22139.317726,11547.212695,-7105.977043,306.438199
22139.318060,14137.933492,-7846.182985,2451.505594
22139.318394,14211.954086,-7179.997637,3677.258390
22139.318728,14211.954086,-8364.327145,6205.373534
22139.319062,13545.768739,-9474.636058,0.000000
22139.319395,8438.347739,-9548.656652,-4136.915689
22139.319729,6217.729913,-11029.068536,-2068.457845
22139.320063,7402.059420,-8068.244768,-2145.067394
22139.320397,11029.068536,-8142.265362,-459.657299
22139.320731,11103.089130,-8142.265362,2374.896044
22139.321064,10140.821405,-7476.080014,1762.019645
22139.321398,11177.109724,-9474.636058,1762.019645
22139.321732,10288.862594,-9474.636058,3600.648841
22139.322066,13545.768739,-7105.977043,0.000000
22139.322400,11843.295072,-7476.080014,4366.744339
22139.322733,14137.933492,-9474.636058,-76.609550
22139.323067,12509.480420,-10140.821405,-1149.143247
22139.323401,12953.603985,-9252.574275,-1149.143247
22139.323735,9548.656652,-8068.244768,-2528.115143
22139.324069,9104.533087,-14211.954086,-842.705048
22139.324403,6217.729913,-9844.739029,-919.314598
22139.324736,10584.944971,-9474.636058,1149.143247
22139.325070,7402.059420,-5995.668130,1838.629195
22139.325404,9474.636058,-7179.997637,4060.306139
22139.325738,7920.203579,-10510.924376,0.000000
22139.326072,10881.027347,-5995.668130,2757.943793
22139.326405,11177.109724,-8660.409521,2451.505594
22139.326739,12361.439231,-5033.400406,0.000000
22139.327073,9178.553681,-10362.883188,-3140.991542
22139.327407,7105.977043,-10881.027347,-2451.505594
22139.327741,9992.780217,-10955.047942,-1302.362347
22139.328075,9326.594869,-11029.068536,-1072.533697
22139.328408,12287.418637,-10066.800811,76.609550
22139.328742,7550.100608,-10732.986159,306.438199
22139.329076,5847.626942,-10658.965565,-76.609550
22139.329410,9474.636058,-9548.656652,4826.401637
22139.329744,10584.944971,-6809.894666,1149.143247
22139.330077,12435.459826,-5403.503377,3677.258390
22139.330411,9474.636058,-8512.368333,5822.325785
22139.330745,5033.400406,-5699.585753,-3524.039291
22139.331079,4663.297435,-13027.624579,-3600.648841
22139.331413,10807.006753,-6883.915261,-1455.581446
22139.331747,13101.645173,-8808.450710,2145.067394
22139.332080,8290.306550,-7179.997637,0.000000
22139.332414,9400.615463,-11251.130318,-2528.115143
22139.332748,7031.956449,-13027.624579,-3753.867940
22139.333082,9474.636058,-8364.327145,1225.752797
22139.333416,15322.262999,-8882.471304,3600.648841
22139.333749,9474.636058,-9548.656652,3370.820191
22139.334083,9992.780217,-7402.059420,536.266849
22139.334417,10584.944971,-11325.150913,3524.039291
22139.334751,12583.501014,-5329.482782,2145.067394
22139.335085,11843.295072,-10066.800811,4826.401637
22139.335419,12361.439231,-9178.553681,-1302.362347
22139.335752,6513.812290,-9548.656652,-1455.581446
22139.336086,7105.977043,-9178.553681,-76.609550
22139.336420,6735.874072,-8216.285956,-3830.477490
22139.336754,7698.141797,-8882.471304,-1915.238745
22139.337088,5773.606348,-11695.253884,1072.533697
22139.337421,5551.544565,-7994.224174,0.000000
22139.337755,3775.050304,-10140.821405,-229.828649
22139.338089,5551.544565,-10658.965565,-229.828649
22139.338423,5847.626942,-8364.327145,306.438199
22139.338757,7105.977043,-8956.491898,5056.230287
22139.339091,9252.574275,-8142.265362,6052.154434
22139.339424,5107.421000,-7254.018232,0.000000
22139.339758,6957.935855,-7698.141797,2374.896044
22139.340092,2960.823768,-7846.182985,-76.609550
22139.340426,2146.597232,-7772.162391,-4596.572988
22139.340760,962.267725,-11251.130318,-2604.724693
22139.341093,1702.473667,-13027.624579,-2834.553343
22139.341427,4145.153275,-10140.821405,612.876398
22139.341761,-740.205942,-11177.109724,-306.438199
22139.342095,4219.173869,-9104.533087,1225.752797
22139.342429,2368.659014,-7328.038826,3064.381992
22139.342763,7698.141797,-6587.832884,4903.011187
22139.343096,9400.615463,-6513.812290,2834.553343
22139.343430,4071.132681,-9548.656652,4903.011187
22139.343764,5847.626942,-9326.594869,2987.772442
22139.344098,2368.659014,-5995.668130,-842.705048
22139.344432,3404.947333,-10288.862594,-842.705048
22139.344765,1480.411884,-7550.100608,-2834.553343
22139.345099,148.041188,-9474.636058,-4979.620737
22139.345433,-148.041188,-10066.800811,-2528.115143
22139.345767,0.000000,-10732.986159,-689.485948
22139.346101,-74.020594,-9844.739029,0.000000
22139.346435,2516.700203,-8364.327145,2451.505594
22139.346768,1924.535449,-11251.130318,3600.648841
22139.347102,7105.977043,-6587.832884,4903.011187
22139.347436,6735.874072,-8290.306550,4749.792088
22139.347770,10362.883188,-4737.318029,5822.325785
22139.348104,5255.462188,-9474.636058,2451.505594
22139.348437,2590.720797,-9104.533087,-3140.991542
22139.348771,-1184.329507,-12435.459826,-4979.620737
22139.349105,-1850.514855,-13249.686362,-8273.831378
22139.349439,0.000000,-10140.821405,-2528.115143
22139.349773,-74.020594,-13027.624579,-2528.115143
22139.350106,1702.473667,-8882.471304,-76.609550
22139.350440,2590.720797,-6291.750507,5209.449386
22139.350774,5921.647536,-6735.874072,6435.202183
22139.351108,8290.306550,-4663.297435,7660.954980
22139.351442,1184.329507,-8364.327145,3677.258390
22139.351776,5847.626942,-8290.306550,-76.609550
22139.352109,0.000000,-10436.903782,0.000000
22139.352443,3478.967927,-11843.295072,-2528.115143
22139.352777,-5181.441594,-9548.656652,-4290.134789
22139.353111,-3552.988522,-7179.997637,-7354.516781
22139.353445,-2368.659014,-12805.562797,-3753.867940
22139.353778,-888.247130,-6661.853478,-3447.429741
22139.354112,-74.020594,-12805.562797,842.705048
22139.354446,3404.947333,-10362.883188,6971.469032
22139.354780,5551.544565,-4811.338623,6128.763984
22139.355114,3849.070898,-8290.306550,7277.907231
22139.355448,5551.544565,-5921.647536,2068.457845
22139.355781,0.000000,-10732.986159,1225.752797
22139.356115,-2368.659014,-11621.233289,1225.752797
22139.356449,-2664.741391,-8290.306550,-842.705048
22139.356783,-6661.853478,-10510.924376,-3677.258390
22139.357117,-3256.906145,-9030.512492,-689.485948
22139.357450,-1554.432478,-8290.306550,-689.485948
22139.357784,-3182.885551,-7179.997637,0.000000
22139.358118,-4293.194464,-7698.141797,-2681.334243
22139.358452,-1258.350101,-10436.903782,2068.457845
22139.358786,-592.164754,-8438.347739,3217.601092
22139.359120,-1184.329507,-10732.986159,4903.011187
22139.359453,1702.473667,-5921.647536,-383.047749
22139.359787,-2368.659014,-9548.656652,3677.258390
22139.360121,5551.544565,-3552.988522,-76.609550
22139.360455,0.000000,-13027.624579,689.485948
22139.360789,0.000000,-8660.409521,2221.676944
22139.361122,-1702.473667,-10214.842000,-3217.601092
22139.361456,-1480.411884,-10584.944971,-689.485948
22139.361790,0.000000,-8216.285956,-1378.971896
22139.362124,1702.473667,-8882.471304,-1302.362347
22139.362458,1110.308913,-13619.789333,306.438199
22139.362792,1776.494261,-7476.080014,1838.629195
22139.363125,3552.988522,-9474.636058,4826.401637
22139.363459,3478.967927,-8142.265362,4903.011187
22139.363793,3627.009116,-6957.935855,2374.896044
22139.364127,-888.247130,-8216.285956,459.657299
22139.364461,-518.144159,-8438.347739,-1072.533697
22139.364794,-2368.659014,-9400.615463,-2374.896044
22139.365128,-4663.297435,-10066.800811,-2528.115143
22139.365462,-74.020594,-2442.679609,-7354.516781
22139.365796,-1628.453072,-13619.789333,-2528.115143
22139.366130,3478.967927,-9992.780217,1762.019645
22139.366464,814.226536,-11029.068536,0.000000
22139.366797,4663.297435,-9474.636058,2528.115143
22139.367131,5329.482782,-8586.388927,4290.134789
22139.367465,5773.606348,-10658.965565,5515.887586
22139.367799,7476.080014,-7105.977043,4826.401637
22139.368133,3108.864956,-10140.821405,153.219100
22139.368466,2072.576638,-12805.562797,2757.943793
22139.368800,-370.102971,-11843.295072,-1915.238745
22139.369134,-2960.823768,-8068.244768,-1838.629195
22139.369468,-4737.318029,-8956.491898,1762.019645
22139.369802,2886.803174,-5033.400406,-2221.676944
22139.370136,-1480.411884,-9474.636058,1149.143247
22139.370469,666.185348,-8290.306550,-76.609550
22139.370803,1628.453072,-9030.512492,229.828649
22139.371137,0.000000,-10140.821405,612.876398
22139.371471,2368.659014,-10658.965565,3907.087040
22139.371805,-1184.329507,-8364.327145,0.000000
22139.372138,666.185348,-9474.636058,1149.143247
22139.372472,-148.041188,-10658.965565,-1608.800546
22139.372806,0.000000,-8882.471304,-1302.362347
22139.373140,-2960.823768,-11029.068536,3370.820191
22139.373474,-962.267725,-9474.636058,-76.609550
22139.373807,-74.020594,-5773.606348,536.266849
22139.374141,-2146.597232,-10066.800811,-76.609550
22139.374475,2442.679609,-7698.141797,1608.800546
22139.374809,-148.041188,-10807.006753,2681.334243
22139.375143,1702.473667,-9992.780217,2911.162892
22139.375477,0.000000,-8660.409521,1455.581446
22139.375810,2294.638420,-10955.047942,5439.278036
22139.376144,0.000000,-6587.832884,4903.011187
22139.376478,-74.020594,-10066.800811,-689.485948
22139.376812,-3849.070898,-8956.491898,-3064.381992
22139.377146,-7624.121203,-9844.739029,-3064.381992
22139.377479,-2590.720797,-6217.729913,-2068.457845
22139.377813,-3627.009116,-7328.038826,-2911.162892
22139.378147,-3404.947333,-10140.821405,-1838.629195
22139.378481,1406.391290,-5921.647536,-306.438199
22139.378815,-666.185348,-11547.212695,-76.609550
22139.379149,5255.462188,-10658.965565,4826.401637
22139.379482,7031.956449,-10658.965565,5439.278036
22139.379816,2368.659014,-8660.409521,3217.601092
22139.380150,7994.224174,-8734.430116,4290.134789
22139.380484,2368.659014,-9844.739029,0.000000
22139.380818,1110.308913,-14434.015869,-3140.991542
22139.381151,-1850.514855,-12879.583391,-995.924147
22139.381485,-3330.926739,-12213.398043,-2834.553343
22139.381819,-2960.823768,-9548.656652,-2451.505594
22139.382153,1110.308913,-5921.647536,-76.609550
22139.382487,2294.638420,-9178.553681,-76.609550
22139.382821,296.082377,-5403.503377,4903.011187
22139.383154,3478.967927,-6217.729913,3600.648841
22139.383488,0.000000,-11399.171507,3830.477490
22139.383822,3923.091493,-4811.338623,1685.410096
22139.384156,1554.432478,-10288.862594,76.609550
22139.384490,1110.308913,-10658.965565,-1532.190996
22139.384823,888.247130,-12065.356855,-1838.629195
22139.385157,-1850.514855,-13619.789333,-7124.688131
22139.385491,-2368.659014,-12213.398043,0.000000
22139.385825,-3552.988522,-8660.409521,1532.190996
22139.386159,-666.185348,-10658.965565,2374.896044
22139.386493,0.000000,-3775.050304,4213.525239
22139.386826,4071.132681,-4441.235652,3447.429741
22139.387160,4367.215058,-8364.327145,6128.763984
22139.387494,6809.894666,-5921.647536,5132.839837
22139.387827,1184.329507,-9844.739029,4826.401637
22139.388160,-444.123565,-9696.697840,-1149.143247
22139.388494,-1258.350101,-9178.553681,-4596.572988
22139.388827,-4145.153275,-14804.118840,-5592.497135
22139.389161,-3182.885551,-10732.986159,-4290.134789
22139.389494,-5921.647536,-10436.903782,-76.609550
22139.389827,-1998.556043,-12435.459826,-76.609550
22139.390161,-74.020594,-7698.141797,2681.334243
22139.390494,-2368.659014,-3627.009116,1838.629195
22139.390828,5255.462188,-8290.306550,6052.154434
22139.391161,1184.329507,-3627.009116,5132.839837
22139.391494,3849.070898,-5995.668130,919.314598
22139.391828,-666.185348,-9844.739029,0.000000
22139.392161,2368.659014,-7772.162391,-2451.505594
22139.392494,-2368.659014,-13397.727550,-612.876398
22139.392828,1110.308913,-9548.656652,-4290.134789
22139.393161,-2072.576638,-13989.892304,-4290.134789
22139.393495,-3256.906145,-13323.706956,-1608.800546
22139.393828,-2368.659014,-11325.150913,-1838.629195
22139.394161,-1258.350101,-9770.718434,2068.457845
22139.394495,2590.720797,-6883.915261,4060.306139
22139.394828,2590.720797,-6735.874072,5975.544884
22139.395162,1702.473667,-5921.647536,3600.648841
22139.395495,1184.329507,-4959.379811,4213.525239
22139.395828,3182.885551,-4959.379811,0.000000
22139.396162,1184.329507,-9622.677246,2911.162892
22139.396495,3256.906145,-7105.977043,-383.047749
22139.396829,-1554.432478,-13915.871710,-6818.249932
22139.397162,-4219.173869,-14730.098246,-4519.963438
22139.397495,-2368.659014,-9844.739029,-4903.011187
22139.397829,-3108.864956,-16358.551318,459.657299
22139.398162,-2072.576638,-6143.709319,-1991.848295
22139.398496,-370.102971,-11251.130318,2987.772442
22139.398829,0.000000,-2738.761985,5056.230287
22139.399162,3552.988522,1702.473667,7048.078582
22139.399496,4071.132681,-7698.141797,2987.772442
22139.399829,1924.535449,-7920.203579,1991.848295
22139.400163,2960.823768,-5403.503377,919.314598
22139.400496,-2072.576638,-11621.233289,-1455.581446
22139.400829,814.226536,-8586.388927,-4060.306139
22139.401163,-3849.070898,-13693.809927,-4290.134789
22139.401496,-2442.679609,-12435.459826,-6128.763984
22139.401829,-2368.659014,-13619.789333,-1915.238745
22139.402163,-2442.679609,-16580.613101,-76.609550
22139.402496,518.144159,-6291.750507,0.000000
22139.402830,0.000000,-7476.080014,5515.887586
22139.403163,4663.297435,-74.020594,3217.601092
22139.403496,2738.761985,-7402.059420,7584.345430
22139.403830,4885.359217,-370.102971,4060.306139
22139.404163,2960.823768,-10288.862594,2374.896044
22139.404497,-518.144159,-8512.368333,-2374.896044
22139.404830,1924.535449,-9474.636058,-5132.839837
22139.405163,-5181.441594,-18135.045579,-2528.115143
22139.405497,888.247130,-7920.203579,-5669.106685
22139.405830,-666.185348,-17172.777854,-1302.362347
22139.406164,-3108.864956,-11917.315666,0.000000
22139.406497,-2368.659014,-4811.338623,612.876398
22139.406830,-74.020594,-11843.295072,2374.896044
22139.407164,4737.318029,-2442.679609,4903.011187
22139.407497,2368.659014,-7105.977043,6665.030833
22139.407831,3627.009116,-5847.626942,5362.668486
22139.408164,4293.194464,-4663.297435,3140.991542
22139.408497,1776.494261,-7772.162391,383.047749
22139.408831,2886.803174,-11547.212695,-995.924147
22139.409164,-5625.565159,-9548.656652,-8580.269578
22139.409498,-2146.597232,-15988.448347,-4979.620737
22139.409831,-1258.350101,-10658.965565,-9576.193725
22139.410164,-2368.659014,-16654.633695,2145.067394
22139.410498,1998.556043,-9474.636058,1149.143247
22139.410831,1924.535449,-10658.965565,4213.525239
22139.411164,3478.967927,-5551.544565,7584.345430
22139.411498,1554.432478,-3775.050304,5745.716235
22139.411831,4219.173869,-1850.514855,2604.724693
22139.412165,0.000000,-5995.668130,2451.505594
22139.412498,2294.638420,-8882.471304,-1915.238745
22139.412831,-1998.556043,-6587.832884,-3677.258390
22139.413165,-4737.318029,-12213.398043,-2528.115143
22139.413498,-3034.844362,-11251.130318,-7967.393179
22139.413832,-1850.514855,-11843.295072,-3753.867940
22139.414165,-5181.441594,-13397.727550,-3907.087040
22139.414498,1480.411884,-7476.080014,995.924147
22139.414832,-2960.823768,-14359.995275,5822.325785
22139.415165,6957.935855,-4589.276840,9116.536426
22139.415499,4663.297435,-9474.636058,7277.907231
22139.415832,2368.659014,-3627.009116,5515.887586
22139.416165,4737.318029,-2442.679609,6665.030833
22139.416499,-74.020594,-7105.977043,-2528.115143
22139.416832,1776.494261,-8364.327145,-3524.039291
22139.417166,-6069.688724,-12657.521608,-6511.811733
22139.417499,-2294.638420,-13915.871710,-6665.030833
22139.417832,-4441.235652,-12509.480420,-4749.792088
22139.418166,-4219.173869,-13693.809927,-4903.011187
22139.418499,-148.041188,-11843.295072,1225.752797
22139.418833,-74.020594,-11843.295072,2374.896044
22139.419166,2664.741391,-4219.173869,6741.640382
22139.419499,5551.544565,-8290.306550,9116.536426
22139.419833,7846.182985,-4959.379811,8886.707777
22139.420166,6069.688724,-5477.523971,8197.221829
22139.420499,148.041188,-7846.182985,-995.924147
22139.420833,-2072.576638,-10732.986159,-1532.190996
22139.421166,-5773.606348,-8956.491898,-7660.954980
22139.421500,-2886.803174,-11103.089130,-7124.688131
22139.421833,-2812.782580,-11769.274478,-3830.477490
22139.422166,-3627.009116,-12213.398043,-5669.106685
22139.422500,-4145.153275,-9844.739029,-3064.381992
22139.422833,-74.020594,-13027.624579,2374.896044
22139.423167,2886.803174,-4811.338623,2451.505594
22139.423500,5551.544565,-8882.471304,9193.145976
22139.423833,6439.791695,-6513.812290,5745.716235
22139.424167,4145.153275,-6587.832884,3677.258390
22139.424500,3108.864956,-8660.409521,1991.848295
22139.424834,3108.864956,-11177.109724,2068.457845
22139.425167,666.185348,-6587.832884,-2068.457845
22139.425500,-2442.679609,-17468.860231,-383.047749
22139.425834,-6217.729913,-5403.503377,-6128.763984
22139.426167,-6365.771101,-8660.409521,-4903.011187
22139.426501,-2960.823768,-11473.192101,-2528.115143
22139.426834,1110.308913,-7994.224174,842.705048
22139.427167,0.000000,-10362.883188,4826.401637
22139.427501,2664.741391,-3775.050304,3064.381992
22139.427834,-1110.308913,-10658.965565,2911.162892
22139.428168,2146.597232,-4737.318029,1685.410096
22139.428501,2294.638420,-9178.553681,2374.896044
22139.428834,592.164754,-4811.338623,612.876398
22139.429168,1702.473667,-12435.459826,-76.609550
22139.429501,-74.020594,-9474.636058,-2068.457845
22139.429835,0.000000,-7772.162391,0.000000
22139.430168,-1850.514855,-13027.624579,-3370.820191
22139.430501,1628.453072,-10140.821405,0.000000
22139.430835,-1998.556043,-8290.306550,1378.971896
22139.431168,2072.576638,-5995.668130,1225.752797
22139.431501,0.000000,-5995.668130,0.000000
22139.431835,1184.329507,-8364.327145,4519.963438
22139.432168,4367.215058,-10955.047942,842.705048
22139.432502,3552.988522,-7772.162391,6128.763984
22139.432835,4145.153275,-10066.800811,2374.896044
22139.433168,-2590.720797,-10584.944971,0.000000
22139.433502,-962.267725,-6365.771101,-4060.306139
22139.433835,-2368.659014,-11769.274478,-3064.381992
22139.434169,1258.350101,-9326.594869,-612.876398
22139.434502,-3552.988522,-8364.327145,-3677.258390
22139.434835,-5477.523971,-12139.377449,-2221.676944
22139.435169,-1332.370696,-7254.018232,-612.876398
22139.435502,3478.967927,-7328.038826,2145.067394
22139.435836,6439.791695,-11843.295072,7890.783629
22139.436169,7920.203579,-4145.153275,4213.525239
22139.436502,0.000000,-10436.903782,2145.067394
22139.436836,3478.967927,-11251.130318,-76.609550
22139.437169,0.000000,-10732.986159,-2757.943793
22139.437503,370.102971,-14804.118840,0.000000
22139.437836,518.144159,-8438.347739,-1532.190996
22139.438169,-4071.132681,-12287.418637,-2145.067394
22139.438503,-1258.350101,-8216.285956,536.266849
22139.438836,-3923.091493,-3108.864956,-2298.286494
22139.439170,2368.659014,-7105.977043,2987.772442
22139.439503,0.000000,-10140.821405,5898.935335
22139.439836,2590.720797,-8586.388927,4826.401637
22139.440170,2886.803174,-9474.636058,1762.019645
22139.440503,-1184.329507,-9178.553681,1149.143247
22139.440836,2812.782580,-7402.059420,-1915.238745
22139.441170,-2220.617826,-13693.809927,-919.314598
22139.441503,-1924.535449,-10288.862594,-4136.915689
22139.441837,-3552.988522,-8364.327145,-2451.505594
22139.442170,-1258.350101,-12435.459826,-689.485948
22139.442503,3552.988522,-5995.668130,5745.716235
22139.442837,1998.556043,-9178.553681,2834.553343
22139.443170,3552.988522,-3627.009116,5209.449386
22139.443504,0.000000,-5403.503377,3677.258390
22139.443837,2590.720797,-7624.121203,-536.266849
22139.444170,2294.638420,-10362.883188,1762.019645
22139.444504,1702.473667,-7550.100608,-3294.210641
22139.444837,2294.638420,-14211.954086,-76.609550
22139.445171,-3775.050304,-11325.150913,-4903.011187
22139.445504,-962.267725,-14804.118840,-3753.867940
22139.445837,-1258.350101,-10658.965565,-1302.362347
22139.446171,1480.411884,-8956.491898,612.876398
22139.446504,2146.597232,-7105.977043,3600.648841
22139.446838,4663.297435,-6809.894666,3600.648841
22139.447171,3552.988522,-5995.668130,4749.792088
22139.447504,2220.617826,-7920.203579,5056.230287
22139.447838,2442.679609,-9474.636058,919.314598
22139.448171,814.226536,-12731.542202,2374.896044
22139.448505,-740.205942,-6587.832884,-3677.258390
22139.448838,0.000000,-11029.068536,-3677.258390
22139.449171,296.082377,-13915.871710,-1302.362347
22139.449505,-74.020594,-12435.459826,-1302.362347
22139.449838,740.205942,-9474.636058,-2221.676944
22139.450171,-1036.288319,-11399.171507,-1685.410096
22139.450505,-740.205942,-12139.377449,1838.629195
22139.450838,3108.864956,-3923.091493,2374.896044
22139.451172,2960.823768,-10658.965565,5439.278036
22139.451505,2072.576638,-4811.338623,5822.325785
22139.451838,-2516.700203,-8660.409521,1302.362347
22139.452172,1110.308913,-6217.729913,3294.210641
22139.452505,-2220.617826,-5403.503377,-3677.258390
22139.452839,1184.329507,-12361.439231,1149.143247
22139.453172,814.226536,-9474.636058,-1915.238745
22139.453505,-8290.306550,-13693.809927,-6588.421283
22139.453839,-5995.668130,-12435.459826,-3447.429741
22139.454172,-1554.432478,-8882.471304,-5745.716235
22139.454506,1850.514855,-11399.171507,3600.648841
22139.454839,3627.009116,-5033.400406,4136.915689
22139.455172,4367.215058,-7550.100608,5056.230287
22139.455506,592.164754,-7476.080014,4903.011187
22139.455839,4737.318029,-9474.636058,4826.401637
22139.456173,3182.885551,-5699.585753,2451.505594
22139.456506,0.000000,-10140.821405,3677.258390
22139.456839,-444.123565,-8290.306550,-3140.991542
22139.457173,-4071.132681,-10732.986159,-3677.258390
22139.457506,-2442.679609,-11991.336260,-3677.258390
22139.457840,-1258.350101,-9252.574275,0.000000
22139.458173,-2220.617826,-7179.997637,-612.876398
22139.458506,-1258.350101,-8586.388927,-689.485948
22139.458840,-1554.432478,-11843.295072,-76.609550
22139.459173,0.000000,-4811.338623,0.000000
22139.459506,3701.029710,-8068.244768,6435.202183
22139.459840,7624.121203,-10510.924376,4826.401637
22139.460173,7105.977043,-9104.533087,7201.297681
22139.460507,2072.576638,-8438.347739,1685.410096
22139.460840,888.247130,-11843.295072,-2374.896044
22139.461173,-740.205942,-10955.047942,-3600.648841
22139.461507,-1776.494261,-11917.315666,-3677.258390
22139.461840,-74.020594,-10658.965565,-2528.115143
22139.462174,-4441.235652,-9548.656652,919.314598
22139.462507,-1702.473667,-10658.965565,-2528.115143
22139.462840,444.123565,-7994.224174,689.485948
22139.463174,2146.597232,-6513.812290,5439.278036
22139.463507,4589.276840,-5255.462188,5515.887586
22139.463841,1480.411884,-8660.409521,4519.963438
22139.464174,666.185348,-6883.915261,0.000000
22139.464507,296.082377,-10140.821405,1302.362347
22139.464841,-666.185348,-9548.656652,0.000000
22139.465174,-370.102971,-11843.295072,-1302.362347
22139.465508,-4811.338623,-13027.624579,-4979.620737
22139.465841,-3997.112087,-7179.997637,-4903.011187
22139.466174,-4959.379811,-14211.954086,-3140.991542
22139.466508,888.247130,-9326.594869,1608.800546
22139.466841,148.041188,-6883.915261,2604.724693
22139.467175,1480.411884,-6957.935855,4903.011187
22139.467508,4737.318029,-6291.750507,5822.325785
22139.467841,444.123565,-9252.574275,3064.381992
22139.468175,5403.503377,-4663.297435,1838.629195
22139.468508,2220.617826,-11103.089130,3064.381992
22139.468842,3182.885551,-8586.388927,-1072.533697
22139.469175,0.000000,-10732.986159,-2298.286494
22139.469508,-4219.173869,-11843.295072,-6818.249932
22139.469842,-4737.318029,-13101.645173,-3064.381992
22139.470175,-4811.338623,-11547.212695,-5592.497135
22139.470508,-2590.720797,-9474.636058,-1302.362347
22139.470842,-2960.823768,-7179.997637,2528.115143
22139.471175,1480.411884,-5181.441594,4903.011187
22139.471509,3849.070898,-4737.318029,6741.640382
22139.471842,3034.844362,-5773.606348,6205.373534
22139.472175,5255.462188,-8290.306550,6665.030833
22139.472509,296.082377,-4219.173869,306.438199
22139.472842,1480.411884,-11843.295072,-1302.362347
22139.473176,-1850.514855,-13175.665768,-6894.859482
22139.473509,-4441.235652,-10732.986159,-7967.393179
22139.473842,-74.020594,-14804.118840,-2528.115143
22139.474176,-740.205942,-11621.233289,-2298.286494
22139.474509,-444.123565,-11843.295072,1149.143247
22139.474843,-370.102971,-7624.121203,612.876398
22139.475176,3478.967927,-8290.306550,3447.429741
22139.475509,2368.659014,-6587.832884,11338.213370
22139.475843,7031.956449,-3552.988522,6052.154434
22139.476176,-666.185348,-6587.832884,2451.505594
22139.476510,2664.741391,-3330.926739,1532.190996
22139.476843,-1258.350101,-11251.130318,-1838.629195
22139.477176,-444.123565,-10362.883188,-3753.867940
22139.477510,-2368.659014,-11029.068536,-3983.696590
22139.477843,-10362.883188,-14730.098246,-7967.393179
22139.478177,-3923.091493,-7772.162391,-4903.011187
22139.478510,-4737.318029,-12657.521608,-76.609550
22139.478843,4663.297435,-9178.553681,0.000000
22139.479177,1850.514855,-5995.668130,6128.763984
22139.479510,2368.659014,-8364.327145,7660.954980
22139.479843,7031.956449,-3923.091493,4903.011187
22139.480177,4071.132681,-7624.121203,5975.544884
22139.480510,8142.265362,-7105.977043,4213.525239
22139.480844,1776.494261,-8512.368333,1378.971896
22139.481177,-1184.329507,-10732.986159,-5515.887586
22139.481510,-4811.338623,-11843.295072,-7431.126331
22139.481844,-1184.329507,-12287.418637,-2451.505594
22139.482177,-2368.659014,-11325.150913,-2911.162892
22139.482511,-666.185348,-11843.295072,-1302.362347
22139.482844,-2442.679609,-8586.388927,-4136.915689
22139.483177,-5329.482782,-8956.491898,2451.505594
22139.483511,5847.626942,-5773.606348,8503.660028
22139.483844,4959.379811,-4367.215058,6281.983084
22139.484178,6883.915261,-8290.306550,9269.755526
22139.484511,2516.700203,-3182.885551,1532.190996
22139.484844,-814.226536,-9252.574275,-1302.362347
22139.485178,-370.102971,-8956.491898,-7048.078582
22139.485511,-1406.391290,-13989.892304,-5822.325785
22139.485845,-518.144159,-13101.645173,-7354.516781
22139.486178,888.247130,-14211.954086,-2528.115143
22139.486511,-3034.844362,-12361.439231,-3677.258390
22139.486845,1406.391290,-8956.491898,0.000000
22139.487178,1702.473667,-8734.430116,5669.106685
22139.487512,4737.318029,-6069.688724,7354.516781
22139.487845,3627.009116,-5107.421000,6894.859482
22139.488178,3108.864956,-6143.709319,5209.449386
22139.488512,5329.482782,-4515.256246,766.095498
22139.488845,-3034.844362,-15692.365970,1838.629195
22139.489178,4663.297435,-5921.647536,-76.609550
22139.489512,-6291.750507,-13397.727550,-4903.011187
22139.489845,-4145.153275,-7476.080014,-6741.640382
22139.490179,-4589.276840,-10881.027347,-4290.134789
22139.490512,-6809.894666,-9696.697840,-3830.477490
22139.490845,-1850.514855,-8956.491898,-2451.505594
22139.491178,-2294.638420,-9992.780217,1225.752797
22139.491511,7031.956449,-5773.606348,4826.401637
22139.491844,592.164754,-8956.491898,4903.011187
22139.492177,5847.626942,-8290.306550,2374.896044
22139.492510,3923.091493,-7698.141797,3600.648841
22139.492843,1184.329507,-8364.327145,3677.258390
22139.493176,7031.956449,-9474.636058,-76.609550
22139.493509,-666.185348,-15396.283594,-2528.115143
22139.493842,-2368.659014,-8808.450710,-3983.696590
22139.494175,-2516.700203,-10066.800811,-3140.991542
22139.494508,74.020594,-11251.130318,-229.828649
22139.494842,-74.020594,-11547.212695,-76.609550
22139.495175,-1258.350101,-7698.141797,0.000000
22139.495508,0.000000,-5995.668130,2681.334243
22139.495841,1702.473667,-9474.636058,2374.896044
22139.496174,2294.638420,-5625.565159,2145.067394
22139.496507,2516.700203,-9326.594869,2068.457845
22139.496840,-740.205942,-10732.986159,1915.238745
22139.497173,444.123565,-7994.224174,-536.266849
22139.497506,-1480.411884,-9252.574275,-919.314598
22139.497839,-148.041188,-8808.450710,-1302.362347
22139.498172,-1184.329507,-11325.150913,-1838.629195
22139.498505,-814.226536,-10584.944971,-2298.286494
22139.498838,370.102971,-11251.130318,-383.047749
22139.499171,-2812.782580,-8364.327145,-1838.629195
22139.499504,1480.411884,-9918.759623,3140.991542
22139.499837,5847.626942,-5921.647536,4443.353888
22139.500170,2146.597232,-5995.668130,2451.505594
22139.500503,7031.956449,-7105.977043,7277.907231
22139.500836,962.267725,-7105.977043,1455.581446
22139.501169,1776.494261,-10140.821405,1072.533697
22139.501502,-2220.617826,-11991.336260,-2374.896044
22139.501835,-3923.091493,-11177.109724,-5286.058936
22139.502168,-2368.659014,-9548.656652,-4596.572988
22139.502501,-3404.947333,-12213.398043,-1302.362347
22139.502834,222.061783,-7772.162391,0.000000
22139.503167,592.164754,-6291.750507,612.876398
22139.503500,2368.659014,-9400.615463,5439.278036
22139.503833,2960.823768,-5995.668130,4903.011187
22139.504166,-74.020594,-10807.006753,4826.401637
22139.504500,1924.535449,-2812.782580,3830.477490
22139.504833,-888.247130,-8364.327145,229.828649
22139.505166,3182.885551,-8882.471304,-76.609550
22139.505499,-3404.947333,-13101.645173,-76.609550
22139.505832,-666.185348,-7476.080014,-4903.011187
22139.506165,-3256.906145,-12509.480420,-2298.286494
22139.506498,-1184.329507,-8660.409521,-76.609550
22139.506831,1110.308913,-9474.636058,-1302.362347
22139.507164,814.226536,-9918.759623,2068.457845
22139.507497,2294.638420,-7402.059420,2911.162892
22139.507830,1110.308913,-8142.265362,2298.286494
22139.508163,2960.823768,-7179.997637,3983.696590
22139.508496,5255.462188,-9474.636058,3907.087040
22139.508829,1184.329507,-7772.162391,612.876398
22139.509162,0.000000,-10140.821405,-76.609550
22139.509495,-3627.009116,-11547.212695,-7354.516781
22139.509828,-3330.926739,-8364.327145,-4519.963438
22139.510161,-2220.617826,-8660.409521,-1915.238745
22139.510494,-1850.514855,-10584.944971,-1149.143247
22139.510827,-1184.329507,-6217.729913,459.657299
22139.511160,1332.370696,-10066.800811,2298.286494
22139.511493,5847.626942,-3627.009116,3677.258390
22139.511826,3701.029710,-7105.977043,3600.648841
22139.512159,2886.803174,-14211.954086,-76.609550
22139.512492,0.000000,-9844.739029,3677.258390
22139.512825,1776.494261,-8956.491898,0.000000
22139.513158,2368.659014,-10584.944971,459.657299
22139.513491,2072.576638,-10584.944971,766.095498
22139.513825,-2738.761985,-10436.903782,-2068.457845
22139.514158,-148.041188,-11251.130318,-76.609550
22139.514491,-370.102971,-8364.327145,-1838.629195
22139.514824,-1406.391290,-8660.409521,-76.609550
22139.515157,3034.844362,-7846.182985,3294.210641
22139.515490,0.000000,-7698.141797,4290.134789
22139.515823,0.000000,-8364.327145,3064.381992
22139.516156,2294.638420,-7402.059420,1455.581446
22139.516489,0.000000,-8364.327145,3217.601092
22139.516822,1110.308913,-9474.636058,1149.143247
22139.517155,-2442.679609,-6291.750507,-2221.676944
22139.517488,-4441.235652,-10732.986159,-1685.410096
22139.517821,-3034.844362,-9770.718434,-2757.943793
22139.518154,-74.020594,-11843.295072,-1378.971896
22139.518487,-2590.720797,-12731.542202,-383.047749
22139.518820,-666.185348,-8290.306550,1762.019645
22139.519153,1110.308913,-6069.688724,0.000000
22139.519486,3552.988522,-6587.832884,3677.258390
22139.519819,5847.626942,-9474.636058,4826.401637
22139.520152,148.041188,-8068.244768,1838.629195
22139.520485,5847.626942,-9474.636058,4519.963438
22139.520818,-2220.617826,-13397.727550,-842.705048
22139.521151,2294.638420,-6513.812290,-153.219100
22139.521484,-4145.153275,-11917.315666,-3217.601092
22139.521817,-2368.659014,-10362.883188,-6358.592633
22139.522150,-5403.503377,-7179.997637,-2451.505594
22139.522483,-2442.679609,-11251.130318,-1915.238745
22139.522816,-74.020594,-8882.471304,-76.609550
22139.523149,-2960.823768,-7179.997637,2757.943793
22139.523483,5847.626942,-5921.647536,1762.019645
22139.523816,2812.782580,-6661.853478,7277.907231
22139.524149,3182.885551,-7994.224174,3677.258390
22139.524482,2960.823768,-4071.132681,-1378.971896
22139.524815,888.247130,-14285.974681,612.876398
22139.525148,3108.864956,-8068.244768,-1302.362347
22139.525481,-74.020594,-16580.613101,-4060.306139
22139.525814,0.000000,-9548.656652,-4903.011187
22139.526147,-5329.482782,-15766.386565,-383.047749
22139.526480,-74.020594,-10066.800811,-1378.971896
22139.526813,740.205942,-8142.265362,536.266849
22139.527146,3478.967927,-6957.935855,3524.039291
22139.527479,7179.997637,-4071.132681,5439.278036
22139.527812,1184.329507,-9844.739029,6435.202183
22139.528145,6365.771101,-3404.947333,3294.210641
22139.528478,-1258.350101,-13915.871710,2757.943793
22139.528811,4071.132681,-4959.379811,-383.047749
22139.529144,-962.267725,-12435.459826,-1302.362347
22139.529477,-3923.091493,-12435.459826,-4366.744339
22139.529810,-2368.659014,-8364.327145,-4903.011187
22139.530143,-5403.503377,-18357.107362,-689.485948
22139.530476,4071.132681,-5329.482782,-1302.362347
22139.530809,-4219.173869,-11843.295072,1149.143247
22139.531142,2072.576638,-8734.430116,3294.210641
22139.531475,296.082377,-3997.112087,3064.381992
22139.531808,3108.864956,-7031.956449,5056.230287
22139.532141,6069.688724,-4367.215058,3294.210641
22139.532474,3923.091493,-11991.336260,6511.811733
22139.532807,0.000000,-6587.832884,3217.601092
22139.533141,2294.638420,-10658.965565,-689.485948
22139.533474,-2738.761985,-11843.295072,-4366.744339
22139.533807,-3256.906145,-10732.986159,-5515.887586
22139.534140,-3330.926739,-14211.954086,-3753.867940
22139.534473,-2442.679609,-10510.924376,-3064.381992
22139.534806,-5033.400406,-10807.006753,-1378.971896
22139.535139,0.000000,-6809.894666,1149.143247
22139.535472,-1554.432478,-8290.306550,2068.457845
22139.535805,4071.132681,-5921.647536,7277.907231
22139.536138,4367.215058,-5921.647536,4519.963438
22139.536471,0.000000,-7179.997637,4903.011187
22139.536804,1480.411884,-3775.050304,1685.410096
22139.537137,-2294.638420,-10584.944971,-3983.696590
22139.537470,740.205942,-13767.830521,-1762.019645
22139.537803,-2960.823768,-9992.780217,-6205.373534
22139.538136,-2590.720797,-15396.283594,-5592.497135
22139.538469,-6513.812290,-11917.315666,-6128.763984
22139.538802,-74.020594,-11843.295072,-2528.115143
22139.539135,-370.102971,-10658.965565,2374.896044
22139.539468,2664.741391,-4811.338623,7354.516781
22139.539801,7031.956449,-7698.141797,9116.536426
22139.540134,5033.400406,-5847.626942,7814.174080
22139.540467,5847.626942,-5255.462188,2911.162892
22139.540800,1554.432478,-11843.295072,-612.876398
22139.541133,2738.761985,-9622.677246,1838.629195
22139.541466,-296.082377,-12213.398043,-1915.238745
22139.541799,-74.020594,-11251.130318,-6205.373534
22139.542132,-7105.977043,-12509.480420,-5822.325785
22139.542466,-3552.988522,-10436.903782,-2834.553343
22139.542799,-1258.350101,-10658.965565,-76.609550
22139.543132,740.205942,-7772.162391,1762.019645
22139.543465,74.020594,-8364.327145,4979.620737
22139.543798,888.247130,-3627.009116,5975.544884
22139.544131,4737.318029,-3775.050304,5439.278036
22139.544464,2960.823768,-7179.997637,5975.544884
22139.544797,6439.791695,-9992.780217,2221.676944
22139.545130,-3330.926739,-11843.295072,-766.095498
22139.545463,592.164754,-10436.903782,-5132.839837
22139.545796,74.020594,-9844.739029,-3907.087040
22139.546129,-1628.453072,-11917.315666,-1915.238745
22139.546462,2886.803174,-12435.459826,-76.609550
22139.546795,-5995.668130,-11843.295072,-4979.620737
22139.547128,0.000000,-6883.915261,-1225.752797
22139.547461,-666.185348,-11251.130318,4826.401637
22139.547794,4737.318029,-4367.215058,7507.735880
22139.548127,3108.864956,-3627.009116,4596.572988
22139.548460,0.000000,-9548.656652,4060.306139
22139.548793,2960.823768,-2442.679609,612.876398
22139.549126,-3552.988522,-9844.739029,2451.505594
22139.549459,2294.638420,-7105.977043,-5975.544884
22139.549792,-4589.276840,-12213.398043,-5286.058936
22139.550125,-5921.647536,-11917.315666,-3064.381992
22139.550458,-1628.453072,-7920.203579,-5209.449386
22139.550791,-3923.091493,-13915.871710,-383.047749
22139.551124,148.041188,-5107.421000,-3447.429741
22139.551457,-2146.597232,-11843.295072,2068.457845
22139.551790,3478.967927,-7105.977043,5745.716235
22139.552124,592.164754,-6291.750507,6665.030833
22139.552457,6439.791695,-6365.771101,4903.011187
22139.552790,3552.988522,-7624.121203,6358.592633
22139.553123,4663.297435,-9178.553681,2987.772442
22139.553456,814.226536,-9770.718434,-1838.629195
22139.553789,-3330.926739,-11843.295072,-6358.592633
22139.554122,-4293.194464,-13767.830521,-7201.297681
22139.554455,-3404.947333,-12509.480420,-1608.800546
22139.554788,-3923.091493,-10362.883188,-2681.334243
22139.555121,-148.041188,-9474.636058,1762.019645
22139.555454,0.000000,-4811.338623,2451.505594
22139.555787,296.082377,-4219.173869,5515.887586
22139.556120,4367.215058,-5625.565159,6052.154434
22139.556453,2294.638420,-6809.894666,2528.115143
22139.556786,1332.370696,-9104.533087,3370.820191
22139.557119,296.082377,-6883.915261,-229.828649
22139.557452,444.123565,-10288.862594,-2604.724693
22139.557785,-3552.988522,-10732.986159,-6435.202183
22139.558118,-74.020594,-15396.283594,-4213.525239
22139.558451,0.000000,-9548.656652,-2068.457845
22139.558784,-74.020594,-13915.871710,-76.609550
22139.559117,0.000000,-5995.668130,0.000000
22139.559450,1480.411884,-8438.347739,3983.696590
22139.559783,3034.844362,-5699.585753,6128.763984
22139.560116,4959.379811,-5625.565159,5286.058936
22139.560449,2590.720797,-7550.100608,4519.963438
22139.560782,1776.494261,-7328.038826,3064.381992
22139.561115,1110.308913,-7920.203579,0.000000
22139.561449,518.144159,-9918.759623,-1608.800546
22139.561782,-1628.453072,-9548.656652,-4673.182538
22139.562115,-4589.276840,-13101.645173,-4903.011187
22139.562448,-3552.988522,-8364.327145,-4290.134789
22139.562781,-3627.009116,-12139.377449,-2528.115143
22139.563114,0.000000,-5403.503377,0.000000
22139.563447,1184.329507,-7994.224174,4826.401637
22139.563780,2886.803174,-7105.977043,2068.457845
22139.564113,2516.700203,-7476.080014,3677.258390
22139.564446,1332.370696,-10658.965565,3294.210641
22139.564779,4663.297435,-7624.121203,4826.401637
22139.565112,3478.967927,-9326.594869,2451.505594
22139.565445,1184.329507,-12435.459826,1608.800546
22139.565778,-666.185348,-9474.636058,-4903.011187
22139.566111,-1480.411884,-12287.418637,-1225.752797
22139.566444,-666.185348,-11843.295072,-1302.362347
22139.566777,-1850.514855,-5403.503377,-2451.505594
22139.567110,-4737.318029,-13323.706956,1762.019645
22139.567443,-2146.597232,-5699.585753,-383.047749
22139.567776,296.082377,-9104.533087,1685.410096
22139.568109,3775.050304,-5033.400406,4596.572988
22139.568442,2294.638420,-11843.295072,4213.525239
22139.568775,4663.297435,-3478.967927,0.000000
22139.569108,1184.329507,-11029.068536,2681.334243
22139.569441,1110.308913,-13027.624579,-2528.115143
22139.569774,-666.185348,-9548.656652,-3677.258390
22139.570107,-1258.350101,-15396.283594,-2528.115143
22139.570440,-740.205942,-10066.800811,383.047749
22139.570773,-518.144159,-5773.606348,-2604.724693
22139.571107,740.205942,-11621.233289,3447.429741
22139.571440,1184.329507,-3627.009116,2757.943793
22139.571773,1776.494261,-8068.244768,2451.505594
22139.572106,2072.576638,-8586.388927,4826.401637
22139.572439,2294.638420,-7105.977043,0.000000
22139.572772,0.000000,-8660.409521,2451.505594
22139.573105,3182.885551,-8290.306550,1149.143247
22139.573438,-1628.453072,-11843.295072,-2451.505594
22139.573771,-2368.659014,-11177.109724,-2374.896044
22139.574104,-2590.720797,-9622.677246,-3217.601092
22139.574437,-2960.823768,-9104.533087,-3370.820191
22139.574770,-888.247130,-9474.636058,766.095498
22139.575103,-518.144159,-7550.100608,229.828649
22139.575436,2516.700203,-5995.668130,4749.792088
22139.575769,2294.638420,-10658.965565,7890.783629
22139.576102,5847.626942,-5921.647536,2374.896044
22139.576435,2146.597232,-8364.327145,0.000000
22139.576768,3552.988522,-12287.418637,3983.696590
22139.577101,4071.132681,-7698.141797,-1302.362347
22139.577434,3552.988522,-12805.562797,-153.219100
22139.577767,-1924.535449,-16580.613101,-1915.238745
22139.578100,-1554.432478,-10214.842000,-1225.752797
22139.578433,518.144159,-9030.512492,-459.657299
22139.578766,74.020594,-8660.409521,1302.362347
22139.579099,0.000000,-5403.503377,2298.286494
22139.579432,-1776.494261,-4811.338623,3064.381992
22139.579765,1702.473667,-7105.977043,3600.648841
22139.580098,518.144159,-7698.141797,-76.609550
22139.580431,222.061783,-10288.862594,2298.286494
22139.580765,1702.473667,-8882.471304,-1302.362347
22139.581098,740.205942,-10140.821405,-1762.019645
22139.581431,-592.164754,-12361.439231,-1532.190996
22139.581764,-1924.535449,-11621.233289,-3064.381992
22139.582097,-666.185348,-12731.542202,-1302.362347
22139.582430,-1184.329507,-12805.562797,2451.505594
22139.582763,-74.020594,-9474.636058,-76.609550
22139.583096,-1776.494261,-5403.503377,3064.381992
22139.583429,1776.494261,-6291.750507,4903.011187
22139.583762,4515.256246,-4811.338623,5822.325785
22139.584095,2590.720797,-6661.853478,5745.716235
22139.584428,518.144159,-8438.347739,-1378.971896
22139.584761,1924.535449,-10510.924376,-919.314598
22139.585094,-2146.597232,-10732.986159,-3217.601092
22139.585427,1776.494261,-13619.789333,-76.609550
22139.585760,-370.102971,-13027.624579,-689.485948
22139.586093,-4811.338623,-11917.315666,-6741.640382
22139.586426,-74.020594,-8586.388927,-76.609550
22139.586759,-2368.659014,-10140.821405,-76.609550
22139.587092,518.144159,-8660.409521,2298.286494
22139.587425,592.164754,-4515.256246,3217.601092
22139.587758,3182.885551,-6217.729913,3677.258390
22139.588091,2368.659014,-6587.832884,4903.011187
22139.588425,4367.215058,-9474.636058,1762.019645
22139.588758,2960.823768,-7179.997637,0.000000
22139.589091,0.000000,-11917.315666,306.438199
22139.589424,4663.297435,-10658.965565,-76.609550
22139.589757,-1776.494261,-11621.233289,-2451.505594
22139.590090,-1406.391290,-11991.336260,-536.266849
22139.590423,-1628.453072,-7772.162391,-2145.067394
22139.590756,-3108.864956,-10140.821405,-3294.210641
22139.591089,-2960.823768,-8364.327145,306.438199
22139.591422,-740.205942,-6809.894666,-1915.238745
22139.591755,1332.370696,-9104.533087,3524.039291
22139.592088,3404.947333,-6513.812290,8580.269578
22139.592421,7031.956449,-4737.318029,3600.648841
22139.592755,4663.297435,-7550.100608,3983.696590
22139.593088,3034.844362,-9326.594869,0.000000
22139.593421,2294.638420,-13619.789333,-76.609550
22139.593754,-4145.153275,-11621.233289,-3064.381992
22139.594087,148.041188,-14211.954086,-1915.238745
22139.594420,-7698.141797,-14359.995275,-2451.505594
22139.594753,-1480.411884,-6735.874072,-4749.792088
22139.595086,-3701.029710,-9104.533087,-1532.190996
22139.595419,0.000000,-6365.771101,76.609550
22139.595752,3478.967927,-3034.844362,4903.011187
22139.596085,3775.050304,-8290.306550,5439.278036
22139.596418,4071.132681,-7698.141797,2374.896044
22139.596752,0.000000,-8956.491898,3983.696590
22139.597085,5255.462188,-9474.636058,-76.609550
22139.597418,592.164754,-13323.706956,4290.134789
22139.597751,2590.720797,-7402.059420,-3294.210641
22139.598084,-1850.514855,-15248.242405,-2528.115143
22139.598417,-3552.988522,-10140.821405,-2451.505594
22139.598750,-6069.688724,-10732.986159,-6128.763984
22139.599083,-1850.514855,-9474.636058,-1302.362347
22139.599416,-2516.700203,-6143.709319,-2451.505594
22139.599749,0.000000,-6587.832884,5822.325785
22139.600082,2368.659014,-4367.215058,5209.449386
22139.600415,3478.967927,-5921.647536,3753.867940
22139.600748,1332.370696,-8364.327145,4443.353888
22139.601082,2590.720797,-7031.956449,1072.533697
22139.601415,2294.638420,-11695.253884,-689.485948
22139.601748,-2960.823768,-11917.315666,-1532.190996
22139.602081,-2442.679609,-11843.295072,-7431.126331
22139.602414,-4737.318029,-11917.315666,-2451.505594
22139.602747,-1776.494261,-13027.624579,-919.314598
22139.603080,2294.638420,-7105.977043,-383.047749
22139.603413,-1998.556043,-7846.182985,0.000000
22139.603746,2294.638420,-6513.812290,4903.011187
22139.604079,2590.720797,-6143.709319,4596.572988
22139.604412,3552.988522,-6291.750507,5515.887586
22139.604745,4663.297435,-9474.636058,3294.210641
22139.605079,740.205942,-9548.656652,1532.190996
22139.605412,0.000000,-7772.162391,-1072.533697
22139.605745,-74.020594,-14211.954086,-9269.755526
22139.606078,-1554.432478,-15026.180623,-2221.676944
22139.606411,-370.102971,-9844.739029,-3140.991542
22139.606744,-2368.659014,-13397.727550,-995.924147
22139.607077,-814.226536,-5403.503377,229.828649
22139.607410,-2960.823768,-7772.162391,-1225.752797
22139.607743,3997.112087,-5921.647536,6665.030833
22139.608076,2442.679609,-5995.668130,5362.668486
22139.608409,1332.370696,-7624.121203,3140.991542
22139.608742,3182.885551,-5921.647536,3524.039291
22139.609076,814.226536,-5699.585753,-2451.505594
22139.609409,3404.947333,-12287.418637,3294.210641
22139.609742,-1258.350101,-7698.141797,-6741.640382
22139.610075,0.000000,-14285.974681,-3447.429741
22139.610408,0.000000,-15174.221811,-5515.887586
22139.610741,-74.020594,-14582.057057,612.876398
22139.611074,-518.144159,-8068.244768,-1762.019645
22139.611407,1554.432478,-10955.047942,5592.497135
22139.611740,814.226536,-2812.782580,4979.620737
22139.612073,-1776.494261,-3627.009116,2757.943793
22139.612406,7031.956449,-5921.647536,4826.401637
22139.612739,2960.823768,-6587.832884,1225.752797
22139.613072,1776.494261,-10436.903782,4519.963438
22139.613406,1554.432478,-7698.141797,-689.485948
22139.613739,-5921.647536,-10436.903782,-6741.640382
22139.614072,-4219.173869,-12287.418637,-7201.297681
22139.614405,-3034.844362,-14582.057057,-4213.525239
22139.614738,666.185348,-10066.800811,-2298.286494
22139.615071,-74.020594,-12805.562797,-76.609550
22139.615404,-74.020594,-10658.965565,1762.019645
22139.615737,518.144159,-4811.338623,2757.943793
22139.616070,0.000000,-7179.997637,8580.269578
22139.616403,5255.462188,-3552.988522,5439.278036
22139.616736,1628.453072,-8882.471304,766.095498
22139.617069,1480.411884,-8882.471304,536.266849
22139.617403,-888.247130,-8068.244768,-2451.505594
22139.617736,444.123565,-11769.274478,-2451.505594
22139.618069,-1258.350101,-12435.459826,-4979.620737
22139.618402,-4293.194464,-11917.315666,-5745.716235
22139.618735,-3256.906145,-10732.986159,-1532.190996
22139.619068,-74.020594,-9474.636058,-76.609550
22139.619401,-74.020594,-8364.327145,0.000000
22139.619734,1776.494261,-7698.141797,5439.278036
22139.620067,3997.112087,-4367.215058,6281.983084
22139.620400,888.247130,-6217.729913,3753.867940
22139.620733,666.185348,-8660.409521,1608.800546
22139.621066,-1258.350101,-7105.977043,-995.924147
22139.621399,-2220.617826,-9030.512492,-2834.553343
22139.621733,-1480.411884,-11547.212695,-1532.190996
22139.622066,-370.102971,-11103.089130,-1915.238745
22139.622399,-3256.906145,-10732.986159,0.000000
22139.622732,3997.112087,-8068.244768,-689.485948
22139.623065,-666.185348,-14508.036463,0.000000
22139.623398,1184.329507,-5995.668130,0.000000
22139.623731,2516.700203,-8586.388927,4826.401637
22139.624064,592.164754,-7476.080014,3677.258390
22139.624397,1924.535449,-6217.729913,2834.553343
22139.624730,0.000000,-7328.038826,3447.429741
22139.625063,1702.473667,-7254.018232,1302.362347
22139.625396,2886.803174,-7105.977043,-76.609550
22139.625730,-1776.494261,-11917.315666,-2221.676944
22139.626063,-1554.432478,-9548.656652,-6741.640382
22139.626396,-6513.812290,-14137.933492,-3753.867940
22139.626729,-1776.494261,-8956.491898,-3064.381992
22139.627062,2886.803174,-10362.883188,1149.143247
22139.627395,814.226536,-10658.965565,2068.457845
22139.627728,3775.050304,-4145.153275,2987.772442
22139.628061,-518.144159,-9548.656652,3140.991542
22139.628394,6735.874072,-5995.668130,4366.744339
22139.628727,4737.318029,-9992.780217,8350.440928
22139.629060,2368.659014,-9548.656652,1225.752797
22139.629393,2368.659014,-9474.636058,3600.648841
22139.629727,-5699.585753,-9548.656652,-3370.820191
22139.630060,0.000000,-5181.441594,-6894.859482
22139.630393,-2442.679609,-14211.954086,-3140.991542
22139.630726,740.205942,-9548.656652,-2298.286494
22139.631059,-3923.091493,-9770.718434,153.219100
22139.631392,962.267725,-8290.306550,-1302.362347
22139.631725,1110.308913,-9474.636058,2987.772442
22139.632058,0.000000,-7179.997637,3217.601092
22139.632391,7105.977043,-5847.626942,6665.030833
22139.632724,-74.020594,-10955.047942,2298.286494
22139.633057,2368.659014,-5403.503377,612.876398
22139.633390,-2442.679609,-11251.130318,919.314598
22139.633723,-1998.556043,-11399.171507,-4673.182538
22139.634057,-2146.597232,-9474.636058,-2681.334243
22139.634390,-2368.659014,-13545.768739,-689.485948
22139.634723,0.000000,-6735.874072,0.000000
22139.635056,-1480.411884,-9474.636058,-76.609550
22139.635389,1406.391290,-8956.491898,0.000000
22139.635722,-2368.659014,-7179.997637,6435.202183
22139.636055,3552.988522,-5699.585753,3600.648841
22139.636388,0.000000,-8364.327145,2451.505594
22139.636721,518.144159,-9622.677246,0.000000
22139.637054,740.205942,-9992.780217,1762.019645
22139.637387,-814.226536,-11325.150913,919.314598
22139.637720,370.102971,-6587.832884,919.314598
22139.638054,-3775.050304,-8142.265362,-2221.676944
22139.638387,-666.185348,-9992.780217,-2068.457845
22139.638720,-2960.823768,-12657.521608,-459.657299
22139.639053,-1850.514855,-10658.965565,-1302.362347
22139.639386,-370.102971,-6439.791695,-766.095498
22139.639719,0.000000,-7031.956449,3064.381992
22139.640052,3478.967927,-7698.141797,689.485948
22139.640385,1184.329507,-6587.832884,3983.696590
22139.640718,2368.659014,-10140.821405,2374.896044
22139.641051,3997.112087,-10140.821405,3064.381992
22139.641384,3404.947333,-7846.182985,2451.505594
22139.641717,814.226536,-10658.965565,0.000000
22139.642050,-666.185348,-7994.224174,-2528.115143
22139.642384,-3627.009116,-13323.706956,-4903.011187
22139.642717,2368.659014,-4737.318029,-2528.115143
22139.643050,-4145.153275,-15618.345376,1762.019645
22139.643383,2294.638420,-3404.947333,-1302.362347
22139.643716,3330.926739,-10658.965565,4826.401637
22139.644049,3552.988522,-6735.874072,4290.134789
22139.644382,5181.441594,-6143.709319,3294.210641
22139.644715,0.000000,-8956.491898,153.219100
22139.645048,5921.647536,-7772.162391,2451.505594
22139.645381,-222.061783,-9548.656652,0.000000
22139.645714,8216.285956,-11843.295072,-76.609550
22139.646047,-5847.626942,-11917.315666,-4749.792088
22139.646381,-3552.988522,-9548.656652,-4443.353888
22139.646714,-3108.864956,-11325.150913,-2374.896044
22139.647047,-740.205942,-9474.636058,2681.334243
22139.647380,-296.082377,-5255.462188,-153.219100
22139.647713,518.144159,-9252.574275,3064.381992
22139.648046,8734.430116,-8290.306550,6971.469032
22139.648379,0.000000,-5403.503377,7048.078582
22139.648712,7031.956449,-9474.636058,2374.896044
22139.649045,0.000000,-8364.327145,1225.752797
22139.649378,-666.185348,-13027.624579,-1608.800546
22139.649711,2220.617826,-8290.306550,-4290.134789
22139.650044,-6069.688724,-15692.365970,-3677.258390
22139.650378,-4589.276840,-9696.697840,-3983.696590
22139.650711,-5773.606348,-9178.553681,-3983.696590
22139.651044,-3775.050304,-8882.471304,-2221.676944
22139.651377,296.082377,-10658.965565,4213.525239
22139.651710,0.000000,-2442.679609,3983.696590
22139.652043,2368.659014,-7772.162391,8197.221829
22139.652376,1406.391290,-4811.338623,1838.629195
22139.652709,1036.288319,-9104.533087,3677.258390
22139.653042,2812.782580,-9474.636058,3447.429741
22139.653375,444.123565,-9844.739029,0.000000
22139.653708,222.061783,-11843.295072,-1149.143247
22139.654041,0.000000,-9770.718434,-1991.848295
22139.654374,-4515.256246,-13915.871710,-3447.429741
22139.654708,-1036.288319,-7772.162391,-919.314598
22139.655041,-6291.750507,-11177.109724,-76.609550
22139.655374,2072.576638,-5329.482782,842.705048
22139.655707,1110.308913,-8290.306550,4213.525239
22139.656040,2664.741391,-5625.565159,5822.325785
22139.656373,4663.297435,-6513.812290,1149.143247
22139.656706,592.164754,-8956.491898,0.000000
22139.657039,5329.482782,-12805.562797,2757.943793
22139.657372,4071.132681,-9104.533087,1838.629195
22139.657705,3997.112087,-11251.130318,-536.266849
22139.658038,1184.329507,-9844.739029,-766.095498
22139.658371,-1184.329507,-12139.377449,-2528.115143
22139.658705,-2368.659014,-7179.997637,-3677.258390
22139.659038,-1628.453072,-13027.624579,-689.485948
22139.659371,-3034.844362,-9474.636058,-2528.115143
22139.659704,-2960.823768,-8364.327145,2757.943793
22139.660037,4663.297435,-4737.318029,4826.401637
22139.660370,1480.411884,-5995.668130,4290.134789
22139.660703,4219.173869,-6883.915261,3217.601092
22139.661036,4145.153275,-9918.759623,2987.772442
22139.661369,2368.659014,-9030.512492,-1685.410096
22139.661702,4885.359217,-15026.180623,-1838.629195
22139.662035,2294.638420,-17764.942608,-1915.238745
22139.662368,2146.597232,-10732.986159,-3370.820191
22139.662701,-4145.153275,-11917.315666,0.000000
22139.663035,2294.638420,-9178.553681,-1302.362347
22139.663368,-6217.729913,-11177.109724,1532.190996
22139.663701,1110.308913,-3108.864956,919.314598
22139.664034,-1036.288319,-7772.162391,2834.553343
22139.664367,2590.720797,-5255.462188,6128.763984
22139.664700,2294.638420,-5329.482782,4826.401637
22139.665033,-370.102971,-5995.668130,-1378.971896
22139.665366,-2368.659014,-11029.068536,-2068.457845
22139.665699,-2590.720797,-11547.212695,-3447.429741
22139.666032,-2442.679609,-10881.027347,-7048.078582
22139.666365,1184.329507,-8808.450710,-383.047749
22139.666698,-2886.803174,-15692.365970,842.705048
22139.667032,1628.453072,-4219.173869,689.485948
22139.667365,-2960.823768,-10066.800811,306.438199
22139.667698,-74.020594,-9474.636058,2374.896044
22139.668031,2960.823768,-5995.668130,6665.030833
22139.668364,1480.411884,-6513.812290,4903.011187
22139.668697,4737.318029,-5403.503377,6281.983084
22139.669030,-1776.494261,-6587.832884,0.000000
22139.669363,1776.494261,-9548.656652,612.876398
22139.669696,3478.967927,-10658.965565,1455.581446
22139.670029,-3552.988522,-10732.986159,-7048.078582
22139.670362,-2368.659014,-7772.162391,-3294.210641
22139.670695,-6809.894666,-14434.015869,-6128.763984
22139.671029,0.000000,-9252.574275,-1991.848295
22139.671362,-3182.885551,-8438.347739,0.000000
22139.671695,666.185348,-6735.874072,1838.629195
22139.672028,3182.885551,-7698.141797,6052.154434
22139.672361,74.020594,-5403.503377,5132.839837
22139.672694,4663.297435,-4737.318029,0.000000
22139.673027,2368.659014,-10732.986159,5439.278036
22139.673360,4663.297435,-9474.636058,1762.019645
22139.673693,2072.576638,-11621.233289,1225.752797
22139.674026,1184.329507,-11399.171507,-2987.772442
22139.674359,888.247130,-11843.295072,-5898.935335
22139.674692,-74.020594,-15396.283594,-2681.334243
22139.675025,1998.556043,-9474.636058,-2068.457845
22139.675359,-2960.823768,-10140.821405,153.219100
22139.675692,-1184.329507,-7179.997637,0.000000
22139.676025,592.164754,-5995.668130,4136.915689
22139.676358,3478.967927,-6365.771101,4213.525239
22139.676691,1480.411884,-5773.606348,3600.648841
22139.677024,2886.803174,-9474.636058,2068.457845
22139.677357,-6513.812290,-10288.862594,1225.752797
22139.677690,1776.494261,-2738.761985,-4673.182538
22139.678023,-6143.709319,-16654.633695,-3217.601092
22139.678356,-74.020594,-9474.636058,-2528.115143
22139.678689,-2368.659014,-11325.150913,0.000000
22139.679022,-4737.318029,-11325.150913,-76.609550
22139.679356,1702.473667,-8290.306550,-1302.362347
22139.679689,-5921.647536,-7772.162391,0.000000
22139.680022,7105.977043,-6291.750507,6741.640382
22139.680355,1924.535449,-6883.915261,4979.620737
22139.680688,5625.565159,-7031.956449,4826.401637
22139.681021,2738.761985,-7624.121203,3677.258390
22139.681354,814.226536,-7624.121203,-1302.362347
22139.681687,2368.659014,-12509.480420,3600.648841
22139.682020,1110.308913,-9474.636058,2987.772442
22139.682353,-74.020594,-8142.265362,-7354.516781
22139.682686,-4737.318029,-7772.162391,-4290.134789
22139.683019,-1406.391290,-13323.706956,-4519.963438
22139.683352,-3997.112087,-9104.533087,-4136.915689
22139.683686,-518.144159,-11029.068536,995.924147
22139.684019,-1184.329507,-6809.894666,536.266849
22139.684352,4663.297435,-5033.400406,2604.724693
22139.684685,2590.720797,-7698.141797,4749.792088
22139.685018,6291.750507,-5847.626942,4519.963438
22139.685351,2294.638420,-10288.862594,4290.134789
22139.685684,5477.523971,-8660.409521,6588.421283
22139.686017,-2146.597232,-8364.327145,-5362.668486
22139.686350,-1628.453072,-10436.903782,-4903.011187
22139.686683,-2220.617826,-15396.283594,-4979.620737
22139.687016,-1110.308913,-11769.274478,-3677.258390
22139.687349,0.000000,-9548.656652,1838.629195
22139.687683,-222.061783,-9992.780217,0.000000
22139.688016,3108.864956,-5921.647536,2221.676944
22139.688349,814.226536,-6957.935855,2221.676944
22139.688682,1702.473667,-11843.295072,1149.143247
22139.689015,4663.297435,-5773.606348,1225.752797
22139.689348,0.000000,-11103.089130,3294.210641
22139.689681,814.226536,-9178.553681,-689.485948
22139.690014,-3627.009116,-8512.368333,-2911.162892
22139.690347,-2442.679609,-9252.574275,-383.047749
22139.690680,-2664.741391,-7920.203579,-3677.258390
22139.691013,-666.185348,-11251.130318,-1302.362347
22139.691346,-1850.514855,-10955.047942,153.219100
22139.691679,-3256.906145,-6587.832884,0.000000
22139.692012,2738.761985,-4663.297435,0.000000
22139.692345,1110.308913,-10658.965565,1532.190996
22139.692678,6439.791695,-7698.141797,4213.525239
22139.693012,-74.020594,-8586.388927,0.000000
22139.693345,1184.329507,-9548.656652,1225.752797
22139.693678,2294.638420,-12435.459826,2374.896044
22139.694011,-666.185348,-11547.212695,-153.219100
22139.694344,-222.061783,-5625.565159,-2834.553343
22139.694677,-1850.514855,-10362.883188,-1302.362347
22139.695010,-2368.659014,-8364.327145,-1532.190996
22139.695343,-2442.679609,-11843.295072,1762.019645
22139.695676,0.000000,-3923.091493,1225.752797
22139.696009,2294.638420,-7105.977043,2145.067394
22139.696342,2294.638420,-9474.636058,3677.258390
22139.696675,2220.617826,-7105.977043,995.924147
22139.697008,222.061783,-11843.295072,2298.286494
22139.697341,2960.823768,-6883.915261,-1225.752797
22139.697674,-370.102971,-12731.542202,0.000000
22139.698007,2220.617826,-12435.459826,-76.609550
22139.698340,-370.102971,-6291.750507,-3677.258390
22139.698673,-1850.514855,-9548.656652,-2451.505594
22139.699006,1480.411884,-9474.636058,2221.676944
22139.699339,-74.020594,-9474.636058,-1225.752797
22139.699672,222.061783,-8216.285956,536.266849
22139.700005,666.185348,-5329.482782,1608.800546
22139.700338,5033.400406,-7254.018232,1762.019645
22139.700672,5847.626942,-10362.883188,3294.210641
22139.701005,5329.482782,-10732.986159,5439.278036
22139.701338,3478.967927,-8438.347739,-459.657299
22139.701671,0.000000,-11473.192101,-1378.971896
22139.702004,-2294.638420,-12435.459826,-6665.030833
22139.702337,-3627.009116,-10732.986159,-5362.668486
22139.702670,-3627.009116,-11251.130318,-1302.362347
22139.703003,-74.020594,-7550.100608,-2068.457845
22139.703336,-4737.318029,-5403.503377,919.314598
22139.703669,1998.556043,-9474.636058,6205.373534
22139.704002,1998.556043,-4071.132681,3064.381992
22139.704335,2812.782580,-7105.977043,3600.648841
22139.704668,2368.659014,-9548.656652,459.657299
22139.705001,2812.782580,-8734.430116,1455.581446
22139.705334,1184.329507,-10140.821405,3064.381992
22139.705667,3182.885551,-10066.800811,-1915.238745
22139.706000,-1184.329507,-11917.315666,-2757.943793
22139.706333,-3552.988522,-13767.830521,-76.609550
22139.706666,-2664.741391,-10658.965565,-76.609550
22139.706999,-2590.720797,-11251.130318,-76.609550
22139.707332,-2072.576638,-7328.038826,-919.314598
22139.707665,148.041188,-6365.771101,3907.087040
22139.707998,2886.803174,-4145.153275,8810.098227
22139.708332,-74.020594,-5773.606348,6971.469032
22139.708665,4663.297435,-4737.318029,-76.609550
22139.708998,-3256.906145,-10140.821405,0.000000
22139.709331,1110.308913,-12731.542202,-76.609550
22139.709664,-962.267725,-10288.862594,-2604.724693
22139.709997,-2072.576638,-14211.954086,-4060.306139
22139.710330,-2072.576638,-14063.912898,-3753.867940
22139.710663,-3627.009116,-10881.027347,-3447.429741
22139.710996,-666.185348,-10066.800811,-1378.971896
22139.711329,444.123565,-5477.523971,1608.800546
22139.711662,0.000000,-5995.668130,0.000000
22139.711995,4737.318029,-5995.668130,8503.660028
22139.712328,3478.967927,-5403.503377,3370.820191
22139.712661,4367.215058,-4293.194464,0.000000
22139.712994,5329.482782,-11103.089130,1762.019645
22139.713327,888.247130,-13101.645173,3140.991542
22139.713660,3923.091493,-7550.100608,-1302.362347
22139.713993,-2738.761985,-13915.871710,-4596.572988
22139.714326,-4145.153275,-9844.739029,-6741.640382
22139.714659,-7698.141797,-13915.871710,-4519.963438
22139.714992,-2590.720797,-9400.615463,-2068.457845
22139.715325,-1850.514855,-9178.553681,459.657299
22139.715658,-2442.679609,-9474.636058,7277.907231
22139.715992,2294.638420,-5921.647536,7277.907231
22139.716325,5847.626942,0.000000,3600.648841
22139.716658,5625.565159,-7328.038826,6128.763984
22139.716991,4367.215058,-11251.130318,4213.525239
22139.717324,3478.967927,-9992.780217,-536.266849
22139.717657,-222.061783,-13323.706956,-3753.867940
22139.717990,296.082377,-14508.036463,-3447.429741
22139.718323,962.267725,-12435.459826,-4136.915689
22139.718656,666.185348,-9474.636058,-2987.772442
22139.718989,0.000000,-10140.821405,1225.752797
22139.719322,-3034.844362,-6587.832884,0.000000
22139.719655,-1036.288319,-6957.935855,3600.648841
22139.719988,-74.020594,-9474.636058,3600.648841
22139.720321,3775.050304,-3552.988522,5132.839837
22139.720654,4071.132681,-5329.482782,4519.963438
22139.720987,296.082377,-7402.059420,-919.314598
22139.721320,1036.288319,-9918.759623,459.657299
22139.721653,-888.247130,-8956.491898,459.657299
22139.721986,2294.638420,-11843.295072,-3753.867940
22139.722319,0.000000,-11917.315666,-3677.258390
22139.722652,-4145.153275,-14063.912898,-2528.115143
22139.722985,-74.020594,-8068.244768,-2911.162892
22139.723318,-4145.153275,-9548.656652,0.000000
22139.723652,518.144159,-9844.739029,1072.533697
22139.723985,2072.576638,-6661.853478,5362.668486
22139.724318,3330.926739,-5847.626942,4826.401637
22139.724651,5477.523971,-7031.956449,4749.792088
22139.724984,740.205942,-9548.656652,1991.848295
22139.725317,5625.565159,-9474.636058,2987.772442
22139.725650,1110.308913,-13027.624579,-76.609550
22139.725983,-2368.659014,-10732.986159,-3064.381992
22139.726316,-740.205942,-11251.130318,-2528.115143
22139.726649,-4145.153275,-10732.986159,-3677.258390
22139.726982,-518.144159,-10362.883188,-1762.019645
22139.727315,-3552.988522,-9992.780217,612.876398
22139.727648,-740.205942,-6513.812290,-229.828649
22139.727981,-2368.659014,-6587.832884,2451.505594
22139.728314,-74.020594,-8882.471304,2374.896044
22139.728647,3552.988522,-7179.997637,4903.011187
22139.728980,1184.329507,-8660.409521,6435.202183
22139.729313,7920.203579,-11843.295072,3600.648841
22139.729646,0.000000,-9548.656652,3370.820191
22139.729979,2368.659014,-7179.997637,-1455.581446
22139.730312,-1480.411884,-11473.192101,-3524.039291
22139.730645,-2072.576638,-11029.068536,-2987.772442
22139.730978,-6513.812290,-12509.480420,-3064.381992
22139.731312,-2812.782580,-8364.327145,-2451.505594
22139.731645,-2664.741391,-9770.718434,-1915.238745
22139.731978,222.061783,-7105.977043,2681.334243
22139.732311,3478.967927,-4737.318029,5439.278036
22139.732644,1332.370696,-5403.503377,3677.258390
22139.732977,2960.823768,-9400.615463,5515.887586
22139.733310,2294.638420,-9178.553681,1149.143247
22139.733643,592.164754,-7179.997637,306.438199
22139.733976,-74.020594,-12731.542202,2374.896044
22139.734309,0.000000,-7328.038826,-1378.971896
22139.734642,-1036.288319,-8216.285956,-1838.629195
22139.734975,-1628.453072,-11177.109724,-4826.401637
22139.735308,-3404.947333,-10140.821405,-5822.325785
22139.735641,-6365.771101,-10732.986159,-6128.763984
22139.735974,2886.803174,-12731.542202,3907.087040
22139.736307,1332.370696,-4811.338623,5515.887586
22139.736640,4737.318029,-4811.338623,6281.983084
22139.736973,4515.256246,-7105.977043,5439.278036
22139.737306,2664.741391,-9104.533087,3907.087040
22139.737639,4293.194464,-8808.450710,3447.429741
22139.737972,740.205942,-8586.388927,995.924147
22139.738305,-1628.453072,-10362.883188,-4136.915689
22139.738638,-5477.523971,-11029.068536,-5362.668486
22139.738972,-74.020594,-10658.965565,-7737.564530
22139.739305,-3256.906145,-11325.150913,-3677.258390
22139.739638,-4071.132681,-8364.327145,-1838.629195
22139.739971,296.082377,-7476.080014,-1225.752797
22139.740304,2146.597232,-10362.883188,4826.401637
22139.740637,3849.070898,-7698.141797,6052.154434
22139.740970,5551.544565,-8586.388927,5132.839837
22139.741303,5847.626942,-8882.471304,5439.278036
22139.741636,3552.988522,-6291.750507,5439.278036
22139.741969,518.144159,-6513.812290,-1302.362347
22139.742302,-2368.659014,-11029.068536,-1762.019645
22139.742635,370.102971,-15692.365970,-2834.553343
22139.742968,-370.102971,-14804.118840,-76.609550
22139.743301,2664.741391,-5329.482782,-1302.362347
22139.743634,-6217.729913,-11991.336260,-1455.581446
22139.743967,-2664.741391,-5403.503377,-1838.629195
22139.744300,-5181.441594,-8956.491898,2068.457845
22139.744633,5551.544565,-4737.318029,3600.648841
22139.744966,1184.329507,-9548.656652,5515.887586
22139.745299,0.000000,-7179.997637,4903.011187
22139.745632,2294.638420,-7105.977043,-383.047749
22139.745965,-1258.350101,-10066.800811,-383.047749
22139.746298,-1480.411884,-8808.450710,-4903.011187
22139.746632,-1850.514855,-11251.130318,-3447.429741
22139.746965,-962.267725,-10955.047942,-3370.820191
22139.747298,-2960.823768,-9548.656652,-2451.505594
22139.747631,-74.020594,-9474.636058,1302.362347
22139.747964,1480.411884,-4885.359217,2911.162892
22139.748297,2664.741391,-5995.668130,4290.134789
22139.748630,1628.453072,-8956.491898,5822.325785
22139.748963,-888.247130,-5995.668130,1991.848295
22139.749296,3034.844362,-8882.471304,-76.609550
22139.749629,-74.020594,-11843.295072,-1455.581446
22139.749962,0.000000,-8068.244768,-2528.115143
22139.750295,-296.082377,-14211.954086,-1838.629195
22139.750628,-1850.514855,-10732.986159,-1532.190996
22139.750961,-962.267725,-8734.430116,-1762.019645
22139.751294,222.061783,-7920.203579,612.876398
22139.751627,444.123565,-9770.718434,2681.334243
22139.751960,0.000000,-6587.832884,2451.505594
22139.752293,4663.297435,-7105.977043,3600.648841
22139.752626,0.000000,-7772.162391,0.000000
22139.752959,1184.329507,-12435.459826,2374.896044
22139.753292,518.144159,-9474.636058,-689.485948
22139.753625,1776.494261,-8660.409521,-919.314598
22139.753958,3404.947333,-8808.450710,1302.362347
22139.754292,740.205942,-10807.006753,0.000000
22139.754625,-370.102971,-8364.327145,-2528.115143
22139.754958,1110.308913,-11251.130318,-689.485948
22139.755291,2294.638420,-11251.130318,-2528.115143
22139.755624,-962.267725,-9104.533087,612.876398
22139.755957,0.000000,-8364.327145,3370.820191
22139.756290,-74.020594,-7846.182985,0.000000
22139.756623,5477.523971,-7994.224174,2374.896044
22139.756956,1776.494261,-10436.903782,5132.839837
22139.757289,5551.544565,-5255.462188,2604.724693
22139.757622,0.000000,-13027.624579,2451.505594
22139.757955,-518.144159,-8290.306550,-689.485948
22139.758288,-5625.565159,-9548.656652,-7354.516781
22139.758621,-1776.494261,-11473.192101,-689.485948
22139.758954,-74.020594,-9770.718434,-2068.457845
22139.759287,-1850.514855,-6291.750507,0.000000
22139.759620,-444.123565,-9474.636058,2374.896044
22139.759953,-2590.720797,-7772.162391,-612.876398
22139.760286,2442.679609,-7328.038826,2604.724693
22139.760619,1258.350101,-7254.018232,3600.648841
22139.760952,2294.638420,-7698.141797,-229.828649
22139.761285,-888.247130,-11029.068536,1532.190996
22139.761618,222.061783,-9770.718434,612.876398
22139.761952,4145.153275,-6439.791695,1225.752797
22139.762285,-3552.988522,-12509.480420,0.000000
22139.762618,-1184.329507,-11029.068536,-2221.676944
22139.762951,-4959.379811,-10732.986159,-3064.381992
22139.763284,-2072.576638,-9548.656652,-3677.258390
22139.763617,296.082377,-7772.162391,1149.143247
22139.763950,0.000000,-8956.491898,1838.629195
22139.764283,3849.070898,-5403.503377,2068.457845
22139.764616,74.020594,-8808.450710,2221.676944
22139.764949,3034.844362,-8290.306550,-1608.800546
22139.765282,-74.020594,-14211.954086,4826.401637
22139.765615,2664.741391,-5403.503377,4213.525239
22139.765948,1702.473667,-8364.327145,0.000000
22139.766281,-1480.411884,-10140.821405,766.095498
22139.766614,-2738.761985,-7105.977043,-4979.620737
22139.766947,-2442.679609,-9326.594869,-1302.362347
22139.767280,-2812.782580,-11251.130318,-689.485948
22139.767613,-4589.276840,-9992.780217,-1455.581446
22139.767946,0.000000,-9104.533087,0.000000
22139.768279,1480.411884,-6439.791695,1608.800546
22139.768612,4663.297435,-8438.347739,4519.963438
22139.768945,4737.318029,-4811.338623,2451.505594
22139.769278,5181.441594,-11843.295072,4213.525239
22139.769612,3330.926739,-9696.697840,0.000000
22139.769945,296.082377,-11325.150913,0.000000
22139.770278,2294.638420,-11843.295072,-1302.362347
22139.770611,2220.617826,-10214.842000,-2528.115143
22139.770944,-1924.535449,-13175.665768,383.047749
22139.771277,-518.144159,-6217.729913,-1455.581446
22139.771610,-1850.514855,-11843.295072,-76.609550
22139.771943,592.164754,-6291.750507,1608.800546
22139.772276,-74.020594,-15840.407159,4826.401637
22139.772609,4071.132681,-2442.679609,2451.505594
22139.772942,-2368.659014,-7772.162391,1838.629195
22139.773275,1258.350101,-5995.668130,306.438199
22139.773608,-296.082377,-6809.894666,-1149.143247
22139.773941,-1554.432478,-10658.965565,-689.485948
22139.774274,148.041188,-10140.821405,-2145.067394
22139.774607,-3256.906145,-8956.491898,-5975.544884
22139.774940,-888.247130,-13915.871710,1762.019645
22139.775273,-3330.926739,-6439.791695,-3983.696590
22139.775606,0.000000,-5995.668130,1225.752797
22139.775939,-2368.659014,-10436.903782,3677.258390
22139.776272,7624.121203,-2442.679609,1225.752797
22139.776605,1554.432478,-10362.883188,3600.648841
22139.776938,1184.329507,-8660.409521,1225.752797
22139.777272,2812.782580,-9030.512492,-536.266849
22139.777605,962.267725,-12213.398043,1225.752797
22139.777938,5255.462188,-12435.459826,4826.401637
22139.778271,814.226536,-5181.441594,-995.924147
22139.778604,-2146.597232,-11103.089130,-3294.210641
22139.778937,-4811.338623,-13915.871710,-1302.362347
22139.779270,-1850.514855,-6957.935855,-2451.505594
22139.779603,-4589.276840,-9548.656652,0.000000
22139.779936,-1184.329507,-8882.471304,1762.019645
22139.780269,-370.102971,-5921.647536,766.095498
22139.780602,0.000000,-9548.656652,5439.278036
22139.780935,4367.215058,-4737.318029,2451.505594
22139.781268,1110.308913,-9030.512492,1072.533697
22139.781601,2220.617826,-8068.244768,306.438199
22139.781934,-666.185348,-11547.212695,-1302.362347
22139.782267,2886.803174,-8364.327145,-4290.134789
22139.782600,0.000000,-12879.583391,-76.609550
22139.782933,3478.967927,-12435.459826,-1302.362347
22139.783266,1406.391290,-12435.459826,-1378.971896
22139.783599,-74.020594,-10362.883188,1149.143247
22139.783932,1110.308913,-7698.141797,-536.266849
22139.784265,1332.370696,-9326.594869,5439.278036
22139.784598,2294.638420,-7105.977043,4290.134789
22139.784932,0.000000,-4219.173869,3677.258390
22139.785265,1850.514855,-3775.050304,0.000000
22139.785598,3182.885551,-8882.471304,-76.609550
22139.785931,0.000000,-7179.997637,1225.752797
22139.786264,-6513.812290,-12213.398043,-3064.381992
22139.786597,-3108.864956,-8660.409521,-7354.516781
22139.786930,-5921.647536,-15174.221811,-3447.429741
22139.787263,-74.020594,-9696.697840,-2068.457845
22139.787596,296.082377,-7772.162391,3064.381992
22139.787929,-74.020594,-9474.636058,1149.143247
22139.788262,4737.318029,-5995.668130,7967.393179
22139.788595,4663.297435,-9474.636058,6665.030833
22139.788928,4737.318029,-4811.338623,6128.763984
22139.789261,3478.967927,-8290.306550,4826.401637
22139.789594,2886.803174,-6217.729913,-612.876398
22139.789927,2442.679609,-9474.636058,-3907.087040
22139.790260,-2220.617826,-15470.304188,-1225.752797
22139.790593,2294.638420,-7846.182985,-5132.839837
22139.790927,-5477.523971,-13767.830521,-5975.544884
22139.791260,2220.617826,-11547.212695,-689.485948
22139.791593,-6439.791695,-9548.656652,-3370.820191
22139.791926,1184.329507,-8660.409521,4213.525239
22139.792259,518.144159,-8364.327145,3064.381992
22139.792592,4367.215058,-4811.338623,6128.763984
22139.792925,5773.606348,-4589.276840,7124.688131
22139.793258,0.000000,-7179.997637,4213.525239
22139.793592,0.000000,-9770.718434,-919.314598
22139.793925,-1258.350101,-9252.574275,-536.266849
22139.794258,1110.308913,-11843.295072,-2528.115143
22139.794591,444.123565,-8586.388927,-3217.601092
22139.794924,-74.020594,-13767.830521,-2068.457845
22139.795257,-1554.432478,-8660.409521,-4903.011187
22139.795590,-74.020594,-11251.130318,-3753.867940
22139.795924,-2368.659014,-13471.748144,3983.696590
22139.796257,4663.297435,-7698.141797,3294.210641
22139.796590,148.041188,-7179.997637,5209.449386
22139.796923,2368.659014,-7772.162391,7048.078582
22139.797256,2886.803174,-2812.782580,1991.848295
22139.797589,-222.061783,-7698.141797,3294.210641
22139.797922,-74.020594,-5625.565159,-1685.410096
22139.798256,-4145.153275,-13397.727550,306.438199
22139.798589,-3256.906145,-9548.656652,-4903.011187
22139.798922,-1258.350101,-14211.954086,-2528.115143
22139.799255,-3627.009116,-9474.636058,-5286.058936
22139.799588,0.000000,-9548.656652,0.000000
22139.799921,1110.308913,-8882.471304,4519.963438
22139.800254,592.164754,-7772.162391,2451.505594
22139.800588,2368.659014,-9770.718434,3907.087040
22139.800921,2738.761985,-7402.059420,3983.696590
22139.801254,1332.370696,-9474.636058,2681.334243
22139.801587,5033.400406,-9696.697840,6281.983084
22139.801920,1702.473667,-9474.636058,-76.609550
22139.802253,592.164754,-4811.338623,-3370.820191
22139.802586,-4145.153275,-11029.068536,-1838.629195
22139.802920,-1258.350101,-12435.459826,-2834.553343
22139.803253,0.000000,-11473.192101,-76.609550
22139.803586,-962.267725,-9474.636058,-2374.896044
22139.803919,-3034.844362,-12435.459826,-1915.238745
22139.804252,1924.535449,-6291.750507,229.828649
22139.804585,2294.638420,-9326.594869,3294.210641
22139.804918,3182.885551,-4811.338623,1455.581446
22139.805251,2960.823768,-8364.327145,4979.620737
22139.805585,2886.803174,-7698.141797,3600.648841
22139.805918,-74.020594,-5995.668130,-4290.134789
22139.806251,0.000000,-11399.171507,1149.143247
22139.806584,-1406.391290,-10288.862594,-2834.553343
22139.806917,2368.659014,-7772.162391,-459.657299
22139.807250,666.185348,-10584.944971,689.485948
22139.807583,-74.020594,-8882.471304,-1302.362347
22139.807917,-1776.494261,-8512.368333,-2604.724693
22139.808250,-1480.411884,-13545.768739,995.924147
22139.808583,4589.276840,-7105.977043,5362.668486
22139.808916,296.082377,-7179.997637,2451.505594
22139.809249,1776.494261,-8956.491898,5515.887586
22139.809582,-666.185348,-7105.977043,1149.143247
22139.809915,0.000000,-4811.338623,0.000000
22139.810249,0.000000,-10140.821405,2068.457845
22139.810582,-1776.494261,-10140.821405,-3217.601092
22139.810915,-2960.823768,-10584.944971,-842.705048
22139.811248,-2294.638420,-9622.677246,-1838.629195
22139.811581,-740.205942,-10955.047942,-1608.800546
22139.811914,-74.020594,-11843.295072,1149.143247
22139.812247,0.000000,-9548.656652,1685.410096
22139.812581,2886.803174,-7105.977043,-689.485948
22139.812914,444.123565,-11917.315666,2451.505594
22139.813247,2368.659014,-6735.874072,5745.716235
22139.813580,4071.132681,-7994.224174,3524.039291
22139.813913,2960.823768,-8068.244768,5439.278036
22139.814246,-2368.659014,-8364.327145,0.000000
22139.814579,-3034.844362,-7698.141797,-1378.971896
22139.814913,-2146.597232,-7476.080014,-3677.258390
22139.815246,-2368.659014,-10288.862594,-2604.724693
22139.815579,-3330.926739,-8882.471304,-1915.238745
22139.815912,-5625.565159,-5995.668130,-3983.696590
22139.816245,-74.020594,-12435.459826,1838.629195
22139.816578,1110.308913,-10362.883188,536.266849
22139.816911,4959.379811,-10658.965565,2987.772442
22139.817244,3404.947333,-8660.409521,7201.297681
22139.817578,5995.668130,-6291.750507,2604.724693
22139.817911,2220.617826,-9992.780217,5209.449386
22139.818244,3182.885551,-8290.306550,1149.143247
22139.818577,-3552.988522,-10732.986159,459.657299
22139.818910,-1332.370696,-10510.924376,-842.705048
22139.819243,-3034.844362,-11177.109724,-6894.859482
22139.819576,-5921.647536,-10140.821405,-3064.381992
22139.819910,-3775.050304,-8068.244768,-3064.381992
22139.820243,1258.350101,-8142.265362,-229.828649
22139.820576,3997.112087,-7772.162391,4290.134789
22139.820909,4589.276840,-7772.162391,4213.525239
22139.821242,2886.803174,-5403.503377,0.000000
22139.821575,3552.988522,-10436.903782,3600.648841
22139.821908,4367.215058,-12657.521608,-1149.143247
22139.822242,518.144159,-7772.162391,1838.629195
22139.822575,-2368.659014,-9548.656652,0.000000
22139.822908,-1850.514855,-7476.080014,-1225.752797
22139.823241,-4219.173869,-7550.100608,-3064.381992
22139.823574,-2146.597232,-7994.224174,-2834.553343
22139.823907,-1258.350101,-8734.430116,2221.676944
22139.824240,-74.020594,-6587.832884,0.000000
22139.824574,2442.679609,-7402.059420,5132.839837
22139.824907,-666.185348,-8882.471304,1608.800546
22139.825240,1184.329507,-9104.533087,-536.266849
22139.825573,962.267725,-10658.965565,2374.896044
22139.825906,3478.967927,-11177.109724,-1532.190996
22139.826239,2960.823768,-7476.080014,2451.505594
22139.826572,-2590.720797,-15396.283594,-2528.115143
22139.826906,-3701.029710,-10436.903782,-4596.572988
22139.827239,-4441.235652,-9548.656652,612.876398
22139.827572,-370.102971,-9548.656652,0.000000
22139.827905,2442.679609,-5403.503377,4903.011187
22139.828238,1702.473667,-7105.977043,766.095498
22139.828571,2886.803174,-10658.965565,2987.772442
22139.828904,3478.967927,-2960.823768,-1378.971896
22139.829238,3552.988522,-10584.944971,2374.896044
22139.829571,4071.132681,-13619.789333,6052.154434
22139.829904,2146.597232,-6439.791695,0.000000
22139.830237,-2442.679609,-14063.912898,-1302.362347
22139.830570,-592.164754,-9104.533087,-3677.258390
22139.830903,-4737.318029,-11843.295072,-2221.676944
22139.831236,-592.164754,-7254.018232,919.314598
22139.831569,-1924.535449,-5699.585753,-1225.752797
22139.831903,-1258.350101,-7772.162391,-3064.381992
22139.832236,1184.329507,-11547.212695,3294.210641
22139.832569,4071.132681,-3775.050304,1532.190996
22139.832902,0.000000,-10732.986159,3064.381992
22139.833235,4811.338623,-6217.729913,1762.019645
22139.833568,592.164754,-11325.150913,2298.286494
22139.833901,1110.308913,-8882.471304,-3447.429741
22139.834235,3849.070898,-13249.686362,-1685.410096
22139.834568,-2664.741391,-17764.942608,-153.219100
22139.834901,2960.823768,-3627.009116,306.438199
22139.835234,-4811.338623,-14211.954086,-689.485948
22139.835567,-1332.370696,-5847.626942,0.000000
22139.835900,-5625.565159,-9992.780217,1225.752797
22139.836233,1480.411884,-6735.874072,2451.505594
22139.836567,6439.791695,-3256.906145,5132.839837
22139.836900,-296.082377,-9622.677246,2681.334243
22139.837233,5403.503377,-5699.585753,1378.971896
22139.837566,-4959.379811,-13323.706956,-2221.676944
22139.837899,1184.329507,-11843.295072,-2834.553343
22139.838232,-1258.350101,-10732.986159,-3677.258390
22139.838565,-2146.597232,-11917.315666,-5515.887586
22139.838899,-592.164754,-11843.295072,-1608.800546
22139.839232,-2442.679609,-11103.089130,612.876398
22139.839565,1924.535449,-5477.523971,1532.190996
22139.839898,1406.391290,-6439.791695,5898.935335
22139.840231,3182.885551,-7476.080014,5439.278036
22139.840564,2886.803174,-6809.894666,4519.963438
22139.840897,2664.741391,-7698.141797,3294.210641
22139.841231,222.061783,-8956.491898,0.000000
22139.841564,518.144159,-10732.986159,0.000000
22139.841897,2072.576638,-8512.368333,-2298.286494
22139.842230,-2442.679609,-12435.459826,-1915.238745
22139.842563,-1776.494261,-9844.739029,-4903.011187
22139.842896,-2368.659014,-13027.624579,-1302.362347
22139.843229,-3034.844362,-10584.944971,-3370.820191
22139.843562,0.000000,-5995.668130,1532.190996
22139.843896,-1850.514855,-8290.306550,842.705048
22139.844229,2368.659014,-7402.059420,3600.648841
22139.844562,1332.370696,-8364.327145,4903.011187
22139.844895,3182.885551,-7105.977043,3217.601092
22139.845228,666.185348,-7179.997637,919.314598
22139.845561,2664.741391,-11547.212695,1762.019645
22139.845894,-1258.350101,-11251.130318,-2528.115143
22139.846228,0.000000,-7772.162391,-76.609550
22139.846561,3182.885551,-13619.789333,-3140.991542
22139.846894,222.061783,-13101.645173,-3370.820191
22139.847227,-962.267725,-9474.636058,-229.828649
22139.847560,-2146.597232,-7772.162391,-2451.505594
22139.847893,-2368.659014,-8512.368333,1685.410096
22139.848226,-1776.494261,-8660.409521,1378.971896
22139.848560,2664.741391,-10658.965565,6971.469032
22139.848893,888.247130,-5107.421000,7354.516781
22139.849226,1184.329507,-3627.009116,3600.648841
22139.849559,1110.308913,-10362.883188,2221.676944
22139.849892,2368.659014,-7920.203579,766.095498
22139.850225,0.000000,-10436.903782,-2298.286494
22139.850558,-1258.350101,-13323.706956,-4366.744339
22139.850892,-74.020594,-11843.295072,-5362.668486
22139.851225,-3034.844362,-13027.624579,-2528.115143
22139.851558,1702.473667,-11251.130318,-76.609550
22139.851891,-3552.988522,-5995.668130,2604.724693
22139.852224,1110.308913,-9474.636058,1762.019645
22139.852557,2294.638420,-5921.647536,3830.477490
22139.852890,2664.741391,-7920.203579,7890.783629
22139.853224,5551.544565,-3775.050304,5209.449386
22139.853557,0.000000,-10807.006753,2298.286494
22139.853890,888.247130,-6735.874072,-766.095498
22139.854223,-1258.350101,-11695.253884,-689.485948
22139.854556,-3478.967927,-11843.295072,-5592.497135
22139.854889,-1554.432478,-8068.244768,-6358.592633
22139.855222,-6217.729913,-14804.118840,-4979.620737
22139.855555,0.000000,-7179.997637,-2451.505594
22139.855889,-4737.318029,-8364.327145,2451.505594
22139.856222,4367.215058,-7698.141797,1762.019645
22139.856555,1110.308913,-7402.059420,5056.230287
22139.856888,3552.988522,-5995.668130,6205.373534
22139.857221,4811.338623,-4515.256246,4903.011187
22139.857554,888.247130,-9548.656652,1302.362347
22139.857887,5107.421000,-9400.615463,-842.705048
22139.858221,-1406.391290,-12879.583391,-995.924147
22139.858554,-592.164754,-11473.192101,-3983.696590
22139.858887,-3034.844362,-7179.997637,-7354.516781
22139.859220,-666.185348,-15396.283594,-4366.744339
22139.859553,74.020594,-7179.997637,0.000000
22139.859886,-3552.988522,-8364.327145,1991.848295
22139.860219,888.247130,-10362.883188,1225.752797
22139.860553,2886.803174,-9474.636058,7584.345430
22139.860886,4145.153275,-7550.100608,7431.126331
22139.861219,4737.318029,-7476.080014,8580.269578
22139.861552,518.144159,-4737.318029,-76.609550
22139.861885,0.000000,-6291.750507,0.000000
22139.862218,0.000000,-5995.668130,-4903.011187
22139.862551,-2368.659014,-12213.398043,-1072.533697
22139.862885,-1258.350101,-11251.130318,-3753.867940
22139.863218,-3627.009116,-13619.789333,-4979.620737
22139.863551,-2738.761985,-13027.624579,-4366.744339
22139.863884,-1628.453072,-8956.491898,-1302.362347
22139.864217,370.102971,-8290.306550,3217.601092
22139.864550,3404.947333,-6365.771101,3600.648841
22139.864883,4663.297435,-11843.295072,8503.660028
22139.865217,1480.411884,-5995.668130,5822.325785
22139.865550,8216.285956,-7105.977043,6052.154434
22139.865883,1702.473667,-9548.656652,2451.505594
22139.866216,592.164754,-7179.997637,0.000000
22139.866549,-3923.091493,-10066.800811,-6894.859482
22139.866882,-3330.926739,-9770.718434,-6665.030833
22139.867215,-3552.988522,-10140.821405,-5056.230287
22139.867548,0.000000,-11473.192101,-3600.648841
22139.867882,-1258.350101,-13027.624579,-3140.991542
22139.868215,-4737.318029,-9548.656652,2834.553343
22139.868548,4663.297435,-5921.647536,4826.401637
22139.868881,4663.297435,-8512.368333,7967.393179
22139.869214,2960.823768,-4811.338623,7660.954980
22139.869547,3478.967927,-4737.318029,3830.477490
22139.869880,814.226536,-7402.059420,536.266849
22139.870214,-1036.288319,-10140.821405,-2911.162892
22139.870547,-2294.638420,-12139.377449,-3600.648841
22139.870880,-2738.761985,-10510.924376,-8963.317327
22139.871213,-5403.503377,-12139.377449,-9576.193725
22139.871546,-2146.597232,-12953.603985,-2681.334243
22139.871879,74.020594,-9104.533087,1532.190996
22139.872212,1184.329507,-8068.244768,5822.325785
22139.872546,4663.297435,-5329.482782,2987.772442
22139.872879,3849.070898,-7772.162391,5209.449386
22139.873212,6513.812290,-7624.121203,12793.794817
22139.873545,6291.750507,-5551.544565,2681.334243
22139.873878,592.164754,-8364.327145,2451.505594
22139.874211,-2442.679609,-10732.986159,-3524.039291
22139.874544,-2146.597232,-8512.368333,-5898.935335
22139.874878,-5551.544565,-10510.924376,-5822.325785
22139.875211,-2442.679609,-11843.295072,-6205.373534
22139.875544,-1258.350101,-14211.954086,-1302.362347
22139.875877,-1776.494261,-8068.244768,1532.190996
22139.876210,-4145.153275,-9844.739029,3600.648841
22139.876543,2886.803174,-5625.565159,2757.943793
22139.876876,5921.647536,-7476.080014,7584.345430
22139.877210,3108.864956,-7772.162391,6052.154434
22139.877543,1850.514855,-9918.759623,3907.087040
22139.877876,3552.988522,-8068.244768,689.485948
22139.878209,2442.679609,-6883.915261,0.000000
22139.878542,1702.473667,-11917.315666,-4903.011187
22139.878875,2294.638420,-10658.965565,-2528.115143
22139.879208,-6587.832884,-11843.295072,-7354.516781
22139.879542,74.020594,-8364.327145,-4903.011187
22139.879875,-3256.906145,-12435.459826,-689.485948
22139.880208,148.041188,-7994.224174,2757.943793
22139.880541,2072.576638,-6217.729913,3294.210641
22139.880874,518.144159,-8660.409521,4673.182538
22139.881207,3552.988522,-5699.585753,3830.477490
22139.881540,-1036.288319,-7179.997637,2451.505594
22139.881873,2368.659014,-10732.986159,4213.525239
22139.882207,1702.473667,-9474.636058,-383.047749
22139.882540,-1184.329507,-11621.233289,-1838.629195
22139.882873,0.000000,-8512.368333,-3677.258390
22139.883206,-2738.761985,-8734.430116,-4903.011187
22139.883539,-518.144159,-9104.533087,-1608.800546
22139.883872,-2738.761985,-11103.089130,-766.095498
22139.884205,-74.020594,-9474.636058,-229.828649
22139.884539,592.164754,-10584.944971,5439.278036
22139.884872,1702.473667,-8438.347739,1608.800546
22139.885205,1776.494261,-4811.338623,3677.258390
22139.885538,2294.638420,-11843.295072,4213.525239
22139.885871,3849.070898,-7772.162391,612.876398
22139.886204,2294.638420,-9770.718434,-229.828649
22139.886537,888.247130,-13619.789333,-536.266849
22139.886871,-370.102971,-8660.409521,-766.095498
22139.887204,-3034.844362,-10066.800811,-3753.867940
22139.887537,-592.164754,-7698.141797,-76.609550
22139.887870,-2664.741391,-9104.533087,-766.095498
22139.888203,1776.494261,-8290.306550,2221.676944
22139.888536,-2368.659014,-10288.862594,4060.306139
22139.888869,-370.102971,-9474.636058,1149.143247
22139.889203,-2072.576638,-5995.668130,2451.505594
22139.889536,1184.329507,-7179.997637,2068.457845
22139.889869,3478.967927,-10732.986159,4290.134789
22139.890202,1776.494261,-5995.668130,2451.505594
22139.890535,-74.020594,-12435.459826,-3140.991542
22139.890868,-666.185348,-8512.368333,-4290.134789
22139.891201,-2220.617826,-13471.748144,-3140.991542
22139.891534,1776.494261,-6735.874072,229.828649
22139.891867,-1258.350101,-8734.430116,-1532.190996
22139.892200,0.000000,-10881.027347,3600.648841
22139.892533,2294.638420,-8290.306550,3600.648841
22139.892866,0.000000,-6587.832884,4903.011187
22139.893199,6513.812290,-8290.306550,7277.907231
22139.893532,-2442.679609,-8364.327145,-1225.752797
22139.893865,2294.638420,-9474.636058,2068.457845
22139.894198,-3256.906145,-6291.750507,-1685.410096
22139.894531,-666.185348,-11621.233289,-4903.011187
22139.894864,-2368.659014,-7772.162391,-4903.011187
22139.895197,-814.226536,-15396.283594,-1915.238745
22139.895531,222.061783,-7994.224174,0.000000
22139.895864,-666.185348,-7179.997637,0.000000
22139.896197,1184.329507,-9474.636058,2987.772442
22139.896530,1184.329507,-7772.162391,5515.887586
22139.896863,4589.276840,-6217.729913,3983.696590
22139.897196,1776.494261,-8808.450710,4060.306139
22139.897529,2442.679609,-5625.565159,1072.533697
22139.897862,1406.391290,-13027.624579,2374.896044
22139.898195,-74.020594,-9474.636058,-3753.867940
22139.898528,0.000000,-10140.821405,-76.609550
22139.898861,-2146.597232,-11251.130318,-2528.115143
22139.899194,-1258.350101,-7105.977043,-6052.154434
22139.899527,-3552.988522,-10732.986159,-229.828649
22139.899860,222.061783,-7698.141797,-536.266849
22139.900193,0.000000,-9252.574275,1225.752797
22139.900526,3997.112087,-9030.512492,3600.648841
22139.900859,6439.791695,-10658.965565,6971.469032
22139.901192,2072.576638,-8512.368333,6128.763984
22139.901525,592.164754,-9400.615463,689.485948
22139.901858,3034.844362,-9474.636058,3294.210641
22139.902191,0.000000,-7179.997637,0.000000
22139.902524,296.082377,-5403.503377,306.438199
22139.902857,-1850.514855,-11251.130318,-2528.115143
22139.903190,-3256.906145,-4811.338623,-6128.763984
22139.903523,-5921.647536,-11917.315666,1225.752797
22139.903856,-2220.617826,-3256.906145,-2834.553343
22139.904189,-3552.988522,-12509.480420,-2451.505594
22139.904522,1628.453072,-8586.388927,2068.457845
22139.904855,3034.844362,-9548.656652,5515.887586
22139.905189,296.082377,-9696.697840,3677.258390
22139.905522,4663.297435,-6661.853478,1302.362347
22139.905855,-74.020594,-14211.954086,-689.485948
22139.906188,2368.659014,-7179.997637,2604.724693
22139.906521,2294.638420,-13027.624579,2374.896044
22139.906854,-1184.329507,-8660.409521,-1838.629195
22139.907187,-444.123565,-5329.482782,-842.705048
22139.907520,-1776.494261,-10584.944971,1225.752797
22139.907853,-370.102971,-6661.853478,153.219100
22139.908186,-2442.679609,-9474.636058,-76.609550
22139.908519,-2960.823768,-7179.997637,0.000000
22139.908852,1998.556043,-11843.295072,-76.609550
22139.909185,1776.494261,-7772.162391,5209.449386
22139.909518,2294.638420,-10066.800811,-76.609550
22139.909851,4663.297435,-8142.265362,2068.457845
22139.910184,-222.061783,-13915.871710,842.705048
22139.910517,888.247130,-7772.162391,-2604.724693
22139.910850,-518.144159,-10658.965565,-2298.286494
22139.911183,-1332.370696,-10510.924376,-3140.991542
22139.911516,1702.473667,-9474.636058,2374.896044
22139.911849,-4737.318029,-8364.327145,0.000000
22139.912182,-2368.659014,-7772.162391,995.924147
22139.912515,-666.185348,-11103.089130,1608.800546
22139.912848,3552.988522,-5107.421000,3830.477490
22139.913181,4663.297435,-8290.306550,4443.353888
22139.913514,3923.091493,-7105.977043,3600.648841
22139.913847,2294.638420,-9326.594869,1072.533697
22139.914180,1850.514855,-9696.697840,0.000000
22139.914513,-74.020594,-11843.295072,-4060.306139
22139.914847,-3552.988522,-10732.986159,-2145.067394
22139.915180,-962.267725,-11547.212695,-4979.620737
22139.915513,-1258.350101,-7476.080014,-3677.258390
22139.915846,0.000000,-7179.997637,2145.067394
22139.916179,-1258.350101,-5921.647536,1302.362347
22139.916512,592.164754,-4885.359217,3140.991542
22139.916845,-2812.782580,-10140.821405,-383.047749
22139.917178,2146.597232,-9622.677246,4903.011187
22139.917511,-74.020594,-7105.977043,1302.362347
22139.917844,2738.761985,-11843.295072,2528.115143
22139.918177,-1036.288319,-10066.800811,1149.143247
22139.918510,814.226536,-7031.956449,-2681.334243
22139.918843,-1184.329507,-10436.903782,-1225.752797
22139.919176,-666.185348,-10658.965565,-5592.497135
22139.919509,0.000000,-10955.047942,0.000000
22139.919842,-4145.153275,-11843.295072,-76.609550
22139.920175,1406.391290,-5773.606348,1302.362347
22139.920508,-3849.070898,-7772.162391,3064.381992
22139.920841,3108.864956,-5255.462188,6128.763984
22139.921174,5477.523971,-4885.359217,6128.763984
22139.921507,0.000000,-11177.109724,842.705048
22139.921840,4663.297435,-10510.924376,-229.828649
22139.922173,-2442.679609,-13619.789333,-3140.991542
22139.922506,1184.329507,-8068.244768,-3217.601092
22139.922839,-592.164754,-15988.448347,2987.772442
22139.923172,2294.638420,-7994.224174,-1608.800546
22139.923505,0.000000,-8956.491898,2681.334243
22139.923838,-1258.350101,-7105.977043,0.000000
22139.924171,0.000000,-6439.791695,-919.314598
22139.924505,-518.144159,-10881.027347,4213.525239
22139.924838,2516.700203,-5921.647536,1838.629195
22139.925171,-74.020594,-11547.212695,0.000000
22139.925504,1776.494261,-9548.656652,2987.772442
22139.925837,-74.020594,-8882.471304,-1915.238745
22139.926170,-74.020594,-8956.491898,-2911.162892
22139.926503,1998.556043,-8882.471304,-2528.115143
22139.926836,-3849.070898,-12287.418637,-2145.067394
22139.927169,1184.329507,-6291.750507,-2298.286494
22139.927502,-2220.617826,-11621.233289,-612.876398
22139.927835,1184.329507,-7179.997637,1225.752797
22139.928168,1110.308913,-4811.338623,153.219100
22139.928501,3330.926739,-12731.542202,4826.401637
22139.928834,3330.926739,-7624.121203,383.047749
22139.929167,-1480.411884,-13989.892304,1225.752797
22139.929500,2960.823768,-8956.491898,-1225.752797
22139.929833,3701.029710,-9770.718434,1762.019645
22139.930166,2368.659014,-13545.768739,3524.039291
22139.930499,2368.659014,-6217.729913,4213.525239
22139.930832,-3034.844362,-7994.224174,-1302.362347
22139.931165,-4737.318029,-6587.832884,-919.314598
22139.931498,-2442.679609,-8586.388927,-4060.306139
22139.931831,-1554.432478,-7476.080014,-2451.505594
22139.932164,-2368.659014,-9474.636058,-76.609550
22139.932497,-4441.235652,-10140.821405,-4290.134789
22139.932830,-1998.556043,-10658.965565,995.924147
22139.933163,3552.988522,-6661.853478,1991.848295
22139.933496,1924.535449,-13101.645173,5669.106685
22139.933829,7031.956449,-7105.977043,4826.401637
22139.934163,740.205942,-9030.512492,3217.601092
22139.934496,2886.803174,-5625.565159,3294.210641
22139.934829,2442.679609,-8290.306550,995.924147
22139.935162,-1406.391290,-9474.636058,-1455.581446
22139.935495,1110.308913,-11695.253884,1762.019645
22139.935828,-2960.823768,-7179.997637,-3677.258390
22139.936161,1776.494261,-11843.295072,-1915.238745
22139.936494,-3034.844362,-13471.748144,-2451.505594
22139.936827,1184.329507,-6291.750507,0.000000
22139.937160,1628.453072,-10658.965565,3600.648841
22139.937493,2664.741391,-12065.356855,5056.230287
22139.937826,814.226536,-7254.018232,2068.457845
22139.938159,1998.556043,-8808.450710,2528.115143
22139.938492,444.123565,-3997.112087,-383.047749
22139.938825,0.000000,-7772.162391,536.266849
22139.939158,-74.020594,-9474.636058,-1302.362347
22139.939491,-3552.988522,-7476.080014,-4903.011187
22139.939824,-1776.494261,-13249.686362,-4290.134789
22139.940157,-1850.514855,-11695.253884,-4443.353888
22139.940490,-1924.535449,-11103.089130,-2834.553343
22139.940823,2590.720797,-8734.430116,995.924147
22139.941156,2146.597232,-10658.965565,2911.162892
22139.941489,3552.988522,-7772.162391,4903.011187
22139.941822,6661.853478,-9474.636058,8503.660028
22139.942155,4663.297435,-6439.791695,2604.724693
22139.942488,1554.432478,-7476.080014,0.000000
22139.942821,-370.102971,-13619.789333,-76.609550
22139.943154,-2368.659014,-8068.244768,-4596.572988
22139.943487,-5699.585753,-13619.789333,-2987.772442
22139.943820,-5255.462188,-8512.368333,-4290.134789
22139.944154,-5329.482782,-6809.894666,-4979.620737
22139.944487,-888.247130,-7476.080014,612.876398
22139.944820,-1258.350101,-11843.295072,-76.609550
22139.945153,1480.411884,-3627.009116,5515.887586
22139.945486,-592.164754,-11399.171507,6665.030833
22139.945819,3478.967927,-10658.965565,2374.896044
22139.946152,296.082377,-8364.327145,3677.258390
22139.946485,4663.297435,-6513.812290,842.705048
22139.946818,2664.741391,-10288.862594,766.095498
22139.947151,-1406.391290,-9178.553681,-4060.306139
22139.947484,-148.041188,-10140.821405,-3370.820191
22139.947817,-2738.761985,-11251.130318,-2987.772442
22139.948150,1406.391290,-9622.677246,383.047749
22139.948483,-2812.782580,-9252.574275,1225.752797
22139.948816,3330.926739,-5329.482782,2987.772442
22139.949149,0.000000,-5403.503377,2451.505594
22139.949482,3923.091493,-10658.965565,5439.278036
22139.949815,3775.050304,-5921.647536,2987.772442
22139.950148,1702.473667,-8512.368333,1225.752797
22139.950481,3478.967927,-9474.636058,1149.143247
22139.950814,-4737.318029,-12287.418637,-2757.943793
22139.951147,-4145.153275,-9918.759623,-6511.811733
22139.951480,-4145.153275,-10066.800811,-3447.429741
22139.951813,-3256.906145,-9548.656652,-3370.820191
22139.952146,2886.803174,-7402.059420,0.000000
22139.952479,2294.638420,-9474.636058,1762.019645
22139.952812,2442.679609,-6291.750507,612.876398
22139.953145,0.000000,-9548.656652,5209.449386
22139.953478,2960.823768,-7772.162391,3677.258390
22139.953812,4293.194464,-8068.244768,3677.258390
22139.954145,2812.782580,-10436.903782,1455.581446
22139.954478,3182.885551,-9104.533087,0.000000
22139.954811,2294.638420,-11843.295072,-3140.991542
22139.955144,-962.267725,-11917.315666,-3370.820191
22139.955477,-1850.514855,-8882.471304,-4979.620737
22139.955810,-4145.153275,-7772.162391,-3677.258390
22139.956143,-3775.050304,-12435.459826,2374.896044
22139.956476,-1850.514855,-6513.812290,76.609550
22139.956809,1924.535449,-7105.977043,3600.648841
22139.957142,1258.350101,-9178.553681,5975.544884
22139.957475,3256.906145,-5551.544565,3907.087040
22139.957808,-740.205942,-7846.182985,612.876398
22139.958141,0.000000,-11325.150913,1915.238745
22139.958474,-2886.803174,-10140.821405,-2298.286494
22139.958807,0.000000,-8660.409521,1915.238745
22139.959140,1110.308913,-9474.636058,-689.485948
22139.959473,-2960.823768,-6957.935855,-2145.067394
22139.959806,-74.020594,-7994.224174,-1302.362347
22139.960139,-2072.576638,-9548.656652,-459.657299
22139.960472,2220.617826,-8364.327145,383.047749
22139.960805,962.267725,-11177.109724,4673.182538
22139.961138,3182.885551,-9474.636058,4826.401637
22139.961471,-1776.494261,-7179.997637,3064.381992
22139.961804,2442.679609,-9474.636058,3600.648841
22139.962137,2886.803174,-8882.471304,842.705048
22139.962470,1332.370696,-6217.729913,612.876398
22139.962803,518.144159,-10362.883188,-2528.115143
22139.963136,-3849.070898,-10955.047942,-1762.019645
22139.963470,-4145.153275,-9992.780217,-4136.915689
22139.963803,-2368.659014,-7031.956449,-689.485948
22139.964136,-666.185348,-9474.636058,-76.609550
22139.964469,-296.082377,-9326.594869,1302.362347
22139.964802,2294.638420,-8808.450710,4443.353888
22139.965135,3256.906145,-7772.162391,2987.772442
22139.965468,296.082377,-9548.656652,1225.752797
22139.965801,3775.050304,-11251.130318,2374.896044
22139.966134,814.226536,-5995.668130,-3370.820191
22139.966467,3552.988522,-9252.574275,2681.334243
22139.966800,3478.967927,-10066.800811,-76.609550
22139.967133,518.144159,-4959.379811,-6128.763984
22139.967466,2812.782580,-9474.636058,-2834.553343
22139.967799,-4145.153275,-14211.954086,-689.485948
22139.968132,-74.020594,-12139.377449,-383.047749
22139.968465,-2368.659014,-3404.947333,-76.609550
22139.968798,-74.020594,-18949.272115,3600.648841
22139.969131,2664.741391,1998.556043,3983.696590
22139.969464,2368.659014,-3034.844362,4596.572988
22139.969797,-74.020594,-20429.683999,3294.210641
22139.970130,0.000000,-14285.974681,3677.258390
22139.970463,4663.297435,4293.194464,-2834.553343
22139.970796,3627.009116,-2146.597232,-1991.848295
22139.971129,-2590.720797,-13175.665768,-2221.676944
22139.971462,-5995.668130,-15988.448347,-3140.991542
22139.971795,-3923.091493,-12435.459826,-1302.362347
22139.972128,-2368.659014,-10140.821405,-383.047749
22139.972461,1702.473667,-9474.636058,-76.609550
22139.972794,5847.626942,-4441.235652,-1762.019645
22139.973128,7920.203579,-8290.306550,5439.278036
22139.973461,3182.885551,-8438.347739,5592.497135
22139.973794,2590.720797,-9474.636058,5515.887586
22139.974127,370.102971,-6883.915261,5132.839837
22139.974460,2368.659014,-74.020594,1225.752797
22139.974793,-1406.391290,-8586.388927,-2451.505594
22139.975126,-4737.318029,-8364.327145,-612.876398
22139.975459,-2442.679609,-10066.800811,-1302.362347
22139.975792,-4811.338623,-13027.624579,-1915.238745
22139.976125,-6513.812290,-13101.645173,-2374.896044
22139.976458,-3330.926739,-12435.459826,2221.676944
22139.976791,3330.926739,-10732.986159,1455.581446
22139.977124,3923.091493,-11621.233289,8503.660028
22139.977457,7031.956449,-8882.471304,8503.660028
22139.977790,2368.659014,-6291.750507,2451.505594
22139.978123,5847.626942,-11843.295072,2987.772442
22139.978456,-2442.679609,-7179.997637,-8273.831378
22139.978789,2072.576638,-10658.965565,-2681.334243
22139.979122,-6957.935855,-14137.933492,-9882.631924
22139.979455,-592.164754,-11695.253884,-6665.030833
22139.979788,-5255.462188,-10658.965565,-3447.429741
22139.980121,1998.556043,-6143.709319,-3217.601092
22139.980454,-74.020594,-10066.800811,1762.019645
22139.980787,0.000000,-7179.997637,1455.581446
22139.981120,2442.679609,-8734.430116,3983.696590
22139.981453,3404.947333,-6735.874072,3217.601092
22139.981786,5255.462188,-10881.027347,3447.429741
22139.982119,2368.659014,-9918.759623,5515.887586
22139.982452,3552.988522,-1258.350101,-2451.505594
22139.982786,0.000000,-10584.944971,-76.609550
22139.983119,-1258.350101,-10288.862594,-3753.867940
22139.983452,-3182.885551,-5477.523971,-5362.668486
22139.983785,-3404.947333,-13619.789333,-1302.362347
22139.984118,666.185348,-7476.080014,1302.362347
22139.984451,-2072.576638,-10066.800811,2834.553343
22139.984784,1702.473667,-8216.285956,6205.373534
22139.985117,2886.803174,-9474.636058,3600.648841
22139.985450,1184.329507,-7179.997637,5669.106685
22139.985783,7994.224174,-9474.636058,9116.536426
22139.986116,6439.791695,-5477.523971,3064.381992
22139.986449,592.164754,-7179.997637,3064.381992
22139.986782,1110.308913,-7698.141797,-689.485948
22139.987115,-1850.514855,-9622.677246,-383.047749
22139.987448,-1702.473667,-6291.750507,-5822.325785
22139.987781,-2442.679609,-10658.965565,-3753.867940
22139.988114,-4145.153275,-8512.368333,-5745.716235
22139.988447,-2960.823768,-11325.150913,612.876398
22139.988780,-74.020594,-10955.047942,3600.648841
22139.989113,4071.132681,-10362.883188,229.828649
22139.989446,3849.070898,-13397.727550,8120.612279
22139.989779,3108.864956,-10436.903782,6205.373534
22139.990112,5107.421000,-6217.729913,2528.115143
22139.990445,1998.556043,-11917.315666,5056.230287
22139.990778,1776.494261,-5033.400406,-2068.457845
22139.991112,-4145.153275,-10436.903782,-4290.134789
22139.991445,-3034.844362,-12879.583391,-3753.867940
22139.991778,-3034.844362,-9030.512492,-7354.516781
22139.992111,-8290.306550,-9548.656652,-6741.640382
22139.992444,-2590.720797,-9474.636058,-2528.115143
22139.992777,-5255.462188,-9548.656652,-919.314598
22139.993110,3108.864956,-8364.327145,3753.867940
22139.993443,5255.462188,-8586.388927,6741.640382
22139.993776,5403.503377,-5403.503377,5745.716235
22139.994109,2960.823768,-9992.780217,0.000000
22139.994442,2590.720797,-13027.624579,2068.457845
22139.994775,2960.823768,-6809.894666,842.705048
22139.995108,-518.144159,-9548.656652,-2221.676944
22139.995441,518.144159,-8290.306550,-2528.115143
22139.995775,-7772.162391,-7772.162391,-7354.516781
22139.996108,-2960.823768,-5403.503377,-995.924147
22139.996441,-4219.173869,-11843.295072,-689.485948
22139.996774,2294.638420,-5995.668130,0.000000
22139.997107,1702.473667,-11843.295072,9116.536426
22139.997440,1258.350101,-7179.997637,3524.039291
22139.997773,962.267725,-11399.171507,3830.477490
22139.998106,1258.350101,-10362.883188,2757.943793
22139.998439,5921.647536,-7328.038826,4903.011187
22139.998772,1998.556043,-9252.574275,612.876398
22139.999105,4145.153275,-7550.100608,-76.609550
22139.999438,-5107.421000,-8660.409521,-5975.544884
22139.999771,-1702.473667,-8364.327145,-2451.505594
22140.000104,-1924.535449,-6365.771101,-1838.629195
22140.000438,0.000000,-9918.759623,2681.334243
22140.000771,3849.070898,-4071.132681,1302.362347
22140.001104,0.000000,-13397.727550,919.314598
22140.001437,5551.544565,-10658.965565,2987.772442
22140.001770,3034.844362,-13101.645173,-1225.752797
22140.002103,8216.285956,-16580.613101,4519.963438
22140.002436,2886.803174,-10436.903782,612.876398
22140.002769,-740.205942,-12435.459826,-612.876398
22140.003102,1480.411884,-7920.203579,-1149.143247
22140.003435,-1184.329507,-6587.832884,-2681.334243
22140.003768,3701.029710,-6143.709319,1149.143247
22140.004101,444.123565,-6291.750507,0.000000
22140.004434,370.102971,-9474.636058,-1915.238745
22140.004767,-8882.471304,-13101.645173,-2451.505594
22140.005101,1110.308913,-7920.203579,-2757.943793
22140.005434,-1258.350101,-11325.150913,0.000000
22140.005767,7105.977043,-5107.421000,3907.087040
22140.006100,1110.308913,-13619.789333,4213.525239
22140.006433,4663.297435,-5033.400406,153.219100
22140.006766,1776.494261,-10362.883188,2911.162892
22140.007099,-2516.700203,-8882.471304,842.705048
22140.007432,1110.308913,-6217.729913,-995.924147
22140.007765,-5403.503377,-13027.624579,-383.047749
22140.008098,-2960.823768,-5995.668130,-2451.505594
22140.008431,-5107.421000,-8882.471304,-76.609550
22140.008764,-74.020594,-8290.306550,-1915.238745
22140.009097,-74.020594,-8586.388927,919.314598
22140.009430,518.144159,-12287.418637,3600.648841
22140.009764,1184.329507,-6661.853478,459.657299
22140.010097,-888.247130,-15026.180623,1149.143247
22140.010430,2368.659014,-9326.594869,4979.620737
22140.010763,2294.638420,-7105.977043,2221.676944
22140.011096,2072.576638,-8068.244768,2145.067394
22140.011429,-666.185348,-7328.038826,-612.876398
22140.011762,-2886.803174,-7994.224174,-3753.867940
22140.012095,-3256.906145,-7179.997637,-2451.505594
22140.012428,-1998.556043,-10658.965565,-2221.676944
22140.012761,-1702.473667,-7994.224174,-2834.553343
22140.013094,-3552.988522,-9548.656652,2451.505594
22140.013427,1702.473667,-10066.800811,2987.772442
22140.013760,1702.473667,-4219.173869,0.000000
22140.014093,962.267725,-12361.439231,689.485948
22140.014427,5181.441594,-9178.553681,3600.648841
22140.014760,222.061783,-11177.109724,459.657299
22140.015093,3182.885551,-10658.965565,-76.609550
22140.015426,-74.020594,-9474.636058,-2834.553343
22140.015759,-1184.329507,-10510.924376,-1608.800546
22140.016092,3182.885551,-9474.636058,3600.648841
22140.016425,1110.308913,-5921.647536,-919.314598
22140.016758,3478.967927,-9474.636058,2145.067394
22140.017091,1924.535449,-8216.285956,2451.505594
22140.017424,962.267725,-11843.295072,2911.162892
22140.017757,740.205942,-9474.636058,1685.410096
22140.018090,2368.659014,-9548.656652,612.876398
22140.018423,-74.020594,-8364.327145,0.000000
22140.018756,3256.906145,-11251.130318,2374.896044
22140.019090,1110.308913,-5847.626942,-3370.820191
22140.019423,-2368.659014,-8364.327145,-2451.505594
22140.019756,0.000000,-7105.977043,-2221.676944
22140.020089,-962.267725,-7624.121203,-3447.429741
22140.020422,74.020594,-12657.521608,-229.828649
22140.020755,1702.473667,-9844.739029,2681.334243
22140.021088,4071.132681,-10066.800811,4213.525239
22140.021421,2368.659014,-7772.162391,7354.516781
22140.021754,4663.297435,-7105.977043,-76.609550
22140.022087,1776.494261,-8364.327145,1838.629195
22140.022420,4663.297435,-9474.636058,4213.525239
22140.022753,592.164754,-11103.089130,0.000000
22140.023086,-1258.350101,-8734.430116,-1762.019645
22140.023419,-5699.585753,-12139.377449,-5439.278036
22140.023753,-4737.318029,-10955.047942,-3753.867940
22140.024086,-2442.679609,-6809.894666,-995.924147
22140.024419,1924.535449,-8290.306550,1149.143247
22140.024752,-2368.659014,-6587.832884,2451.505594
22140.025085,0.000000,-4811.338623,2451.505594
22140.025418,2294.638420,-8290.306550,1762.019645
22140.025751,296.082377,-9844.739029,5515.887586
22140.026084,2886.803174,-8290.306550,1685.410096
22140.026417,0.000000,-10140.821405,-1149.143247
22140.026750,-1258.350101,-15100.201217,0.000000
22140.027083,-1258.350101,-7994.224174,-5669.106685
22140.027416,-1776.494261,-10066.800811,-1915.238745
22140.027749,-1924.535449,-11843.295072,-2987.772442
22140.028082,1702.473667,-8808.450710,-612.876398
22140.028416,-2442.679609,-10584.944971,4060.306139
22140.028749,4071.132681,-3552.988522,-76.609550
22140.029082,1480.411884,-8956.491898,7354.516781
22140.029415,3478.967927,-7994.224174,3600.648841
22140.029748,1480.411884,-7179.997637,2757.943793
22140.030081,-4145.153275,-13101.645173,0.000000
22140.030414,-1850.514855,-12731.542202,-4290.134789
22140.030747,-4737.318029,-11991.336260,-2145.067394
22140.031080,-2664.741391,-7476.080014,-4826.401637
22140.031413,-1184.329507,-7846.182985,-3447.429741
22140.031746,-2294.638420,-6291.750507,-2451.505594
22140.032079,3256.906145,-7994.224174,4213.525239
22140.032412,2294.638420,-10510.924376,-76.609550
22140.032745,5847.626942,-9696.697840,0.000000
22140.033079,2220.617826,-16506.592507,10342.289223
22140.033412,7550.100608,-5403.503377,5209.449386
22140.033745,4367.215058,-10658.965565,3140.991542
22140.034078,2738.761985,-9770.718434,995.924147
22140.034411,2294.638420,-7105.977043,-3447.429741
22140.034744,0.000000,-11325.150913,-612.876398
22140.035077,2146.597232,-14211.954086,-76.609550
22140.035410,-4367.215058,-7179.997637,-3677.258390
22140.035743,-2368.659014,-7179.997637,1225.752797
22140.036076,-1554.432478,-9474.636058,-1302.362347
22140.036409,0.000000,-6587.832884,153.219100
22140.036742,-1406.391290,-7476.080014,229.828649
22140.037075,2738.761985,-8808.450710,3294.210641
22140.037408,4071.132681,-8290.306550,3217.601092
22140.037742,4663.297435,-10955.047942,4826.401637
22140.038075,2886.803174,-9474.636058,-689.485948
22140.038408,2368.659014,-9696.697840,2451.505594
22140.038741,4071.132681,-9474.636058,2374.896044
22140.039074,-74.020594,-5477.523971,-2911.162892
22140.039407,-888.247130,-9252.574275,-4060.306139
22140.039740,-3849.070898,-10436.903782,-4213.525239
22140.040073,-3330.926739,-6661.853478,-3447.429741
22140.040406,-1406.391290,-10066.800811,-383.047749
22140.040739,-1258.350101,-13619.789333,2374.896044
22140.041072,814.226536,-10881.027347,3830.477490
22140.041405,888.247130,-8364.327145,5056.230287
22140.041738,5255.462188,-6217.729913,4903.011187
22140.042071,0.000000,-7476.080014,3677.258390
22140.042405,2960.823768,-8068.244768,5439.278036
22140.042738,-370.102971,-6809.894666,-1608.800546
22140.043071,-3552.988522,-9696.697840,-4290.134789
22140.043404,-4811.338623,-11843.295072,-3140.991542
22140.043737,-4737.318029,-8364.327145,-4290.134789
22140.044070,-4441.235652,-8068.244768,-2604.724693
22140.044403,-2590.720797,-8660.409521,0.000000
22140.044736,-2368.659014,-7254.018232,-919.314598
22140.045069,444.123565,-10658.965565,2987.772442
22140.045402,3849.070898,-10732.986159,5822.325785
22140.045735,2886.803174,-9548.656652,6128.763984
22140.046068,4737.318029,-7179.997637,5745.716235
22140.046401,2294.638420,-13027.624579,1149.143247
22140.046734,-370.102971,-6809.894666,153.219100
22140.047068,-2442.679609,-7846.182985,-4213.525239
22140.047401,-2442.679609,-8216.285956,-2528.115143
22140.047734,-3256.906145,-7624.121203,-4979.620737
22140.048067,-3478.967927,-9918.759623,-4060.306139
22140.048400,-370.102971,-9474.636058,-76.609550
22140.048733,-2072.576638,-11695.253884,-76.609550
22140.049066,3478.967927,-9474.636058,-689.485948
22140.049399,2516.700203,-9844.739029,4136.915689
22140.049732,5921.647536,-8068.244768,6128.763984
22140.050065,3627.009116,-8660.409521,2451.505594
22140.050398,5773.606348,-10510.924376,3907.087040
22140.050731,2220.617826,-10658.965565,-76.609550
22140.051064,3256.906145,-8068.244768,0.000000
22140.051397,-2368.659014,-10732.986159,-4290.134789
22140.051731,1110.308913,-10658.965565,-3753.867940
22140.052064,-2294.638420,-9474.636058,-2528.115143
22140.052397,-3552.988522,-7179.997637,-3064.381992
22140.052730,-74.020594,-10658.965565,2374.896044
22140.053063,0.000000,-5995.668130,2604.724693
22140.053396,2812.782580,-6513.812290,3524.039291
22140.053729,1258.350101,-10362.883188,1532.190996
22140.054062,4737.318029,-11177.109724,2451.505594
22140.054395,2368.659014,-11917.315666,3064.381992
22140.054728,7031.956449,-11843.295072,3294.210641
22140.055061,148.041188,-8956.491898,612.876398
22140.055394,-2368.659014,-7772.162391,-306.438199
22140.055727,-74.020594,-10658.965565,-689.485948
22140.056060,0.000000,-5403.503377,-1225.752797
22140.056394,-1702.473667,-8882.471304,-2145.067394
22140.056727,-2442.679609,-10510.924376,536.266849
22140.057060,-2812.782580,-10288.862594,306.438199
22140.057393,-2368.659014,-9548.656652,3294.210641
22140.057726,2072.576638,-9104.533087,3677.258390
22140.058059,3404.947333,-7920.203579,4903.011187
22140.058392,2812.782580,-7105.977043,3140.991542
22140.058725,1110.308913,-9770.718434,76.609550
22140.059058,-2072.576638,-8956.491898,1225.752797
22140.059391,-74.020594,-8290.306550,-2834.553343
22140.059724,-2516.700203,-9548.656652,-4903.011187
22140.060057,-3552.988522,-10955.047942,-1302.362347
22140.060390,-1850.514855,-8882.471304,-1302.362347
22140.060723,-2664.741391,-6587.832884,-1225.752797
22140.061057,296.082377,-9326.594869,1455.581446
22140.061390,296.082377,-9252.574275,2757.943793
22140.061723,2368.659014,-7179.997637,3677.258390
22140.062056,-2368.659014,-11325.150913,3677.258390
22140.062389,4071.132681,-9474.636058,995.924147
22140.062722,0.000000,-6587.832884,0.000000
22140.063055,1776.494261,-9474.636058,2374.896044
22140.063388,1258.350101,-6661.853478,-1455.581446
22140.063721,-4811.338623,-10436.903782,-3907.087040
22140.064054,-3182.885551,-8512.368333,-4136.915689
22140.064387,-3849.070898,-8068.244768,-2911.162892
22140.064720,-222.061783,-11399.171507,-1455.581446
22140.065053,0.000000,-9992.780217,4826.401637
22140.065386,2294.638420,-7105.977043,-995.924147
22140.065720,592.164754,-9104.533087,3677.258390
22140.066053,3701.029710,-11029.068536,5439.278036
22140.066386,6365.771101,-9030.512492,3983.696590
22140.066719,5551.544565,-8808.450710,3907.087040
22140.067052,2812.782580,-10955.047942,612.876398
22140.067385,222.061783,-8882.471304,-1915.238745
22140.067718,-2738.761985,-7698.141797,-6052.154434
22140.068051,-296.082377,-13027.624579,-1302.362347
22140.068384,0.000000,-4811.338623,-1838.629195
22140.068717,-2368.659014,-7772.162391,-306.438199
22140.069050,1998.556043,-9474.636058,1762.019645
22140.069383,1110.308913,-8882.471304,1149.143247
22140.069716,3404.947333,-7476.080014,2451.505594
22140.070049,1036.288319,-12731.542202,4596.572988
22140.070383,3182.885551,-10732.986159,3064.381992
22140.070716,592.164754,-8364.327145,3064.381992
22140.071049,3478.967927,-8290.306550,-229.828649
22140.071382,592.164754,-8660.409521,612.876398
22140.071715,-74.020594,-7994.224174,-1302.362347
22140.072048,-3627.009116,-7476.080014,-5822.325785
22140.072381,-1110.308913,-7624.121203,-2528.115143
22140.072714,-1554.432478,-10288.862594,-612.876398
22140.073047,222.061783,-10066.800811,766.095498
22140.073380,4071.132681,-8216.285956,2681.334243
22140.073713,2368.659014,-9548.656652,3983.696590
22140.074046,1998.556043,-10066.800811,3753.867940
22140.074379,444.123565,-9770.718434,1455.581446
22140.074712,814.226536,-13027.624579,2681.334243
22140.075046,-1776.494261,-8586.388927,-612.876398
22140.075379,-4737.318029,-7772.162391,0.000000
22140.075712,-4959.379811,-8882.471304,-2528.115143
22140.076045,-6883.915261,-4811.338623,-4290.134789
22140.076378,-7179.997637,-10658.965565,-2528.115143
22140.076711,-4811.338623,-9178.553681,-689.485948
22140.077044,-9474.636058,-8660.409521,-1225.752797
22140.077377,-5551.544565,-8956.491898,2451.505594
22140.077710,-4367.215058,-9770.718434,4596.572988
22140.078043,-2442.679609,-7105.977043,2451.505594
22140.078376,-4737.318029,-11917.315666,3830.477490
22140.078709,-3627.009116,-9474.636058,-689.485948
22140.079042,-7698.141797,-9548.656652,0.000000
22140.079375,-8586.388927,-11843.295072,-1915.238745
22140.079709,-8142.265362,-10881.027347,-2757.943793
22140.080042,-10658.965565,-8068.244768,-689.485948
22140.080375,-8068.244768,-5847.626942,-1225.752797
22140.080708,-9474.636058,-6291.750507,1072.533697
22140.081041,-6439.791695,-4811.338623,-689.485948
22140.081374,-4811.338623,-11843.295072,-76.609550
22140.081707,-3627.009116,-9696.697840,2451.505594
22140.082040,-2072.576638,-8956.491898,4213.525239
22140.082373,-2442.679609,-9474.636058,2374.896044
22140.082706,-3849.070898,-9548.656652,2451.505594
22140.083039,-3034.844362,-9474.636058,-1302.362347
22140.083372,-6661.853478,-10732.986159,-2374.896044
22140.083705,-7994.224174,-11547.212695,-3753.867940
22140.084038,-11991.336260,-9918.759623,-3677.258390
22140.084372,-9178.553681,-7179.997637,-2451.505594
22140.084705,-8734.430116,-5995.668130,0.000000
22140.085038,-6365.771101,-9474.636058,1149.143247
22140.085371,-4589.276840,-5699.585753,2757.943793
22140.085704,-4737.318029,-9548.656652,7967.393179
22140.086037,-2442.679609,-9474.636058,2374.896044
22140.086370,-4737.318029,-10362.883188,3677.258390
22140.086703,-5773.606348,-10140.821405,-76.609550
22140.087036,-3330.926739,-8734.430116,-383.047749
22140.087369,-8142.265362,-9548.656652,-1762.019645
22140.087702,-6883.915261,-9178.553681,-3294.210641
22140.088035,-10658.965565,-10140.821405,-3370.820191
22140.088368,-10140.821405,-8586.388927,-3140.991542
22140.088701,-9548.656652,-9474.636058,-689.485948
22140.089035,-9548.656652,-9474.636058,-1302.362347
22140.089368,-5995.668130,-8364.327145,612.876398
22140.089701,-6661.853478,-12731.542202,9116.536426
22140.090034,-1850.514855,-8290.306550,4213.525239
22140.090367,-5699.585753,-11251.130318,6052.154434
22140.090700,-4737.318029,-7031.956449,2757.943793
22140.091033,-6069.688724,-6957.935855,2221.676944
22140.091366,-9104.533087,-8364.327145,-1991.848295
22140.091699,-11917.315666,-10436.903782,-5745.716235
22140.092032,-14211.954086,-11917.315666,-3140.991542
22140.092365,-14211.954086,-5995.668130,-3677.258390
