#time,accel_x,accel_y,accel_z
20868.846153,7031.956449,-9178.553681,4826.401637
20868.846486,8142.265362,-7772.162391,5056.230287
20868.846819,7698.141797,-7624.121203,3600.648841
20868.847153,7105.977043,-8882.471304,842.705048
20868.847486,3701.029710,-8956.491898,-2145.067394
20868.847819,4367.215058,-8364.327145,-7354.516781
20868.848153,5477.523971,-11843.295072,-2528.115143
20868.848486,4663.297435,-10807.006753,-4060.306139
20868.848819,4663.297435,-8364.327145,-3677.258390
20868.849153,7105.977043,-8660.409521,536.266849
20868.849486,11769.274478,-9178.553681,5056.230287
20868.849819,12361.439231,-7550.100608,5132.839837
20868.850153,12435.459826,-8142.265362,4826.401637
20868.850486,14137.933492,-8586.388927,4826.401637
20868.850819,10066.800811,-7179.997637,2757.943793
20868.851153,13545.768739,-11547.212695,1762.019645
20868.851486,5847.626942,-9844.739029,-4903.011187
20868.851819,1184.329507,-13101.645173,-7048.078582
20868.852153,296.082377,-13471.748144,-5822.325785
20868.852486,-814.226536,-11769.274478,-4903.011187
20868.852819,1258.350101,-9770.718434,-842.705048
20868.853153,4737.318029,-6587.832884,4290.134789
20868.853486,8808.450710,-4589.276840,8810.098227
20868.853819,12731.542202,-5921.647536,12180.918418
20868.854153,12953.603985,-4293.194464,7431.126331
20868.854486,10288.862594,-3627.009116,3677.258390
20868.854819,10955.047942,-7920.203579,1149.143247
20868.855153,10288.862594,-9178.553681,-3677.258390
20868.855486,5477.523971,-11843.295072,-8350.440928
20868.855820,4663.297435,-13323.706956,-9576.193725
20868.856153,4219.173869,-13471.748144,-7660.954980
20868.856486,6143.709319,-14211.954086,-5592.497135
20868.856820,6291.750507,-12805.562797,-1302.362347
20868.857153,7550.100608,-10732.986159,2604.724693
20868.857486,12657.521608,-7105.977043,8273.831378
20868.857820,16210.510130,-4441.235652,11874.480219
20868.858153,17098.757260,-3552.988522,11568.042020
20868.858486,14211.954086,-5403.503377,9806.022374
20868.858820,12287.418637,-8586.388927,4826.401637
20868.859153,7031.956449,-7846.182985,-3064.381992
20868.859486,0.000000,-10140.821405,-7967.393179
20868.859820,-74.020594,-11843.295072,-10801.946522
20868.860153,-1776.494261,-12287.418637,-9193.145976
20868.860486,1036.288319,-11177.109724,-4673.182538
20868.860820,4145.153275,-9622.677246,-919.314598
20868.861153,6439.791695,-7846.182985,2451.505594
20868.861486,10658.965565,-9474.636058,8197.221829
20868.861820,12953.603985,-8586.388927,9729.412825
20868.862153,10584.944971,-5551.544565,3677.258390
20868.862486,9622.677246,-8068.244768,5286.058936
20868.862820,7254.018232,-7476.080014,306.438199
20868.863153,4071.132681,-11843.295072,-1455.581446
20868.863486,-148.041188,-12435.459826,-3753.867940
20868.863820,-1406.391290,-12065.356855,-3600.648841
20868.864153,0.000000,-10732.986159,-1225.752797
20868.864486,6069.688724,-8290.306550,-76.609550
20868.864820,7920.203579,-6513.812290,2068.457845
20868.865153,8142.265362,-3627.009116,2451.505594
20868.865486,7920.203579,-9474.636058,3600.648841
20868.865820,7994.224174,-8956.491898,1762.019645
20868.866153,5107.421000,-10140.821405,-2987.772442
20868.866486,1702.473667,-13471.748144,-3140.991542
20868.866820,0.000000,-10288.862594,-3677.258390
20868.867153,518.144159,-9696.697840,-1915.238745
20868.867486,5847.626942,-9474.636058,-76.609550
20868.867820,6513.812290,-4811.338623,4903.011187
20868.868153,10066.800811,-7179.997637,6741.640382
20868.868486,10288.862594,-7698.141797,3600.648841
20868.868820,6217.729913,-10732.986159,1532.190996
20868.869153,5995.668130,-11029.068536,-612.876398
20868.869487,4663.297435,-10732.986159,-995.924147
20868.869820,2368.659014,-11029.068536,-3064.381992
20868.870153,2886.803174,-11547.212695,-766.095498
20868.870487,3034.844362,-10955.047942,919.314598
20868.870820,3552.988522,-7402.059420,2834.553343
20868.871153,2442.679609,-7402.059420,2834.553343
20868.871487,0.000000,-5403.503377,0.000000
20868.871820,-74.020594,-7476.080014,0.000000
20868.872153,-592.164754,-9326.594869,2374.896044
20868.872487,1110.308913,-7105.977043,-76.609550
20868.872820,592.164754,-8364.327145,2451.505594
20868.873153,5181.441594,-8290.306550,2374.896044
20868.873487,3108.864956,-9548.656652,1685.410096
20868.873820,2368.659014,-10140.821405,-306.438199
20868.874153,2220.617826,-10807.006753,-2528.115143
20868.874487,1184.329507,-10732.986159,-2451.505594
20868.874820,962.267725,-9400.615463,-3677.258390
20868.875153,1702.473667,-11843.295072,-76.609550
20868.875487,1110.308913,-10362.883188,0.000000
20868.875820,0.000000,-9548.656652,4903.011187
20868.876153,1480.411884,-8660.409521,2757.943793
20868.876487,-814.226536,-8808.450710,2068.457845
20868.876820,-3552.988522,-7994.224174,-842.705048
20868.877153,-2072.576638,-7105.977043,-1532.190996
20868.877487,2294.638420,-8290.306550,2987.772442
20868.877820,2072.576638,-5403.503377,3064.381992
20868.878153,4367.215058,-8290.306550,-76.609550
20868.878487,296.082377,-9548.656652,306.438199
20868.878820,1850.514855,-12879.583391,-76.609550
20868.879153,-74.020594,-12435.459826,-2528.115143
20868.879487,-3404.947333,-11547.212695,-3753.867940
20868.879820,-5107.421000,-11547.212695,-3370.820191
20868.880153,-3997.112087,-8808.450710,-919.314598
20868.880487,-222.061783,-9252.574275,2374.896044
20868.880820,0.000000,-7772.162391,5975.544884
20868.881153,2590.720797,-5995.668130,3677.258390
20868.881487,518.144159,-4219.173869,4903.011187
20868.881820,888.247130,-7698.141797,3600.648841
20868.882153,-814.226536,-6809.894666,-536.266849
20868.882487,2146.597232,-7698.141797,-76.609550
20868.882820,2738.761985,-9474.636058,919.314598
20868.883154,1850.514855,-9696.697840,-1149.143247
20868.883487,-1998.556043,-11843.295072,-3370.820191
20868.883820,-3034.844362,-14211.954086,-3753.867940
20868.884154,-4885.359217,-9844.739029,-5515.887586
20868.884487,-2960.823768,-10584.944971,-1838.629195
20868.884820,2294.638420,-8290.306550,-3140.991542
20868.885154,0.000000,-6439.791695,1378.971896
20868.885487,5255.462188,-8290.306550,4519.963438
20868.885820,6809.894666,-9252.574275,8350.440928
20868.886154,6883.915261,-7920.203579,8886.707777
20868.886487,4219.173869,-8068.244768,4826.401637
20868.886820,3182.885551,-8586.388927,536.266849
20868.887154,-1776.494261,-8216.285956,-3217.601092
20868.887487,-1110.308913,-8364.327145,-4290.134789
20868.887820,-444.123565,-9992.780217,-3830.477490
20868.888154,-3552.988522,-10732.986159,-4290.134789
20868.888487,-3849.070898,-14582.057057,-3140.991542
20868.888820,-2442.679609,-13619.789333,-2528.115143
20868.889154,-2442.679609,-8956.491898,-3064.381992
20868.889487,1480.411884,-7920.203579,4213.525239
20868.889820,5847.626942,-4441.235652,4903.011187
20868.890154,4589.276840,-6735.874072,6358.592633
20868.890487,6069.688724,-6365.771101,6741.640382
20868.890820,5033.400406,-9474.636058,5056.230287
20868.891154,2960.823768,-9548.656652,4596.572988
20868.891487,-2368.659014,-13323.706956,-1915.238745
20868.891820,-6809.894666,-8660.409521,-7354.516781
20868.892154,-6513.812290,-8660.409521,-4903.011187
20868.892487,-1924.535449,-10214.842000,-3140.991542
20868.892820,-1628.453072,-9548.656652,0.000000
20868.893154,-2442.679609,-11621.233289,612.876398
20868.893487,222.061783,-10881.027347,2451.505594
20868.893820,-370.102971,-9252.574275,3600.648841
20868.894154,1702.473667,-6513.812290,3294.210641
20868.894487,4663.297435,-8882.471304,4826.401637
20868.894820,1184.329507,-3923.091493,3064.381992
20868.895154,4515.256246,-7698.141797,4826.401637
20868.895487,1702.473667,-9474.636058,-689.485948
20868.895820,-148.041188,-11917.315666,-919.314598
20868.896154,-3923.091493,-11325.150913,-5669.106685
20868.896487,-3775.050304,-10807.006753,-6435.202183
20868.896820,-1258.350101,-9178.553681,-3600.648841
20868.897154,1184.329507,-7772.162391,1225.752797
20868.897487,5847.626942,-9326.594869,2451.505594
20868.897821,5255.462188,-12731.542202,6665.030833
20868.898154,4663.297435,-11843.295072,3600.648841
20868.898487,148.041188,-11029.068536,4903.011187
20868.898821,2146.597232,-9474.636058,4596.572988
20868.899154,148.041188,-3552.988522,842.705048
20868.899487,-296.082377,-3627.009116,-1302.362347
20868.899821,222.061783,-5921.647536,-536.266849
20868.900154,-3627.009116,-6291.750507,-4136.915689
20868.900487,-74.020594,-13027.624579,-2528.115143
20868.900821,-3923.091493,-13027.624579,-4903.011187
20868.901154,-6513.812290,-10732.986159,-4903.011187
20868.901487,-1628.453072,-10584.944971,-76.609550
20868.901821,4663.297435,-8290.306550,3370.820191
20868.902154,7624.121203,-7698.141797,5439.278036
20868.902487,6069.688724,-9474.636058,7584.345430
20868.902821,3552.988522,-10584.944971,5362.668486
20868.903154,-1258.350101,-9548.656652,1225.752797
20868.903487,-1924.535449,-10658.965565,-1915.238745
20868.903821,-2812.782580,-7105.977043,-3524.039291
20868.904154,-3552.988522,-6735.874072,-3217.601092
20868.904487,-1776.494261,-5847.626942,-3524.039291
20868.904821,-2442.679609,-9474.636058,-3753.867940
20868.905154,-296.082377,-11991.336260,0.000000
20868.905487,1702.473667,-15396.283594,2374.896044
20868.905821,0.000000,-8956.491898,1225.752797
20868.906154,-1184.329507,-9548.656652,0.000000
20868.906487,2590.720797,-5921.647536,995.924147
20868.906821,4663.297435,-7402.059420,4060.306139
20868.907154,3182.885551,-6143.709319,1532.190996
20868.907487,370.102971,-12213.398043,1455.581446
20868.907821,-2812.782580,-9548.656652,-3064.381992
20868.908154,-2220.617826,-13915.871710,-76.609550
20868.908487,-666.185348,-8290.306550,-3140.991542
20868.908821,-1998.556043,-5699.585753,-2451.505594
20868.909154,1110.308913,-8882.471304,-76.609550
20868.909487,2368.659014,-6587.832884,2451.505594
20868.909821,2886.803174,-10066.800811,3600.648841
20868.910154,4515.256246,-11399.171507,5439.278036
20868.910487,1258.350101,-12583.501014,3217.601092
20868.910821,0.000000,-9548.656652,1225.752797
20868.911154,1332.370696,-9474.636058,-76.609550
20868.911488,0.000000,-5403.503377,0.000000
20868.911821,0.000000,-6587.832884,306.438199
20868.912154,-444.123565,-10658.965565,-76.609550
20868.912488,-2368.659014,-11621.233289,-995.924147
20868.912821,-3701.029710,-12287.418637,-1455.581446
20868.913154,-2220.617826,-9622.677246,-1762.019645
20868.913488,518.144159,-7105.977043,919.314598
20868.913821,4071.132681,-5625.565159,2374.896044
20868.914154,4071.132681,-8290.306550,2374.896044
20868.914488,2220.617826,-8364.327145,2451.505594
20868.914821,4663.297435,-10955.047942,4826.401637
20868.915154,2294.638420,-9918.759623,383.047749
20868.915488,0.000000,-11029.068536,689.485948
20868.915821,-5107.421000,-9844.739029,-4903.011187
20868.916154,-4071.132681,-7105.977043,-5209.449386
20868.916488,-1332.370696,-8068.244768,-2374.896044
20868.916821,-370.102971,-10214.842000,1149.143247
20868.917154,-2886.803174,-9622.677246,-1072.533697
20868.917488,-2960.823768,-11991.336260,1762.019645
20868.917821,-814.226536,-8808.450710,2451.505594
20868.918154,0.000000,-5403.503377,3064.381992
20868.918488,1776.494261,-4219.173869,4290.134789
20868.918821,4071.132681,-7105.977043,1455.581446
20868.919154,740.205942,-7920.203579,612.876398
20868.919488,1110.308913,-12435.459826,-76.609550
20868.919821,-2590.720797,-11621.233289,-3064.381992
20868.920154,-3034.844362,-12435.459826,-3524.039291
20868.920488,-4515.256246,-11325.150913,-3447.429741
20868.920821,-3108.864956,-7179.997637,-2374.896044
20868.921154,-74.020594,-8290.306550,1991.848295
20868.921488,3478.967927,-4811.338623,4519.963438
20868.921821,5847.626942,-7402.059420,3524.039291
20868.922154,1776.494261,-9548.656652,6205.373534
20868.922488,1184.329507,-10881.027347,5439.278036
20868.922821,0.000000,-8216.285956,612.876398
20868.923154,0.000000,-7402.059420,-995.924147
20868.923488,370.102971,-7031.956449,-2451.505594
20868.923821,-1850.514855,-9400.615463,-3140.991542
20868.924154,-2442.679609,-11251.130318,-4366.744339
20868.924488,-3552.988522,-11917.315666,-306.438199
20868.924821,-1258.350101,-13027.624579,-995.924147
20868.925155,-1184.329507,-8956.491898,0.000000
20868.925488,1998.556043,-9178.553681,2757.943793
20868.925821,7031.956449,-5921.647536,4213.525239
20868.926155,6439.791695,-7105.977043,5439.278036
20868.926488,6365.771101,-7179.997637,5209.449386
20868.926821,4663.297435,-10362.883188,2987.772442
20868.927155,1554.432478,-11473.192101,1149.143247
20868.927488,-74.020594,-12879.583391,-2528.115143
20868.927821,-5921.647536,-9548.656652,-4596.572988
20868.928155,-4737.318029,-7476.080014,-3524.039291
20868.928488,-666.185348,-8290.306550,-4979.620737
20868.928821,-2368.659014,-9548.656652,0.000000
20868.929155,-666.185348,-10658.965565,-383.047749
20868.929488,370.102971,-12435.459826,3830.477490
20868.929821,1110.308913,-8142.265362,3983.696590
20868.930154,0.000000,-7476.080014,3524.039291
20868.930488,1702.473667,-5329.482782,1762.019645
20868.930821,3552.988522,-4811.338623,6128.763984
20868.931154,5255.462188,-7105.977043,4213.525239
20868.931488,2886.803174,-9178.553681,0.000000
20868.931821,-4737.318029,-11325.150913,-3677.258390
20868.932154,-4811.338623,-13323.706956,-5975.544884
20868.932487,-4737.318029,-10658.965565,-4979.620737
20868.932821,-5033.400406,-9992.780217,-3677.258390
20868.933154,-3256.906145,-6883.915261,-1608.800546
20868.933487,0.000000,-8512.368333,4060.306139
20868.933820,2368.659014,-7624.121203,5132.839837
20868.934154,3849.070898,-8882.471304,7124.688131
20868.934487,3182.885551,-10066.800811,6665.030833
20868.934820,0.000000,-5403.503377,1915.238745
20868.935154,-2960.823768,-5995.668130,-612.876398
20868.935487,1110.308913,-5921.647536,-4213.525239
20868.935820,0.000000,-6587.832884,-2451.505594
20868.936153,666.185348,-10955.047942,-2834.553343
20868.936487,-1998.556043,-13027.624579,-2834.553343
20868.936820,-3923.091493,-14211.954086,-3064.381992
20868.937153,-3627.009116,-10807.006753,-4290.134789
20868.937486,-666.185348,-10066.800811,536.266849
20868.937820,2368.659014,-7105.977043,3064.381992
20868.938153,2960.823768,-5403.503377,7048.078582
20868.938486,4663.297435,-7105.977043,3983.696590
20868.938820,4737.318029,-8364.327145,6128.763984
20868.939153,4293.194464,-10658.965565,6665.030833
20868.939486,1480.411884,-8068.244768,0.000000
20868.939819,-3256.906145,-9474.636058,-4979.620737
20868.940153,-4219.173869,-8734.430116,-6588.421283
20868.940486,-2294.638420,-7698.141797,-4979.620737
20868.940819,-74.020594,-11843.295072,-2528.115143
20868.941152,0.000000,-11991.336260,1149.143247
20868.941486,-1850.514855,-11917.315666,0.000000
20868.941819,-2220.617826,-12509.480420,2681.334243
20868.942152,-74.020594,-9474.636058,2987.772442
20868.942486,4071.132681,-5847.626942,4596.572988
20868.942819,6365.771101,-2442.679609,6588.421283
20868.943152,5255.462188,-5477.523971,5362.668486
20868.943485,3775.050304,-7254.018232,3140.991542
20868.943819,-2812.782580,-9548.656652,-1991.848295
20868.944152,-74.020594,-13027.624579,-3753.867940
20868.944485,-4737.318029,-10140.821405,-6741.640382
20868.944818,-3552.988522,-11843.295072,-5592.497135
20868.945152,-1998.556043,-8364.327145,-4903.011187
20868.945485,1776.494261,-7179.997637,229.828649
20868.945818,6661.853478,-9474.636058,5822.325785
20868.946151,4367.215058,-10288.862594,5975.544884
20868.946485,1998.556043,-12731.542202,3907.087040
20868.946818,-592.164754,-10288.862594,1225.752797
20868.947151,-74.020594,-6809.894666,-2145.067394
20868.947485,592.164754,-5329.482782,1762.019645
20868.947818,2294.638420,-8290.306550,1762.019645
20868.948151,1998.556043,-4959.379811,306.438199
20868.948484,0.000000,-8956.491898,153.219100
20868.948818,-444.123565,-10288.862594,-612.876398
20868.949151,-3182.885551,-12731.542202,-2528.115143
20868.949484,-3997.112087,-11843.295072,-3370.820191
20868.949817,-444.123565,-8290.306550,459.657299
20868.950151,2442.679609,-5403.503377,0.000000
20868.950484,5625.565159,-8882.471304,5439.278036
20868.950817,3478.967927,-9696.697840,4903.011187
20868.951151,444.123565,-11695.253884,2451.505594
20868.951484,-2368.659014,-10732.986159,0.000000
20868.951817,-4219.173869,-9474.636058,-3753.867940
20868.952150,-4219.173869,-3627.009116,-4903.011187
20868.952484,-2368.659014,-6513.812290,-689.485948
20868.952817,-2442.679609,-8290.306550,-1915.238745
20868.953150,-2368.659014,-7179.997637,1838.629195
20868.953483,-1258.350101,-12139.377449,2681.334243
20868.953817,1480.411884,-9844.739029,3983.696590
20868.954150,-370.102971,-8660.409521,1685.410096
20868.954483,-666.185348,-10066.800811,1762.019645
20868.954817,2294.638420,-5921.647536,-1378.971896
20868.955150,1776.494261,-9030.512492,3677.258390
20868.955483,5847.626942,-10658.965565,1149.143247
20868.955816,-962.267725,-10955.047942,0.000000
20868.956150,-2368.659014,-13915.871710,-1302.362347
20868.956483,-4293.194464,-9474.636058,-4903.011187
20868.956816,-2294.638420,-8586.388927,-3600.648841
20868.957149,1332.370696,-4737.318029,-766.095498
20868.957483,5847.626942,-4737.318029,3294.210641
20868.957816,7031.956449,-3627.009116,2451.505594
20868.958149,5921.647536,-11103.089130,6052.154434
20868.958482,8216.285956,-14211.954086,4213.525239
20868.958816,4367.215058,-10732.986159,0.000000
20868.959149,4071.132681,-10362.883188,-1302.362347
20868.959482,2442.679609,-8734.430116,-2604.724693
20868.959816,3034.844362,-8956.491898,-2145.067394
20868.960149,4441.235652,-9030.512492,-689.485948
20868.960482,1480.411884,-11029.068536,0.000000
20868.960815,592.164754,-13101.645173,1225.752797
20868.961149,1702.473667,-11251.130318,-1302.362347
20868.961482,-518.144159,-7772.162391,0.000000
20868.961815,2368.659014,-3034.844362,4290.134789
20868.962148,5847.626942,-6513.812290,3294.210641
20868.962482,4737.318029,-7402.059420,3983.696590
20868.962815,3997.112087,-10807.006753,2911.162892
20868.963148,0.000000,-13693.809927,1532.190996
20868.963482,-1480.411884,-10732.986159,-1838.629195
20868.963815,-7105.977043,-12805.562797,-4213.525239
20868.964148,-6587.832884,-7476.080014,-5975.544884
20868.964481,-5329.482782,-6883.915261,-3983.696590
20868.964815,1110.308913,-8290.306550,-76.609550
20868.965148,-666.185348,-10658.965565,2374.896044
20868.965481,-1702.473667,-8364.327145,1225.752797
20868.965814,-296.082377,-11843.295072,4903.011187
20868.966148,-2738.761985,-10584.944971,1149.143247
20868.966481,-74.020594,-8216.285956,1608.800546
20868.966814,-1184.329507,-6291.750507,1455.581446
20868.967148,0.000000,-8068.244768,1608.800546
20868.967481,-962.267725,-8734.430116,229.828649
20868.967814,-1628.453072,-11695.253884,0.000000
20868.968147,-3552.988522,-13101.645173,1149.143247
20868.968481,-5625.565159,-7476.080014,-2451.505594
20868.968814,-4589.276840,-10658.965565,-1302.362347
20868.969147,-3034.844362,-7105.977043,-2834.553343
20868.969480,-1036.288319,-7328.038826,1149.143247
20868.969814,4071.132681,-5329.482782,2681.334243
20868.970147,3775.050304,-10214.842000,4826.401637
20868.970480,1998.556043,-10881.027347,3524.039291
20868.970813,1702.473667,-10510.924376,2528.115143
20868.971147,-1258.350101,-10658.965565,-689.485948
20868.971480,1924.535449,-8290.306550,-76.609550
20868.971813,-74.020594,-9178.553681,-2528.115143
20868.972147,592.164754,-7179.997637,0.000000
20868.972480,0.000000,-9844.739029,612.876398
20868.972813,1110.308913,-10807.006753,0.000000
20868.973146,148.041188,-11325.150913,76.609550
20868.973480,-444.123565,-9992.780217,-689.485948
20868.973813,1480.411884,-7476.080014,1149.143247
20868.974146,2590.720797,-4959.379811,919.314598
20868.974479,9400.615463,-7105.977043,4826.401637
20868.974813,6439.791695,-9474.636058,4826.401637
20868.975146,4811.338623,-9548.656652,2451.505594
20868.975479,4663.297435,-13915.871710,1762.019645
20868.975813,-3552.988522,-11917.315666,-3217.601092
20868.976146,-2664.741391,-8956.491898,-6205.373534
20868.976479,-3404.947333,-8956.491898,-4826.401637
20868.976812,1036.288319,-7105.977043,-2911.162892
20868.977146,0.000000,-10140.821405,2451.505594
20868.977479,4663.297435,-8290.306550,1149.143247
20868.977812,2516.700203,-11029.068536,6128.763984
20868.978145,1184.329507,-9844.739029,6665.030833
20868.978479,3478.967927,-9474.636058,842.705048
20868.978812,592.164754,-6735.874072,3064.381992
20868.979145,4367.215058,-5773.606348,1838.629195
20868.979479,2220.617826,-9474.636058,1455.581446
20868.979812,-370.102971,-10732.986159,-1225.752797
20868.980145,-4737.318029,-13101.645173,-2451.505594
20868.980478,-6587.832884,-12509.480420,-4596.572988
20868.980812,-5625.565159,-11103.089130,-5592.497135
20868.981145,-6883.915261,-8734.430116,-3753.867940
20868.981478,-1850.514855,-5329.482782,536.266849
20868.981811,-1184.329507,-5995.668130,6128.763984
20868.982145,3775.050304,-7698.141797,9729.412825
20868.982478,1702.473667,-7402.059420,5286.058936
20868.982811,0.000000,-8956.491898,5362.668486
20868.983144,-666.185348,-9474.636058,1762.019645
20868.983478,-4441.235652,-7328.038826,-1762.019645
20868.983811,-2368.659014,-7031.956449,-3064.381992
20868.984144,-2664.741391,-8734.430116,-4136.915689
20868.984478,-2072.576638,-9548.656652,-4903.011187
20868.984811,-5921.647536,-12213.398043,-3064.381992
20868.985144,-1258.350101,-14211.954086,-3140.991542
20868.985477,-2590.720797,-11843.295072,-1915.238745
20868.985811,-1184.329507,-7179.997637,1225.752797
20868.986144,4737.318029,-2664.741391,4213.525239
20868.986477,7402.059420,-6143.709319,7048.078582
20868.986810,8956.491898,-7254.018232,7124.688131
20868.987144,5773.606348,-8364.327145,5132.839837
20868.987477,3849.070898,-10362.883188,1685.410096
20868.987810,-2220.617826,-9844.739029,-2451.505594
20868.988144,-74.020594,-11547.212695,-7431.126331
20868.988477,-1036.288319,-7772.162391,-6435.202183
20868.988810,2368.659014,-8364.327145,-1225.752797
20868.989143,3552.988522,-9844.739029,0.000000
20868.989477,5847.626942,-11695.253884,1149.143247
20868.989810,2664.741391,-13915.871710,3140.991542
20868.990143,3923.091493,-10955.047942,2068.457845
20868.990476,3478.967927,-9474.636058,1455.581446
20868.990810,2664.741391,-7179.997637,3830.477490
20868.991143,5181.441594,-3552.988522,1762.019645
20868.991476,2368.659014,-6291.750507,4903.011187
20868.991810,5181.441594,-10955.047942,2374.896044
20868.992143,1702.473667,-11843.295072,-689.485948
20868.992476,-2442.679609,-12805.562797,-3447.429741
20868.992809,-3330.926739,-10955.047942,-4673.182538
20868.993143,-5921.647536,-9622.677246,-3447.429741
20868.993476,-2368.659014,-6587.832884,0.000000
20868.993809,3478.967927,-9178.553681,3600.648841
20868.994142,1184.329507,-6587.832884,5056.230287
20868.994476,0.000000,-10436.903782,7124.688131
20868.994809,-74.020594,-9326.594869,1302.362347
20868.995142,-3330.926739,-8882.471304,-383.047749
20868.995476,-4219.173869,-6143.709319,-2911.162892
20868.995809,-3775.050304,-6883.915261,-2911.162892
20868.996142,-4515.256246,-8660.409521,-2604.724693
20868.996475,-4737.318029,-7179.997637,-2145.067394
20868.996809,-2146.597232,-11251.130318,-1838.629195
20868.997142,-4737.318029,-12805.562797,76.609550
20868.997475,-3108.864956,-10066.800811,229.828649
20868.997808,-3552.988522,-10955.047942,2221.676944
20868.998142,0.000000,-3034.844362,919.314598
20868.998475,4367.215058,-8290.306550,7277.907231
20868.998808,1998.556043,-4811.338623,2757.943793
20868.999141,1776.494261,-10066.800811,4826.401637
20868.999475,-222.061783,-11547.212695,1149.143247
20868.999808,-3478.967927,-10436.903782,-4290.134789
20869.000141,-4737.318029,-9474.636058,-5362.668486
20869.000475,-5625.565159,-7254.018232,-6128.763984
20869.000808,-2442.679609,-8882.471304,-3753.867940
20869.001141,-1184.329507,-7179.997637,1225.752797
20869.001474,4663.297435,-9474.636058,1762.019645
20869.001808,2368.659014,-8364.327145,4290.134789
20869.002141,2368.659014,-9548.656652,5822.325785
20869.002474,2590.720797,-9178.553681,1149.143247
20869.002807,1184.329507,-6883.915261,2451.505594
20869.003141,5107.421000,-6661.853478,1378.971896
20869.003474,5847.626942,-7550.100608,1608.800546
20869.003807,4145.153275,-10658.965565,-689.485948
20869.004141,2294.638420,-13027.624579,-1302.362347
20869.004474,-74.020594,-13027.624579,-4979.620737
20869.004807,-2368.659014,-10436.903782,-2604.724693
20869.005140,-74.020594,-11843.295072,-2528.115143
20869.005474,74.020594,-6291.750507,-3370.820191
20869.005807,4885.359217,-9326.594869,3600.648841
20869.006140,6365.771101,-6883.915261,5975.544884
20869.006473,6735.874072,-9252.574275,6894.859482
20869.006807,5699.585753,-11843.295072,5745.716235
20869.007140,1554.432478,-8734.430116,383.047749
20869.007473,-1184.329507,-7179.997637,-3983.696590
20869.007807,592.164754,-9104.533087,-1762.019645
20869.008140,1110.308913,-7994.224174,-4290.134789
20869.008473,222.061783,-7772.162391,-3677.258390
20869.008806,-74.020594,-11843.295072,-995.924147
20869.009140,-2960.823768,-13249.686362,-612.876398
20869.009473,-4219.173869,-11473.192101,-1915.238745
20869.009806,-888.247130,-8734.430116,536.266849
20869.010139,0.000000,-4589.276840,1378.971896
20869.010473,1850.514855,-4811.338623,3830.477490
20869.010806,1258.350101,-7105.977043,5209.449386
20869.011139,148.041188,-8734.430116,4060.306139
20869.011472,-1184.329507,-10288.862594,3830.477490
20869.011806,-2442.679609,-13545.768739,-76.609550
20869.012139,-7179.997637,-7846.182985,-5822.325785
20869.012472,-7698.141797,-7920.203579,-4903.011187
20869.012806,-2812.782580,-7550.100608,-2068.457845
20869.013139,-1480.411884,-7179.997637,0.000000
20869.013472,-1036.288319,-9992.780217,1072.533697
20869.013805,-888.247130,-11917.315666,1991.848295
20869.014139,-1554.432478,-10881.027347,1149.143247
20869.014472,-962.267725,-10066.800811,-76.609550
20869.014805,0.000000,-6291.750507,2757.943793
20869.015138,2294.638420,-2590.720797,0.000000
20869.015472,3849.070898,-7920.203579,4826.401637
20869.015805,2294.638420,-9474.636058,2068.457845
20869.016138,-74.020594,-10658.965565,-76.609550
20869.016472,-2072.576638,-12139.377449,-1762.019645
20869.016805,-2812.782580,-10288.862594,-4749.792088
20869.017138,-2812.782580,-10066.800811,-3600.648841
20869.017471,1184.329507,-6143.709319,-1838.629195
20869.017805,7920.203579,-9474.636058,4826.401637
20869.018138,7105.977043,-6587.832884,4903.011187
20869.018471,8068.244768,-11695.253884,5439.278036
20869.018804,4663.297435,-11547.212695,1838.629195
20869.019138,1184.329507,-9548.656652,0.000000
20869.019471,962.267725,-10066.800811,-3064.381992
20869.019804,1628.453072,-8290.306550,-2681.334243
20869.020138,1110.308913,-7179.997637,-2145.067394
20869.020471,814.226536,-9992.780217,-1149.143247
20869.020804,2738.761985,-9474.636058,-76.609550
20869.021137,0.000000,-11769.274478,2987.772442
20869.021471,296.082377,-8660.409521,2374.896044
20869.021804,1998.556043,-8586.388927,0.000000
20869.022137,2368.659014,-5995.668130,2451.505594
20869.022470,5107.421000,-7624.121203,3677.258390
20869.022804,3923.091493,-9474.636058,4519.963438
20869.023137,2960.823768,-9844.739029,2528.115143
20869.023470,-1332.370696,-12509.480420,995.924147
20869.023803,-2960.823768,-9548.656652,-4290.134789
20869.024137,-5477.523971,-12435.459826,-2834.553343
20869.024470,-6587.832884,-6883.915261,-4903.011187
20869.024803,-6513.812290,-3627.009116,-4290.134789
20869.025137,-3552.988522,-9400.615463,919.314598
20869.025470,-2146.597232,-6291.750507,919.314598
20869.025803,592.164754,-8956.491898,4903.011187
20869.026136,0.000000,-9992.780217,5286.058936
20869.026470,-1702.473667,-6735.874072,1302.362347
20869.026803,-2146.597232,-8364.327145,153.219100
20869.027136,2294.638420,-5625.565159,-76.609550
20869.027469,1776.494261,-11251.130318,2834.553343
20869.027803,296.082377,-9400.615463,76.609550
20869.028136,-2442.679609,-14211.954086,-76.609550
20869.028469,-6439.791695,-11325.150913,-4596.572988
20869.028803,-4589.276840,-8956.491898,-4290.134789
20869.029136,-5329.482782,-10881.027347,-1302.362347
20869.029469,-1554.432478,-4441.235652,-1685.410096
20869.029802,0.000000,-5107.421000,3830.477490
20869.030136,3478.967927,-7105.977043,5132.839837
20869.030469,4293.194464,-8142.265362,5669.106685
20869.030802,2442.679609,-10955.047942,4443.353888
20869.031135,2590.720797,-9474.636058,1149.143247
20869.031468,-1258.350101,-7179.997637,-3064.381992
20869.031802,1850.514855,-9474.636058,-2528.115143
20869.032135,0.000000,-7105.977043,-4673.182538
20869.032468,1184.329507,-9696.697840,-919.314598
20869.032801,1702.473667,-13619.789333,-76.609550
20869.033134,0.000000,-12509.480420,-1225.752797
20869.033468,-1406.391290,-10732.986159,-919.314598
20869.033801,-888.247130,-9030.512492,0.000000
20869.034134,4367.215058,-7105.977043,4826.401637
20869.034467,2960.823768,-4219.173869,4290.134789
20869.034800,3552.988522,-6587.832884,6435.202183
20869.035134,7031.956449,-7105.977043,3294.210641
20869.035467,2664.741391,-8364.327145,919.314598
20869.035800,2294.638420,-12435.459826,-76.609550
20869.036133,-2442.679609,-12435.459826,-5898.935335
20869.036466,-3849.070898,-10807.006753,-6281.983084
20869.036800,-1110.308913,-10362.883188,-4903.011187
20869.037133,1184.329507,-7476.080014,-1225.752797
20869.037466,4071.132681,-11843.295072,536.266849
20869.037799,2368.659014,-10732.986159,2451.505594
20869.038133,2516.700203,-13027.624579,4826.401637
20869.038466,148.041188,-7920.203579,2451.505594
20869.038799,0.000000,-5995.668130,2451.505594
20869.039132,2664.741391,-5699.585753,3907.087040
20869.039465,2294.638420,-5921.647536,2374.896044
20869.039799,-518.144159,-7846.182985,229.828649
20869.040132,-1480.411884,-11029.068536,-76.609550
20869.040465,-4811.338623,-10140.821405,-4290.134789
20869.040798,-4293.194464,-13027.624579,-3140.991542
20869.041131,-5995.668130,-13027.624579,-4979.620737
20869.041465,-6513.812290,-7772.162391,-2451.505594
20869.041798,0.000000,-6291.750507,3064.381992
20869.042131,2516.700203,-5551.544565,6128.763984
20869.042464,4663.297435,-8660.409521,6358.592633
20869.042797,3997.112087,-10066.800811,6588.421283
20869.043131,2442.679609,-10362.883188,4826.401637
20869.043464,-1110.308913,-6143.709319,-1838.629195
20869.043797,222.061783,-7994.224174,-2221.676944
20869.044130,-518.144159,-9030.512492,-2374.896044
20869.044464,0.000000,-10066.800811,-2221.676944
20869.044797,0.000000,-9252.574275,0.000000
20869.045130,-2442.679609,-12361.439231,-2451.505594
20869.045463,-2960.823768,-8364.327145,0.000000
20869.045796,-74.020594,-12435.459826,-76.609550
20869.046130,1702.473667,-6513.812290,0.000000
20869.046463,5329.482782,-4811.338623,6128.763984
20869.046796,7031.956449,-7402.059420,5132.839837
20869.047129,8438.347739,-7550.100608,5209.449386
20869.047462,4663.297435,-9030.512492,2374.896044
20869.047796,4071.132681,-13027.624579,-689.485948
20869.048129,-1258.350101,-9696.697840,-7048.078582
20869.048462,-3849.070898,-12657.521608,-7354.516781
20869.048795,-2368.659014,-10066.800811,-3907.087040
20869.049128,-2368.659014,-7920.203579,-2451.505594
20869.049462,1702.473667,-11843.295072,-76.609550
20869.049795,2960.823768,-10881.027347,5975.544884
20869.050128,4515.256246,-7846.182985,6971.469032
20869.050461,2294.638420,-8290.306550,5745.716235
20869.050794,-1628.453072,-5773.606348,229.828649
20869.051128,518.144159,-2738.761985,0.000000
20869.051461,3478.967927,-8290.306550,2068.457845
20869.051794,3034.844362,-5921.647536,-1302.362347
20869.052127,-3849.070898,-11917.315666,-2757.943793
20869.052461,-1850.514855,-13027.624579,-4673.182538
20869.052794,-5921.647536,-13101.645173,-3294.210641
20869.053127,-5699.585753,-9844.739029,-4903.011187
20869.053460,-4071.132681,-8882.471304,-2145.067394
20869.053793,-2368.659014,-8364.327145,1225.752797
20869.054127,3849.070898,-7105.977043,8427.050478
20869.054460,2960.823768,-8882.471304,7584.345430
20869.054793,3849.070898,-5403.503377,6741.640382
20869.055126,1184.329507,-9992.780217,8503.660028
20869.055459,-74.020594,-7698.141797,0.000000
20869.055793,-2516.700203,-8808.450710,-2528.115143
20869.056126,-1998.556043,-7179.997637,-4213.525239
20869.056459,-444.123565,-10362.883188,-3217.601092
20869.056792,-1628.453072,-10140.821405,-2451.505594
20869.057125,-1184.329507,-12805.562797,-1302.362347
20869.057459,-3552.988522,-12361.439231,-1991.848295
20869.057792,-1480.411884,-10807.006753,459.657299
20869.058125,-962.267725,-10658.965565,2374.896044
20869.058458,2516.700203,-3552.988522,3447.429741
20869.058792,592.164754,-4811.338623,5822.325785
20869.059125,7328.038826,-7698.141797,7277.907231
20869.059458,4071.132681,-7328.038826,3907.087040
20869.059791,3182.885551,-10658.965565,3294.210641
20869.060124,-962.267725,-10066.800811,-2834.553343
20869.060458,-5033.400406,-11103.089130,-7354.516781
20869.060791,-3330.926739,-9844.739029,-7507.735880
20869.061124,-1110.308913,-9770.718434,-4519.963438
20869.061457,3404.947333,-11991.336260,536.266849
20869.061790,0.000000,-9548.656652,4903.011187
20869.062124,3775.050304,-12879.583391,4826.401637
20869.062457,962.267725,-10658.965565,2374.896044
20869.062790,0.000000,-6587.832884,1838.629195
20869.063123,2886.803174,-6513.812290,1991.848295
20869.063456,3404.947333,-4219.173869,3447.429741
20869.063790,1998.556043,-7476.080014,2221.676944
20869.064123,0.000000,-8216.285956,-153.219100
20869.064456,-1258.350101,-11843.295072,-1915.238745
20869.064789,-1850.514855,-13619.789333,-1532.190996
20869.065122,-2442.679609,-12731.542202,-4979.620737
20869.065456,-3701.029710,-10732.986159,-4903.011187
20869.065789,592.164754,-8956.491898,0.000000
20869.066122,3997.112087,-7328.038826,4060.306139
20869.066455,5551.544565,-8956.491898,5515.887586
20869.066789,3182.885551,-11177.109724,5362.668486
20869.067122,1628.453072,-10955.047942,4596.572988
20869.067455,0.000000,-7476.080014,612.876398
20869.067788,1702.473667,-8290.306550,-76.609550
20869.068121,-2368.659014,-3627.009116,-2681.334243
20869.068455,0.000000,-6587.832884,-76.609550
20869.068788,-74.020594,-9474.636058,-383.047749
20869.069121,-2368.659014,-10881.027347,306.438199
20869.069454,-3552.988522,-11473.192101,-1072.533697
20869.069787,-4811.338623,-11177.109724,-2834.553343
20869.070121,-2368.659014,-9548.656652,-1455.581446
20869.070454,2368.659014,-7179.997637,3907.087040
20869.070787,7031.956449,-7105.977043,3600.648841
20869.071120,5033.400406,-7179.997637,7584.345430
20869.071453,4663.297435,-13027.624579,4826.401637
20869.071787,-74.020594,-13027.624579,1762.019645
20869.072120,-3552.988522,-11177.109724,-1378.971896
20869.072453,-4293.194464,-10288.862594,-5056.230287
20869.072786,-3330.926739,-6291.750507,-4596.572988
20869.073120,-2220.617826,-7179.997637,-2451.505594
20869.073453,0.000000,-7179.997637,1378.971896
20869.073786,0.000000,-9548.656652,3677.258390
20869.074119,4071.132681,-9178.553681,4060.306139
20869.074452,3256.906145,-9400.615463,4673.182538
20869.074786,814.226536,-9104.533087,0.000000
20869.075119,2368.659014,-7476.080014,1991.848295
20869.075452,4515.256246,-9474.636058,1149.143247
20869.075785,5255.462188,-5995.668130,-2145.067394
20869.076118,2368.659014,-12879.583391,-995.924147
20869.076452,1110.308913,-15100.201217,-2528.115143
20869.076785,-3552.988522,-12509.480420,-3370.820191
20869.077118,-1554.432478,-9992.780217,-3447.429741
20869.077451,-2664.741391,-8364.327145,-1302.362347
20869.077784,592.164754,-3627.009116,0.000000
20869.078118,2368.659014,-4811.338623,5515.887586
20869.078451,4663.297435,-6513.812290,3064.381992
20869.078784,4737.318029,-10807.006753,5515.887586
20869.079117,3478.967927,-11251.130318,2987.772442
20869.079450,-1776.494261,-9844.739029,0.000000
20869.079784,-3182.885551,-10214.842000,-2528.115143
20869.080117,-2368.659014,-9474.636058,-3753.867940
20869.080450,-1184.329507,-8364.327145,-2451.505594
20869.080783,1998.556043,-10362.883188,1149.143247
20869.081117,-3256.906145,-11325.150913,2374.896044
20869.081450,-1258.350101,-10658.965565,-1608.800546
20869.081783,-2960.823768,-8364.327145,0.000000
20869.082116,296.082377,-8808.450710,4826.401637
20869.082449,2664.741391,-4515.256246,2451.505594
20869.082783,3034.844362,-7105.977043,3600.648841
20869.083116,3256.906145,-8586.388927,4136.915689
20869.083449,222.061783,-10807.006753,2757.943793
20869.083782,518.144159,-9474.636058,459.657299
20869.084115,-2812.782580,-13619.789333,-76.609550
20869.084449,-7105.977043,-7772.162391,-6128.763984
20869.084782,-6513.812290,-8956.491898,-2681.334243
20869.085115,-1554.432478,-7994.224174,-2298.286494
20869.085448,-814.226536,-8290.306550,-76.609550
20869.085781,1036.288319,-7772.162391,1378.971896
20869.086115,1332.370696,-10140.821405,3064.381992
20869.086448,444.123565,-8956.491898,2221.676944
20869.086781,-1776.494261,-9548.656652,0.000000
20869.087114,2294.638420,-7698.141797,-76.609550
20869.087447,1184.329507,-7179.997637,2298.286494
20869.087781,4663.297435,-11843.295072,2987.772442
20869.088114,518.144159,-10140.821405,0.000000
20869.088447,-1258.350101,-11843.295072,-1608.800546
20869.088780,-2368.659014,-11325.150913,-1762.019645
20869.089114,-2664.741391,-9844.739029,-3064.381992
20869.089447,-1702.473667,-9326.594869,-1838.629195
20869.089780,0.000000,-4811.338623,306.438199
20869.090113,5699.585753,-5773.606348,3064.381992
20869.090446,5329.482782,-7179.997637,4903.011187
20869.090780,4737.318029,-9030.512492,4136.915689
20869.091113,3034.844362,-10140.821405,2374.896044
20869.091446,0.000000,-10140.821405,0.000000
20869.091779,-74.020594,-9770.718434,-4366.744339
20869.092112,-5625.565159,-7772.162391,-4903.011187
20869.092446,1110.308913,-9474.636058,-3447.429741
20869.092779,1702.473667,-10362.883188,1762.019645
20869.093112,-1184.329507,-10140.821405,1838.629195
20869.093445,-296.082377,-8882.471304,1915.238745
20869.093778,-1332.370696,-9030.512492,919.314598
20869.094112,814.226536,-7846.182985,2528.115143
20869.094445,3256.906145,-5995.668130,4290.134789
20869.094778,5847.626942,-7105.977043,2374.896044
20869.095111,4737.318029,-8660.409521,4903.011187
20869.095445,4663.297435,-11843.295072,1149.143247
20869.095778,0.000000,-11325.150913,-1225.752797
20869.096111,-4441.235652,-14359.995275,-2757.943793
20869.096444,-4811.338623,-11399.171507,-5592.497135
20869.096777,-6217.729913,-10214.842000,-5132.839837
20869.097111,-3701.029710,-8438.347739,-2298.286494
20869.097444,-666.185348,-9474.636058,2374.896044
20869.097777,-74.020594,-7105.977043,2068.457845
20869.098110,2960.823768,-5995.668130,9576.193725
20869.098443,4663.297435,-9474.636058,7890.783629
20869.098777,740.205942,-5551.544565,3064.381992
20869.099110,-74.020594,-8882.471304,1762.019645
20869.099443,1332.370696,-7105.977043,-459.657299
20869.099776,1924.535449,-10214.842000,-1072.533697
20869.100109,444.123565,-10955.047942,-3524.039291
20869.100443,-3552.988522,-12731.542202,-5822.325785
20869.100776,-6365.771101,-14285.974681,-6128.763984
20869.101109,-2368.659014,-11769.274478,-2834.553343
20869.101442,-1850.514855,-9474.636058,-2451.505594
20869.101775,296.082377,-4811.338623,2451.505594
20869.102109,5847.626942,-6809.894666,6052.154434
20869.102442,5329.482782,-5403.503377,7660.954980
20869.102775,4737.318029,-7402.059420,6818.249932
20869.103108,4441.235652,-8216.285956,4673.182538
20869.103442,592.164754,-7772.162391,1991.848295
20869.103775,-592.164754,-7920.203579,-1915.238745
20869.104108,-1924.535449,-10436.903782,-4903.011187
20869.104441,-666.185348,-9400.615463,-4903.011187
20869.104774,1480.411884,-11843.295072,-1991.848295
20869.105108,-74.020594,-15396.283594,-76.609550
20869.105441,-74.020594,-12139.377449,-3447.429741
20869.105774,-2368.659014,-10732.986159,-3064.381992
20869.106107,148.041188,-8808.450710,2374.896044
20869.106440,2368.659014,-5699.585753,3064.381992
20869.106774,5181.441594,-5107.421000,5898.935335
20869.107107,4811.338623,-6143.709319,4903.011187
20869.107440,4663.297435,-6365.771101,3217.601092
20869.107773,3478.967927,-9474.636058,2374.896044
20869.108106,0.000000,-10881.027347,306.438199
20869.108440,-4811.338623,-9548.656652,-6741.640382
20869.108773,-5033.400406,-11473.192101,-5132.839837
20869.109106,-1258.350101,-12435.459826,-3140.991542
20869.109439,-370.102971,-9918.759623,-383.047749
20869.109773,1110.308913,-11251.130318,1455.581446
20869.110106,-1184.329507,-9918.759623,2374.896044
20869.110439,222.061783,-9548.656652,3524.039291
20869.110772,296.082377,-6661.853478,3677.258390
20869.111105,3478.967927,-8586.388927,5745.716235
20869.111439,296.082377,-3627.009116,0.000000
20869.111772,3478.967927,-9474.636058,2374.896044
20869.112105,-2072.576638,-7476.080014,-1838.629195
20869.112438,-3552.988522,-10732.986159,-3370.820191
20869.112771,-3330.926739,-11547.212695,-4903.011187
20869.113105,-5181.441594,-14211.954086,-3753.867940
20869.113438,-3182.885551,-10066.800811,-2528.115143
20869.113771,-2664.741391,-9918.759623,0.000000
20869.114104,4071.132681,-5329.482782,2987.772442
20869.114437,4737.318029,-8660.409521,8350.440928
20869.114771,4663.297435,-8290.306550,4213.525239
20869.115104,2368.659014,-8364.327145,3677.258390
20869.115437,0.000000,-10658.965565,2145.067394
20869.115770,-740.205942,-7476.080014,-2145.067394
20869.116103,-1850.514855,-9104.533087,-2757.943793
20869.116437,0.000000,-8956.491898,-2604.724693
20869.116770,-148.041188,-9252.574275,-1762.019645
20869.117103,0.000000,-9548.656652,-3370.820191
20869.117436,-74.020594,-13619.789333,-76.609550
20869.117770,-1628.453072,-9548.656652,-1838.629195
20869.118103,-2368.659014,-8364.327145,1225.752797
20869.118436,4071.132681,-10510.924376,4060.306139
20869.118769,4145.153275,-5995.668130,4290.134789
20869.119102,7179.997637,-7846.182985,6358.592633
20869.119436,5181.441594,-7105.977043,3600.648841
20869.119769,2442.679609,-9252.574275,1225.752797
20869.120102,-2368.659014,-10732.986159,-3064.381992
20869.120435,-3330.926739,-11103.089130,-5898.935335
20869.120768,-3923.091493,-10510.924376,-5669.106685
20869.121102,-3849.070898,-9844.739029,-4903.011187
20869.121435,-1850.514855,-10362.883188,-1302.362347
20869.121768,-592.164754,-6883.915261,0.000000
20869.122101,1776.494261,-11103.089130,7048.078582
20869.122434,4663.297435,-6513.812290,4826.401637
20869.122768,148.041188,-7920.203579,3064.381992
20869.123101,592.164754,-8660.409521,6052.154434
20869.123434,1480.411884,-5551.544565,1685.410096
20869.123767,2886.803174,-8586.388927,2068.457845
20869.124101,3256.906145,-9474.636058,1072.533697
20869.124434,-2072.576638,-10362.883188,-3753.867940
20869.124767,-3627.009116,-11917.315666,-6741.640382
20869.125100,-2442.679609,-13027.624579,-4060.306139
20869.125433,-3034.844362,-13027.624579,-3140.991542
20869.125767,-2590.720797,-8142.265362,-2298.286494
20869.126100,1702.473667,-8290.306550,3600.648841
20869.126433,2368.659014,-5995.668130,5209.449386
20869.126766,3627.009116,-7031.956449,6894.859482
20869.127099,2960.823768,-7476.080014,5975.544884
20869.127433,888.247130,-8956.491898,4903.011187
20869.127766,-1258.350101,-5995.668130,0.000000
20869.128099,-1998.556043,-11843.295072,-3140.991542
20869.128432,-2442.679609,-7179.997637,-4903.011187
20869.128765,-2368.659014,-10140.821405,-919.314598
20869.129099,148.041188,-7772.162391,-3447.429741
20869.129432,-370.102971,-13471.748144,-842.705048
20869.129765,-2294.638420,-11399.171507,-2145.067394
20869.130098,-592.164754,-11843.295072,919.314598
20869.130431,3478.967927,-6217.729913,2987.772442
20869.130765,2368.659014,-6291.750507,3983.696590
20869.131098,3478.967927,-8882.471304,3600.648841
20869.131431,2368.659014,-4811.338623,4903.011187
20869.131764,3182.885551,-10362.883188,3600.648841
20869.132098,3182.885551,-9474.636058,919.314598
20869.132431,-1406.391290,-10732.986159,-2604.724693
20869.132764,-3404.947333,-9770.718434,-3447.429741
20869.133097,-740.205942,-7920.203579,-3983.696590
20869.133430,-962.267725,-7402.059420,-3907.087040
20869.133764,5625.565159,-11547.212695,-76.609550
20869.134097,2960.823768,-8956.491898,1225.752797
20869.134430,2516.700203,-8660.409521,1225.752797
20869.134763,4219.173869,-11843.295072,1762.019645
20869.135097,4663.297435,-11251.130318,2374.896044
20869.135430,4663.297435,-8882.471304,-76.609550
20869.135763,4071.132681,-7846.182985,1378.971896
20869.136096,3997.112087,-7550.100608,1915.238745
20869.136430,370.102971,-7846.182985,-612.876398
20869.136763,814.226536,-10955.047942,-76.609550
20869.137096,-3256.906145,-10807.006753,-2451.505594
20869.137429,-4219.173869,-10658.965565,-3447.429741
20869.137762,-4811.338623,-8882.471304,-2987.772442
20869.138096,-74.020594,-5921.647536,383.047749
20869.138429,2960.823768,-6587.832884,4903.011187
20869.138762,4663.297435,-9474.636058,5439.278036
20869.139095,592.164754,-9548.656652,3677.258390
20869.139429,-2368.659014,-11917.315666,1838.629195
20869.139762,-1258.350101,-9918.759623,-1838.629195
20869.140095,-4145.153275,-10807.006753,-1915.238745
20869.140428,-1628.453072,-7031.956449,-2298.286494
20869.140762,-2516.700203,-8512.368333,-1225.752797
20869.141095,-2368.659014,-7476.080014,-2451.505594
20869.141428,-74.020594,-11843.295072,1149.143247
20869.141761,-2220.617826,-8882.471304,-76.609550
20869.142094,-2960.823768,-7772.162391,2757.943793
20869.142428,-666.185348,-8882.471304,2374.896044
20869.142761,-1036.288319,-6587.832884,1225.752797
20869.143094,2590.720797,-5773.606348,2374.896044
20869.143427,2590.720797,-10510.924376,2834.553343
20869.143761,1332.370696,-8586.388927,1149.143247
20869.144094,-1628.453072,-13841.851115,-306.438199
20869.144427,-2442.679609,-13619.789333,-3753.867940
20869.144760,-6439.791695,-10140.821405,-5515.887586
20869.145094,-7105.977043,-5995.668130,-3677.258390
20869.145427,74.020594,-8586.388927,-536.266849
20869.145760,592.164754,-7624.121203,2987.772442
20869.146093,3552.988522,-8882.471304,5056.230287
20869.146426,2664.741391,-7328.038826,4366.744339
20869.146760,2368.659014,-8956.491898,3447.429741
20869.147093,2294.638420,-10066.800811,2374.896044
20869.147426,2738.761985,-6217.729913,-842.705048
20869.147759,2368.659014,-7772.162391,1532.190996
20869.148093,5551.544565,-11251.130318,2374.896044
20869.148426,3182.885551,-10658.965565,-3447.429741
20869.148759,0.000000,-13841.851115,-1072.533697
20869.149092,-1776.494261,-11917.315666,-2987.772442
20869.149426,-2664.741391,-10807.006753,-2528.115143
20869.149759,-1554.432478,-7698.141797,-1915.238745
20869.150092,1702.473667,-7105.977043,2987.772442
20869.150425,2442.679609,-5403.503377,4443.353888
20869.150759,4219.173869,-4959.379811,4596.572988
20869.151092,3034.844362,-8882.471304,4596.572988
20869.151425,2960.823768,-4811.338623,2451.505594
20869.151758,0.000000,-9548.656652,1532.190996
20869.152091,-74.020594,-9474.636058,-4519.963438
20869.152425,-2368.659014,-9548.656652,-6128.763984
20869.152758,0.000000,-11325.150913,-2834.553343
20869.153091,2072.576638,-10436.903782,-1762.019645
20869.153424,0.000000,-12065.356855,153.219100
20869.153758,-222.061783,-11769.274478,-459.657299
20869.154091,-1332.370696,-11547.212695,1762.019645
20869.154424,1924.535449,-8142.265362,5362.668486
20869.154757,1702.473667,-4811.338623,4903.011187
20869.155091,6439.791695,-5921.647536,4826.401637
20869.155424,2516.700203,-4811.338623,4903.011187
20869.155757,1184.329507,-10214.842000,4826.401637
20869.156090,-1924.535449,-9770.718434,-1685.410096
20869.156423,-7402.059420,-12879.583391,-4979.620737
20869.156757,-7994.224174,-10807.006753,-7201.297681
20869.157090,-7254.018232,-10881.027347,-5209.449386
20869.157423,-3923.091493,-10362.883188,-2834.553343
20869.157756,-2368.659014,-7772.162391,2757.943793
20869.158090,148.041188,-7179.997637,2221.676944
20869.158423,1776.494261,-7179.997637,7507.735880
20869.158756,2886.803174,-8882.471304,6052.154434
20869.159089,1110.308913,-8216.285956,2987.772442
20869.159423,1110.308913,-6661.853478,1149.143247
20869.159756,814.226536,-7476.080014,-76.609550
20869.160089,1628.453072,-7772.162391,-536.266849
20869.160422,-222.061783,-9992.780217,-1532.190996
20869.160756,-74.020594,-13619.789333,-1302.362347
20869.161089,-3552.988522,-9844.739029,-3370.820191
20869.161422,-4737.318029,-9844.739029,-3524.039291
20869.161755,-1924.535449,-11843.295072,-1302.362347
20869.162088,1776.494261,-4811.338623,1225.752797
20869.162422,6439.791695,-6661.853478,5592.497135
20869.162755,8512.368333,-5773.606348,4826.401637
20869.163088,5699.585753,-11251.130318,3753.867940
20869.163421,4663.297435,-9178.553681,612.876398
20869.163755,2886.803174,-11399.171507,-1915.238745
20869.164088,0.000000,-10732.986159,-842.705048
20869.164421,1998.556043,-9400.615463,-1302.362347
20869.164754,2294.638420,-10658.965565,-2834.553343
20869.165088,1776.494261,-5995.668130,0.000000
20869.165421,2294.638420,-10658.965565,995.924147
20869.165754,1850.514855,-9178.553681,1072.533697
20869.166087,-592.164754,-9548.656652,1455.581446
20869.166420,-666.185348,-8364.327145,1455.581446
20869.166754,1110.308913,-5551.544565,0.000000
20869.167087,2664.741391,-7179.997637,2987.772442
20869.167420,5107.421000,-5773.606348,3140.991542
20869.167753,2072.576638,-8734.430116,2374.896044
20869.168087,592.164754,-10214.842000,0.000000
20869.168420,-3627.009116,-13027.624579,-4979.620737
20869.168753,-5329.482782,-11917.315666,-7354.516781
20869.169086,-4737.318029,-11473.192101,-2681.334243
20869.169420,-2442.679609,-8882.471304,-2911.162892
20869.169753,-2960.823768,-8364.327145,1838.629195
20869.170086,222.061783,-9178.553681,3983.696590
20869.170419,74.020594,-8808.450710,5975.544884
20869.170752,370.102971,-6365.771101,4060.306139
20869.171086,-74.020594,-10658.965565,3600.648841
20869.171419,-74.020594,-5329.482782,536.266849
20869.171752,-2368.659014,-9844.739029,2757.943793
20869.172085,3478.967927,-9326.594869,1762.019645
20869.172419,-3182.885551,-10881.027347,-2451.505594
20869.172752,-2960.823768,-9548.656652,-2221.676944
20869.173085,-3552.988522,-12731.542202,-3294.210641
20869.173418,-5921.647536,-10658.965565,-5362.668486
20869.173752,-5107.421000,-9548.656652,-4290.134789
20869.174085,-3923.091493,-7402.059420,-1762.019645
20869.174418,5255.462188,-4737.318029,2681.334243
20869.174751,3552.988522,-7476.080014,9729.412825
20869.175085,6439.791695,-7402.059420,6052.154434
20869.175418,4367.215058,-5551.544565,3677.258390
20869.175751,1110.308913,-10658.965565,2987.772442
20869.176084,1110.308913,-7698.141797,-1915.238745
20869.176417,-1998.556043,-10658.965565,-4673.182538
20869.176751,2072.576638,-9474.636058,-3753.867940
20869.177084,1480.411884,-11029.068536,-766.095498
20869.177417,814.226536,-10732.986159,-3677.258390
20869.177750,0.000000,-13101.645173,-76.609550
20869.178084,1110.308913,-11843.295072,-76.609550
20869.178417,740.205942,-7698.141797,2374.896044
20869.178750,2368.659014,-3923.091493,3064.381992
20869.179083,4293.194464,-6365.771101,3753.867940
20869.179417,3108.864956,-6291.750507,4596.572988
20869.179750,2960.823768,-7179.997637,3064.381992
20869.180083,3478.967927,-10658.965565,1149.143247
20869.180416,-2368.659014,-8660.409521,-306.438199
20869.180749,-3034.844362,-11251.130318,-6358.592633
20869.181083,-1850.514855,-9030.512492,-6511.811733
20869.181416,-2368.659014,-11325.150913,-1685.410096
20869.181749,2072.576638,-8364.327145,-2451.505594
20869.182082,4367.215058,-11769.274478,2681.334243
20869.182416,3182.885551,-10436.903782,3600.648841
20869.182749,2220.617826,-9844.739029,3370.820191
20869.183082,1110.308913,-10658.965565,3600.648841
20869.183415,1480.411884,-7772.162391,3524.039291
20869.183749,0.000000,-7179.997637,2757.943793
20869.184082,1332.370696,-7031.956449,2068.457845
20869.184415,-1628.453072,-7550.100608,153.219100
20869.184748,-518.144159,-10066.800811,1532.190996
20869.185081,-4737.318029,-7920.203579,-4903.011187
20869.185415,-5403.503377,-11843.295072,-4060.306139
20869.185748,-7179.997637,-8956.491898,-7048.078582
20869.186081,-5625.565159,-9548.656652,-2451.505594
20869.186414,3775.050304,-8290.306550,3600.648841
20869.186748,4071.132681,-8290.306550,5592.497135
20869.187081,4367.215058,-8438.347739,5056.230287
20869.187414,3775.050304,-10066.800811,4443.353888
20869.187747,814.226536,-10362.883188,536.266849
20869.188081,0.000000,-9548.656652,919.314598
20869.188414,-1258.350101,-12879.583391,-1302.362347
20869.188747,-4145.153275,-7772.162391,-2451.505594
20869.189080,0.000000,-6587.832884,306.438199
20869.189414,-74.020594,-9770.718434,0.000000
20869.189747,2368.659014,-7031.956449,1762.019645
20869.190080,1184.329507,-10214.842000,2834.553343
20869.190413,370.102971,-7994.224174,1608.800546
20869.190746,0.000000,-6883.915261,0.000000
20869.191080,2368.659014,-6587.832884,1685.410096
20869.191413,5255.462188,-8438.347739,1762.019645
20869.191746,4663.297435,-7179.997637,-2145.067394
20869.192079,2664.741391,-11917.315666,612.876398
20869.192413,-1258.350101,-10881.027347,-5362.668486
20869.192746,74.020594,-12509.480420,-3600.648841
20869.193079,0.000000,-11177.109724,-536.266849
20869.193412,1776.494261,-7772.162391,0.000000
20869.193746,592.164754,-6291.750507,306.438199
20869.194079,4737.318029,-8512.368333,4826.401637
20869.194412,8216.285956,-8882.471304,5898.935335
20869.194745,2516.700203,-7772.162391,4903.011187
20869.195078,2960.823768,-11251.130318,4826.401637
20869.195412,-1258.350101,-9548.656652,-1532.190996
20869.195745,-74.020594,-10066.800811,-2221.676944
20869.196078,74.020594,-9474.636058,-1225.752797
20869.196411,-1184.329507,-9548.656652,-2604.724693
20869.196745,-2368.659014,-10732.986159,-2451.505594
20869.197078,-1998.556043,-9622.677246,-995.924147
20869.197411,-3627.009116,-9104.533087,-2911.162892
20869.197744,-3478.967927,-9474.636058,-919.314598
20869.198078,-666.185348,-7105.977043,1455.581446
20869.198411,2294.638420,-5625.565159,2757.943793
20869.198744,2960.823768,-6291.750507,6665.030833
20869.199077,2294.638420,-9474.636058,1762.019645
20869.199410,1184.329507,-7772.162391,1838.629195
20869.199744,-74.020594,-11843.295072,2374.896044
20869.200077,-2220.617826,-10510.924376,-1302.362347
20869.200410,-3627.009116,-10288.862594,-3600.648841
20869.200743,-1110.308913,-10214.842000,-1685.410096
20869.201077,-1924.535449,-8734.430116,76.609550
20869.201410,1702.473667,-7772.162391,0.000000
20869.201743,-444.123565,-12435.459826,2374.896044
20869.202076,-2368.659014,-6587.832884,612.876398
20869.202410,-666.185348,-6661.853478,919.314598
20869.202743,-1776.494261,-5699.585753,766.095498
20869.203076,0.000000,-7179.997637,2374.896044
20869.203409,592.164754,-7402.059420,1838.629195
20869.203743,2960.823768,-8438.347739,2068.457845
20869.204076,2072.576638,-11251.130318,2068.457845
20869.204409,-1628.453072,-10881.027347,-2145.067394
20869.204742,-3034.844362,-13619.789333,-4979.620737
20869.205075,-4811.338623,-10732.986159,-5515.887586
20869.205409,-1184.329507,-10362.883188,-612.876398
20869.205742,4071.132681,-7994.224174,2374.896044
20869.206075,4145.153275,-7179.997637,5515.887586
20869.206408,3478.967927,-7772.162391,4290.134789
20869.206742,2368.659014,-8438.347739,2451.505594
20869.207075,1702.473667,-10214.842000,1762.019645
20869.207408,0.000000,-6291.750507,0.000000
20869.207741,2294.638420,-9400.615463,2374.896044
20869.208075,1406.391290,-7476.080014,-2451.505594
20869.208408,518.144159,-12287.418637,-76.609550
20869.208741,-74.020594,-11843.295072,-76.609550
20869.209074,0.000000,-12139.377449,-76.609550
20869.209407,-1480.411884,-9696.697840,-1302.362347
20869.209741,-2516.700203,-9400.615463,-2145.067394
20869.210074,0.000000,-8068.244768,1302.362347
20869.210407,5477.523971,-7846.182985,6205.373534
20869.210740,9104.533087,-6217.729913,5132.839837
20869.211074,5625.565159,-8586.388927,6665.030833
20869.211407,5847.626942,-10658.965565,2374.896044
20869.211740,1110.308913,-10362.883188,-842.705048
20869.212073,0.000000,-11843.295072,-2834.553343
20869.212407,-3627.009116,-11695.253884,-4903.011187
20869.212740,-2146.597232,-10436.903782,-3524.039291
20869.213073,-1776.494261,-9844.739029,0.000000
20869.213406,-1776.494261,-9104.533087,2068.457845
20869.213740,-1036.288319,-8808.450710,2221.676944
20869.214073,-222.061783,-7254.018232,3524.039291
20869.214406,-370.102971,-6883.915261,3677.258390
20869.214739,-1924.535449,-4811.338623,2145.067394
20869.215072,0.000000,-6883.915261,3370.820191
20869.215406,4663.297435,-6513.812290,4213.525239
20869.215739,3478.967927,-6957.935855,0.000000
20869.216072,0.000000,-10881.027347,-1225.752797
20869.216405,-2738.761985,-14211.954086,-3753.867940
20869.216739,-5033.400406,-12583.501014,-6281.983084
20869.217072,-4885.359217,-11769.274478,-3907.087040
20869.217405,-3775.050304,-10584.944971,-3294.210641
20869.217738,-2368.659014,-7772.162391,0.000000
20869.218072,0.000000,-5403.503377,4290.134789
20869.218405,4071.132681,-7105.977043,4826.401637
20869.218738,3034.844362,-3034.844362,4903.011187
20869.219071,2368.659014,-8068.244768,6971.469032
20869.219404,888.247130,-5699.585753,2451.505594
20869.219738,296.082377,-7550.100608,1072.533697
20869.220071,1184.329507,-7179.997637,-1608.800546
20869.220404,1998.556043,-8660.409521,-3064.381992
20869.220737,1554.432478,-13619.789333,-4366.744339
20869.221071,-2368.659014,-13397.727550,-2528.115143
20869.221404,-1554.432478,-14211.954086,-7431.126331
20869.221737,-2516.700203,-11917.315666,-4903.011187
20869.222070,1184.329507,-11029.068536,2987.772442
20869.222404,5403.503377,-6883.915261,4903.011187
20869.222737,7920.203579,-5773.606348,7507.735880
20869.223070,7254.018232,-7105.977043,8810.098227
20869.223403,6809.894666,-6291.750507,7737.564530
20869.223736,3478.967927,-6809.894666,2834.553343
20869.224070,2516.700203,-10362.883188,1762.019645
20869.224403,-4367.215058,-9548.656652,-6741.640382
20869.224736,-3256.906145,-9844.739029,-4290.134789
20869.225069,-666.185348,-10658.965565,-4673.182538
20869.225403,-1258.350101,-10658.965565,-3753.867940
20869.225736,-3256.906145,-11621.233289,-2298.286494
20869.226069,-3256.906145,-10436.903782,-2451.505594
20869.226402,-1850.514855,-10214.842000,536.266849
20869.226736,-2072.576638,-7179.997637,2451.505594
20869.227069,4071.132681,-5921.647536,2987.772442
20869.227402,3552.988522,-5995.668130,8733.488677
20869.227735,7402.059420,-6365.771101,9422.974625
20869.228069,3478.967927,-7105.977043,2298.286494
20869.228402,-370.102971,-10658.965565,-689.485948
20869.228735,-5033.400406,-11917.315666,-5362.668486
20869.229068,-6883.915261,-12879.583391,-7124.688131
20869.229401,-4959.379811,-10807.006753,-5592.497135
20869.229735,-4737.318029,-9548.656652,-2145.067394
20869.230068,2294.638420,-9326.594869,-76.609550
20869.230401,1480.411884,-9252.574275,5209.449386
20869.230734,2294.638420,-7550.100608,4673.182538
20869.231068,0.000000,-8068.244768,2757.943793
20869.231401,-1184.329507,-6735.874072,2451.505594
20869.231734,-74.020594,-7698.141797,536.266849
20869.232067,0.000000,-5995.668130,-1072.533697
20869.232401,-1184.329507,-9252.574275,-383.047749
20869.232734,-74.020594,-12435.459826,-689.485948
20869.233067,-1702.473667,-9918.759623,-3064.381992
20869.233400,-2442.679609,-11251.130318,-3217.601092
20869.233734,-3404.947333,-10807.006753,-2451.505594
20869.234067,-2368.659014,-8956.491898,-1225.752797
20869.234400,4145.153275,-9104.533087,5975.544884
20869.234733,7031.956449,-6809.894666,5975.544884
20869.235067,5329.482782,-8364.327145,5515.887586
20869.235400,6143.709319,-9474.636058,4213.525239
20869.235733,148.041188,-9548.656652,0.000000
20869.236066,0.000000,-8364.327145,-2528.115143
20869.236400,-2368.659014,-11621.233289,-3677.258390
20869.236733,-962.267725,-8438.347739,-5056.230287
20869.237066,-1480.411884,-9992.780217,-2604.724693
20869.237399,1110.308913,-10955.047942,-689.485948
20869.237733,0.000000,-10140.821405,2374.896044
20869.238066,4071.132681,-8734.430116,2374.896044
20869.238399,4071.132681,-7402.059420,1838.629195
20869.238732,1480.411884,-8660.409521,4519.963438
20869.239066,4663.297435,-8882.471304,1762.019645
20869.239399,4145.153275,-8364.327145,3677.258390
20869.239732,6513.812290,-8808.450710,2528.115143
20869.240065,4219.173869,-11325.150913,1302.362347
20869.240399,-888.247130,-10807.006753,-1762.019645
20869.240732,-4589.276840,-10732.986159,-6741.640382
20869.241065,-3404.947333,-12435.459826,-4979.620737
20869.241399,-2738.761985,-9252.574275,-3983.696590
20869.241732,-2664.741391,-7179.997637,0.000000
20869.242065,2294.638420,-8290.306550,3600.648841
20869.242398,296.082377,-6883.915261,4596.572988
20869.242732,2738.761985,-6069.688724,5209.449386
20869.243065,1554.432478,-7920.203579,4596.572988
20869.243398,-1776.494261,-7846.182985,1378.971896
20869.243731,-2590.720797,-8808.450710,-842.705048
20869.244065,-1258.350101,-9770.718434,-612.876398
20869.244398,740.205942,-9918.759623,-383.047749
20869.244731,-444.123565,-11769.274478,-76.609550
20869.245064,-666.185348,-12953.603985,-1302.362347
20869.245398,-2442.679609,-9844.739029,-4903.011187
20869.245731,-4737.318029,-9548.656652,-4290.134789
20869.246064,-2960.823768,-9918.759623,-76.609550
20869.246397,-592.164754,-7179.997637,2451.505594
20869.246731,3775.050304,-6217.729913,5439.278036
20869.247064,3627.009116,-6439.791695,5439.278036
20869.247397,3182.885551,-7179.997637,4290.134789
20869.247730,444.123565,-8586.388927,1762.019645
20869.248064,-2368.659014,-8956.491898,0.000000
20869.248397,-4811.338623,-9548.656652,-6128.763984
20869.248730,-2072.576638,-10955.047942,-1915.238745
20869.249064,1184.329507,-11029.068536,842.705048
20869.249397,3478.967927,-8290.306550,-76.609550
20869.249730,1332.370696,-11843.295072,536.266849
20869.250063,0.000000,-9844.739029,-229.828649
20869.250397,740.205942,-9178.553681,1608.800546
20869.250730,0.000000,-8734.430116,919.314598
20869.251063,2886.803174,-10066.800811,2374.896044
20869.251396,1184.329507,-7328.038826,2451.505594
20869.251730,5477.523971,-9474.636058,4826.401637
20869.252063,4145.153275,-5403.503377,3677.258390
20869.252396,296.082377,-9548.656652,0.000000
20869.252729,-74.020594,-8882.471304,-3830.477490
20869.253063,-5551.544565,-13619.789333,-4979.620737
20869.253396,-2590.720797,-10658.965565,-3830.477490
20869.253729,-740.205942,-8364.327145,-1072.533697
20869.254062,3182.885551,-8290.306550,536.266849
20869.254396,5921.647536,-7772.162391,6665.030833
20869.254729,4071.132681,-11251.130318,2987.772442
20869.255062,2368.659014,-7772.162391,3064.381992
20869.255395,1332.370696,-11843.295072,1685.410096
20869.255729,-2072.576638,-10140.821405,-919.314598
20869.256062,518.144159,-7994.224174,-1685.410096
20869.256395,1184.329507,-10510.924376,229.828649
20869.256729,1628.453072,-8438.347739,1378.971896
20869.257062,-2072.576638,-8364.327145,0.000000
20869.257395,-444.123565,-11251.130318,-76.609550
20869.257728,-6735.874072,-9844.739029,-2451.505594
20869.258062,-8290.306550,-8364.327145,-1838.629195
20869.258395,-592.164754,-8290.306550,2528.115143
20869.258728,1332.370696,-6291.750507,4290.134789
20869.259061,6587.832884,-4441.235652,4903.011187
20869.259395,3775.050304,-9252.574275,5056.230287
20869.259728,2812.782580,-8956.491898,1455.581446
20869.260061,-2072.576638,-10732.986159,-3064.381992
20869.260394,-3627.009116,-13619.789333,-5515.887586
20869.260728,-3330.926739,-11029.068536,-4749.792088
20869.261061,-4293.194464,-10288.862594,-3524.039291
20869.261394,2294.638420,-9474.636058,-76.609550
20869.261727,-370.102971,-7476.080014,1225.752797
20869.262061,2664.741391,-7698.141797,6052.154434
20869.262394,2294.638420,-8142.265362,2374.896044
20869.262727,-2072.576638,-7179.997637,2145.067394
20869.263060,296.082377,-7772.162391,3524.039291
20869.263394,2590.720797,-7031.956449,2757.943793
20869.263727,5181.441594,-6809.894666,3294.210641
20869.264060,2590.720797,-10658.965565,995.924147
20869.264394,-1776.494261,-10658.965565,-3907.087040
20869.264727,-4811.338623,-10732.986159,-8580.269578
20869.265060,-3627.009116,-15396.283594,-4979.620737
20869.265393,-1258.350101,-13619.789333,-2528.115143
20869.265727,-2590.720797,-7772.162391,-1838.629195
20869.266060,2294.638420,-8882.471304,3294.210641
20869.266393,3256.906145,-6291.750507,7201.297681
20869.266726,6217.729913,-5551.544565,8120.612279
20869.267060,4737.318029,-6439.791695,5592.497135
20869.267393,1184.329507,-7772.162391,2451.505594
20869.267726,-814.226536,-7920.203579,0.000000
20869.268059,3478.967927,-11251.130318,-1915.238745
20869.268393,1184.329507,-9548.656652,-2451.505594
20869.268726,0.000000,-10732.986159,-3064.381992
20869.269059,-2072.576638,-12509.480420,-4903.011187
20869.269392,-2368.659014,-13027.624579,-3294.210641
20869.269726,-2738.761985,-10362.883188,-1455.581446
20869.270059,-2812.782580,-8882.471304,919.314598
20869.270392,3478.967927,-5921.647536,3907.087040
20869.270725,2664.741391,-4219.173869,7507.735880
20869.271059,5847.626942,-6513.812290,6052.154434
20869.271392,2368.659014,-4811.338623,3064.381992
20869.271725,2516.700203,-9474.636058,2987.772442
20869.272059,1406.391290,-11547.212695,-1378.971896
20869.272392,-3627.009116,-13027.624579,-5132.839837
20869.272725,-3849.070898,-12065.356855,-6128.763984
20869.273058,-148.041188,-12287.418637,-2681.334243
20869.273392,2220.617826,-9622.677246,383.047749
20869.273725,3256.906145,-11843.295072,2987.772442
20869.274058,74.020594,-7772.162391,0.000000
20869.274391,-2072.576638,-7772.162391,3677.258390
20869.274725,1554.432478,-8882.471304,3907.087040
20869.275058,1406.391290,-6143.709319,4290.134789
20869.275391,962.267725,-5995.668130,2757.943793
20869.275724,666.185348,-7328.038826,2145.067394
20869.276058,296.082377,-7179.997637,459.657299
20869.276391,-1998.556043,-9918.759623,-2374.896044
20869.276724,-2738.761985,-10658.965565,-3907.087040
20869.277057,-5477.523971,-11917.315666,-4443.353888
20869.277391,-5181.441594,-11029.068536,-4673.182538
20869.277724,-3552.988522,-10436.903782,-2451.505594
20869.278057,1406.391290,-8142.265362,1455.581446
20869.278390,3552.988522,-9030.512492,7277.907231
20869.278724,4663.297435,-8882.471304,3907.087040
20869.279057,592.164754,-8364.327145,3983.696590
20869.279390,592.164754,-9548.656652,1991.848295
20869.279724,1702.473667,-7846.182985,-842.705048
20869.280057,148.041188,-9622.677246,536.266849
20869.280390,1406.391290,-9178.553681,-689.485948
20869.280723,518.144159,-9474.636058,-689.485948
20869.281057,-1480.411884,-9548.656652,-2451.505594
20869.281390,1406.391290,-11547.212695,-689.485948
20869.281723,-2442.679609,-13619.789333,-2528.115143
20869.282056,-3330.926739,-7476.080014,-3677.258390
20869.282390,-74.020594,-11843.295072,2068.457845
20869.282723,3108.864956,-5403.503377,4903.011187
20869.283056,5403.503377,-6217.729913,4673.182538
20869.283389,4219.173869,-8586.388927,4443.353888
20869.283723,3849.070898,-7624.121203,2374.896044
20869.284056,1332.370696,-10732.986159,1378.971896
20869.284389,3478.967927,-13027.624579,-2528.115143
20869.284722,-4737.318029,-10732.986159,-3677.258390
20869.285056,-3552.988522,-10732.986159,-1455.581446
20869.285389,962.267725,-9474.636058,-2221.676944
20869.285722,1184.329507,-9548.656652,1762.019645
20869.286055,1702.473667,-8216.285956,2068.457845
20869.286389,2590.720797,-7105.977043,2987.772442
20869.286722,-1036.288319,-9030.512492,3064.381992
20869.287055,-370.102971,-7698.141797,1762.019645
20869.287389,518.144159,-7698.141797,229.828649
20869.287722,1480.411884,-5995.668130,3677.258390
20869.288055,4663.297435,-9326.594869,4213.525239
20869.288388,2294.638420,-7402.059420,-2145.067394
20869.288722,-1184.329507,-11029.068536,-1915.238745
20869.289055,-4737.318029,-12509.480420,-4519.963438
20869.289388,-2146.597232,-11695.253884,-4596.572988
20869.289721,-3330.926739,-11103.089130,-2451.505594
20869.290055,-74.020594,-9474.636058,-76.609550
20869.290388,1924.535449,-8142.265362,3677.258390
20869.290721,3330.926739,-6809.894666,5592.497135
20869.291054,4663.297435,-6365.771101,5439.278036
20869.291388,-1776.494261,-7772.162391,3064.381992
20869.291721,0.000000,-7179.997637,2374.896044
20869.292054,-666.185348,-9474.636058,-995.924147
20869.292387,0.000000,-7179.997637,-3677.258390
20869.292721,-148.041188,-10658.965565,-229.828649
20869.293054,-3330.926739,-8956.491898,-4596.572988
20869.293387,-2072.576638,-10584.944971,-3140.991542
20869.293720,-4515.256246,-11177.109724,-3830.477490
20869.294054,-2368.659014,-10362.883188,-3064.381992
20869.294387,-1776.494261,-11251.130318,2604.724693
20869.294720,2294.638420,-5699.585753,4290.134789
20869.295053,7031.956449,-7105.977043,4673.182538
20869.295387,3849.070898,-5699.585753,7354.516781
20869.295720,5329.482782,-6957.935855,6971.469032
20869.296053,1628.453072,-9178.553681,1915.238745
20869.296387,-74.020594,-10362.883188,-2068.457845
20869.296720,-4071.132681,-11695.253884,-4749.792088
20869.297053,-1998.556043,-9844.739029,-4673.182538
20869.297386,370.102971,-10658.965565,-2528.115143
20869.297720,0.000000,-9548.656652,306.438199
20869.298053,222.061783,-8290.306550,-1915.238745
20869.298386,-1776.494261,-8956.491898,1225.752797
20869.298719,2294.638420,-8882.471304,4826.401637
20869.299053,1702.473667,-7994.224174,2374.896044
20869.299386,3404.947333,-8290.306550,4519.963438
20869.299719,3701.029710,-6365.771101,4136.915689
20869.300052,3627.009116,-7105.977043,3600.648841
20869.300386,2220.617826,-8290.306550,1149.143247
20869.300719,-74.020594,-11251.130318,-1915.238745
20869.301052,-6513.812290,-10140.821405,-4903.011187
20869.301385,-7105.977043,-11029.068536,-6128.763984
20869.301719,-1554.432478,-13027.624579,-4366.744339
20869.302052,0.000000,-8364.327145,0.000000
20869.302385,5255.462188,-8142.265362,3983.696590
20869.302718,5403.503377,-8364.327145,6588.421283
20869.303052,4515.256246,-8364.327145,4749.792088
20869.303385,2146.597232,-9918.759623,2757.943793
20869.303718,814.226536,-7328.038826,0.000000
20869.304052,-2368.659014,-8956.491898,2145.067394
20869.304385,-74.020594,-10362.883188,-383.047749
20869.304718,-1258.350101,-7179.997637,-3064.381992
20869.305051,-4441.235652,-8364.327145,-2451.505594
20869.305385,-1850.514855,-8068.244768,-2757.943793
20869.305718,-4515.256246,-10658.965565,-2221.676944
20869.306051,-4737.318029,-9696.697840,-3294.210641
20869.306384,-2812.782580,-8808.450710,842.705048
20869.306718,3478.967927,-6513.812290,1685.410096
20869.307051,5847.626942,-8290.306550,6741.640382
20869.307384,4811.338623,-7328.038826,4673.182538
20869.307717,2220.617826,-9400.615463,2068.457845
20869.308051,-592.164754,-10436.903782,612.876398
20869.308384,-74.020594,-11547.212695,-4060.306139
20869.308717,-4737.318029,-9548.656652,-4903.011187
20869.309050,-1184.329507,-13027.624579,-689.485948
20869.309384,-74.020594,-9474.636058,-766.095498
20869.309717,-3256.906145,-7179.997637,1225.752797
20869.310050,1998.556043,-7031.956449,1149.143247
20869.310383,2220.617826,-6735.874072,3983.696590
20869.310717,1998.556043,-7550.100608,2987.772442
20869.311050,1702.473667,-8290.306550,1455.581446
20869.311383,1702.473667,-9474.636058,536.266849
20869.311717,2368.659014,-8364.327145,3064.381992
20869.312050,5847.626942,-11843.295072,2374.896044
20869.312383,1702.473667,-9770.718434,-2834.553343
20869.312716,-2368.659014,-12065.356855,-3447.429741
20869.313050,-4515.256246,-12139.377449,-5209.449386
20869.313383,-1258.350101,-10362.883188,-2681.334243
20869.313716,-2220.617826,-9548.656652,536.266849
20869.314049,888.247130,-6217.729913,1302.362347
20869.314383,4071.132681,-6365.771101,2374.896044
20869.314716,4737.318029,-5403.503377,7737.564530
20869.315049,4663.297435,-7105.977043,4826.401637
20869.315382,2294.638420,-7698.141797,0.000000
20869.315716,0.000000,-10658.965565,-383.047749
20869.316049,-3404.947333,-12065.356855,-1762.019645
20869.316382,-1110.308913,-11695.253884,-2221.676944
20869.316715,-1554.432478,-10288.862594,-2374.896044
20869.317049,-2368.659014,-11621.233289,-1762.019645
20869.317382,-1850.514855,-7179.997637,-3064.381992
20869.317715,-1776.494261,-10732.986159,2068.457845
20869.318048,-74.020594,-8882.471304,-76.609550
20869.318382,296.082377,-6587.832884,1225.752797
20869.318715,1480.411884,-6291.750507,2451.505594
20869.319048,3330.926739,-7846.182985,3677.258390
20869.319382,3997.112087,-7772.162391,3524.039291
20869.319715,4515.256246,-8808.450710,2834.553343
20869.320048,4071.132681,-10658.965565,2374.896044
20869.320381,-2368.659014,-11917.315666,-306.438199
20869.320715,-3034.844362,-11251.130318,-4979.620737
20869.321048,-1850.514855,-11843.295072,-4366.744339
20869.321381,-1776.494261,-9548.656652,0.000000
20869.321714,0.000000,-7772.162391,0.000000
20869.322048,-74.020594,-7402.059420,-76.609550
20869.322381,-148.041188,-7402.059420,842.705048
20869.322714,222.061783,-7476.080014,2145.067394
20869.323047,2294.638420,-7698.141797,3294.210641
20869.323381,740.205942,-8808.450710,2987.772442
20869.323714,2294.638420,-8956.491898,2221.676944
20869.324047,2368.659014,-9104.533087,2451.505594
20869.324380,2886.803174,-10066.800811,1302.362347
20869.324714,2886.803174,-11251.130318,-76.609550
20869.325047,-4145.153275,-10732.986159,-3677.258390
20869.325380,-1406.391290,-13027.624579,-3753.867940
20869.325713,-4959.379811,-10140.821405,-3064.381992
20869.326047,-1184.329507,-6587.832884,76.609550
20869.326380,4663.297435,-7105.977043,4213.525239
20869.326713,4589.276840,-5773.606348,4749.792088
20869.327047,3330.926739,-7105.977043,3217.601092
20869.327380,1406.391290,-8734.430116,2068.457845
20869.327713,518.144159,-8290.306550,-842.705048
20869.328046,-2368.659014,-11325.150913,1149.143247
20869.328380,-666.185348,-10658.965565,-3753.867940
20869.328713,-4145.153275,-10732.986159,-1532.190996
20869.329046,0.000000,-11251.130318,612.876398
20869.329379,814.226536,-7476.080014,-1991.848295
20869.329713,-592.164754,-8438.347739,-76.609550
20869.330046,-2146.597232,-8734.430116,-1608.800546
20869.330379,-1554.432478,-8586.388927,-919.314598
20869.330712,592.164754,-8364.327145,1225.752797
20869.331046,7254.018232,-10658.965565,7890.783629
20869.331379,5551.544565,-5995.668130,5515.887586
20869.331712,2368.659014,-7179.997637,4903.011187
20869.332045,3478.967927,-11843.295072,-76.609550
20869.332379,-2220.617826,-10732.986159,-3677.258390
20869.332712,-3034.844362,-10807.006753,-5515.887586
20869.333045,-3552.988522,-12065.356855,-3600.648841
20869.333378,-1554.432478,-10362.883188,-1915.238745
20869.333712,-518.144159,-8808.450710,2451.505594
20869.334045,2294.638420,-9474.636058,2374.896044
20869.334378,1406.391290,-4219.173869,2451.505594
20869.334711,888.247130,-7772.162391,4903.011187
20869.335044,1702.473667,-9474.636058,3600.648841
20869.335378,-1776.494261,-7920.203579,2451.505594
20869.335711,3923.091493,-8438.347739,2374.896044
20869.336044,3627.009116,-8660.409521,3064.381992
20869.336377,2886.803174,-9474.636058,766.095498
20869.336710,-814.226536,-12287.418637,-4290.134789
20869.337044,-4811.338623,-12657.521608,-7124.688131
20869.337377,-2738.761985,-11325.150913,-5056.230287
20869.337710,-4071.132681,-11547.212695,-2528.115143
20869.338043,-962.267725,-7698.141797,-1302.362347
20869.338376,0.000000,-7179.997637,4903.011187
20869.338710,3997.112087,-6809.894666,8197.221829
20869.339043,4663.297435,-4145.153275,5439.278036
20869.339376,592.164754,-6587.832884,4903.011187
20869.339709,2886.803174,-7994.224174,1149.143247
20869.340043,-3108.864956,-10436.903782,-1762.019645
20869.340376,148.041188,-9548.656652,-2681.334243
20869.340709,-1480.411884,-11917.315666,-2451.505594
20869.341042,0.000000,-9548.656652,-3983.696590
20869.341375,-370.102971,-11695.253884,-4903.011187
20869.341709,-1258.350101,-13619.789333,-4979.620737
20869.342042,-2664.741391,-8956.491898,-3524.039291
20869.342375,-3256.906145,-7772.162391,1225.752797
20869.342708,3256.906145,-5551.544565,4903.011187
20869.343041,4219.173869,-7031.956449,7277.907231
20869.343375,4811.338623,-8142.265362,7048.078582
20869.343708,2368.659014,-6365.771101,4596.572988
20869.344041,5255.462188,-8290.306550,3600.648841
20869.344374,814.226536,-8364.327145,0.000000
20869.344707,-2442.679609,-11843.295072,-4979.620737
20869.345041,-4737.318029,-10140.821405,-5515.887586
20869.345374,-1258.350101,-11843.295072,-3064.381992
20869.345707,2590.720797,-10955.047942,-153.219100
20869.346040,74.020594,-9844.739029,1149.143247
20869.346373,592.164754,-9548.656652,612.876398
20869.346707,-666.185348,-9474.636058,0.000000
20869.347040,-74.020594,-8586.388927,2145.067394
20869.347373,592.164754,-6291.750507,5362.668486
20869.347706,3478.967927,-4811.338623,3677.258390
20869.348040,0.000000,-7179.997637,4903.011187
20869.348373,2886.803174,-9474.636058,-76.609550
20869.348706,370.102971,-7698.141797,-2221.676944
20869.349039,-2072.576638,-11547.212695,-3753.867940
20869.349372,-2072.576638,-10658.965565,-3217.601092
20869.349706,-4071.132681,-11621.233289,-2911.162892
20869.350039,-814.226536,-11547.212695,-766.095498
20869.350372,3997.112087,-11843.295072,4213.525239
20869.350705,2368.659014,-7179.997637,5515.887586
20869.351038,4663.297435,-7105.977043,4213.525239
20869.351372,-74.020594,-7179.997637,0.000000
20869.351705,0.000000,-8956.491898,1455.581446
20869.352038,-666.185348,-9178.553681,-689.485948
20869.352371,-1110.308913,-8512.368333,-842.705048
20869.352704,-1702.473667,-9326.594869,-2528.115143
20869.353038,-1406.391290,-9400.615463,-1762.019645
20869.353371,1110.308913,-10362.883188,-1302.362347
20869.353704,-1924.535449,-10066.800811,-1302.362347
20869.354037,-2590.720797,-10658.965565,-2068.457845
20869.354370,-2664.741391,-10955.047942,383.047749
20869.354704,0.000000,-7772.162391,2451.505594
20869.355037,6439.791695,-8290.306550,6358.592633
20869.355370,5551.544565,-9474.636058,6052.154434
20869.355703,2960.823768,-5995.668130,5515.887586
20869.356037,2886.803174,-8586.388927,842.705048
20869.356370,-74.020594,-8808.450710,-4749.792088
20869.356703,-2442.679609,-10510.924376,-4366.744339
20869.357036,-4145.153275,-11843.295072,-4979.620737
20869.357369,-1406.391290,-10066.800811,-2374.896044
20869.357703,-1776.494261,-10584.944971,0.000000
20869.358036,2368.659014,-10362.883188,2987.772442
20869.358369,1998.556043,-5551.544565,1838.629195
20869.358702,1406.391290,-4811.338623,1838.629195
20869.359035,2368.659014,-6809.894666,4213.525239
20869.359369,-1628.453072,-8364.327145,1838.629195
20869.359702,3330.926739,-7698.141797,1762.019645
20869.360035,3404.947333,-10436.903782,3217.601092
20869.360368,5107.421000,-7698.141797,689.485948
20869.360701,2294.638420,-12139.377449,-689.485948
20869.361035,740.205942,-14211.954086,-4979.620737
20869.361368,-4441.235652,-10732.986159,-3677.258390
20869.361701,-2442.679609,-11843.295072,-2757.943793
20869.362034,-148.041188,-11843.295072,-383.047749
20869.362367,2294.638420,-10732.986159,4826.401637
20869.362701,3256.906145,-6143.709319,6128.763984
20869.363034,3108.864956,-4589.276840,5439.278036
20869.363367,3256.906145,-7772.162391,3753.867940
20869.363700,592.164754,-5403.503377,2068.457845
20869.364034,-1258.350101,-8882.471304,-1455.581446
20869.364367,-4145.153275,-10732.986159,-459.657299
20869.364700,-74.020594,-11843.295072,-3600.648841
20869.365033,-2368.659014,-11917.315666,-4596.572988
20869.365366,-666.185348,-9474.636058,-689.485948
20869.365700,-2960.823768,-10807.006753,-1072.533697
20869.366033,-2072.576638,-7920.203579,-1532.190996
20869.366366,-1036.288319,-8808.450710,919.314598
20869.366699,740.205942,-7476.080014,4290.134789
20869.367032,296.082377,-5107.421000,4903.011187
20869.367366,3330.926739,-9474.636058,7277.907231
20869.367699,4663.297435,-6809.894666,2374.896044
20869.368032,-1924.535449,-7328.038826,1225.752797
20869.368365,592.164754,-7105.977043,-1302.362347
20869.368698,-4737.318029,-12139.377449,-3600.648841
20869.369032,-3701.029710,-11991.336260,-3983.696590
20869.369365,-2072.576638,-9992.780217,-1302.362347
20869.369698,-592.164754,-12361.439231,306.438199
20869.370031,2516.700203,-4811.338623,1532.190996
20869.370364,148.041188,-10955.047942,2757.943793
20869.370698,3478.967927,-4737.318029,1685.410096
20869.371031,-888.247130,-8734.430116,1072.533697
20869.371364,0.000000,-9548.656652,0.000000
20869.371697,1998.556043,-6217.729913,0.000000
20869.372031,0.000000,-10436.903782,4443.353888
20869.372364,3478.967927,-7920.203579,0.000000
20869.372697,-1554.432478,-10510.924376,-76.609550
20869.373030,0.000000,-9326.594869,-842.705048
20869.373363,-3256.906145,-9252.574275,-1762.019645
20869.373697,-2664.741391,-9548.656652,-2374.896044
20869.374030,-2368.659014,-8586.388927,-459.657299
20869.374363,2294.638420,-10658.965565,3600.648841
20869.374696,2738.761985,-4811.338623,4903.011187
20869.375029,2368.659014,-7179.997637,6128.763984
20869.375363,3478.967927,-7402.059420,0.000000
20869.375696,0.000000,-9548.656652,0.000000
20869.376029,-74.020594,-10658.965565,-2528.115143
20869.376362,-2220.617826,-11621.233289,-1762.019645
20869.376695,-2368.659014,-10584.944971,-2451.505594
20869.377029,-74.020594,-10658.965565,-689.485948
20869.377362,-74.020594,-7994.224174,536.266849
20869.377695,0.000000,-7179.997637,2451.505594
20869.378028,-74.020594,-8290.306550,-76.609550
20869.378361,-74.020594,-7550.100608,-1072.533697
20869.378695,0.000000,-8512.368333,4903.011187
20869.379028,4071.132681,-6587.832884,1685.410096
20869.379361,5847.626942,-9400.615463,4519.963438
20869.379694,5033.400406,-9622.677246,2374.896044
20869.380028,2294.638420,-11177.109724,383.047749
20869.380361,0.000000,-9548.656652,-3064.381992
20869.380694,-3552.988522,-11917.315666,-383.047749
20869.381027,-2442.679609,-11843.295072,-3753.867940
20869.381360,-4441.235652,-9696.697840,0.000000
20869.381694,-592.164754,-10288.862594,3600.648841
20869.382027,-74.020594,-4811.338623,1225.752797
20869.382360,370.102971,-5477.523971,4136.915689
20869.382693,296.082377,-4219.173869,2911.162892
20869.383026,-1110.308913,-6069.688724,0.000000
20869.383360,-3404.947333,-7772.162391,-1762.019645
20869.383693,814.226536,-9918.759623,383.047749
20869.384026,2294.638420,-11103.089130,1378.971896
20869.384359,3552.988522,-10584.944971,1225.752797
20869.384692,2294.638420,-12731.542202,-76.609550
20869.385026,-666.185348,-10658.965565,-4903.011187
20869.385359,-2368.659014,-11029.068536,-2374.896044
20869.385692,-74.020594,-13619.789333,-689.485948
20869.386025,-2146.597232,-9770.718434,-842.705048
20869.386358,1184.329507,-7920.203579,2451.505594
20869.386692,3775.050304,-5921.647536,5132.839837
20869.387025,4071.132681,-6439.791695,6052.154434
20869.387358,3849.070898,-4885.359217,3983.696590
20869.387691,1332.370696,-6661.853478,229.828649
20869.388025,592.164754,-9474.636058,-2528.115143
20869.388358,-2368.659014,-10140.821405,-1378.971896
20869.388691,-74.020594,-12879.583391,-3753.867940
20869.389024,1110.308913,-11325.150913,-3677.258390
20869.389357,1110.308913,-12435.459826,-1302.362347
20869.389691,222.061783,-10288.862594,-3217.601092
20869.390024,-962.267725,-10955.047942,-2374.896044
20869.390357,1998.556043,-8438.347739,1378.971896
20869.390690,1184.329507,-7179.997637,4903.011187
20869.391023,8216.285956,-5625.565159,6358.592633
20869.391357,8216.285956,-10436.903782,10955.165621
20869.391690,7031.956449,-5921.647536,4979.620737
20869.392023,3552.988522,-6365.771101,2451.505594
20869.392356,592.164754,-9548.656652,-1838.629195
20869.392689,-2368.659014,-11177.109724,-4596.572988
20869.393023,-6735.874072,-12509.480420,-7277.907231
20869.393356,-4737.318029,-12213.398043,-6052.154434
20869.393689,-666.185348,-13027.624579,-1302.362347
20869.394022,-740.205942,-8364.327145,0.000000
20869.394355,-74.020594,-8290.306550,2374.896044
20869.394689,1702.473667,-5921.647536,2757.943793
20869.395022,592.164754,-6217.729913,5898.935335
20869.395355,2590.720797,-8142.265362,4826.401637
20869.395688,2516.700203,-7402.059420,4673.182538
20869.396022,888.247130,-8216.285956,2374.896044
20869.396355,962.267725,-9770.718434,-229.828649
20869.396688,-2442.679609,-10732.986159,-3064.381992
20869.397021,-4145.153275,-11325.150913,-2987.772442
20869.397354,-3034.844362,-10510.924376,-7354.516781
20869.397688,-5625.565159,-10140.821405,-7354.516781
20869.398021,-2220.617826,-15396.283594,-76.609550
20869.398354,1110.308913,-9178.553681,3447.429741
20869.398687,4293.194464,-8142.265362,8733.488677
20869.399020,4367.215058,-6365.771101,8273.831378
20869.399354,2886.803174,-5921.647536,4443.353888
20869.399687,740.205942,-7624.121203,2221.676944
20869.400020,-1480.411884,-9104.533087,919.314598
20869.400353,-962.267725,-8364.327145,-2451.505594
20869.400686,-2812.782580,-12139.377449,-2987.772442
20869.401020,-2812.782580,-10881.027347,-3830.477490
20869.401353,-962.267725,-10362.883188,-2528.115143
20869.401686,-1480.411884,-11325.150913,-766.095498
20869.402019,-148.041188,-10288.862594,1149.143247
20869.402352,-74.020594,-8882.471304,-1149.143247
20869.402686,592.164754,-7179.997637,3064.381992
20869.403019,5255.462188,-8290.306550,4826.401637
20869.403352,5625.565159,-8660.409521,7507.735880
20869.403685,6809.894666,-5995.668130,5898.935335
20869.404019,3108.864956,-7772.162391,2451.505594
20869.404352,1184.329507,-7476.080014,-1838.629195
20869.404685,-3552.988522,-10881.027347,-3677.258390
20869.405018,-1850.514855,-10584.944971,-6818.249932
20869.405351,-2442.679609,-12287.418637,-5822.325785
20869.405685,-2368.659014,-11325.150913,-612.876398
20869.406018,518.144159,-8734.430116,0.000000
20869.406351,2220.617826,-8290.306550,2987.772442
20869.406684,4737.318029,-5773.606348,5286.058936
20869.407017,1702.473667,-6957.935855,4443.353888
20869.407351,2960.823768,-5995.668130,3677.258390
20869.407684,0.000000,-11029.068536,6665.030833
20869.408017,3182.885551,-6587.832884,0.000000
20869.408350,2960.823768,-10140.821405,612.876398
20869.408683,0.000000,-12287.418637,-1302.362347
20869.409017,-2368.659014,-9696.697840,-4596.572988
20869.409350,-3849.070898,-12435.459826,-4213.525239
20869.409683,-2368.659014,-10510.924376,-3907.087040
20869.410016,-3330.926739,-10955.047942,-2528.115143
20869.410349,-74.020594,-11251.130318,2374.896044
20869.410683,2294.638420,-9474.636058,6052.154434
20869.411016,2886.803174,-4811.338623,3677.258390
20869.411349,1184.329507,-6587.832884,5439.278036
20869.411682,3478.967927,-8586.388927,4213.525239
20869.412016,-1554.432478,-9400.615463,1149.143247
20869.412349,-4367.215058,-9992.780217,-1685.410096
20869.412682,-3849.070898,-9696.697840,-2145.067394
20869.413015,-2220.617826,-10584.944971,-1532.190996
20869.413348,0.000000,-7476.080014,0.000000
20869.413682,-666.185348,-8216.285956,-3447.429741
20869.414015,-2960.823768,-9844.739029,-3677.258390
20869.414348,-666.185348,-11251.130318,-1302.362347
20869.414681,-2368.659014,-7772.162391,612.876398
20869.415014,2146.597232,-8808.450710,5745.716235
20869.415348,2812.782580,-8808.450710,4826.401637
20869.415681,4441.235652,-8216.285956,4903.011187
20869.416014,4441.235652,-8290.306550,4979.620737
20869.416347,4441.235652,-4811.338623,1838.629195
20869.416680,518.144159,-9326.594869,-1225.752797
20869.417014,-592.164754,-9104.533087,-3753.867940
20869.417347,-3256.906145,-11029.068536,-3600.648841
20869.417680,-148.041188,-10584.944971,-2604.724693
20869.418013,2368.659014,-8290.306550,-383.047749
20869.418346,4071.132681,-13027.624579,-76.609550
20869.418680,5033.400406,-4811.338623,612.876398
20869.419013,2516.700203,-9622.677246,306.438199
20869.419346,4737.318029,-11843.295072,2145.067394
20869.419679,4145.153275,-8364.327145,2451.505594
20869.420013,4441.235652,-11325.150913,3140.991542
20869.420346,5625.565159,-10436.903782,3217.601092
20869.420679,1332.370696,-9474.636058,1149.143247
20869.421012,0.000000,-9548.656652,-2451.505594
20869.421345,-74.020594,-7698.141797,-3677.258390
20869.421679,-2960.823768,-8364.327145,-3370.820191
20869.422012,-2442.679609,-11843.295072,-1302.362347
20869.422345,-74.020594,-8882.471304,-383.047749
20869.422678,2368.659014,-9770.718434,4826.401637
20869.423011,3108.864956,-7031.956449,5056.230287
20869.423345,1554.432478,-7846.182985,2604.724693
20869.423678,0.000000,-9548.656652,1072.533697
20869.424011,-2442.679609,-11251.130318,-76.609550
20869.424344,-3923.091493,-7772.162391,-4290.134789
20869.424677,-3997.112087,-11029.068536,-2451.505594
20869.425011,-666.185348,-12435.459826,-76.609550
20869.425344,-4663.297435,-6587.832884,0.000000
20869.425677,-3034.844362,-9326.594869,-76.609550
20869.426010,-3552.988522,-6143.709319,153.219100
20869.426343,-3108.864956,-7920.203579,-76.609550
20869.426677,-1036.288319,-8216.285956,1225.752797
20869.427010,-370.102971,-9474.636058,2374.896044
20869.427343,0.000000,-7179.997637,3677.258390
20869.427676,3034.844362,-10658.965565,4749.792088
20869.428010,2442.679609,-9178.553681,1762.019645
20869.428343,-1480.411884,-8364.327145,-2451.505594
20869.428676,-2442.679609,-11843.295072,-2834.553343
20869.429009,-5329.482782,-10288.862594,-4519.963438
20869.429342,-4737.318029,-9992.780217,-2757.943793
20869.429676,-2072.576638,-8660.409521,536.266849
20869.430009,1110.308913,-8882.471304,2374.896044
20869.430342,2960.823768,-6143.709319,4826.401637
20869.430675,4219.173869,-4959.379811,5132.839837
20869.431008,3108.864956,-6365.771101,1915.238745
20869.431342,0.000000,-8660.409521,612.876398
20869.431675,2886.803174,-11843.295072,-76.609550
20869.432008,1480.411884,-10140.821405,0.000000
20869.432341,6809.894666,-12435.459826,3600.648841
20869.432674,1110.308913,-10510.924376,-3600.648841
20869.433008,-2368.659014,-10732.986159,-5822.325785
20869.433341,-74.020594,-9474.636058,-4213.525239
20869.433674,296.082377,-10881.027347,-536.266849
20869.434007,370.102971,-8438.347739,229.828649
20869.434340,3182.885551,-8586.388927,4213.525239
20869.434673,2738.761985,-9474.636058,6052.154434
20869.435006,3552.988522,-3627.009116,7354.516781
20869.435339,7031.956449,-6217.729913,4213.525239
20869.435672,4663.297435,-6661.853478,0.000000
20869.436005,1702.473667,-10955.047942,-612.876398
20869.436338,-2442.679609,-12953.603985,-4213.525239
20869.436671,-3330.926739,-11917.315666,-7048.078582
20869.437004,-222.061783,-13619.789333,-3140.991542
20869.437337,296.082377,-9992.780217,-1455.581446
20869.437670,1406.391290,-11843.295072,-76.609550
20869.438003,-3552.988522,-7476.080014,1225.752797
20869.438336,444.123565,-10066.800811,2374.896044
20869.438669,666.185348,-4737.318029,3294.210641
20869.439003,666.185348,-5033.400406,4903.011187
20869.439336,2220.617826,-7476.080014,4903.011187
20869.439669,2960.823768,-7328.038826,4903.011187
20869.440002,2294.638420,-8216.285956,1915.238745
20869.440335,0.000000,-9548.656652,0.000000
20869.440668,-3034.844362,-10658.965565,-6818.249932
20869.441001,-4959.379811,-14804.118840,-3753.867940
20869.441334,-4811.338623,-11843.295072,-4979.620737
20869.441667,-5625.565159,-11325.150913,-2145.067394
20869.442000,-1184.329507,-9104.533087,2451.505594
20869.442333,1998.556043,-5699.585753,4903.011187
20869.442666,2516.700203,-5329.482782,5592.497135
20869.442999,2072.576638,-6587.832884,4673.182538
20869.443332,1110.308913,-7698.141797,1762.019645
20869.443665,-2368.659014,-6587.832884,0.000000
20869.443998,-74.020594,-10658.965565,-1302.362347
20869.444331,0.000000,-9844.739029,0.000000
20869.444665,-2368.659014,-12657.521608,-76.609550
20869.444998,592.164754,-11325.150913,-2451.505594
20869.445331,-2368.659014,-10955.047942,-766.095498
20869.445664,-2294.638420,-9252.574275,-2374.896044
20869.445997,-3256.906145,-9252.574275,-766.095498
20869.446330,-74.020594,-8882.471304,2987.772442
20869.446663,3552.988522,-7179.997637,6128.763984
20869.446996,5847.626942,-4441.235652,6358.592633
20869.447329,4885.359217,-7772.162391,3600.648841
20869.447662,4367.215058,-6513.812290,459.657299
20869.447995,2738.761985,-13915.871710,-76.609550
20869.448328,592.164754,-8956.491898,-2911.162892
20869.448661,-1184.329507,-15470.304188,-1302.362347
20869.448994,-666.185348,-11769.274478,-5669.106685
20869.449327,740.205942,-11325.150913,383.047749
20869.449660,1184.329507,-10658.965565,2681.334243
20869.449993,2664.741391,-7179.997637,2221.676944
20869.450327,-1036.288319,-8068.244768,1915.238745
20869.450660,3108.864956,-6661.853478,2911.162892
20869.450993,1110.308913,-7698.141797,3600.648841
20869.451326,2960.823768,-6291.750507,4903.011187
20869.451659,4663.297435,-7994.224174,4213.525239
20869.451992,4663.297435,-5551.544565,0.000000
20869.452325,1776.494261,-10214.842000,-536.266849
20869.452658,-2442.679609,-12435.459826,-6358.592633
20869.452991,-3552.988522,-11399.171507,-7048.078582
20869.453324,-6143.709319,-13397.727550,-6281.983084
20869.453657,-814.226536,-11843.295072,-2987.772442
20869.453990,-1628.453072,-10732.986159,0.000000
20869.454323,0.000000,-6587.832884,6741.640382
20869.454656,4663.297435,-4737.318029,5745.716235
20869.454989,222.061783,-3923.091493,3830.477490
20869.455322,0.000000,-4959.379811,3753.867940
20869.455655,-74.020594,-5847.626942,0.000000
20869.455989,-74.020594,-9178.553681,1685.410096
20869.456322,1406.391290,-9918.759623,1149.143247
20869.456655,-888.247130,-10732.986159,-995.924147
20869.456988,-1332.370696,-10288.862594,-3677.258390
20869.457321,-3330.926739,-13027.624579,-4979.620737
20869.457654,-4811.338623,-11251.130318,-7737.564530
20869.457987,-5921.647536,-10732.986159,-3677.258390
20869.458320,-2368.659014,-10807.006753,2374.896044
20869.458653,2294.638420,-6291.750507,3677.258390
20869.458986,4663.297435,-6957.935855,8810.098227
20869.459319,5329.482782,-4219.173869,8580.269578
20869.459652,3923.091493,-5181.441594,5975.544884
20869.459985,2368.659014,-7031.956449,2451.505594
20869.460318,-518.144159,-10510.924376,-2068.457845
20869.460651,-4737.318029,-11621.233289,-4749.792088
20869.460984,-2072.576638,-11695.253884,-4290.134789
20869.461317,-962.267725,-11843.295072,-4060.306139
20869.461651,-1776.494261,-8364.327145,-4136.915689
20869.461984,-3552.988522,-10140.821405,-2145.067394
20869.462317,-74.020594,-11251.130318,-1302.362347
20869.462650,1110.308913,-7698.141797,76.609550
20869.462983,1702.473667,-8290.306550,4213.525239
20869.463316,4959.379811,-7105.977043,5745.716235
20869.463649,3923.091493,-8660.409521,7048.078582
20869.463982,3552.988522,-6143.709319,4596.572988
20869.464315,3108.864956,-6735.874072,1838.629195
20869.464648,-74.020594,-11547.212695,-1915.238745
20869.464981,-2368.659014,-10732.986159,-2528.115143
20869.465314,-5107.421000,-11621.233289,-6971.469032
20869.465647,-1776.494261,-9548.656652,-3600.648841
20869.465980,592.164754,-9844.739029,766.095498
20869.466313,4071.132681,-9252.574275,1225.752797
20869.466646,4441.235652,-7772.162391,3830.477490
20869.466979,1702.473667,-9474.636058,1915.238745
20869.467313,1924.535449,-7624.121203,1991.848295
20869.467646,-814.226536,-8734.430116,383.047749
20869.467979,3478.967927,-8882.471304,2374.896044
20869.468312,2886.803174,-8068.244768,0.000000
20869.468645,2368.659014,-8956.491898,3600.648841
20869.468978,2516.700203,-9030.512492,1762.019645
20869.469311,-2960.823768,-9030.512492,-1838.629195
20869.469644,-2812.782580,-8438.347739,-4443.353888
20869.469977,-6957.935855,-13323.706956,-4979.620737
20869.470310,-3182.885551,-10436.903782,-1455.581446
20869.470643,-1776.494261,-9548.656652,2451.505594
20869.470976,4663.297435,-7698.141797,3907.087040
20869.471309,2960.823768,-5995.668130,4903.011187
20869.471642,3552.988522,-9474.636058,4826.401637
20869.471975,2294.638420,-8290.306550,536.266849
20869.472308,-1480.411884,-11399.171507,-995.924147
20869.472641,-3849.070898,-11325.150913,-4519.963438
20869.472974,-3775.050304,-11029.068536,-3217.601092
20869.473308,-1702.473667,-10732.986159,-536.266849
20869.473641,1406.391290,-9178.553681,1762.019645
20869.473974,-74.020594,-5477.523971,-2451.505594
20869.474307,0.000000,-8956.491898,2834.553343
20869.474640,2516.700203,-8512.368333,4826.401637
20869.474973,1702.473667,-7105.977043,2068.457845
20869.475306,2960.823768,-9400.615463,6052.154434
20869.475639,4367.215058,-7772.162391,4596.572988
20869.475972,4959.379811,-8290.306550,2604.724693
20869.476305,1036.288319,-10436.903782,-383.047749
20869.476638,-1258.350101,-10584.944971,-4979.620737
20869.476971,-3256.906145,-12583.501014,-7048.078582
20869.477304,-2368.659014,-11769.274478,-4366.744339
20869.477637,1406.391290,-9918.759623,-1378.971896
20869.477970,592.164754,-8660.409521,612.876398
20869.478303,6513.812290,-8290.306550,6665.030833
20869.478636,7031.956449,-6365.771101,6971.469032
20869.478970,5847.626942,-4219.173869,4903.011187
20869.479303,3849.070898,-8290.306550,3294.210641
20869.479636,1406.391290,-9474.636058,-689.485948
20869.479969,592.164754,-12287.418637,-229.828649
20869.480302,2072.576638,-11251.130318,1302.362347
20869.480635,1776.494261,-10510.924376,-153.219100
20869.480968,0.000000,-10881.027347,-612.876398
20869.481301,-2738.761985,-11029.068536,-1915.238745
20869.481634,-3627.009116,-9548.656652,-6128.763984
20869.481967,-5181.441594,-7179.997637,-6128.763984
20869.482300,-2072.576638,-10066.800811,1455.581446
20869.482633,0.000000,-6291.750507,2528.115143
20869.482966,3478.967927,-7994.224174,6358.592633
20869.483299,2368.659014,-6661.853478,6511.811733
20869.483632,1702.473667,-6809.894666,3524.039291
20869.483965,-74.020594,-9474.636058,-76.609550
20869.484298,-4441.235652,-9548.656652,-995.924147
20869.484632,-6587.832884,-10436.903782,-7354.516781
20869.484965,-3552.988522,-11103.089130,-1302.362347
20869.485298,-2072.576638,-13397.727550,1455.581446
20869.485631,-74.020594,-8586.388927,2374.896044
20869.485964,-2516.700203,-9770.718434,-76.609550
20869.486297,-74.020594,-7402.059420,612.876398
20869.486630,-814.226536,-8660.409521,2451.505594
20869.486963,-1480.411884,-4811.338623,1838.629195
20869.487296,2294.638420,-9474.636058,2374.896044
20869.487629,1184.329507,-7772.162391,1225.752797
20869.487962,5329.482782,-11547.212695,5439.278036
20869.488295,2294.638420,-7328.038826,0.000000
20869.488628,-740.205942,-8882.471304,-2757.943793
20869.488961,-4293.194464,-10732.986159,-4903.011187
20869.489294,-3108.864956,-11103.089130,-3983.696590
20869.489627,-2738.761985,-11103.089130,-1608.800546
20869.489960,2368.659014,-9252.574275,3064.381992
20869.490294,4663.297435,-4811.338623,3064.381992
20869.490627,6365.771101,-8882.471304,7277.907231
20869.490960,2812.782580,-4811.338623,1149.143247
20869.491293,2368.659014,-9178.553681,2374.896044
20869.491626,2516.700203,-7772.162391,-766.095498
20869.491959,888.247130,-10881.027347,0.000000
20869.492292,2516.700203,-9844.739029,-689.485948
20869.492625,-962.267725,-12879.583391,-1762.019645
20869.492958,-74.020594,-11843.295072,-306.438199
20869.493291,-1258.350101,-8956.491898,-2298.286494
20869.493624,-1776.494261,-8364.327145,-1915.238745
20869.493957,-2368.659014,-8142.265362,-1455.581446
20869.494290,-2146.597232,-9178.553681,995.924147
20869.494623,4441.235652,-7031.956449,6435.202183
20869.494956,5255.462188,-6587.832884,6741.640382
20869.495289,4737.318029,-6587.832884,7048.078582
20869.495622,4663.297435,-8734.430116,153.219100
20869.495956,0.000000,-11325.150913,-2451.505594
20869.496289,-518.144159,-12805.562797,-4366.744339
20869.496622,-5181.441594,-14211.954086,-6435.202183
20869.496955,-3034.844362,-12139.377449,-3983.696590
20869.497288,-4293.194464,-11029.068536,0.000000
20869.497621,-74.020594,-8882.471304,2068.457845
20869.497954,0.000000,-5995.668130,6511.811733
20869.498287,1110.308913,-5181.441594,4826.401637
20869.498620,1702.473667,-814.226536,2451.505594
20869.498953,-2072.576638,-6957.935855,3064.381992
20869.499286,962.267725,-9326.594869,1762.019645
20869.499619,296.082377,-9252.574275,2681.334243
20869.499952,888.247130,-9252.574275,306.438199
20869.500285,814.226536,-11399.171507,-1915.238745
20869.500618,-3849.070898,-10732.986159,-6128.763984
20869.500951,-7105.977043,-11029.068536,-3677.258390
20869.501284,-1850.514855,-10066.800811,-4673.182538
20869.501618,-3627.009116,-10510.924376,-2221.676944
20869.501951,0.000000,-7179.997637,4443.353888
20869.502284,1702.473667,-6291.750507,5515.887586
20869.502617,4441.235652,-4293.194464,7277.907231
20869.502950,4959.379811,-3108.864956,5822.325785
20869.503283,1924.535449,-7476.080014,2987.772442
20869.503616,3997.112087,-8290.306550,1608.800546
20869.503949,-2368.659014,-11621.233289,-689.485948
20869.504282,1702.473667,-8364.327145,-4290.134789
20869.504615,0.000000,-11621.233289,-1532.190996
20869.504948,2294.638420,-13027.624579,-3140.991542
20869.505281,-74.020594,-12657.521608,-3447.429741
20869.505614,-1184.329507,-10881.027347,-3907.087040
20869.505947,1406.391290,-9474.636058,-842.705048
20869.506280,1184.329507,-9548.656652,3983.696590
20869.506613,5033.400406,-4219.173869,4903.011187
20869.506946,6439.791695,-7698.141797,6511.811733
20869.507279,4737.318029,-4811.338623,4903.011187
20869.507613,4737.318029,-9178.553681,4826.401637
20869.507946,1702.473667,-8290.306550,-1302.362347
20869.508279,-74.020594,-11843.295072,-3753.867940
20869.508612,-6513.812290,-13545.768739,-6205.373534
20869.508945,-2886.803174,-11843.295072,-5515.887586
20869.509278,-1776.494261,-12287.418637,-76.609550
20869.509611,296.082377,-7179.997637,919.314598
20869.509944,74.020594,-8142.265362,2145.067394
20869.510277,74.020594,-7698.141797,1302.362347
20869.510610,1702.473667,-6809.894666,2374.896044
20869.510943,-444.123565,-9252.574275,3064.381992
20869.511276,1332.370696,-5921.647536,1762.019645
20869.511609,3478.967927,-13027.624579,3600.648841
20869.511942,1998.556043,-6735.874072,2451.505594
20869.512275,2886.803174,-9474.636058,4213.525239
20869.512608,-2368.659014,-9992.780217,-3064.381992
20869.512941,-4737.318029,-8956.491898,-4596.572988
20869.513275,-7179.997637,-12731.542202,-4366.744339
20869.513608,-3997.112087,-9548.656652,-2068.457845
20869.513941,-2220.617826,-8956.491898,1225.752797
20869.514274,0.000000,-8364.327145,3677.258390
20869.514607,3478.967927,-4885.359217,4903.011187
20869.514940,0.000000,-6587.832884,4903.011187
20869.515273,3478.967927,-6809.894666,76.609550
20869.515606,-1258.350101,-10510.924376,-689.485948
20869.515939,0.000000,-10584.944971,-76.609550
20869.516272,-2590.720797,-10510.924376,-1532.190996
20869.516605,-1332.370696,-11399.171507,-2221.676944
20869.516938,296.082377,-9844.739029,306.438199
20869.517271,-74.020594,-10658.965565,2374.896044
20869.517604,518.144159,-4811.338623,-2451.505594
20869.517937,-2516.700203,-10584.944971,-2145.067394
20869.518270,2886.803174,-10658.965565,-1608.800546
20869.518603,0.000000,-7772.162391,3677.258390
20869.518937,5255.462188,-9474.636058,6052.154434
20869.519270,5255.462188,-7328.038826,4903.011187
20869.519603,2590.720797,-8364.327145,2604.724693
20869.519936,2294.638420,-8660.409521,-842.705048
20869.520269,-666.185348,-10066.800811,-2528.115143
20869.520602,-5921.647536,-8364.327145,-4290.134789
20869.520935,-2664.741391,-13027.624579,-1915.238745
20869.521268,-962.267725,-9474.636058,-2528.115143
20869.521601,-1776.494261,-7179.997637,0.000000
20869.521934,-74.020594,-8290.306550,842.705048
20869.522267,1776.494261,-7105.977043,1608.800546
20869.522600,2146.597232,-7031.956449,2528.115143
20869.522933,2294.638420,-8068.244768,2374.896044
20869.523266,1110.308913,-11251.130318,2374.896044
20869.523599,4145.153275,-9104.533087,3447.429741
20869.523932,4959.379811,-11399.171507,4519.963438
20869.524265,6143.709319,-8438.347739,2528.115143
20869.524599,0.000000,-10732.986159,-1838.629195
20869.524932,-74.020594,-11843.295072,-4979.620737
20869.525265,-4145.153275,-10436.903782,-4903.011187
20869.525598,-5921.647536,-10732.986159,-2451.505594
20869.525931,-962.267725,-10955.047942,-383.047749
20869.526264,-2960.823768,-7179.997637,612.876398
20869.526597,3330.926739,-6069.688724,6052.154434
20869.526930,3552.988522,-4737.318029,6358.592633
20869.527263,2590.720797,-5995.668130,4366.744339
20869.527596,-74.020594,-8882.471304,-76.609550
20869.527929,-3627.009116,-12435.459826,-2528.115143
20869.528262,-4737.318029,-11325.150913,0.000000
20869.528595,-74.020594,-11843.295072,-76.609550
20869.528928,-74.020594,-9030.512492,-2911.162892
20869.529261,-1776.494261,-10955.047942,-1225.752797
20869.529594,-1258.350101,-8882.471304,-2987.772442
20869.529927,-3182.885551,-9474.636058,-995.924147
20869.530261,-74.020594,-8364.327145,0.000000
20869.530594,0.000000,-6365.771101,1915.238745
20869.530927,3330.926739,-10066.800811,6052.154434
20869.531260,0.000000,-7179.997637,8273.831378
20869.531593,4663.297435,-7698.141797,3600.648841
20869.531926,1184.329507,-5995.668130,536.266849
20869.532259,0.000000,-8734.430116,-842.705048
20869.532592,-4737.318029,-10881.027347,-4290.134789
20869.532925,-5033.400406,-11473.192101,-4749.792088
20869.533258,-1998.556043,-9844.739029,-2145.067394
20869.533591,592.164754,-8364.327145,1225.752797
20869.533924,3478.967927,-7105.977043,383.047749
20869.534257,1776.494261,-9252.574275,1532.190996
20869.534590,4663.297435,-9474.636058,-383.047749
20869.534923,1184.329507,-7772.162391,919.314598
20869.535256,3552.988522,-10140.821405,3064.381992
20869.535589,4811.338623,-8956.491898,3370.820191
20869.535923,7624.121203,-10066.800811,4443.353888
20869.536256,5847.626942,-7994.224174,1991.848295
20869.536589,4663.297435,-11251.130318,-383.047749
20869.536922,-518.144159,-7179.997637,-4290.134789
20869.537255,-1850.514855,-12435.459826,-4519.963438
20869.537588,-2368.659014,-11029.068536,-689.485948
20869.537921,-2442.679609,-10955.047942,-2298.286494
20869.538254,1184.329507,-7179.997637,3064.381992
20869.538587,8808.450710,-8290.306550,7277.907231
20869.538920,2960.823768,-4811.338623,5515.887586
20869.539253,2368.659014,-5995.668130,2451.505594
20869.539586,-74.020594,-11251.130318,-76.609550
20869.539919,-2072.576638,-10732.986159,-766.095498
20869.540252,-2664.741391,-11103.089130,-2221.676944
20869.540585,-1850.514855,-11843.295072,-2374.896044
20869.540918,-1702.473667,-10658.965565,-689.485948
20869.541251,-74.020594,-9474.636058,-76.609550
20869.541584,-2368.659014,-7328.038826,76.609550
20869.541917,-1850.514855,-10214.842000,1762.019645
20869.542250,-2442.679609,-7402.059420,-1225.752797
20869.542583,-2664.741391,-8512.368333,3217.601092
20869.542916,4663.297435,-8142.265362,6052.154434
20869.543249,2146.597232,-8956.491898,5056.230287
20869.543582,444.123565,-8216.285956,2604.724693
20869.543915,-1702.473667,-8290.306550,-2221.676944
20869.544248,-5255.462188,-11103.089130,-5286.058936
20869.544581,-7105.977043,-9548.656652,-5515.887586
20869.544914,-5995.668130,-13619.789333,-3140.991542
20869.545247,-2442.679609,-11251.130318,-2528.115143
20869.545580,-2368.659014,-8068.244768,2604.724693
20869.545914,1702.473667,-7105.977043,3447.429741
20869.546247,2368.659014,-4663.297435,4903.011187
20869.546580,2812.782580,-6365.771101,3600.648841
20869.546913,1628.453072,-8660.409521,1455.581446
20869.547246,296.082377,-9844.739029,0.000000
20869.547579,0.000000,-11325.150913,4290.134789
20869.547912,3478.967927,-10658.965565,1762.019645
20869.548245,2960.823768,-7179.997637,0.000000
20869.548578,-2072.576638,-9548.656652,-1838.629195
20869.548911,-3182.885551,-8956.491898,-4903.011187
20869.549244,-2590.720797,-9548.656652,-3677.258390
20869.549577,-2812.782580,-9030.512492,-2145.067394
20869.549910,0.000000,-8216.285956,1072.533697
20869.550243,2738.761985,-8290.306550,6052.154434
20869.550576,5033.400406,-7105.977043,8503.660028
20869.550909,5255.462188,-4367.215058,3677.258390
20869.551242,3552.988522,-7031.956449,3600.648841
20869.551575,4663.297435,-9474.636058,-689.485948
20869.551908,1480.411884,-11621.233289,-76.609550
20869.552241,888.247130,-11029.068536,-1991.848295
20869.552574,740.205942,-11991.336260,-1915.238745
20869.552907,2738.761985,-11399.171507,-2298.286494
20869.553240,1406.391290,-10955.047942,-1685.410096
20869.553573,2294.638420,-10658.965565,-2834.553343
20869.553906,0.000000,-8364.327145,-3677.258390
20869.554239,-222.061783,-12731.542202,-76.609550
20869.554572,74.020594,-6143.709319,1838.629195
20869.554905,2368.659014,-8364.327145,7277.907231
20869.555238,2960.823768,-6883.915261,5592.497135
20869.555571,2738.761985,-6809.894666,3983.696590
20869.555905,0.000000,-8216.285956,1378.971896
20869.556238,-888.247130,-6661.853478,-2298.286494
20869.556571,-3701.029710,-11103.089130,-5056.230287
20869.556904,-5107.421000,-12583.501014,-5669.106685
20869.557237,-4589.276840,-11991.336260,-3447.429741
20869.557570,-2738.761985,-12435.459826,-842.705048
20869.557903,-1406.391290,-9178.553681,1149.143247
20869.558236,0.000000,-8364.327145,4826.401637
20869.558569,1702.473667,-7105.977043,1378.971896
20869.558902,1480.411884,-5995.668130,3677.258390
20869.559235,0.000000,-8068.244768,3983.696590
20869.559568,2886.803174,-5181.441594,3677.258390
20869.559901,962.267725,-9696.697840,2911.162892
20869.560234,2812.782580,-8660.409521,919.314598
20869.560567,1110.308913,-8586.388927,-1302.362347
20869.560900,-4737.318029,-10140.821405,-6741.640382
20869.561233,-1258.350101,-9474.636058,-5592.497135
20869.561566,-5995.668130,-14211.954086,-6511.811733
20869.561899,-4737.318029,-9548.656652,-2145.067394
20869.562232,1998.556043,-9474.636058,4826.401637
20869.562565,4737.318029,-5403.503377,8580.269578
20869.562898,6143.709319,-2886.803174,7354.516781
20869.563231,4071.132681,-5921.647536,2528.115143
20869.563564,4441.235652,-8290.306550,1838.629195
20869.563897,2664.741391,-9400.615463,1149.143247
20869.564230,3478.967927,-10066.800811,-4903.011187
20869.564563,-888.247130,-13693.809927,-4903.011187
20869.564896,592.164754,-15396.283594,-2528.115143
20869.565229,370.102971,-10436.903782,-3217.601092
20869.565562,3034.844362,-11251.130318,-842.705048
20869.565896,296.082377,-10066.800811,612.876398
20869.566229,518.144159,-8882.471304,2298.286494
20869.566562,2220.617826,-6883.915261,4519.963438
20869.566895,5551.544565,-7105.977043,7277.907231
20869.567228,5551.544565,-3627.009116,4903.011187
20869.567561,4145.153275,-6809.894666,6665.030833
20869.567894,-370.102971,-7105.977043,-2834.553343
20869.568227,-5329.482782,-8364.327145,-7354.516781
20869.568560,-4811.338623,-13027.624579,-8044.002729
20869.568893,-6735.874072,-13249.686362,-8427.050478
20869.569226,-4811.338623,-11843.295072,-5975.544884
20869.569559,-2442.679609,-13027.624579,-995.924147
20869.569892,2294.638420,-9474.636058,6052.154434
20869.570225,4145.153275,-5773.606348,8120.612279
20869.570558,4515.256246,-5773.606348,7354.516781
20869.570891,2960.823768,-5995.668130,5592.497135
20869.571224,0.000000,-7772.162391,1838.629195
20869.571557,1924.535449,-9918.759623,4060.306139
20869.571890,1110.308913,-8956.491898,0.000000
20869.572223,0.000000,-7179.997637,1225.752797
20869.572556,-2442.679609,-12435.459826,-3140.991542
20869.572889,-4071.132681,-8586.388927,-7431.126331
20869.573222,-5773.606348,-12805.562797,-5515.887586
20869.573555,-3034.844362,-9696.697840,-3677.258390
20869.573888,-3330.926739,-10362.883188,-1302.362347
20869.574221,-74.020594,-10362.883188,4596.572988
20869.574554,3108.864956,-6291.750507,9729.412825
20869.574887,814.226536,-3034.844362,5515.887586
20869.575220,7402.059420,-4441.235652,9116.536426
20869.575553,2294.638420,-8290.306550,1762.019645
20869.575886,148.041188,-9548.656652,-2451.505594
20869.576220,-1406.391290,-10955.047942,-3524.039291
20869.576553,-1776.494261,-13175.665768,-4519.963438
20869.576886,1998.556043,-11917.315666,-1762.019645
20869.577219,-74.020594,-10658.965565,-1302.362347
20869.577552,2368.659014,-10658.965565,-76.609550
20869.577885,-2738.761985,-8364.327145,-3677.258390
20869.578218,0.000000,-10288.862594,-76.609550
20869.578551,2294.638420,-9474.636058,4213.525239
20869.578884,3478.967927,-6809.894666,4826.401637
20869.579217,3775.050304,-7328.038826,4519.963438
20869.579550,4589.276840,-7772.162391,5286.058936
20869.579883,3478.967927,-8290.306550,3217.601092
20869.580216,0.000000,-7179.997637,306.438199
20869.580549,-1258.350101,-10658.965565,-4979.620737
20869.580882,-4737.318029,-10732.986159,-7354.516781
20869.581215,-4737.318029,-12509.480420,-995.924147
20869.581548,-666.185348,-9622.677246,-1915.238745
20869.581881,0.000000,-7179.997637,1378.971896
20869.582214,2368.659014,-8142.265362,3217.601092
20869.582547,3552.988522,-7254.018232,2681.334243
20869.582880,1332.370696,-8364.327145,1838.629195
20869.583213,1258.350101,-11251.130318,-76.609550
20869.583546,518.144159,-9548.656652,0.000000
20869.583879,3775.050304,-11843.295072,3600.648841
20869.584212,2886.803174,-5995.668130,0.000000
20869.584545,0.000000,-8956.491898,2987.772442
20869.584878,296.082377,-8512.368333,-689.485948
20869.585211,-3478.967927,-9104.533087,-1225.752797
20869.585544,-2516.700203,-8512.368333,-1991.848295
20869.585877,-4737.318029,-10732.986159,-1532.190996
20869.586211,-74.020594,-10658.965565,4673.182538
20869.586544,0.000000,-7179.997637,3677.258390
20869.586877,1850.514855,-7105.977043,4136.915689
20869.587210,1110.308913,-6661.853478,1072.533697
20869.587543,-222.061783,-9548.656652,-306.438199
20869.587876,592.164754,-10140.821405,-76.609550
20869.588209,-1554.432478,-11695.253884,-3064.381992
20869.588542,-4737.318029,-9548.656652,919.314598
20869.588875,1110.308913,-11843.295072,229.828649
20869.589208,666.185348,-7105.977043,1302.362347
20869.589541,592.164754,-7772.162391,2604.724693
20869.589874,-74.020594,-7402.059420,-612.876398
20869.590207,-370.102971,-7772.162391,-995.924147
20869.590540,-888.247130,-10214.842000,1378.971896
20869.590873,3478.967927,-9474.636058,4826.401637
20869.591206,4071.132681,-7698.141797,2451.505594
20869.591539,6069.688724,-9474.636058,6741.640382
20869.591872,5847.626942,-7105.977043,1149.143247
20869.592205,0.000000,-9844.739029,-2451.505594
20869.592538,-370.102971,-11843.295072,-5286.058936
20869.592871,-3627.009116,-12509.480420,-7201.297681
20869.593204,-2664.741391,-12139.377449,-3753.867940
20869.593537,-370.102971,-11251.130318,0.000000
20869.593870,666.185348,-7105.977043,1149.143247
20869.594203,3182.885551,-2442.679609,2451.505594
20869.594536,5773.606348,-7105.977043,6665.030833
20869.594869,5255.462188,-5921.647536,3600.648841
20869.595202,0.000000,-8364.327145,2451.505594
20869.595535,2886.803174,-10658.965565,-383.047749
20869.595868,1332.370696,-12509.480420,1838.629195
20869.596202,2738.761985,-10436.903782,1302.362347
20869.596535,-1184.329507,-9918.759623,-2298.286494
20869.596868,-2368.659014,-10436.903782,-4290.134789
20869.597201,-3256.906145,-11547.212695,-2298.286494
20869.597534,-1258.350101,-11251.130318,-3140.991542
20869.597867,-3775.050304,-8660.409521,-2451.505594
20869.598200,-2960.823768,-7476.080014,4826.401637
20869.598533,2294.638420,-7846.182985,5286.058936
20869.598866,5033.400406,-5033.400406,9576.193725
20869.599199,5107.421000,-4663.297435,6052.154434
20869.599532,2294.638420,-6365.771101,1991.848295
20869.599865,-1184.329507,-9548.656652,-1838.629195
20869.600198,-5255.462188,-12953.603985,-4979.620737
20869.600531,-5033.400406,-12731.542202,-4596.572988
20869.600864,-3552.988522,-12287.418637,-3140.991542
20869.601197,-814.226536,-10658.965565,-689.485948
20869.601530,-2368.659014,-8290.306550,-1302.362347
20869.601863,-2960.823768,-6587.832884,0.000000
20869.602196,-592.164754,-8364.327145,1225.752797
20869.602529,1702.473667,-8290.306550,3294.210641
20869.602862,2886.803174,-8882.471304,4213.525239
20869.603195,2738.761985,-10510.924376,4213.525239
20869.603528,3552.988522,-8364.327145,4213.525239
20869.603861,1850.514855,-8438.347739,1608.800546
20869.604194,1776.494261,-9178.553681,-536.266849
20869.604527,-1332.370696,-10807.006753,-2987.772442
20869.604860,-7105.977043,-11917.315666,-3983.696590
20869.605193,-3775.050304,-13027.624579,-4060.306139
20869.605526,-2442.679609,-11843.295072,-1608.800546
20869.605859,888.247130,-6587.832884,3677.258390
20869.606193,4071.132681,-6217.729913,5132.839837
20869.606526,4663.297435,-5625.565159,4826.401637
20869.606859,2294.638420,-7105.977043,2681.334243
20869.607192,2220.617826,-7920.203579,-612.876398
20869.607525,1998.556043,-10658.965565,-689.485948
20869.607858,1332.370696,-12731.542202,2374.896044
20869.608191,4071.132681,-11843.295072,-1302.362347
20869.608524,0.000000,-8956.491898,-1225.752797
20869.608857,1184.329507,-9844.739029,-1225.752797
20869.609190,-740.205942,-8808.450710,-2451.505594
20869.609523,-1628.453072,-9696.697840,-2528.115143
20869.609856,-1850.514855,-9548.656652,-1149.143247
20869.610189,2960.823768,-8438.347739,3217.601092
20869.610522,5033.400406,-7476.080014,6128.763984
20869.610855,8808.450710,-7105.977043,7890.783629
20869.611188,3404.947333,-3997.112087,536.266849
20869.611521,0.000000,-7772.162391,0.000000
20869.611854,-74.020594,-11843.295072,-2528.115143
20869.612187,-2368.659014,-11621.233289,-4749.792088
20869.612520,-4663.297435,-13323.706956,-5132.839837
20869.612853,-3701.029710,-13545.768739,-2604.724693
20869.613186,-740.205942,-9030.512492,1762.019645
20869.613519,592.164754,-6439.791695,4060.306139
20869.613852,-74.020594,-5921.647536,-383.047749
20869.614185,-3256.906145,-7179.997637,1532.190996
20869.614518,0.000000,-9548.656652,4826.401637
20869.614851,3478.967927,-9474.636058,4826.401637
20869.615184,1776.494261,-9696.697840,7277.907231
20869.615517,3923.091493,-7179.997637,4903.011187
20869.615850,1776.494261,-9030.512492,2145.067394
20869.616184,0.000000,-9548.656652,-1685.410096
20869.616517,-5921.647536,-10732.986159,-4903.011187
20869.616850,-4959.379811,-11843.295072,-6894.859482
20869.617183,-5033.400406,-11991.336260,-4213.525239
20869.617516,-3849.070898,-11251.130318,-76.609550
20869.617849,-1850.514855,-6809.894666,1532.190996
20869.618182,-1184.329507,-6587.832884,5286.058936
20869.618515,3849.070898,-4737.318029,6665.030833
20869.618848,2294.638420,-4293.194464,2757.943793
20869.619181,1776.494261,-7994.224174,3294.210641
20869.619514,-74.020594,-10362.883188,-76.609550
20869.619847,-814.226536,-11251.130318,-919.314598
20869.620180,1184.329507,-11103.089130,-919.314598
20869.620513,2072.576638,-10955.047942,-1302.362347
20869.620846,0.000000,-8660.409521,-4290.134789
20869.621179,-3552.988522,-9548.656652,-3064.381992
20869.621512,-74.020594,-11251.130318,-4979.620737
20869.621845,-2442.679609,-9474.636058,-4979.620737
20869.622178,0.000000,-9844.739029,2757.943793
20869.622511,2738.761985,-7328.038826,4826.401637
20869.622844,5995.668130,-6143.709319,7890.783629
20869.623177,4589.276840,-4959.379811,4979.620737
20869.623510,4589.276840,-6809.894666,3447.429741
20869.623843,3775.050304,-8882.471304,1455.581446
20869.624176,0.000000,-9844.739029,-76.609550
20869.624509,-370.102971,-13027.624579,-4979.620737
20869.624842,-2146.597232,-11621.233289,-3370.820191
20869.625175,0.000000,-10732.986159,0.000000
20869.625508,1628.453072,-9474.636058,0.000000
20869.625841,-74.020594,-9474.636058,-383.047749
20869.626175,0.000000,-8216.285956,0.000000
20869.626508,1924.535449,-9252.574275,1762.019645
20869.626841,814.226536,-9474.636058,2834.553343
20869.627174,1332.370696,-10510.924376,6665.030833
20869.627507,3701.029710,-4219.173869,4903.011187
20869.627840,2368.659014,-6587.832884,7354.516781
20869.628173,3478.967927,-4589.276840,1762.019645
20869.628506,-1850.514855,-7698.141797,-3907.087040
20869.628839,-5921.647536,-11177.109724,-7354.516781
20869.629172,-6661.853478,-11991.336260,-6205.373534
20869.629505,-6439.791695,-13175.665768,-3217.601092
20869.629838,-4737.318029,-8364.327145,-2451.505594
20869.630171,-74.020594,-9474.636058,-229.828649
20869.630504,592.164754,-7476.080014,4366.744339
20869.630837,4663.297435,-9474.636058,4826.401637
20869.631170,666.185348,-6291.750507,306.438199
20869.631503,1702.473667,-10066.800811,1762.019645
20869.631836,2590.720797,-9992.780217,2681.334243
20869.632169,4145.153275,-9548.656652,3370.820191
20869.632502,2294.638420,-10066.800811,2068.457845
20869.632835,0.000000,-8364.327145,-2451.505594
20869.633168,-1554.432478,-9178.553681,-4213.525239
20869.633501,-3404.947333,-10140.821405,-4136.915689
20869.633834,-4811.338623,-9844.739029,-4213.525239
20869.634167,-2812.782580,-9844.739029,-1685.410096
20869.634500,296.082377,-8364.327145,3370.820191
20869.634833,5699.585753,-7698.141797,7277.907231
20869.635166,3182.885551,-3627.009116,4903.011187
20869.635499,5847.626942,-7698.141797,2834.553343
20869.635832,1702.473667,-10955.047942,766.095498
20869.636166,-888.247130,-8660.409521,-3064.381992
20869.636499,-1998.556043,-11621.233289,-4290.134789
20869.636832,-1110.308913,-11991.336260,-2987.772442
20869.637165,962.267725,-10658.965565,536.266849
20869.637498,2886.803174,-10658.965565,2374.896044
