#time,accel_x,accel_y,accel_z
22104.542188,9104.533087,-8586.388927,2374.896044
22104.542522,9104.533087,-9400.615463,1455.581446
22104.542856,7105.977043,-9622.677246,-766.095498
22104.543189,6735.874072,-10510.924376,-1915.238745
22104.543523,4737.318029,-10584.944971,-1302.362347
22104.543857,5551.544565,-7328.038826,-4903.011187
22104.544190,5921.647536,-9548.656652,-1072.533697
22104.544524,9400.615463,-10658.965565,-76.609550
22104.544858,10881.027347,-8586.388927,4213.525239
22104.545191,12361.439231,-7402.059420,3830.477490
22104.545525,12361.439231,-8364.327145,4290.134789
22104.545859,12287.418637,-9474.636058,3600.648841
22104.546192,8290.306550,-8364.327145,1225.752797
22104.546526,8512.368333,-13027.624579,-76.609550
22104.546860,0.000000,-10140.821405,-7354.516781
22104.547193,-1184.329507,-11621.233289,-3447.429741
22104.547527,-74.020594,-11695.253884,-2221.676944
22104.547861,2146.597232,-5551.544565,0.000000
22104.548195,3849.070898,-6661.853478,2834.553343
22104.548528,7105.977043,-4811.338623,4290.134789
22104.548862,9696.697840,-5625.565159,6588.421283
22104.549196,12583.501014,-6069.688724,7354.516781
22104.549529,12657.521608,-5107.421000,919.314598
22104.549863,9474.636058,-9548.656652,1762.019645
22104.550197,11769.274478,-11843.295072,-2528.115143
22104.550530,7550.100608,-9844.739029,-4903.011187
22104.550864,7105.977043,-11325.150913,-5515.887586
22104.551198,5033.400406,-12805.562797,-5669.106685
22104.551531,3478.967927,-13175.665768,-4136.915689
22104.551865,5403.503377,-10288.862594,-2374.896044
22104.552199,7698.141797,-9400.615463,3524.039291
22104.552532,11029.068536,-5107.421000,4290.134789
22104.552866,14137.933492,-5477.523971,8197.221829
22104.553200,15248.242405,-4293.194464,9116.536426
22104.553533,13397.727550,-6809.894666,6971.469032
22104.553867,9474.636058,-9252.574275,3064.381992
22104.554201,8216.285956,-10066.800811,-2528.115143
22104.554534,2886.803174,-9548.656652,-7354.516781
22104.554868,2368.659014,-11621.233289,-5286.058936
22104.555202,4367.215058,-11251.130318,-4979.620737
22104.555535,5329.482782,-9548.656652,-1532.190996
22104.555869,9400.615463,-8586.388927,1378.971896
22104.556203,9548.656652,-8364.327145,1149.143247
22104.556536,9696.697840,-9400.615463,612.876398
22104.556870,12953.603985,-9326.594869,3600.648841
22104.557204,14137.933492,-7105.977043,1762.019645
22104.557538,11843.295072,-7179.997637,1225.752797
22104.557871,10066.800811,-11621.233289,4519.963438
22104.558205,9844.739029,-9474.636058,1608.800546
22104.558539,10658.965565,-10288.862594,3524.039291
22104.558872,12213.398043,-7328.038826,2221.676944
22104.559206,11621.233289,-6661.853478,612.876398
22104.559540,11399.171507,-6809.894666,-383.047749
22104.559873,11473.192101,-6513.812290,-3140.991542
22104.560207,12361.439231,-8068.244768,-7967.393179
22104.560541,10066.800811,-14804.118840,-3140.991542
22104.560874,9400.615463,-15988.448347,-3753.867940
22104.561208,7402.059420,-11325.150913,-1225.752797
22104.561542,12657.521608,-10362.883188,2374.896044
22104.561875,15100.201217,-6883.915261,6894.859482
22104.562209,15026.180623,-5921.647536,8120.612279
22104.562543,15026.180623,-5477.523971,6741.640382
22104.562876,11843.295072,-6291.750507,3677.258390
22104.563210,9474.636058,-8660.409521,0.000000
22104.563544,9326.594869,-10658.965565,-76.609550
22104.563877,8216.285956,-7698.141797,-4979.620737
22104.564211,10288.862594,-10362.883188,-4213.525239
22104.564545,9400.615463,-9474.636058,-5286.058936
22104.564878,8438.347739,-12213.398043,-2451.505594
22104.565212,7179.997637,-12583.501014,-689.485948
22104.565546,7624.121203,-11029.068536,-536.266849
22104.565880,10066.800811,-7772.162391,3677.258390
22104.566213,15618.345376,-8068.244768,8350.440928
22104.566547,15100.201217,-5329.482782,8197.221829
22104.566881,9400.615463,-7994.224174,4596.572988
22104.567214,8808.450710,-8882.471304,1762.019645
22104.567548,9400.615463,-9474.636058,1762.019645
22104.567882,12065.356855,-2738.761985,-2451.505594
22104.568215,9770.718434,-9474.636058,-229.828649
22104.568549,5551.544565,-11251.130318,-8044.002729
22104.568883,5255.462188,-12583.501014,-5975.544884
22104.569216,6809.894666,-13027.624579,-3447.429741
22104.569550,11103.089130,-9548.656652,1455.581446
22104.569884,12657.521608,-9474.636058,4366.744339
22104.570217,14211.954086,-9992.780217,4596.572988
22104.570551,9474.636058,-8364.327145,6511.811733
22104.570885,15026.180623,-4219.173869,4903.011187
22104.571218,13619.789333,-7772.162391,7048.078582
22104.571552,14137.933492,-9474.636058,4213.525239
22104.571886,6439.791695,-6217.729913,-2834.553343
22104.572219,1702.473667,-11843.295072,-7967.393179
22104.572553,4293.194464,-11621.233289,-7124.688131
22104.572887,6735.874072,-10510.924376,-3983.696590
22104.573220,13545.768739,-7994.224174,2911.162892
22104.573554,10584.944971,-7105.977043,1762.019645
22104.573888,8290.306550,-11325.150913,0.000000
22104.574222,11251.130318,-10732.986159,4826.401637
22104.574555,13545.768739,-7328.038826,3677.258390
22104.574889,13323.706956,-5403.503377,3677.258390
22104.575223,9104.533087,-8512.368333,612.876398
22104.575556,6587.832884,-9178.553681,-2911.162892
22104.575890,6661.853478,-10584.944971,-2451.505594
22104.576224,7402.059420,-9030.512492,-3140.991542
22104.576557,4663.297435,-8364.327145,-3600.648841
22104.576891,7698.141797,-9474.636058,-76.609550
22104.577225,5921.647536,-13249.686362,2987.772442
22104.577558,9400.615463,-6809.894666,1838.629195
22104.577892,9178.553681,-9770.718434,4826.401637
22104.578226,10362.883188,-5551.544565,5362.668486
22104.578559,8142.265362,-9474.636058,4060.306139
22104.578893,7105.977043,-5625.565159,-76.609550
22104.579227,3552.988522,-12287.418637,-4290.134789
22104.579560,0.000000,-13693.809927,0.000000
22104.579894,5551.544565,-9474.636058,-3140.991542
22104.580228,814.226536,-9844.739029,-1838.629195
22104.580561,0.000000,-5403.503377,-1838.629195
22104.580895,5477.523971,-8290.306550,-76.609550
22104.581229,3552.988522,-9548.656652,2757.943793
22104.581562,7550.100608,-6883.915261,3140.991542
22104.581896,6735.874072,-9474.636058,3907.087040
22104.582230,4663.297435,-9104.533087,2528.115143
22104.582563,4737.318029,-7772.162391,1532.190996
22104.582897,1554.432478,-11917.315666,306.438199
22104.583231,2072.576638,-8956.491898,-76.609550
22104.583565,518.144159,-7105.977043,-4060.306139
22104.583898,1702.473667,-10362.883188,76.609550
22104.584232,0.000000,-7772.162391,-1685.410096
22104.584566,5551.544565,-4737.318029,2374.896044
22104.584899,4071.132681,-11547.212695,229.828649
22104.585233,6957.935855,-5107.421000,2145.067394
22104.585567,5551.544565,-13619.789333,6052.154434
22104.585900,4811.338623,-6735.874072,459.657299
22104.586234,3997.112087,-11251.130318,-76.609550
22104.586568,-666.185348,-11399.171507,-5132.839837
22104.586901,4737.318029,-7179.997637,1225.752797
22104.587235,-1628.453072,-8364.327145,0.000000
22104.587569,8216.285956,-9474.636058,842.705048
22104.587902,0.000000,-4811.338623,0.000000
22104.588236,2664.741391,-9992.780217,1915.238745
22104.588570,3182.885551,-6069.688724,689.485948
22104.588903,1332.370696,-9548.656652,-1149.143247
22104.589237,3182.885551,-9400.615463,0.000000
22104.589571,1110.308913,-10066.800811,1225.752797
22104.589904,4145.153275,-8808.450710,766.095498
22104.590238,592.164754,-10140.821405,2451.505594
22104.590572,7031.956449,-9474.636058,1149.143247
22104.590905,2072.576638,-6735.874072,76.609550
22104.591239,0.000000,-11325.150913,1991.848295
22104.591573,296.082377,-9030.512492,-2451.505594
22104.591907,-444.123565,-10140.821405,-306.438199
22104.592240,4367.215058,-7105.977043,-76.609550
22104.592574,2368.659014,-8290.306550,-1838.629195
22104.592908,222.061783,-13027.624579,-76.609550
22104.593241,-888.247130,-8290.306550,3600.648841
22104.593575,2146.597232,-8882.471304,-3140.991542
22104.593909,296.082377,-8364.327145,3677.258390
22104.594242,3478.967927,-10955.047942,3600.648841
22104.594576,5551.544565,-6809.894666,2987.772442
22104.594910,222.061783,-8660.409521,1608.800546
22104.595243,-1184.329507,-9844.739029,-2911.162892
22104.595577,-2960.823768,-10881.027347,-1532.190996
22104.595911,-3552.988522,-9548.656652,0.000000
22104.596244,-74.020594,-9474.636058,-1302.362347
22104.596578,-7105.977043,-11029.068536,306.438199
22104.596912,-2368.659014,-5107.421000,2068.457845
22104.597245,-3034.844362,-10066.800811,383.047749
22104.597579,4663.297435,-6365.771101,5898.935335
22104.597913,518.144159,-7105.977043,4596.572988
22104.598246,444.123565,-6143.709319,3370.820191
22104.598580,1702.473667,-7179.997637,536.266849
22104.598914,-4515.256246,-10362.883188,-2834.553343
22104.599247,2294.638420,-7994.224174,-1915.238745
22104.599581,-7698.141797,-15396.283594,-4979.620737
22104.599915,-1924.535449,-9548.656652,-4903.011187
22104.600248,-5255.462188,-12583.501014,-2145.067394
22104.600582,1776.494261,-5995.668130,1838.629195
22104.600916,1776.494261,-9474.636058,6052.154434
22104.601250,3182.885551,-9178.553681,3907.087040
22104.601583,2812.782580,-4219.173869,5209.449386
22104.601917,4663.297435,-9474.636058,6052.154434
22104.602251,4959.379811,-4959.379811,2451.505594
22104.602584,1998.556043,-9474.636058,1608.800546
22104.602918,1184.329507,-8364.327145,-1225.752797
22104.603252,-370.102971,-9474.636058,-3600.648841
22104.603585,-3552.988522,-12805.562797,-4903.011187
22104.603919,-740.205942,-11843.295072,-3753.867940
22104.604253,-5625.565159,-9844.739029,-5822.325785
22104.604586,-2072.576638,-9548.656652,-1838.629195
22104.604920,-74.020594,-10658.965565,-76.609550
22104.605254,1184.329507,-6291.750507,3753.867940
22104.605587,5107.421000,-8512.368333,6741.640382
22104.605921,5329.482782,-7031.956449,6511.811733
22104.606255,4885.359217,-7105.977043,6052.154434
22104.606588,3478.967927,-8290.306550,1149.143247
22104.606922,6735.874072,-8290.306550,-995.924147
22104.607256,1184.329507,-11621.233289,-689.485948
22104.607589,4663.297435,-11843.295072,-689.485948
22104.607923,-4219.173869,-12139.377449,-5822.325785
22104.608257,-1554.432478,-11843.295072,-5286.058936
22104.608590,-2886.803174,-10436.903782,-2528.115143
22104.608924,-962.267725,-10214.842000,-1838.629195
22104.609258,2590.720797,-6883.915261,2298.286494
22104.609592,148.041188,-6587.832884,5209.449386
22104.609925,2368.659014,-5995.668130,3677.258390
22104.610259,592.164754,-10436.903782,6665.030833
22104.610593,2886.803174,-6143.709319,1378.971896
22104.610926,2294.638420,-6513.812290,1838.629195
22104.611260,2886.803174,-8734.430116,1149.143247
22104.611594,-1184.329507,-8290.306550,-2451.505594
22104.611927,-3923.091493,-10881.027347,-3370.820191
22104.612260,-3627.009116,-9400.615463,-5056.230287
22104.612594,-5921.647536,-12213.398043,-5209.449386
22104.612927,-3552.988522,-8956.491898,-1685.410096
22104.613260,-666.185348,-10436.903782,-995.924147
22104.613593,814.226536,-9252.574275,919.314598
22104.613927,3478.967927,-11547.212695,7277.907231
22104.614260,3182.885551,-7105.977043,5286.058936
22104.614593,296.082377,-6587.832884,4903.011187
22104.614926,2294.638420,-9474.636058,5745.716235
22104.615259,-74.020594,-7105.977043,-76.609550
22104.615593,-740.205942,-9474.636058,842.705048
22104.615926,-2738.761985,-9474.636058,-1838.629195
22104.616259,-1258.350101,-7698.141797,-4136.915689
22104.616592,-2442.679609,-13027.624579,-2528.115143
22104.616925,-3256.906145,-9104.533087,-3753.867940
22104.617259,-2442.679609,-13027.624579,-689.485948
22104.617592,1406.391290,-10362.883188,-76.609550
22104.617925,1184.329507,-6587.832884,1302.362347
22104.618258,1184.329507,-8364.327145,5975.544884
22104.618591,3552.988522,-8882.471304,4673.182538
22104.618925,2886.803174,-6217.729913,3217.601092
22104.619258,3775.050304,-5255.462188,2068.457845
22104.619591,518.144159,-10955.047942,-1762.019645
22104.619924,2220.617826,-9622.677246,0.000000
22104.620257,-1258.350101,-9474.636058,-4060.306139
22104.620591,888.247130,-13027.624579,-919.314598
22104.620924,-1406.391290,-11843.295072,-3753.867940
22104.621257,-1110.308913,-7920.203579,-3677.258390
22104.621590,592.164754,-9844.739029,3677.258390
22104.621923,2442.679609,-6143.709319,1532.190996
22104.622257,3849.070898,-8734.430116,3294.210641
22104.622590,3701.029710,-9474.636058,6052.154434
22104.622923,1480.411884,-8808.450710,1685.410096
22104.623256,1184.329507,-6143.709319,0.000000
22104.623589,1998.556043,-15396.283594,-76.609550
22104.623923,-74.020594,-8290.306550,-1302.362347
22104.624256,-4145.153275,-8364.327145,-2451.505594
22104.624589,-1998.556043,-9474.636058,-4979.620737
22104.624922,0.000000,-9030.512492,-536.266849
22104.625256,-2738.761985,-10732.986159,-2145.067394
22104.625589,3330.926739,-8364.327145,3217.601092
22104.625922,-592.164754,-7624.121203,1608.800546
22104.626255,2516.700203,-10807.006753,2987.772442
22104.626588,5847.626942,-9474.636058,4519.963438
22104.626922,1184.329507,-9548.656652,6894.859482
22104.627255,2294.638420,-9474.636058,5745.716235
22104.627588,-666.185348,-7105.977043,1762.019645
22104.627921,-4737.318029,-10140.821405,-2451.505594
22104.628254,-3034.844362,-7476.080014,-2911.162892
22104.628588,-1258.350101,-9474.636058,-1532.190996
22104.628921,-4737.318029,-10066.800811,-3370.820191
22104.629254,-2368.659014,-7476.080014,-1072.533697
22104.629587,-3108.864956,-7105.977043,-2374.896044
22104.629920,1480.411884,-10066.800811,995.924147
22104.630254,2812.782580,-8364.327145,4826.401637
22104.630587,1998.556043,-10214.842000,2068.457845
22104.630920,2368.659014,-8512.368333,3983.696590
22104.631253,3182.885551,-10658.965565,4826.401637
22104.631586,3478.967927,-9474.636058,-1915.238745
22104.631920,-2072.576638,-10140.821405,-1378.971896
22104.632253,-370.102971,-13027.624579,-76.609550
22104.632586,-3552.988522,-8142.265362,919.314598
22104.632919,-1184.329507,-4293.194464,-2451.505594
22104.633252,-1628.453072,-8290.306550,-1915.238745
22104.633586,-2072.576638,-7772.162391,0.000000
22104.633919,1184.329507,-5403.503377,3064.381992
22104.634252,3478.967927,-9474.636058,2374.896044
22104.634585,0.000000,-9844.739029,0.000000
22104.634918,2664.741391,-7179.997637,3677.258390
22104.635252,740.205942,-8956.491898,-153.219100
22104.635585,3256.906145,-11251.130318,2374.896044
22104.635918,-2442.679609,-9474.636058,-2604.724693
22104.636251,-2812.782580,-11843.295072,-3140.991542
22104.636585,-666.185348,-9178.553681,-76.609550
22104.636918,-4737.318029,-11325.150913,-76.609550
22104.637251,-370.102971,-3330.926739,0.000000
22104.637584,2664.741391,-8734.430116,3600.648841
22104.637917,5551.544565,-7105.977043,4519.963438
22104.638251,2960.823768,-7846.182985,4903.011187
22104.638584,4663.297435,-7105.977043,2068.457845
22104.638917,0.000000,-11473.192101,2528.115143
22104.639250,1850.514855,-10066.800811,-536.266849
22104.639583,0.000000,-10807.006753,-1685.410096
22104.639917,-3256.906145,-14211.954086,-2834.553343
22104.640250,-4737.318029,-10732.986159,-4903.011187
22104.640583,-4145.153275,-5995.668130,-1608.800546
22104.640916,-74.020594,-12731.542202,-689.485948
22104.641249,888.247130,-3701.029710,2987.772442
22104.641583,1998.556043,-7105.977043,3524.039291
22104.641916,0.000000,-6291.750507,2451.505594
22104.642249,1850.514855,-4367.215058,689.485948
22104.642582,-1184.329507,-8956.491898,0.000000
22104.642915,5847.626942,-9474.636058,2374.896044
22104.643249,0.000000,-10140.821405,1378.971896
22104.643582,1184.329507,-12657.521608,3600.648841
22104.643915,-3034.844362,-10658.965565,-7584.345430
22104.644248,-2368.659014,-10732.986159,-5209.449386
22104.644581,-3478.967927,-12287.418637,-2145.067394
22104.644915,-888.247130,-8364.327145,-1455.581446
22104.645248,-814.226536,-7402.059420,153.219100
22104.645581,0.000000,-8068.244768,2451.505594
22104.645914,5255.462188,-6069.688724,3600.648841
22104.646247,3478.967927,-6957.935855,4136.915689
22104.646581,4737.318029,-7550.100608,2681.334243
22104.646914,1628.453072,-6883.915261,995.924147
22104.647247,0.000000,-11917.315666,612.876398
22104.647580,1110.308913,-8734.430116,-3753.867940
22104.647914,-4441.235652,-11325.150913,-2451.505594
22104.648247,1110.308913,-13027.624579,-2528.115143
22104.648580,-1258.350101,-13027.624579,-689.485948
22104.648913,-2368.659014,-7772.162391,-919.314598
22104.649246,-1850.514855,-10658.965565,-76.609550
22104.649580,1110.308913,-6513.812290,1149.143247
22104.649913,1110.308913,-8364.327145,2911.162892
22104.650246,6143.709319,-5921.647536,5439.278036
22104.650579,4663.297435,-6809.894666,1455.581446
22104.650912,2368.659014,-7920.203579,1225.752797
22104.651246,3775.050304,-9474.636058,2068.457845
22104.651579,0.000000,-11029.068536,0.000000
22104.651912,592.164754,-11843.295072,-383.047749
22104.652245,-1184.329507,-11917.315666,-1532.190996
22104.652578,-2442.679609,-12139.377449,-4290.134789
22104.652912,-1776.494261,-9548.656652,-2451.505594
22104.653245,-3034.844362,-11843.295072,-1915.238745
22104.653578,1702.473667,-5107.421000,0.000000
22104.653911,2590.720797,-8290.306550,4826.401637
22104.654244,3478.967927,-9474.636058,4826.401637
22104.654578,-1776.494261,-3923.091493,3677.258390
22104.654911,2886.803174,-5921.647536,-383.047749
22104.655244,2516.700203,-11251.130318,1149.143247
22104.655577,4441.235652,-7328.038826,5515.887586
22104.655910,2886.803174,-9770.718434,0.000000
22104.656244,-4145.153275,-10732.986159,-2451.505594
22104.656577,-7105.977043,-14285.974681,-6128.763984
22104.656910,-5255.462188,-14211.954086,-6205.373534
22104.657243,-3330.926739,-9696.697840,-2451.505594
22104.657576,-4737.318029,-9548.656652,2451.505594
22104.657910,1702.473667,-6513.812290,2987.772442
22104.658243,-592.164754,-5995.668130,6128.763984
22104.658576,3108.864956,-2738.761985,4366.744339
22104.658909,3552.988522,-6069.688724,5439.278036
22104.659243,3552.988522,-5477.523971,4903.011187
22104.659576,2960.823768,-5847.626942,536.266849
22104.659909,2072.576638,-12509.480420,-3753.867940
22104.660242,-1776.494261,-12361.439231,-1915.238745
22104.660575,-666.185348,-14211.954086,-4979.620737
22104.660909,-666.185348,-15396.283594,-3140.991542
22104.661242,-6513.812290,-13101.645173,-3064.381992
22104.661575,-1258.350101,-11251.130318,-2528.115143
22104.661908,-1258.350101,-7550.100608,2145.067394
22104.662241,5477.523971,-5847.626942,6665.030833
22104.662575,5699.585753,-4737.318029,8963.317327
22104.662908,5329.482782,-4367.215058,7277.907231
22104.663241,518.144159,-7698.141797,2068.457845
22104.663574,148.041188,-3775.050304,-1608.800546
22104.663907,-1628.453072,-14730.098246,-1915.238745
22104.664241,-3404.947333,-4811.338623,-2451.505594
22104.664574,-74.020594,-16580.613101,-3907.087040
22104.664907,-666.185348,-9474.636058,-5745.716235
22104.665240,-2368.659014,-15026.180623,-1378.971896
22104.665573,-3182.885551,-11547.212695,-4060.306139
22104.665907,3627.009116,-11843.295072,3753.867940
22104.666240,0.000000,-7476.080014,3370.820191
22104.666573,8734.430116,-6069.688724,7890.783629
22104.666906,4663.297435,-4737.318029,7277.907231
22104.667239,3552.988522,-8586.388927,8580.269578
22104.667573,4663.297435,-2368.659014,-76.609550
22104.667906,-1628.453072,-12213.398043,-2451.505594
22104.668239,0.000000,-9548.656652,-1532.190996
22104.668572,-3627.009116,-9918.759623,-4596.572988
22104.668905,-4441.235652,-12361.439231,-5669.106685
22104.669239,-6069.688724,-11917.315666,-5439.278036
22104.669572,-5329.482782,-12953.603985,-4749.792088
22104.669905,-1924.535449,-9548.656652,2451.505594
22104.670238,2590.720797,-8290.306550,6052.154434
22104.670572,2590.720797,-8290.306550,7277.907231
22104.670905,0.000000,-4811.338623,8580.269578
22104.671238,6439.791695,-6513.812290,4826.401637
22104.671571,3552.988522,-3034.844362,1072.533697
22104.671904,1850.514855,-11029.068536,3140.991542
22104.672238,-2368.659014,-5699.585753,-4749.792088
22104.672571,148.041188,-9252.574275,-5286.058936
22104.672904,-7105.977043,-16950.716072,-5515.887586
22104.673237,4663.297435,-11547.212695,-5592.497135
22104.673570,-3034.844362,-14878.139434,0.000000
22104.673904,0.000000,-11917.315666,2451.505594
22104.674237,3478.967927,-9474.636058,4826.401637
22104.674570,0.000000,-7476.080014,5822.325785
22104.674903,7328.038826,-3849.070898,6358.592633
22104.675236,3478.967927,-5477.523971,6665.030833
22104.675570,7254.018232,-3182.885551,3983.696590
22104.675903,-2960.823768,-5699.585753,306.438199
22104.676236,-3552.988522,-9548.656652,-6894.859482
22104.676569,-4441.235652,-10140.821405,-7354.516781
22104.676902,-5329.482782,-14063.912898,-5439.278036
22104.677236,-3627.009116,-11103.089130,-5592.497135
22104.677569,-4737.318029,-10732.986159,-2451.505594
22104.677902,1998.556043,-13027.624579,2068.457845
22104.678235,3478.967927,-8882.471304,4213.525239
22104.678568,3701.029710,-9548.656652,7431.126331
22104.678902,4663.297435,-9474.636058,8503.660028
22104.679235,3923.091493,-5107.421000,4673.182538
22104.679568,2368.659014,-7476.080014,2757.943793
22104.679901,2146.597232,-4367.215058,229.828649
22104.680234,-3256.906145,-9548.656652,-3677.258390
22104.680568,-4589.276840,-9548.656652,-7048.078582
22104.680901,-74.020594,-11843.295072,-6358.592633
22104.681234,-3478.967927,-12657.521608,-2528.115143
22104.681567,-1776.494261,-7179.997637,-1225.752797
22104.681901,-740.205942,-11843.295072,842.705048
22104.682234,0.000000,-10140.821405,3140.991542
22104.682567,3256.906145,-8068.244768,5439.278036
22104.682900,3256.906145,-7920.203579,6894.859482
22104.683233,5181.441594,-7105.977043,7124.688131
22104.683567,-1628.453072,-8364.327145,6511.811733
22104.683900,-74.020594,-4737.318029,-1608.800546
22104.684233,-2368.659014,-7920.203579,-2604.724693
22104.684566,-74.020594,-12583.501014,-689.485948
22104.684899,-2368.659014,-8068.244768,-3677.258390
22104.685233,-3108.864956,-10658.965565,-4519.963438
22104.685566,-1702.473667,-9178.553681,-536.266849
22104.685899,444.123565,-9844.739029,2374.896044
22104.686232,4071.132681,-8290.306550,4213.525239
22104.686565,5921.647536,-7624.121203,4826.401637
22104.686899,-2072.576638,-10140.821405,-2451.505594
22104.687232,2960.823768,-8364.327145,4826.401637
22104.687565,-666.185348,-11547.212695,-1302.362347
22104.687898,3182.885551,-8216.285956,-76.609550
22104.688231,-740.205942,-9696.697840,-1225.752797
22104.688565,-2442.679609,-11473.192101,-2221.676944
22104.688898,-1776.494261,-5995.668130,-1991.848295
22104.689231,-2368.659014,-8956.491898,-3064.381992
22104.689564,2294.638420,-8290.306550,-1302.362347
22104.689897,0.000000,-7772.162391,2145.067394
22104.690231,3256.906145,-10436.903782,4213.525239
22104.690564,1110.308913,-6143.709319,306.438199
22104.690897,518.144159,-9178.553681,-229.828649
22104.691230,2960.823768,-10214.842000,1225.752797
22104.691563,3627.009116,-9770.718434,2681.334243
22104.691897,148.041188,-9178.553681,-383.047749
22104.692230,-1184.329507,-10732.986159,-1532.190996
22104.692563,-222.061783,-9844.739029,-3140.991542
22104.692896,-2294.638420,-12361.439231,-995.924147
22104.693230,518.144159,-7402.059420,-689.485948
22104.693563,-740.205942,-5847.626942,-766.095498
22104.693896,-1776.494261,-9548.656652,0.000000
22104.694229,2886.803174,-5773.606348,3600.648841
22104.694562,74.020594,-6587.832884,0.000000
22104.694896,3404.947333,-9474.636058,4826.401637
22104.695229,3478.967927,-9474.636058,2374.896044
22104.695562,4367.215058,-11547.212695,2374.896044
22104.695895,2368.659014,-7772.162391,612.876398
22104.696228,-2442.679609,-13249.686362,-1991.848295
22104.696562,-1184.329507,-10362.883188,-536.266849
22104.696895,-3849.070898,-8512.368333,-2451.505594
22104.697228,-3552.988522,-9548.656652,-306.438199
22104.697561,-2442.679609,-7105.977043,-1302.362347
22104.697894,-74.020594,-5921.647536,-3447.429741
22104.698228,0.000000,-8364.327145,3983.696590
22104.698561,4663.297435,-2072.576638,3983.696590
22104.698894,2738.761985,-7550.100608,5439.278036
22104.699227,3552.988522,-5477.523971,2221.676944
22104.699560,1554.432478,-12435.459826,-1455.581446
22104.699894,592.164754,-13619.789333,1838.629195
22104.700227,2960.823768,-10732.986159,-76.609550
22104.700560,-3034.844362,-14878.139434,-3370.820191
22104.700893,-2368.659014,-7476.080014,-4903.011187
22104.701226,-3404.947333,-14804.118840,-1302.362347
22104.701560,-3552.988522,-4811.338623,766.095498
22104.701893,-370.102971,-5329.482782,-612.876398
22104.702226,518.144159,-8142.265362,5132.839837
22104.702559,5107.421000,-1628.453072,4979.620737
22104.702892,-74.020594,-8290.306550,4213.525239
22104.703226,3923.091493,-8290.306550,2374.896044
22104.703559,-1258.350101,-8512.368333,-2145.067394
22104.703892,-3404.947333,-12657.521608,-1762.019645
22104.704225,3478.967927,-11547.212695,-2528.115143
22104.704559,-2738.761985,-18357.107362,-1915.238745
22104.704892,-1184.329507,-7179.997637,-3217.601092
22104.705225,-2294.638420,-13027.624579,995.924147
22104.705558,-666.185348,-8216.285956,-1302.362347
22104.705891,-2368.659014,-6587.832884,1225.752797
22104.706225,1110.308913,-5921.647536,306.438199
22104.706558,5329.482782,-6291.750507,8733.488677
22104.706891,5551.544565,-5921.647536,3294.210641
22104.707224,592.164754,-11325.150913,4903.011187
22104.707557,2886.803174,-5477.523971,3600.648841
22104.707891,-296.082377,-11843.295072,-76.609550
22104.708224,2516.700203,-8068.244768,-3370.820191
22104.708557,-3330.926739,-15618.345376,-2987.772442
22104.708890,-2960.823768,-9548.656652,-6741.640382
22104.709223,-4515.256246,-14285.974681,-2298.286494
22104.709557,-2146.597232,-7994.224174,-2987.772442
22104.709890,-1480.411884,-10140.821405,1149.143247
22104.710223,-666.185348,-5181.441594,2374.896044
22104.710556,4145.153275,-2442.679609,3907.087040
22104.710889,1702.473667,-11843.295072,6052.154434
22104.711223,9474.636058,-74.020594,7354.516781
22104.711556,2146.597232,-11251.130318,4903.011187
22104.711889,9104.533087,-8290.306550,3370.820191
22104.712222,-1184.329507,-9252.574275,-1532.190996
22104.712555,-4663.297435,-12879.583391,-5515.887586
22104.712889,3108.864956,-7254.018232,-10572.117872
22104.713222,-6513.812290,-21465.972318,-4979.620737
22104.713555,2368.659014,-10140.821405,0.000000
22104.713888,-4219.173869,-8660.409521,-2451.505594
22104.714221,296.082377,-9548.656652,4290.134789
22104.714555,4589.276840,-3552.988522,6665.030833
22104.714888,5847.626942,-5625.565159,7277.907231
22104.715221,7105.977043,-3478.967927,9729.412825
22104.715560,2368.659014,-7476.080014,3064.381992
22104.715894,4589.276840,-7105.977043,3217.601092
22104.716227,-2368.659014,-10140.821405,-1991.848295
22104.716560,-666.185348,-12879.583391,-6205.373534
22104.716893,-9474.636058,-11917.315666,-7354.516781
22104.717227,-3775.050304,-15396.283594,-6205.373534
22104.717560,-5699.585753,-8364.327145,-7967.393179
22104.717893,-5921.647536,-11917.315666,0.000000
22104.718227,-74.020594,-8290.306550,2987.772442
22104.718560,4663.297435,-1776.494261,5209.449386
22104.718893,3849.070898,-8290.306550,10265.679673
22104.719227,5403.503377,-2516.700203,5898.935335
22104.719560,1776.494261,-6291.750507,2451.505594
22104.719893,1184.329507,-9252.574275,6052.154434
22104.720226,1110.308913,-6291.750507,-4749.792088
22104.720560,-4737.318029,-13693.809927,-6128.763984
22104.720893,-3552.988522,-12805.562797,-6128.763984
22104.721226,-7179.997637,-15174.221811,-9806.022374
22104.721560,-5181.441594,-14063.912898,-1762.019645
22104.721893,-7105.977043,-7179.997637,-2145.067394
22104.722226,0.000000,-7328.038826,2757.943793
22104.722559,962.267725,-6587.832884,5132.839837
22104.722893,3997.112087,-5847.626942,7890.783629
22104.723226,5329.482782,-5033.400406,9269.755526
22104.723559,1258.350101,-7550.100608,5132.839837
22104.723893,7031.956449,-5921.647536,2987.772442
22104.724226,-74.020594,-10362.883188,-2451.505594
22104.724559,0.000000,-10732.986159,-2604.724693
22104.724893,-370.102971,-13619.789333,-5592.497135
22104.725226,-2738.761985,-14730.098246,-6741.640382
22104.725559,1776.494261,-9104.533087,-3064.381992
22104.725892,-2738.761985,-14211.954086,-1149.143247
22104.726226,1554.432478,-9474.636058,-76.609550
22104.726559,0.000000,-9548.656652,2068.457845
22104.726892,2590.720797,-6809.894666,2834.553343
22104.727226,6365.771101,-2516.700203,6511.811733
22104.727559,2960.823768,-7031.956449,10955.165621
22104.727892,5255.462188,-1184.329507,4826.401637
22104.728226,1702.473667,-3034.844362,-2298.286494
22104.728559,2294.638420,-10658.965565,-2528.115143
22104.728892,-814.226536,-9326.594869,-7507.735880
22104.729225,-3182.885551,-16580.613101,-7660.954980
22104.729559,666.185348,-11621.233289,-5592.497135
22104.729892,-1480.411884,-14878.139434,-3677.258390
22104.730225,2886.803174,-11843.295072,-536.266849
22104.730559,2368.659014,-10140.821405,2987.772442
22104.730892,3478.967927,-9474.636058,2987.772442
22104.731225,2368.659014,-4811.338623,3064.381992
22104.731559,3552.988522,-8660.409521,7967.393179
22104.731892,2812.782580,-4515.256246,6588.421283
22104.732225,2664.741391,-5107.421000,3753.867940
22104.732558,1036.288319,-6809.894666,1762.019645
22104.732892,1702.473667,-9474.636058,-1915.238745
22104.733225,-4293.194464,-10732.986159,-3677.258390
22104.733558,-3034.844362,-9474.636058,-8044.002729
22104.733892,-4811.338623,-15396.283594,-6818.249932
22104.734225,-9178.553681,-13101.645173,-2451.505594
22104.734558,-666.185348,-9474.636058,-1302.362347
22104.734891,-1998.556043,-9030.512492,2834.553343
22104.735225,3478.967927,-5699.585753,2528.115143
22104.735558,1110.308913,-10362.883188,8197.221829
22104.735891,4515.256246,-3701.029710,6358.592633
22104.736225,4145.153275,-8660.409521,7584.345430
22104.736558,-74.020594,-8512.368333,1532.190996
22104.736891,1924.535449,-5995.668130,0.000000
22104.737225,-1850.514855,-15988.448347,-689.485948
22104.737558,-74.020594,-8586.388927,-2528.115143
22104.737891,-5477.523971,-11621.233289,-5592.497135
22104.738224,-3108.864956,-10807.006753,-1762.019645
22104.738558,-444.123565,-8438.347739,76.609550
22104.738891,-1554.432478,-11621.233289,1838.629195
22104.739224,2368.659014,-4737.318029,3294.210641
22104.739558,-2812.782580,-9696.697840,1225.752797
22104.739891,3182.885551,-5477.523971,1762.019645
22104.740224,2368.659014,-8660.409521,4903.011187
22104.740558,1110.308913,-6957.935855,1455.581446
22104.740891,3552.988522,-3627.009116,-536.266849
22104.741224,-1554.432478,-18949.272115,-1302.362347
22104.741557,2146.597232,-5995.668130,-2451.505594
22104.741891,-1702.473667,-11251.130318,-3524.039291
22104.742224,2886.803174,-12435.459826,-1915.238745
22104.742557,1702.473667,-8512.368333,-536.266849
22104.742891,2442.679609,-11177.109724,3600.648841
22104.743224,5477.523971,-4885.359217,3064.381992
22104.743557,296.082377,-10732.986159,1532.190996
22104.743890,5921.647536,-7476.080014,7277.907231
22104.744224,1406.391290,-7624.121203,2451.505594
22104.744557,2516.700203,-5995.668130,612.876398
22104.744890,-2368.659014,-9474.636058,-1302.362347
22104.745224,-2146.597232,-9844.739029,-4903.011187
22104.745557,1110.308913,-7624.121203,-2298.286494
22104.745890,-3849.070898,-13545.768739,-1378.971896
22104.746224,-888.247130,-7328.038826,-4903.011187
22104.746557,-2664.741391,-10362.883188,2298.286494
22104.746890,-74.020594,-14211.954086,4826.401637
22104.747223,2294.638420,-2146.597232,1225.752797
22104.747557,0.000000,-10140.821405,2451.505594
22104.747890,6809.894666,-7105.977043,4213.525239
22104.748223,592.164754,-11325.150913,4903.011187
22104.748557,3478.967927,-8586.388927,2451.505594
22104.748890,-2664.741391,-10140.821405,-1838.629195
22104.749223,-740.205942,-9844.739029,-1685.410096
22104.749557,-1258.350101,-9992.780217,-3140.991542
22104.749890,-1554.432478,-11843.295072,-3140.991542
22104.750223,-4515.256246,-9548.656652,-3677.258390
22104.750556,-4441.235652,-10658.965565,-76.609550
22104.750890,3923.091493,-5921.647536,3600.648841
22104.751223,1110.308913,-9474.636058,7277.907231
22104.751556,2590.720797,-4071.132681,3600.648841
22104.751890,-1036.288319,-9326.594869,1149.143247
22104.752223,222.061783,-8956.491898,1378.971896
22104.752556,-1776.494261,-6587.832884,-2451.505594
22104.752890,-1258.350101,-11325.150913,-4290.134789
22104.753223,-1776.494261,-9548.656652,-3677.258390
22104.753556,-2590.720797,-12731.542202,-3140.991542
22104.753889,518.144159,-11251.130318,-2911.162892
22104.754223,-2442.679609,-11251.130318,1149.143247
22104.754556,148.041188,-7698.141797,1455.581446
22104.754889,4145.153275,-6069.688724,2451.505594
22104.755223,4959.379811,-10955.047942,4213.525239
22104.755556,1184.329507,-6587.832884,5056.230287
22104.755889,3997.112087,-5403.503377,1532.190996
22104.756222,4219.173869,-10066.800811,2987.772442
22104.756556,1332.370696,-10510.924376,-995.924147
22104.756889,2812.782580,-9844.739029,-1762.019645
22104.757222,-4145.153275,-9548.656652,-5209.449386
22104.757556,-1258.350101,-13619.789333,-4979.620737
22104.757889,-1924.535449,-8364.327145,-2451.505594
22104.758222,-814.226536,-12435.459826,2451.505594
22104.758556,-74.020594,-8882.471304,-76.609550
22104.758889,-2368.659014,-9548.656652,2451.505594
22104.759222,-2368.659014,-9030.512492,2528.115143
22104.759555,3849.070898,-3775.050304,4903.011187
22104.759889,4811.338623,-7031.956449,5822.325785
22104.760222,6513.812290,-6439.791695,5209.449386
22104.760555,0.000000,-7476.080014,1532.190996
22104.760889,-4737.318029,-8364.327145,-7354.516781
22104.761222,-2220.617826,-15396.283594,-3140.991542
22104.761555,-2442.679609,-5625.565159,-10342.289223
22104.761889,1702.473667,-16580.613101,-689.485948
22104.762222,-2960.823768,-9992.780217,0.000000
22104.762555,296.082377,-10362.883188,-2757.943793
22104.762888,-518.144159,-12583.501014,4903.011187
22104.763222,4367.215058,-6809.894666,6052.154434
22104.763555,4737.318029,-4811.338623,9806.022374
22104.763888,2664.741391,-9178.553681,10801.946522
22104.764222,3478.967927,-1776.494261,-76.609550
22104.764555,-3552.988522,-7179.997637,1225.752797
22104.764888,-74.020594,-10510.924376,-2528.115143
22104.765222,-3182.885551,-9696.697840,-5515.887586
22104.765555,-5995.668130,-13545.768739,-6511.811733
22104.765888,-5403.503377,-12583.501014,-5286.058936
22104.766221,-7031.956449,-6661.853478,-7737.564530
22104.766555,-4145.153275,-12213.398043,1838.629195
22104.766888,3478.967927,-9474.636058,5439.278036
22104.767221,4071.132681,-2738.761985,5439.278036
22104.767555,2368.659014,-5995.668130,7967.393179
22104.767888,5551.544565,-5255.462188,4213.525239
22104.768221,1776.494261,-6957.935855,229.828649
22104.768554,4145.153275,-8364.327145,612.876398
22104.768888,1258.350101,-12435.459826,-1149.143247
22104.769221,-1110.308913,-9548.656652,-5132.839837
22104.769554,-2220.617826,-12657.521608,-4673.182538
22104.769888,-3552.988522,-12879.583391,-4903.011187
22104.770221,0.000000,-6735.874072,-2528.115143
22104.770554,-1258.350101,-14211.954086,842.705048
22104.770888,4663.297435,-8290.306550,4826.401637
22104.771221,-2294.638420,-7179.997637,4290.134789
22104.771554,0.000000,-5403.503377,4903.011187
22104.771887,1110.308913,-7402.059420,5898.935335
22104.772221,2960.823768,-4737.318029,1225.752797
22104.772554,5107.421000,-6809.894666,4443.353888
22104.772887,814.226536,-7402.059420,-2987.772442
22104.773221,-666.185348,-12583.501014,-5056.230287
22104.773554,-7476.080014,-12879.583391,-6205.373534
22104.773887,222.061783,-11251.130318,-4979.620737
22104.774221,-5921.647536,-11029.068536,-2145.067394
22104.774554,3997.112087,-10066.800811,2374.896044
22104.774887,1998.556043,-10955.047942,3524.039291
22104.775220,4071.132681,-9178.553681,6358.592633
22104.775554,4811.338623,-6217.729913,6511.811733
22104.775887,74.020594,-7698.141797,4290.134789
22104.776220,5995.668130,-5181.441594,4596.572988
22104.776554,0.000000,-8364.327145,1838.629195
22104.776887,-74.020594,-10658.965565,-2834.553343
22104.777220,-3552.988522,-9252.574275,-76.609550
22104.777554,-74.020594,-10066.800811,-3447.429741
22104.777887,0.000000,-7179.997637,-2911.162892
22104.778220,-2368.659014,-8364.327145,-2834.553343
22104.778553,-4293.194464,-10510.924376,-3447.429741
22104.778887,-3701.029710,-11547.212695,536.266849
22104.779220,1480.411884,-7031.956449,1149.143247
22104.779553,3478.967927,-11843.295072,8810.098227
22104.779887,1702.473667,-4811.338623,2451.505594
22104.780220,3478.967927,-7105.977043,4826.401637
22104.780553,-74.020594,-8586.388927,1608.800546
22104.780886,3849.070898,-4071.132681,1762.019645
22104.781220,-74.020594,-11843.295072,-1838.629195
22104.781553,814.226536,-11029.068536,-2528.115143
22104.781886,-1036.288319,-12287.418637,-5669.106685
22104.782220,-666.185348,-12583.501014,-3294.210641
22104.782553,-962.267725,-14211.954086,-3217.601092
22104.782886,1776.494261,-7179.997637,6052.154434
22104.783220,-74.020594,-8734.430116,1762.019645
22104.783553,2960.823768,-4811.338623,3064.381992
22104.783886,0.000000,-9474.636058,7277.907231
22104.784219,2886.803174,-8882.471304,4136.915689
22104.784553,2812.782580,-6365.771101,4749.792088
22104.784886,-666.185348,-9104.533087,2604.724693
22104.785219,518.144159,-7105.977043,-459.657299
22104.785553,-3627.009116,-8512.368333,-4290.134789
22104.785886,-4737.318029,-13915.871710,-5592.497135
22104.786219,-3849.070898,-9844.739029,-6128.763984
22104.786553,-2664.741391,-12509.480420,-2911.162892
22104.786886,-296.082377,-8956.491898,612.876398
22104.787219,-1924.535449,-9178.553681,2987.772442
22104.787552,2368.659014,-5995.668130,3447.429741
22104.787886,5477.523971,-10732.986159,8197.221829
22104.788219,5551.544565,-8068.244768,6128.763984
22104.788552,5329.482782,-4737.318029,6665.030833
22104.788886,2886.803174,-9474.636058,995.924147
22104.789219,814.226536,-10214.842000,-919.314598
22104.789552,-2220.617826,-10732.986159,-4979.620737
22104.789885,-1036.288319,-11769.274478,-3753.867940
22104.790219,-3552.988522,-8808.450710,-4290.134789
22104.790552,-4737.318029,-10436.903782,-2451.505594
22104.790885,1110.308913,-8290.306550,536.266849
22104.791219,-74.020594,-6513.812290,0.000000
22104.791552,3552.988522,-6883.915261,6435.202183
22104.791885,2886.803174,-7254.018232,3217.601092
22104.792219,5033.400406,-9474.636058,5439.278036
22104.792552,-222.061783,-8660.409521,1991.848295
22104.792885,-74.020594,-9696.697840,-995.924147
22104.793218,1184.329507,-8808.450710,-306.438199
22104.793552,0.000000,-12509.480420,3294.210641
22104.793885,2294.638420,-4885.359217,-3524.039291
22104.794218,-1480.411884,-10140.821405,-4903.011187
22104.794552,-2368.659014,-9696.697840,-2528.115143
22104.794885,0.000000,-9844.739029,-2145.067394
22104.795218,1924.535449,-11325.150913,3524.039291
22104.795552,1998.556043,-5255.462188,6588.421283
22104.795885,1628.453072,-4589.276840,-536.266849
22104.796218,2294.638420,-11843.295072,3600.648841
22104.796551,2146.597232,-8290.306550,1149.143247
22104.796885,0.000000,-7179.997637,0.000000
22104.797218,-74.020594,-10658.965565,-76.609550
22104.797551,-3108.864956,-13619.789333,-4979.620737
22104.797885,-1850.514855,-11473.192101,1149.143247
22104.798218,-2590.720797,-7402.059420,-4136.915689
22104.798551,-1554.432478,-9844.739029,-3064.381992
22104.798885,-370.102971,-8808.450710,0.000000
22104.799218,592.164754,-7772.162391,1225.752797
22104.799551,-1258.350101,-8068.244768,1532.190996
22104.799884,592.164754,-7920.203579,1225.752797
22104.800218,4663.297435,-9474.636058,6052.154434
22104.800551,0.000000,-8364.327145,5515.887586
22104.800884,5847.626942,-9474.636058,4826.401637
22104.801218,-4737.318029,-10807.006753,-2145.067394
22104.801551,-2368.659014,-9252.574275,-2757.943793
22104.801884,-3182.885551,-10362.883188,-2221.676944
22104.802217,-3552.988522,-9844.739029,-2145.067394
22104.802551,-3034.844362,-4959.379811,-3370.820191
22104.802884,-3478.967927,-9030.512492,-3753.867940
22104.803217,814.226536,-10955.047942,0.000000
22104.803551,3701.029710,-7179.997637,6052.154434
22104.803884,1184.329507,-8364.327145,3447.429741
22104.804217,5255.462188,-8882.471304,4213.525239
22104.804551,0.000000,-4811.338623,1225.752797
22104.804884,2294.638420,-13027.624579,1149.143247
22104.805217,3478.967927,-8586.388927,2374.896044
22104.805550,-3256.906145,-9992.780217,-3217.601092
22104.805884,-3034.844362,-14137.933492,-1991.848295
22104.806217,-1480.411884,-7624.121203,-1608.800546
22104.806550,-2812.782580,-7179.997637,-2451.505594
22104.806884,592.164754,-8364.327145,0.000000
22104.807217,1628.453072,-7179.997637,612.876398
22104.807550,1332.370696,-3627.009116,1225.752797
22104.807884,5255.462188,-11103.089130,4826.401637
22104.808217,3478.967927,-6365.771101,1762.019645
22104.808550,2516.700203,-7698.141797,-76.609550
22104.808883,2220.617826,-10732.986159,-2221.676944
22104.809217,3034.844362,-13323.706956,-1455.581446
22104.809550,-2812.782580,-15100.201217,-3447.429741
22104.809883,4663.297435,-10362.883188,-76.609550
22104.810217,-3923.091493,-11325.150913,-2451.505594
22104.810550,1184.329507,-7846.182985,0.000000
22104.810883,1998.556043,-5921.647536,-76.609550
22104.811217,0.000000,-7179.997637,2451.505594
22104.811550,6439.791695,-3256.906145,3600.648841
22104.811883,0.000000,-10066.800811,3677.258390
22104.812216,3182.885551,-6809.894666,3370.820191
22104.812549,-74.020594,-6661.853478,842.705048
22104.812882,-370.102971,-9474.636058,-2374.896044
22104.813216,-3552.988522,-11917.315666,0.000000
22104.813549,-2590.720797,-13619.789333,-3140.991542
22104.813882,-4811.338623,-13027.624579,-6205.373534
22104.814215,-4737.318029,-10140.821405,0.000000
22104.814548,-74.020594,-7698.141797,-995.924147
22104.814881,-1480.411884,-8216.285956,2834.553343
22104.815214,3034.844362,-6439.791695,3370.820191
22104.815547,-74.020594,-8290.306550,3907.087040
22104.815881,1998.556043,-4145.153275,2374.896044
22104.816214,2590.720797,-7994.224174,2834.553343
22104.816547,1628.453072,-8660.409521,2221.676944
22104.816880,1332.370696,-8956.491898,1455.581446
22104.817213,-74.020594,-12953.603985,-1838.629195
22104.817546,-5329.482782,-13101.645173,-4290.134789
22104.817879,-3627.009116,-14211.954086,-76.609550
22104.818213,-1258.350101,-7476.080014,0.000000
22104.818546,888.247130,-9400.615463,1225.752797
22104.818879,2664.741391,-9178.553681,5515.887586
22104.819212,-3923.091493,-7994.224174,919.314598
22104.819545,2516.700203,-4737.318029,3217.601092
22104.819878,-2368.659014,-7254.018232,1225.752797
22104.820211,518.144159,-7105.977043,-383.047749
22104.820544,5995.668130,-5625.565159,1149.143247
22104.820878,-2368.659014,-12509.480420,2374.896044
22104.821211,7476.080014,-5477.523971,-2604.724693
22104.821544,-2442.679609,-12805.562797,-1838.629195
22104.821877,-444.123565,-12657.521608,-4366.744339
22104.822210,-2072.576638,-11695.253884,-995.924147
22104.822543,-4219.173869,-13323.706956,-2604.724693
22104.822876,4663.297435,-4737.318029,-1302.362347
22104.823209,592.164754,-10140.821405,4903.011187
22104.823543,11769.274478,-592.164754,1532.190996
22104.823876,8216.285956,-14211.954086,8503.660028
22104.824209,5181.441594,-7179.997637,4903.011187
22104.824542,7105.977043,-7105.977043,3677.258390
22104.824875,-1258.350101,-14582.057057,153.219100
22104.825208,4737.318029,-5181.441594,-1225.752797
22104.825541,-3330.926739,-10732.986159,-3677.258390
22104.825874,592.164754,-10807.006753,-2911.162892
22104.826208,-1258.350101,-11843.295072,-2528.115143
22104.826541,-9474.636058,-12509.480420,-4903.011187
22104.826874,-74.020594,-7105.977043,-76.609550
22104.827207,-74.020594,-9474.636058,2374.896044
22104.827540,2368.659014,-5403.503377,5669.106685
22104.827873,5847.626942,-4737.318029,9729.412825
22104.828206,0.000000,-7698.141797,1149.143247
22104.828539,6513.812290,-7179.997637,3064.381992
22104.828873,1480.411884,-11769.274478,4443.353888
22104.829206,3182.885551,-7254.018232,-3217.601092
22104.829539,-2368.659014,-14285.974681,-383.047749
22104.829872,-4219.173869,-15692.365970,-7354.516781
22104.830205,-3552.988522,-9548.656652,-4290.134789
22104.830538,-5033.400406,-12731.542202,-76.609550
22104.830871,-666.185348,-5921.647536,-2221.676944
22104.831204,-3404.947333,-11843.295072,-76.609550
22104.831538,3330.926739,-5921.647536,7431.126331
22104.831871,-1850.514855,-7698.141797,6205.373534
22104.832204,4737.318029,-2146.597232,3983.696590
22104.832537,592.164754,-9622.677246,5898.935335
22104.832870,518.144159,-4959.379811,-919.314598
22104.833203,3034.844362,-9918.759623,1302.362347
22104.833536,-6661.853478,-13101.645173,-5439.278036
22104.833869,-74.020594,-10658.965565,-6511.811733
22104.834203,-8290.306550,-15840.407159,-2528.115143
22104.834536,0.000000,-11325.150913,-689.485948
22104.834869,-5403.503377,-9474.636058,-2451.505594
22104.835202,0.000000,-5699.585753,3064.381992
22104.835535,4663.297435,-5921.647536,2374.896044
22104.835868,3627.009116,-8660.409521,7584.345430
22104.836201,7254.018232,-1628.453072,3830.477490
22104.836534,3256.906145,-12879.583391,1762.019645
22104.836868,5477.523971,-9548.656652,1225.752797
22104.837201,1776.494261,-10436.903782,2834.553343
22104.837534,814.226536,-10362.883188,-6052.154434
22104.837867,1998.556043,-7624.121203,-4749.792088
22104.838200,-3552.988522,-14434.015869,-3140.991542
22104.838533,2294.638420,-9548.656652,-2145.067394
22104.838866,-2368.659014,-10066.800811,842.705048
22104.839199,-4885.359217,-11991.336260,-2451.505594
22104.839533,2368.659014,-2146.597232,4826.401637
22104.839866,1776.494261,-9474.636058,5669.106685
22104.840199,7624.121203,-7105.977043,9729.412825
22104.840532,1406.391290,-3627.009116,2451.505594
22104.840865,2664.741391,-9548.656652,0.000000
22104.841198,5921.647536,-6143.709319,1762.019645
22104.841531,0.000000,-14285.974681,153.219100
22104.841864,1628.453072,-8068.244768,-6588.421283
22104.842198,-4219.173869,-15840.407159,-5132.839837
22104.842531,-2072.576638,-14137.933492,-5592.497135
22104.842864,-666.185348,-10214.842000,1149.143247
22104.843197,-74.020594,-11843.295072,1762.019645
22104.843530,1406.391290,-2442.679609,2451.505594
22104.843863,4441.235652,-7994.224174,4826.401637
22104.844196,3997.112087,-7105.977043,6665.030833
22104.844529,3478.967927,-5329.482782,8197.221829
22104.844863,1850.514855,-8290.306550,1915.238745
22104.845196,-814.226536,-9474.636058,-383.047749
22104.845529,-2812.782580,-8068.244768,-5745.716235
22104.845862,-4737.318029,-11325.150913,-4903.011187
22104.846195,-4811.338623,-10732.986159,-4903.011187
22104.846528,-2664.741391,-11473.192101,-3677.258390
22104.846861,-3627.009116,-13027.624579,-1302.362347
22104.847194,-4293.194464,-9548.656652,0.000000
22104.847528,-444.123565,-8290.306550,3600.648841
22104.847861,0.000000,-3923.091493,6128.763984
22104.848194,4367.215058,-1924.535449,4673.182538
22104.848527,0.000000,-9474.636058,4673.182538
22104.848860,0.000000,-6587.832884,1838.629195
22104.849193,-222.061783,-11103.089130,-2604.724693
22104.849526,666.185348,-15100.201217,-2834.553343
22104.849859,-2368.659014,-11029.068536,-3064.381992
22104.850193,-222.061783,-9326.594869,-4596.572988
22104.850526,-2960.823768,-9548.656652,-3064.381992
22104.850859,-74.020594,-11251.130318,-2528.115143
22104.851192,592.164754,-6587.832884,0.000000
22104.851525,1924.535449,-8882.471304,7048.078582
22104.851858,4663.297435,-5921.647536,4519.963438
22104.852191,-4737.318029,-9696.697840,3064.381992
22104.852524,2812.782580,-3701.029710,2374.896044
22104.852858,-740.205942,-9030.512492,1685.410096
22104.853191,3701.029710,-5551.544565,1072.533697
22104.853524,1480.411884,-13397.727550,612.876398
22104.853857,-5551.544565,-9844.739029,-5822.325785
22104.854190,0.000000,-9548.656652,-2145.067394
22104.854523,-1258.350101,-13027.624579,-2834.553343
22104.854856,3478.967927,-6365.771101,0.000000
22104.855190,1554.432478,-9474.636058,1762.019645
22104.855523,5773.606348,-8290.306550,3830.477490
22104.855856,2368.659014,-8586.388927,6205.373534
22104.856189,3034.844362,-5255.462188,3064.381992
22104.856522,5551.544565,-9474.636058,3600.648841
22104.856855,74.020594,-10140.821405,612.876398
22104.857188,3108.864956,-9474.636058,2374.896044
22104.857521,-3034.844362,-13027.624579,-5286.058936
22104.857855,2368.659014,-7179.997637,-3064.381992
22104.858188,-4811.338623,-14804.118840,-3753.867940
22104.858521,3182.885551,-7698.141797,1762.019645
22104.858854,0.000000,-7105.977043,1378.971896
22104.859187,-814.226536,-9030.512492,1532.190996
22104.859520,1036.288319,-4367.215058,1532.190996
22104.859853,0.000000,-5403.503377,4290.134789
22104.860186,4071.132681,-11251.130318,2374.896044
22104.860520,-2960.823768,-9548.656652,0.000000
22104.860853,592.164754,-8660.409521,2451.505594
22104.861186,-2442.679609,-8882.471304,-2528.115143
22104.861519,1258.350101,-10510.924376,-3447.429741
22104.861852,-1258.350101,-13323.706956,-766.095498
22104.862185,-1628.453072,-10732.986159,-1685.410096
22104.862518,740.205942,-3775.050304,-1302.362347
22104.862851,-148.041188,-11843.295072,-383.047749
22104.863185,1480.411884,-9844.739029,1225.752797
22104.863518,1110.308913,-6291.750507,4979.620737
22104.863851,3404.947333,-9178.553681,3907.087040
22104.864184,2886.803174,-7105.977043,4213.525239
22104.864517,-2368.659014,-8956.491898,2757.943793
22104.864850,3478.967927,-9474.636058,3600.648841
22104.865183,-2442.679609,-8956.491898,-1838.629195
22104.865516,-2220.617826,-12065.356855,0.000000
22104.865850,-4515.256246,-8660.409521,-3600.648841
22104.866183,-3552.988522,-11991.336260,-2528.115143
22104.866516,-5847.626942,-11103.089130,-1685.410096
22104.866849,-1850.514855,-4145.153275,-1302.362347
22104.867182,962.267725,-11251.130318,2374.896044
22104.867515,0.000000,-5107.421000,4290.134789
22104.867848,4071.132681,-9474.636058,6052.154434
22104.868181,1406.391290,-8882.471304,995.924147
22104.868515,4071.132681,-9474.636058,3600.648841
22104.868848,-74.020594,-11029.068536,-612.876398
22104.869181,5329.482782,-11325.150913,5362.668486
22104.869514,1554.432478,-7698.141797,-1762.019645
22104.869847,-2368.659014,-13101.645173,-1685.410096
22104.870180,-3034.844362,-10510.924376,-2834.553343
22104.870513,-4737.318029,-7179.997637,-1225.752797
22104.870846,-370.102971,-9474.636058,-1302.362347
22104.871180,-888.247130,-4737.318029,-689.485948
22104.871513,1776.494261,-7772.162391,1838.629195
22104.871846,3552.988522,-6291.750507,5362.668486
22104.872179,4367.215058,-6661.853478,2068.457845
22104.872512,1998.556043,-10214.842000,-1378.971896
22104.872845,4663.297435,-14211.954086,3294.210641
22104.873178,518.144159,-9548.656652,-4596.572988
22104.873511,3478.967927,-14804.118840,-76.609550
22104.873845,2294.638420,-10658.965565,-2834.553343
22104.874178,0.000000,-11917.315666,153.219100
22104.874511,2368.659014,-9918.759623,4596.572988
22104.874844,1258.350101,-8734.430116,1455.581446
22104.875177,-2812.782580,-5699.585753,1302.362347
22104.875510,1702.473667,-3182.885551,229.828649
22104.875843,3478.967927,-8586.388927,2221.676944
22104.876176,3552.988522,-5995.668130,9193.145976
22104.876510,5255.462188,-6513.812290,0.000000
22104.876843,296.082377,-9548.656652,0.000000
22104.877176,-1776.494261,-13101.645173,-1991.848295
22104.877509,1702.473667,-13027.624579,-2528.115143
22104.877842,-3552.988522,-12805.562797,-3294.210641
22104.878175,74.020594,-10955.047942,-3217.601092
22104.878508,-3627.009116,-11843.295072,-383.047749
22104.878841,-1258.350101,-7476.080014,459.657299
22104.879175,-2368.659014,-5403.503377,2298.286494
22104.879508,-1776.494261,-7550.100608,1072.533697
22104.879841,3627.009116,-5625.565159,5362.668486
22104.880174,0.000000,-6365.771101,4290.134789
22104.880507,4663.297435,-7105.977043,1762.019645
22104.880840,0.000000,-11325.150913,2681.334243
22104.881173,3478.967927,-10658.965565,-76.609550
22104.881506,0.000000,-13101.645173,-612.876398
22104.881840,-2886.803174,-13619.789333,-3753.867940
22104.882173,-2146.597232,-13619.789333,-4366.744339
22104.882506,-6513.812290,-11991.336260,-2068.457845
22104.882839,-1332.370696,-9474.636058,-689.485948
22104.883172,-2146.597232,-9252.574275,2451.505594
22104.883505,0.000000,-3627.009116,3983.696590
22104.883838,0.000000,-1258.350101,4290.134789
22104.884171,-74.020594,-8290.306550,3600.648841
22104.884505,-4441.235652,-3627.009116,3064.381992
22104.884838,2220.617826,-9474.636058,-76.609550
22104.885171,4663.297435,-7698.141797,0.000000
22104.885504,2960.823768,-13693.809927,2068.457845
22104.885837,296.082377,-10658.965565,-2221.676944
22104.886170,-962.267725,-12065.356855,-5669.106685
22104.886503,-5921.647536,-14582.057057,-6128.763984
22104.886836,-3552.988522,-12509.480420,-76.609550
22104.887170,-74.020594,-7994.224174,-2604.724693
22104.887503,-2960.823768,-7179.997637,0.000000
22104.887836,1480.411884,-6957.935855,6665.030833
22104.888169,4737.318029,-666.185348,8580.269578
22104.888502,4663.297435,-6513.812290,6741.640382
22104.888835,8512.368333,-6069.688724,6894.859482
22104.889168,2368.659014,-6069.688724,2145.067394
22104.889501,2590.720797,-10658.965565,-689.485948
22104.889835,3256.906145,-10955.047942,-4979.620737
22104.890168,-3627.009116,-19023.292709,-8427.050478
22104.890501,2368.659014,-8956.491898,-3983.696590
22104.890834,-2516.700203,-18357.107362,-2528.115143
22104.891167,-74.020594,-10214.842000,-842.705048
22104.891500,-3404.947333,-10436.903782,-1072.533697
22104.891833,1258.350101,-8438.347739,3907.087040
22104.892167,6291.750507,-3478.967927,9652.803275
22104.892500,3552.988522,-2738.761985,7967.393179
22104.892833,8808.450710,-2072.576638,5745.716235
22104.893166,592.164754,-6439.791695,2451.505594
22104.893499,-370.102971,-11251.130318,-2528.115143
22104.893832,-74.020594,-9696.697840,-7354.516781
22104.894165,-3627.009116,-17468.860231,-5898.935335
22104.894498,370.102971,-7920.203579,-7431.126331
22104.894832,-4293.194464,-17616.901420,-3753.867940
22104.895165,-3034.844362,-10288.862594,-4519.963438
22104.895498,-3701.029710,-13101.645173,-995.924147
22104.895831,-370.102971,-8956.491898,2451.505594
22104.896164,3701.029710,-5329.482782,7277.907231
22104.896497,-1110.308913,-4885.359217,7048.078582
22104.896830,5699.585753,-3404.947333,8733.488677
22104.897163,0.000000,-3701.029710,5745.716235
22104.897497,7031.956449,-8290.306550,7277.907231
22104.897830,-2294.638420,-6883.915261,0.000000
22104.898163,-3182.885551,-10066.800811,-7354.516781
22104.898496,-5995.668130,-15322.262999,-10035.851024
22104.898829,-7031.956449,-14656.077652,-7354.516781
22104.899162,-3997.112087,-12065.356855,-5669.106685
22104.899495,-4811.338623,-12583.501014,-1532.190996
22104.899828,888.247130,-11547.212695,1225.752797
22104.900162,2368.659014,-8290.306550,9806.022374
22104.900495,2294.638420,-3627.009116,6741.640382
22104.900828,3849.070898,-666.185348,10112.460574
22104.901161,3182.885551,-8882.471304,7890.783629
22104.901494,2590.720797,-1998.556043,2451.505594
22104.901827,444.123565,-5773.606348,1762.019645
22104.902160,-1850.514855,-8142.265362,-6665.030833
22104.902493,-370.102971,-11029.068536,-5439.278036
22104.902827,-7772.162391,-15174.221811,-11184.994271
22104.903160,-74.020594,-10066.800811,-7584.345430
22104.903493,-9178.553681,-17246.798449,-7354.516781
22104.903826,8956.491898,-7772.162391,2451.505594
22104.904159,-74.020594,-17172.777854,6052.154434
22104.904492,8290.306550,-1258.350101,5515.887586
22104.904825,7920.203579,-8882.471304,7048.078582
22104.905158,8438.347739,-8586.388927,10955.165621
22104.905492,13027.624579,-740.205942,11184.994271
22104.905825,1406.391290,-10140.821405,3217.601092
22104.906158,3775.050304,-8882.471304,-2528.115143
22104.906491,-8882.471304,-9548.656652,-7354.516781
22104.906824,-814.226536,-14211.954086,-8197.221829
22104.907157,-4737.318029,-7772.162391,-6128.763984
22104.907490,-4219.173869,-15026.180623,-7354.516781
22104.907823,-3034.844362,-10362.883188,-3753.867940
22104.908157,-592.164754,-9770.718434,612.876398
22104.908490,4885.359217,-7846.182985,5132.839837
22104.908823,2960.823768,-5033.400406,8044.002729
22104.909156,2960.823768,-5107.421000,2834.553343
22104.909489,-1480.411884,-11695.253884,5592.497135
22104.909822,2368.659014,-4219.173869,1838.629195
22104.910155,1184.329507,-11103.089130,2681.334243
22104.910488,3478.967927,-8290.306550,2068.457845
22104.910822,-370.102971,-13027.624579,-1608.800546
22104.911155,-5995.668130,-8216.285956,-9652.803275
22104.911488,-1184.329507,-13693.809927,-2451.505594
22104.911821,-4071.132681,-16580.613101,-1302.362347
22104.912154,1110.308913,-9252.574275,612.876398
22104.912487,-4145.153275,-11325.150913,536.266849
22104.912820,-2812.782580,-8216.285956,4596.572988
22104.913153,592.164754,-3182.885551,7277.907231
22104.913487,3923.091493,-6143.709319,8503.660028
22104.913820,888.247130,-4219.173869,6128.763984
22104.914153,-4885.359217,-6587.832884,0.000000
22104.914486,-2960.823768,-7105.977043,-1915.238745
22104.914819,-4959.379811,-11547.212695,-4060.306139
22104.915152,-3627.009116,-9474.636058,-4979.620737
22104.915485,-74.020594,-8290.306550,-2528.115143
22104.915819,222.061783,-12731.542202,-2528.115143
22104.916152,518.144159,-9548.656652,-2451.505594
22104.916485,2146.597232,-12435.459826,2374.896044
22104.916818,5551.544565,-11547.212695,3600.648841
22104.917151,5329.482782,-10510.924376,4903.011187
22104.917485,6069.688724,-11547.212695,6052.154434
22104.917818,6587.832884,-7476.080014,5745.716235
22104.918151,592.164754,-5403.503377,2451.505594
22104.918484,2368.659014,-7179.997637,612.876398
22104.918818,2886.803174,-10658.965565,-689.485948
22104.919151,444.123565,-9104.533087,0.000000
22104.919484,-3627.009116,-11621.233289,-5975.544884
22104.919817,-4441.235652,-9548.656652,-3677.258390
22104.920150,-74.020594,-11843.295072,-2528.115143
22104.920484,1184.329507,-4811.338623,-919.314598
22104.920817,1184.329507,-8956.491898,4596.572988
22104.921150,5847.626942,-10658.965565,4826.401637
22104.921483,148.041188,-8364.327145,2374.896044
22104.921816,2664.741391,-8290.306550,-1762.019645
22104.922150,-740.205942,-15100.201217,842.705048
22104.922483,222.061783,-8142.265362,76.609550
22104.922816,1184.329507,-9252.574275,1378.971896
22104.923149,2294.638420,-9474.636058,-2834.553343
22104.923483,0.000000,-10732.986159,4596.572988
22104.923816,1184.329507,-7772.162391,-76.609550
22104.924149,7031.956449,-9474.636058,2374.896044
22104.924482,1776.494261,-11917.315666,5898.935335
22104.924815,1998.556043,-9326.594869,1608.800546
22104.925149,-222.061783,-9104.533087,-229.828649
22104.925482,-296.082377,-11029.068536,-3983.696590
22104.925815,-2368.659014,-10732.986159,2911.162892
22104.926148,0.000000,-7179.997637,0.000000
22104.926481,-1850.514855,-9252.574275,459.657299
22104.926815,-7105.977043,-9548.656652,-536.266849
22104.927148,-4367.215058,-4959.379811,-2451.505594
22104.927481,-7698.141797,-6291.750507,612.876398
22104.927814,-74.020594,-9178.553681,1149.143247
22104.928147,-2294.638420,-5403.503377,2451.505594
22104.928481,-592.164754,-8290.306550,3600.648841
22104.928814,2294.638420,-7105.977043,842.705048
22104.929147,1924.535449,-9252.574275,1378.971896
22104.929480,4367.215058,-11843.295072,-536.266849
22104.929814,2294.638420,-11399.171507,-306.438199
22104.930147,-4737.318029,-14285.974681,-4903.011187
22104.930480,0.000000,-11917.315666,-1378.971896
22104.930813,-74.020594,-10658.965565,229.828649
22104.931146,2960.823768,-7179.997637,1838.629195
22104.931480,5551.544565,-9474.636058,2374.896044
22104.931813,1184.329507,-7476.080014,5362.668486
22104.932146,3627.009116,-4145.153275,4213.525239
22104.932479,1036.288319,-7105.977043,3140.991542
22104.932812,222.061783,-7994.224174,-153.219100
22104.933146,2294.638420,-9474.636058,-1608.800546
22104.933479,0.000000,-8956.491898,1149.143247
22104.933812,-74.020594,-10955.047942,-7048.078582
22104.934145,-3552.988522,-12509.480420,-4749.792088
22104.934478,-1850.514855,-14211.954086,-4979.620737
22104.934812,-296.082377,-10881.027347,-2451.505594
22104.935145,1110.308913,-9548.656652,153.219100
22104.935478,1924.535449,-7772.162391,2834.553343
22104.935811,2960.823768,-5107.421000,2604.724693
22104.936145,4663.297435,-5033.400406,5669.106685
22104.936478,7402.059420,-10214.842000,9422.974625
22104.936811,1184.329507,-4811.338623,612.876398
22104.937144,3552.988522,-11843.295072,3294.210641
22104.937477,-74.020594,-8956.491898,-2451.505594
22104.937811,518.144159,-10510.924376,-3753.867940
22104.938144,-888.247130,-11325.150913,-2068.457845
22104.938477,-5995.668130,-12287.418637,-7507.735880
22104.938810,-3775.050304,-9474.636058,-5898.935335
22104.939143,-8290.306550,-14582.057057,0.000000
22104.939477,-1850.514855,-7698.141797,-2681.334243
22104.939810,-3552.988522,-7772.162391,3830.477490
22104.940143,4441.235652,-7698.141797,9729.412825
22104.940476,7031.956449,-2812.782580,7660.954980
22104.940810,4737.318029,-4589.276840,7737.564530
22104.941143,1258.350101,-6735.874072,1991.848295
22104.941476,74.020594,-7994.224174,-1608.800546
22104.941809,-1480.411884,-11843.295072,0.000000
22104.942142,-2368.659014,-9844.739029,-6741.640382
22104.942476,-370.102971,-12139.377449,-6665.030833
22104.942809,-6587.832884,-13915.871710,-7431.126331
22104.943142,-74.020594,-12287.418637,-2681.334243
22104.943475,-2442.679609,-11103.089130,536.266849
22104.943808,0.000000,-5995.668130,3064.381992
22104.944142,2886.803174,-5329.482782,5745.716235
22104.944475,6735.874072,-4811.338623,6205.373534
22104.944808,6513.812290,-6365.771101,9729.412825
22104.945141,3478.967927,-8882.471304,3294.210641
22104.945474,5847.626942,-7772.162391,612.876398
22104.945808,-1998.556043,-13027.624579,536.266849
22104.946141,-814.226536,-11917.315666,-5745.716235
22104.946474,-6587.832884,-14285.974681,-7354.516781
22104.946807,-4737.318029,-10881.027347,-5898.935335
22104.947141,-1258.350101,-10066.800811,-5745.716235
22104.947474,-2368.659014,-7179.997637,0.000000
22104.947807,-1776.494261,-8956.491898,3294.210641
22104.948140,1110.308913,-6217.729913,4826.401637
22104.948473,2368.659014,-6883.915261,5439.278036
22104.948807,3182.885551,-7624.121203,4443.353888
22104.949140,1702.473667,-11103.089130,2681.334243
22104.949473,3997.112087,-8290.306550,2451.505594
22104.949806,1110.308913,-10362.883188,-76.609550
22104.950139,-74.020594,-10510.924376,-4136.915689
22104.950473,-888.247130,-9178.553681,-2528.115143
22104.950806,-148.041188,-16284.530724,-2528.115143
22104.951139,1110.308913,-9548.656652,-1685.410096
22104.951472,-74.020594,-11843.295072,-76.609550
22104.951806,518.144159,-7772.162391,689.485948
22104.952139,1406.391290,-6069.688724,4366.744339
22104.952472,1110.308913,-7328.038826,2068.457845
22104.952805,2664.741391,-6143.709319,2911.162892
22104.953138,0.000000,-9548.656652,4903.011187
22104.953472,1184.329507,-10362.883188,2987.772442
22104.953805,-1258.350101,-7846.182985,153.219100
22104.954138,-2072.576638,-5403.503377,-2451.505594
22104.954471,-666.185348,-10658.965565,-1302.362347
22104.954804,-2812.782580,-7772.162391,0.000000
22104.955138,-1776.494261,-7994.224174,-2528.115143
22104.955471,-1406.391290,-10955.047942,-2834.553343
22104.955804,0.000000,-7476.080014,-2451.505594
22104.956137,-1184.329507,-8956.491898,-612.876398
22104.956470,2664.741391,-12509.480420,2834.553343
22104.956804,2442.679609,-9548.656652,3524.039291
22104.957137,3775.050304,-11251.130318,4213.525239
22104.957470,4663.297435,-12435.459826,6665.030833
22104.957803,3923.091493,-5699.585753,1225.752797
22104.958137,4737.318029,-9474.636058,3677.258390
22104.958470,1924.535449,-12435.459826,2374.896044
22104.958803,370.102971,-8290.306550,-1225.752797
22104.959136,-2146.597232,-11251.130318,-3140.991542
22104.959469,-3330.926739,-8882.471304,-2911.162892
22104.959803,-5107.421000,-9030.512492,-5745.716235
22104.960136,-1110.308913,-8290.306550,-1302.362347
22104.960469,-2368.659014,-8512.368333,1225.752797
22104.960802,-1776.494261,-6587.832884,2451.505594
22104.961135,3552.988522,-8290.306550,3600.648841
22104.961469,3478.967927,-10658.965565,4213.525239
22104.961802,2294.638420,-6217.729913,2374.896044
22104.962135,2294.638420,-11251.130318,995.924147
22104.962468,1554.432478,-11103.089130,459.657299
22104.962802,0.000000,-10658.965565,-1225.752797
22104.963135,1924.535449,-9622.677246,-1072.533697
22104.963468,-74.020594,-11843.295072,-383.047749
22104.963801,-1184.329507,-10140.821405,0.000000
22104.964134,222.061783,-10658.965565,-76.609550
22104.964468,518.144159,-10510.924376,1378.971896
22104.964801,0.000000,-5995.668130,2451.505594
22104.965134,-2442.679609,-5995.668130,1532.190996
22104.965467,0.000000,-5995.668130,2987.772442
22104.965800,1184.329507,-5329.482782,2834.553343
22104.966134,-1110.308913,-12509.480420,-306.438199
22104.966467,-962.267725,-7476.080014,-1149.143247
22104.966800,-3034.844362,-12287.418637,-689.485948
22104.967133,-1258.350101,-8290.306550,-3753.867940
22104.967466,-5921.647536,-9844.739029,-1225.752797
22104.967800,-666.185348,-11843.295072,-383.047749
22104.968133,740.205942,-6587.832884,919.314598
22104.968466,2146.597232,-8290.306550,2221.676944
22104.968799,4885.359217,-7402.059420,5209.449386
22104.969133,1332.370696,-10362.883188,3983.696590
22104.969466,2960.823768,-7179.997637,2451.505594
22104.969799,2294.638420,-13027.624579,1762.019645
22104.970132,1332.370696,-5699.585753,1225.752797
22104.970465,-3256.906145,-7179.997637,0.000000
22104.970799,-74.020594,-13027.624579,-1915.238745
22104.971132,0.000000,-7772.162391,-766.095498
22104.971465,-2442.679609,-9770.718434,-3983.696590
22104.971798,4219.173869,-10066.800811,-689.485948
22104.972131,-1258.350101,-12287.418637,2068.457845
22104.972465,3552.988522,-7179.997637,2451.505594
22104.972798,2886.803174,-7920.203579,2681.334243
22104.973131,3775.050304,-7698.141797,-76.609550
22104.973464,3404.947333,-9104.533087,306.438199
22104.973797,3182.885551,-9474.636058,2374.896044
22104.974131,2368.659014,-8660.409521,-1838.629195
22104.974464,-3849.070898,-13545.768739,-76.609550
22104.974797,-1258.350101,-9474.636058,-5286.058936
22104.975130,-3256.906145,-8512.368333,-306.438199
22104.975464,-74.020594,-10658.965565,1762.019645
22104.975797,666.185348,-7105.977043,766.095498
22104.976130,444.123565,-7846.182985,1915.238745
22104.976463,2294.638420,-6809.894666,2528.115143
22104.976796,1184.329507,-4811.338623,1838.629195
22104.977130,74.020594,-8364.327145,1225.752797
22104.977463,4663.297435,-12435.459826,3600.648841
22104.977796,444.123565,-5995.668130,-3064.381992
22104.978129,0.000000,-10732.986159,842.705048
22104.978462,-3627.009116,-11547.212695,-2681.334243
22104.978796,-3256.906145,-9696.697840,-2834.553343
22104.979129,-3701.029710,-11325.150913,-459.657299
22104.979462,-1258.350101,-9474.636058,995.924147
22104.979795,-3997.112087,-8364.327145,919.314598
22104.980129,-4589.276840,-4959.379811,1225.752797
22104.980462,4071.132681,-6809.894666,1149.143247
22104.980795,-2072.576638,-11917.315666,3677.258390
22104.981128,2368.659014,-8364.327145,3907.087040
22104.981461,296.082377,-9548.656652,1225.752797
22104.981795,3627.009116,-6809.894666,1762.019645
22104.982128,1332.370696,-9400.615463,1302.362347
22104.982461,-2590.720797,-12065.356855,-2451.505594
22104.982794,-962.267725,-8142.265362,-1915.238745
22104.983127,-7698.141797,-13249.686362,-3753.867940
22104.983461,-1258.350101,-10658.965565,-2528.115143
22104.983794,-5329.482782,-7772.162391,1225.752797
22104.984127,-148.041188,-7105.977043,1762.019645
22104.984460,2294.638420,-7698.141797,2374.896044
22104.984793,1998.556043,-8512.368333,3677.258390
22104.985127,4663.297435,-5181.441594,4366.744339
22104.985460,3034.844362,-6365.771101,2451.505594
22104.985793,3108.864956,-7179.997637,383.047749
22104.986126,4663.297435,-15988.448347,-2528.115143
22104.986460,2516.700203,-14285.974681,766.095498
22104.986793,0.000000,-10732.986159,229.828649
22104.987126,-74.020594,-11843.295072,-4979.620737
22104.987459,-74.020594,-11547.212695,-1915.238745
22104.987792,-1850.514855,-9474.636058,-3447.429741
22104.988126,1332.370696,-8216.285956,1838.629195
22104.988459,1258.350101,-6735.874072,4519.963438
22104.988792,3552.988522,-3627.009116,4290.134789
22104.989125,3330.926739,-4737.318029,4903.011187
22104.989458,518.144159,-8586.388927,536.266849
22104.989792,2368.659014,-5699.585753,-2528.115143
22104.990125,296.082377,-11991.336260,-1149.143247
22104.990458,370.102971,-7772.162391,-3677.258390
22104.990791,-2220.617826,-12435.459826,-3753.867940
22104.991125,-3627.009116,-13175.665768,-5822.325785
22104.991458,-1184.329507,-9844.739029,-1915.238745
22104.991791,1554.432478,-14804.118840,3600.648841
22104.992124,2886.803174,-4959.379811,3983.696590
22104.992457,2294.638420,-5255.462188,4826.401637
22104.992791,1110.308913,-5921.647536,4519.963438
22104.993124,1924.535449,-9548.656652,3140.991542
22104.993457,2368.659014,-7179.997637,3983.696590
22104.993790,2886.803174,-9474.636058,1149.143247
22104.994123,-3552.988522,-10732.986159,-8580.269578
22104.994457,-2368.659014,-14211.954086,-76.609550
22104.994790,-1258.350101,-9474.636058,-3140.991542
22104.995123,0.000000,-9548.656652,766.095498
22104.995456,-2368.659014,-8438.347739,-1149.143247
22104.995789,-5625.565159,-8660.409521,-2451.505594
22104.996123,-3552.988522,-8734.430116,1149.143247
22104.996456,1110.308913,-6513.812290,3294.210641
22104.996789,-74.020594,-11843.295072,1149.143247
22104.997122,0.000000,-5403.503377,4443.353888
22104.997456,-74.020594,-10510.924376,2987.772442
22104.997789,-74.020594,-7179.997637,-919.314598
22104.998122,3997.112087,-8882.471304,4826.401637
22104.998455,148.041188,-7031.956449,153.219100
22104.998788,1036.288319,-8956.491898,-3217.601092
22104.999122,-1332.370696,-14582.057057,-1455.581446
22104.999455,1258.350101,-8586.388927,-4826.401637
22104.999788,296.082377,-7772.162391,-6128.763984
22105.000121,296.082377,-18653.189738,2374.896044
22105.000454,3478.967927,-7476.080014,1915.238745
22105.000788,1110.308913,-7179.997637,1225.752797
22105.001121,3330.926739,-7698.141797,3600.648841
22105.001454,0.000000,-9252.574275,2374.896044
22105.001787,4071.132681,-4441.235652,4749.792088
22105.002121,-1924.535449,-9030.512492,1455.581446
22105.002454,-962.267725,-5921.647536,-2374.896044
22105.002787,-3108.864956,-9548.656652,-5209.449386
22105.003120,518.144159,-10955.047942,-3140.991542
22105.003453,296.082377,-9400.615463,-3217.601092
22105.003787,0.000000,-9844.739029,0.000000
22105.004120,2516.700203,-10584.944971,-76.609550
22105.004453,-74.020594,-11251.130318,-2681.334243
22105.004786,4145.153275,-11917.315666,2451.505594
22105.005119,2368.659014,-8438.347739,3600.648841
22105.005453,5329.482782,-8364.327145,4903.011187
22105.005786,2072.576638,-7402.059420,6052.154434
22105.006119,4145.153275,-6735.874072,2834.553343
22105.006452,2220.617826,-8364.327145,2145.067394
22105.006785,3478.967927,-8882.471304,-1302.362347
22105.007119,-4737.318029,-12509.480420,-1225.752797
22105.007452,-74.020594,-7772.162391,-2145.067394
22105.007785,-4145.153275,-8660.409521,-3294.210641
22105.008118,-1258.350101,-13027.624579,-76.609550
22105.008452,-2442.679609,-8216.285956,-1302.362347
22105.008785,-592.164754,-8290.306550,2374.896044
22105.009118,370.102971,-7179.997637,3447.429741
22105.009451,2294.638420,-8216.285956,4596.572988
22105.009784,962.267725,-9770.718434,2528.115143
22105.010118,2294.638420,-9474.636058,2987.772442
22105.010451,0.000000,-7772.162391,0.000000
22105.010784,-1998.556043,-13619.789333,-76.609550
22105.011117,-1554.432478,-9844.739029,-1838.629195
22105.011450,-3256.906145,-7550.100608,-3294.210641
22105.011784,-1998.556043,-10658.965565,-2221.676944
22105.012117,222.061783,-7624.121203,-536.266849
22105.012450,1924.535449,-9474.636058,1685.410096
22105.012783,2442.679609,-13915.871710,5362.668486
22105.013117,4071.132681,-8290.306550,4213.525239
22105.013450,0.000000,-9696.697840,2221.676944
22105.013783,4663.297435,-9474.636058,2374.896044
22105.014116,-3108.864956,-7179.997637,0.000000
22105.014449,3552.988522,-8068.244768,1532.190996
22105.014783,-5847.626942,-10436.903782,-2451.505594
22105.015116,-5403.503377,-11251.130318,-4519.963438
22105.015449,-3478.967927,-7328.038826,-1685.410096
22105.015782,-3923.091493,-9696.697840,-1838.629195
22105.016115,2664.741391,-1258.350101,0.000000
22105.016449,2442.679609,-11547.212695,6052.154434
22105.016782,5255.462188,-3923.091493,2451.505594
22105.017115,0.000000,-5995.668130,2451.505594
22105.017448,4589.276840,-14211.954086,2068.457845
22105.017781,3552.988522,-9548.656652,766.095498
22105.018115,0.000000,-11991.336260,-1225.752797
22105.018448,1406.391290,-11695.253884,-2374.896044
22105.018781,-3108.864956,-10510.924376,-2298.286494
22105.019114,-962.267725,-6587.832884,-2451.505594
22105.019447,518.144159,-10436.903782,2681.334243
22105.019781,2368.659014,-6143.709319,3983.696590
22105.020114,-1258.350101,-8882.471304,1455.581446
22105.020447,3330.926739,-9178.553681,4826.401637
22105.020780,2146.597232,-4811.338623,919.314598
22105.021113,2072.576638,-8660.409521,3677.258390
22105.021446,6291.750507,-10658.965565,-689.485948
22105.021780,-814.226536,-13693.809927,-1532.190996
22105.022113,1184.329507,-11325.150913,1991.848295
22105.022446,1110.308913,-10436.903782,-2451.505594
22105.022779,-222.061783,-13027.624579,-1608.800546
22105.023112,-2960.823768,-9104.533087,-2298.286494
22105.023445,-1258.350101,-9178.553681,-383.047749
22105.023779,2294.638420,-3404.947333,1532.190996
22105.024112,-2960.823768,-7772.162391,3907.087040
22105.024445,2294.638420,-7698.141797,2374.896044
22105.024778,1702.473667,-7179.997637,1991.848295
22105.025111,2294.638420,-9474.636058,1762.019645
22105.025444,3552.988522,-8364.327145,2451.505594
22105.025778,-814.226536,-12583.501014,-459.657299
22105.026111,2072.576638,-9770.718434,-1915.238745
22105.026444,0.000000,-11325.150913,-2451.505594
22105.026777,444.123565,-13101.645173,-3677.258390
22105.027110,1628.453072,-8882.471304,-76.609550
22105.027443,-3330.926739,-11547.212695,-1455.581446
22105.027776,-962.267725,-5403.503377,612.876398
22105.028110,-4367.215058,-8364.327145,76.609550
22105.028443,-518.144159,-8438.347739,2834.553343
22105.028776,-1036.288319,-5255.462188,4060.306139
22105.029109,1406.391290,-7031.956449,3983.696590
22105.029442,2886.803174,-9104.533087,4826.401637
22105.029775,0.000000,-8956.491898,2757.943793
22105.030109,2294.638420,-9474.636058,-2528.115143
22105.030442,-962.267725,-9696.697840,-3677.258390
22105.030775,592.164754,-11251.130318,-3370.820191
22105.031108,-1332.370696,-13027.624579,-4290.134789
22105.031441,-2738.761985,-14063.912898,-1685.410096
22105.031774,-814.226536,-7031.956449,-3140.991542
22105.032108,-1258.350101,-9326.594869,766.095498
22105.032441,2738.761985,-6217.729913,1608.800546
22105.032774,3478.967927,-11251.130318,6665.030833
22105.033107,3552.988522,-5995.668130,7354.516781
22105.033440,1184.329507,-7179.997637,6894.859482
22105.033773,4663.297435,-6513.812290,0.000000
22105.034107,4071.132681,-8512.368333,0.000000
22105.034440,888.247130,-11473.192101,229.828649
22105.034773,888.247130,-8660.409521,-2451.505594
22105.035106,-2368.659014,-10881.027347,-4366.744339
22105.035439,-2738.761985,-10140.821405,-4596.572988
22105.035772,-1406.391290,-10066.800811,-4366.744339
22105.036106,-2664.741391,-9844.739029,-842.705048
22105.036439,-74.020594,-7550.100608,536.266849
22105.036772,1480.411884,-5995.668130,4290.134789
22105.037105,3478.967927,-7994.224174,4826.401637
22105.037438,3256.906145,-8586.388927,6665.030833
22105.037771,4663.297435,-8882.471304,1915.238745
22105.038105,1184.329507,-9548.656652,4903.011187
22105.038438,1184.329507,-9252.574275,919.314598
22105.038771,2590.720797,-8290.306550,-3907.087040
22105.039104,-1850.514855,-14508.036463,-4749.792088
22105.039437,2220.617826,-9696.697840,-3830.477490
22105.039770,-2146.597232,-14211.954086,842.705048
22105.040104,0.000000,-7179.997637,-2451.505594
22105.040437,-74.020594,-11843.295072,1762.019645
22105.040770,2886.803174,-9474.636058,3600.648841
22105.041103,1998.556043,-3627.009116,3064.381992
22105.041436,1702.473667,-10658.965565,4826.401637
22105.041769,1776.494261,-7476.080014,3064.381992
22105.042103,-2368.659014,-8734.430116,2681.334243
22105.042436,-592.164754,-6809.894666,-1455.581446
22105.042769,-2220.617826,-12139.377449,-2528.115143
22105.043102,-2960.823768,-11473.192101,-4060.306139
22105.043435,-666.185348,-14211.954086,-2528.115143
22105.043768,-2664.741391,-7179.997637,-3677.258390
22105.044102,-4737.318029,-9548.656652,612.876398
22105.044435,-370.102971,-8808.450710,1455.581446
22105.044768,2960.823768,-8068.244768,3907.087040
22105.045101,2220.617826,-7476.080014,4290.134789
22105.045434,2590.720797,-7105.977043,3830.477490
22105.045767,3034.844362,-8216.285956,3370.820191
22105.046101,4663.297435,-8882.471304,6052.154434
22105.046434,-1110.308913,-5995.668130,-2451.505594
22105.046767,-2368.659014,-10732.986159,-536.266849
22105.047100,-4811.338623,-11843.295072,-4366.744339
22105.047433,-5699.585753,-7772.162391,-8580.269578
22105.047766,-3552.988522,-11251.130318,-1302.362347
22105.048100,-2220.617826,-6883.915261,-4596.572988
22105.048433,-370.102971,-11843.295072,4826.401637
22105.048766,4959.379811,-4441.235652,6205.373534
22105.049099,3478.967927,-7105.977043,6665.030833
22105.049432,1702.473667,-7105.977043,2757.943793
22105.049765,3034.844362,-8586.388927,689.485948
22105.050098,1998.556043,-10288.862594,2451.505594
22105.050432,592.164754,-8364.327145,0.000000
22105.050765,-2368.659014,-11917.315666,-2451.505594
22105.051098,-74.020594,-13619.789333,-3294.210641
22105.051431,-1184.329507,-5699.585753,-5515.887586
22105.051764,592.164754,-11029.068536,-229.828649
22105.052097,0.000000,-10436.903782,1532.190996
22105.052431,148.041188,-8364.327145,1532.190996
22105.052764,3849.070898,-4515.256246,2834.553343
22105.053097,4293.194464,-9622.677246,1302.362347
22105.053430,11029.068536,-9326.594869,4826.401637
22105.053763,1110.308913,-11917.315666,4060.306139
22105.054096,7624.121203,-6513.812290,-1915.238745
22105.054430,-2368.659014,-12509.480420,-612.876398
22105.054763,2294.638420,-11843.295072,-76.609550
22105.055096,-2072.576638,-10658.965565,-2451.505594
22105.055429,-2368.659014,-10658.965565,1149.143247
22105.055762,592.164754,-6809.894666,842.705048
22105.056095,-2812.782580,-6883.915261,0.000000
22105.056429,0.000000,-7031.956449,-1072.533697
22105.056762,-2368.659014,-8956.491898,2757.943793
22105.057095,888.247130,-4811.338623,1225.752797
22105.057428,592.164754,-7920.203579,4213.525239
22105.057761,2886.803174,-9474.636058,1762.019645
22105.058094,-666.185348,-10066.800811,-689.485948
22105.058428,1554.432478,-9474.636058,536.266849
22105.058761,740.205942,-9326.594869,-842.705048
22105.059094,-3478.967927,-11029.068536,-1532.190996
22105.059427,-3552.988522,-10732.986159,-2911.162892
22105.059760,-1258.350101,-13619.789333,-76.609550
22105.060093,-4737.318029,-9548.656652,2757.943793
22105.060427,1554.432478,-5551.544565,3600.648841
22105.060760,-1850.514855,-6883.915261,1838.629195
22105.061093,0.000000,-4811.338623,1532.190996
22105.061426,1702.473667,-9400.615463,1915.238745
22105.061759,1110.308913,-9622.677246,-612.876398
22105.062092,1406.391290,-10955.047942,-3217.601092
22105.062426,-1480.411884,-13545.768739,1838.629195
22105.062759,3627.009116,-5403.503377,-2451.505594
22105.063092,-2368.659014,-9548.656652,2604.724693
22105.063425,-666.185348,-10658.965565,-1915.238745
22105.063758,-2442.679609,-9178.553681,-3370.820191
22105.064091,-4737.318029,-8364.327145,0.000000
22105.064425,-2294.638420,-5107.421000,0.000000
22105.064758,-518.144159,-7550.100608,2068.457845
22105.065091,1406.391290,-9178.553681,4213.525239
22105.065424,4071.132681,-4145.153275,5132.839837
22105.065757,1702.473667,-6069.688724,-2145.067394
22105.066090,5551.544565,-8586.388927,1149.143247
22105.066424,1628.453072,-9844.739029,-995.924147
22105.066757,1332.370696,-11251.130318,-3830.477490
22105.067090,296.082377,-15840.407159,-229.828649
22105.067423,-1258.350101,-11769.274478,-4519.963438
22105.067756,148.041188,-9548.656652,-2451.505594
22105.068089,1480.411884,-10436.903782,3294.210641
22105.068423,4515.256246,-9548.656652,153.219100
22105.068756,0.000000,-9548.656652,6741.640382
22105.069089,6883.915261,-5033.400406,4443.353888
22105.069422,2886.803174,-9474.636058,4060.306139
22105.069755,1702.473667,-7402.059420,1762.019645
22105.070088,4071.132681,-4737.318029,-76.609550
22105.070421,2886.803174,-8882.471304,-995.924147
22105.070755,148.041188,-9548.656652,-2374.896044
22105.071088,-4441.235652,-12213.398043,-2528.115143
22105.071421,-2738.761985,-13027.624579,-5592.497135
22105.071754,-2738.761985,-11843.295072,-1608.800546
22105.072087,-5847.626942,-10288.862594,-1685.410096
22105.072420,518.144159,-5773.606348,612.876398
22105.072754,1702.473667,-7698.141797,5132.839837
22105.073087,1184.329507,-7179.997637,6741.640382
22105.073420,5551.544565,-3034.844362,3064.381992
22105.073753,4145.153275,-7994.224174,6052.154434
22105.074086,3478.967927,-9696.697840,0.000000
22105.074419,0.000000,-9844.739029,2451.505594
22105.074753,74.020594,-9474.636058,-4060.306139
22105.075086,-2368.659014,-14508.036463,-4213.525239
22105.075419,-2368.659014,-11843.295072,-2987.772442
22105.075752,-1924.535449,-11325.150913,-995.924147
22105.076085,-3256.906145,-9474.636058,1532.190996
22105.076418,-4737.318029,-5107.421000,0.000000
22105.076752,-1258.350101,-11547.212695,3600.648841
22105.077085,-518.144159,-5995.668130,4903.011187
22105.077418,2590.720797,-6809.894666,6894.859482
22105.077751,888.247130,-7179.997637,1225.752797
22105.078084,1332.370696,-7105.977043,1762.019645
22105.078417,-2664.741391,-9326.594869,-2834.553343
22105.078751,2146.597232,-8290.306550,-2681.334243
22105.079084,-1258.350101,-13619.789333,-3753.867940
22105.079417,0.000000,-11029.068536,-2834.553343
22105.079750,222.061783,-10140.821405,-2451.505594
22105.080083,-3552.988522,-11917.315666,1838.629195
22105.080416,2072.576638,-7105.977043,2068.457845
22105.080750,370.102971,-10140.821405,0.000000
22105.081083,5329.482782,-9474.636058,3907.087040
22105.081416,1036.288319,-12657.521608,6435.202183
22105.081749,5995.668130,-2442.679609,4519.963438
22105.082082,-74.020594,-12731.542202,2681.334243
22105.082415,1776.494261,-6143.709319,2374.896044
22105.082749,-1036.288319,-7105.977043,-1915.238745
22105.083082,-666.185348,-9252.574275,-2145.067394
22105.083415,1406.391290,-7328.038826,-3677.258390
22105.083748,-3627.009116,-13619.789333,-3753.867940
22105.084081,0.000000,-9548.656652,-3677.258390
22105.084414,-2738.761985,-13619.789333,-1302.362347
22105.084748,1998.556043,-10140.821405,-1838.629195
22105.085081,0.000000,-7476.080014,2757.943793
22105.085414,3330.926739,-11695.253884,3294.210641
22105.085747,2368.659014,-8660.409521,6128.763984
22105.086080,2516.700203,-8882.471304,5209.449386
22105.086413,6217.729913,-5329.482782,4136.915689
22105.086747,3478.967927,-6587.832884,2145.067394
22105.087080,592.164754,-11547.212695,-76.609550
22105.087413,1110.308913,-9474.636058,-3140.991542
22105.087746,-5107.421000,-10140.821405,-6741.640382
22105.088079,-592.164754,-10436.903782,-3064.381992
22105.088412,-2886.803174,-10510.924376,-5209.449386
22105.088746,-1998.556043,-12435.459826,842.705048
22105.089079,222.061783,-6883.915261,3140.991542
22105.089412,444.123565,-7402.059420,4826.401637
22105.089745,0.000000,-7772.162391,5515.887586
22105.090078,4959.379811,-8290.306550,6052.154434
22105.090411,-666.185348,-7179.997637,2451.505594
22105.090745,-2368.659014,-7179.997637,1225.752797
22105.091078,-2442.679609,-9474.636058,-1302.362347
22105.091411,-4589.276840,-7772.162391,-3370.820191
22105.091744,-1332.370696,-8882.471304,-6358.592633
22105.092077,-1998.556043,-14804.118840,-3140.991542
22105.092410,-962.267725,-8660.409521,-3677.258390
22105.092743,-74.020594,-13619.789333,2987.772442
22105.093077,2886.803174,-11843.295072,2987.772442
22105.093410,1776.494261,-6587.832884,4903.011187
22105.093743,5255.462188,-9474.636058,4826.401637
22105.094076,5847.626942,-8882.471304,1455.581446
22105.094409,0.000000,-10732.986159,7354.516781
22105.094742,1998.556043,-5995.668130,0.000000
22105.095076,-2294.638420,-9178.553681,-1378.971896
22105.095409,-4145.153275,-6883.915261,-4290.134789
22105.095742,-3330.926739,-9326.594869,-3140.991542
22105.096075,-3923.091493,-11621.233289,-3983.696590
22105.096408,-1110.308913,-7920.203579,-3140.991542
22105.096741,-3627.009116,-11843.295072,-1378.971896
22105.097075,0.000000,-5403.503377,0.000000
22105.097408,-1184.329507,-7179.997637,1838.629195
22105.097741,2220.617826,-13027.624579,2987.772442
22105.098074,6735.874072,-8290.306550,4213.525239
22105.098407,0.000000,-10732.986159,2451.505594
22105.098740,7476.080014,-6513.812290,4060.306139
22105.099074,592.164754,-8660.409521,842.705048
22105.099407,1332.370696,-8956.491898,-1149.143247
22105.099740,222.061783,-7328.038826,-2145.067394
22105.100073,-2960.823768,-13693.809927,-1225.752797
22105.100406,-74.020594,-7846.182985,-1225.752797
22105.100739,-74.020594,-11843.295072,-2528.115143
22105.101073,3775.050304,-7105.977043,612.876398
22105.101406,-2368.659014,-8660.409521,4903.011187
22105.101739,1776.494261,-8364.327145,2451.505594
22105.102072,0.000000,-7846.182985,995.924147
22105.102405,-2220.617826,-11621.233289,-536.266849
22105.102738,2812.782580,-8142.265362,689.485948
22105.103072,-814.226536,-11251.130318,-1302.362347
22105.103405,-1776.494261,-8364.327145,2757.943793
22105.103738,-370.102971,-4737.318029,-76.609550
22105.104071,0.000000,-7476.080014,3064.381992
22105.104404,1406.391290,-9178.553681,3600.648841
22105.104737,-74.020594,-10066.800811,-1302.362347
22105.105071,370.102971,-11843.295072,1762.019645
22105.105404,2146.597232,-6143.709319,-612.876398
22105.105737,-518.144159,-13619.789333,-306.438199
22105.106070,1628.453072,-9770.718434,766.095498
22105.106403,1406.391290,-9252.574275,-76.609550
22105.106736,-3256.906145,-9548.656652,-2451.505594
22105.107070,0.000000,-11029.068536,919.314598
22105.107403,-74.020594,-9178.553681,-689.485948
22105.107736,-3404.947333,-5403.503377,0.000000
22105.108069,1850.514855,-6439.791695,0.000000
22105.108402,2812.782580,-8068.244768,1762.019645
22105.108735,666.185348,-8364.327145,4903.011187
22105.109069,4737.318029,-6957.935855,3217.601092
22105.109402,-962.267725,-12435.459826,1762.019645
22105.109735,592.164754,-6587.832884,306.438199
22105.110068,814.226536,-11547.212695,-76.609550
22105.110401,1110.308913,-8956.491898,-2145.067394
22105.110734,592.164754,-6587.832884,-1225.752797
22105.111068,-3627.009116,-13323.706956,-4366.744339
22105.111401,-1998.556043,-8068.244768,-2374.896044
22105.111734,-5329.482782,-9696.697840,-2681.334243
22105.112067,-1406.391290,-9770.718434,229.828649
22105.112400,-74.020594,-3552.988522,2068.457845
22105.112733,-2072.576638,-9548.656652,3753.867940
22105.113067,4663.297435,-4589.276840,4519.963438
22105.113400,1110.308913,-8290.306550,5439.278036
22105.113733,2960.823768,-4811.338623,0.000000
22105.114066,1998.556043,-15396.283594,2374.896044
22105.114399,592.164754,-7772.162391,-3677.258390
22105.114732,0.000000,-12509.480420,383.047749
22105.115065,-370.102971,-10955.047942,-2834.553343
22105.115399,-2220.617826,-8364.327145,-6128.763984
22105.115732,-1850.514855,-11399.171507,-2068.457845
22105.116065,1924.535449,-10436.903782,1608.800546
22105.116398,-370.102971,-8660.409521,5286.058936
22105.116731,4367.215058,-5329.482782,2374.896044
22105.117064,4071.132681,-9474.636058,4826.401637
22105.117398,0.000000,-6587.832884,4366.744339
22105.117731,3849.070898,-9474.636058,6052.154434
22105.118064,-1258.350101,-7254.018232,0.000000
22105.118397,592.164754,-8956.491898,-2221.676944
22105.118730,-4737.318029,-12509.480420,-2757.943793
22105.119063,518.144159,-8290.306550,-5439.278036
22105.119396,-3330.926739,-10140.821405,-4979.620737
22105.119729,-1036.288319,-10510.924376,-2528.115143
22105.120062,4071.132681,-8882.471304,76.609550
22105.120395,0.000000,-8660.409521,3907.087040
22105.120728,4959.379811,-7698.141797,3600.648841
22105.121061,3552.988522,-7772.162391,5669.106685
22105.121394,5921.647536,-7624.121203,3753.867940
22105.121727,5921.647536,-12583.501014,10955.165621
22105.122060,1998.556043,-7994.224174,-842.705048
22105.122394,592.164754,-12287.418637,-1302.362347
22105.122727,-1036.288319,-11399.171507,-306.438199
22105.123060,-3552.988522,-8364.327145,-3064.381992
22105.123393,2294.638420,-8290.306550,-76.609550
22105.123726,-3034.844362,-9030.512492,-4136.915689
22105.124059,-3997.112087,-8956.491898,-2451.505594
22105.124392,-1776.494261,-8586.388927,0.000000
22105.124725,-3108.864956,-9252.574275,-919.314598
22105.125058,2220.617826,-7920.203579,4443.353888
22105.125391,1554.432478,-7105.977043,3064.381992
22105.125724,2590.720797,-9178.553681,2987.772442
22105.126057,1332.370696,-10955.047942,2374.896044
22105.126390,4071.132681,-9104.533087,0.000000
22105.126723,518.144159,-9548.656652,0.000000
22105.127056,1480.411884,-9474.636058,1762.019645
22105.127389,-74.020594,-10658.965565,-2451.505594
22105.127722,-814.226536,-8216.285956,-2068.457845
22105.128055,-2220.617826,-10510.924376,-1915.238745
22105.128388,-3775.050304,-9474.636058,1149.143247
22105.128721,-1850.514855,-5329.482782,1455.581446
22105.129054,-222.061783,-9178.553681,-76.609550
22105.129387,2072.576638,-12435.459826,4673.182538
22105.129720,3997.112087,-6735.874072,6205.373534
22105.130053,-666.185348,-9252.574275,0.000000
22105.130386,2294.638420,-8882.471304,1149.143247
22105.130719,-3552.988522,-11325.150913,612.876398
22105.131052,-74.020594,-8290.306550,-1915.238745
22105.131385,0.000000,-8956.491898,-76.609550
22105.131718,-1628.453072,-9844.739029,-3064.381992
22105.132052,2294.638420,-7698.141797,536.266849
22105.132385,-3849.070898,-9474.636058,-2451.505594
22105.132718,2072.576638,-6365.771101,-1532.190996
22105.133051,-1332.370696,-15988.448347,3294.210641
22105.133384,3552.988522,-5403.503377,3677.258390
22105.133717,4737.318029,-11251.130318,4826.401637
22105.134050,3108.864956,-8882.471304,842.705048
22105.134383,2368.659014,-7179.997637,3217.601092
22105.134716,3478.967927,-10658.965565,-76.609550
22105.135049,4367.215058,-9844.739029,-2145.067394
22105.135382,-3923.091493,-13767.830521,0.000000
22105.135715,814.226536,-8512.368333,-2681.334243
22105.136048,0.000000,-7328.038826,1532.190996
22105.136381,1184.329507,-7772.162391,0.000000
22105.136714,2812.782580,-9474.636058,2374.896044
22105.137047,0.000000,-9548.656652,2451.505594
22105.137380,-3552.988522,-9548.656652,0.000000
22105.137713,-74.020594,-13619.789333,842.705048
22105.138046,2368.659014,-5995.668130,2604.724693
22105.138379,1702.473667,-10214.842000,2681.334243
22105.138712,962.267725,-6883.915261,0.000000
22105.139045,-370.102971,-8956.491898,-76.609550
22105.139378,-74.020594,-12435.459826,-76.609550
22105.139711,3775.050304,-7105.977043,-383.047749
22105.140044,-4441.235652,-10436.903782,0.000000
22105.140377,3034.844362,-5921.647536,1149.143247
22105.140710,-4811.338623,-8142.265362,-4903.011187
22105.141043,1184.329507,-11769.274478,2681.334243
22105.141376,148.041188,-8734.430116,1838.629195
22105.141709,-1850.514855,-12657.521608,2451.505594
22105.142043,518.144159,-6809.894666,2374.896044
22105.142376,-666.185348,-8290.306550,-76.609550
22105.142709,3775.050304,-7698.141797,3370.820191
22105.143042,1998.556043,-5329.482782,2911.162892
22105.143375,-1110.308913,-11473.192101,-1072.533697
22105.143708,-4441.235652,-6587.832884,-2451.505594
22105.144041,-8290.306550,-11325.150913,-4290.134789
22105.144374,-74.020594,-9474.636058,-2528.115143
22105.144707,-2368.659014,-6143.709319,-1685.410096
22105.145040,-2368.659014,-10140.821405,0.000000
22105.145373,518.144159,-6513.812290,1915.238745
22105.145706,-888.247130,-8660.409521,1225.752797
22105.146039,1998.556043,-9696.697840,2681.334243
22105.146372,2886.803174,-9178.553681,3907.087040
22105.146705,2664.741391,-9178.553681,3677.258390
22105.147038,2886.803174,-6513.812290,1455.581446
22105.147371,-74.020594,-8956.491898,-3600.648841
22105.147704,-1184.329507,-9104.533087,-76.609550
22105.148037,-74.020594,-9474.636058,-2528.115143
22105.148370,-2220.617826,-11473.192101,-4596.572988
22105.148703,-740.205942,-10510.924376,-2681.334243
22105.149036,-370.102971,-10881.027347,-1608.800546
22105.149369,3849.070898,-8660.409521,2145.067394
22105.149702,6291.750507,-11251.130318,4826.401637
22105.150035,2368.659014,-10140.821405,7048.078582
22105.150368,3849.070898,-2442.679609,1838.629195
22105.150701,1184.329507,-9696.697840,3600.648841
22105.151034,2590.720797,-6365.771101,229.828649
22105.151367,-1406.391290,-10214.842000,-1608.800546
22105.151700,-370.102971,-9474.636058,-3140.991542
22105.152034,-2812.782580,-9030.512492,-3370.820191
22105.152367,-2812.782580,-12213.398043,-3140.991542
22105.152700,-518.144159,-6513.812290,-1762.019645
22105.153033,-666.185348,-11843.295072,-76.609550
22105.153366,592.164754,-7179.997637,3064.381992
22105.153699,0.000000,-9548.656652,6741.640382
22105.154032,5847.626942,-9178.553681,3294.210641
22105.154365,1184.329507,-5995.668130,1225.752797
22105.154698,2738.761985,-9992.780217,2068.457845
22105.155031,3627.009116,-7994.224174,2681.334243
22105.155364,-1628.453072,-8364.327145,-459.657299
22105.155697,-2442.679609,-8660.409521,-2451.505594
22105.156030,-4811.338623,-10066.800811,-8044.002729
22105.156363,-2368.659014,-12213.398043,-1838.629195
22105.156696,-1258.350101,-11843.295072,2374.896044
22105.157029,3478.967927,-3330.926739,1225.752797
22105.157362,1184.329507,-6587.832884,6205.373534
22105.157695,518.144159,-6957.935855,1302.362347
22105.158028,1776.494261,-7328.038826,3217.601092
22105.158361,-444.123565,-9548.656652,1072.533697
22105.158694,2294.638420,-7698.141797,0.000000
22105.159027,-1554.432478,-11843.295072,-1608.800546
22105.159360,-444.123565,-8438.347739,-2528.115143
22105.159693,-5551.544565,-10510.924376,-5132.839837
22105.160026,-4959.379811,-11473.192101,-4596.572988
22105.160359,0.000000,-6587.832884,3064.381992
22105.160692,-2738.761985,-9474.636058,-842.705048
22105.161025,0.000000,-3627.009116,0.000000
22105.161358,0.000000,-11325.150913,6511.811733
22105.161692,7624.121203,-3552.988522,3600.648841
22105.162025,2960.823768,-8364.327145,5515.887586
22105.162358,4663.297435,-10881.027347,689.485948
22105.162691,6439.791695,-10658.965565,-2221.676944
22105.163024,-2294.638420,-17542.880825,1838.629195
22105.163357,7031.956449,-7105.977043,-3140.991542
22105.163690,-2442.679609,-13027.624579,-2528.115143
22105.164023,0.000000,-9104.533087,-76.609550
22105.164356,-2442.679609,-8216.285956,-2528.115143
22105.164689,-4811.338623,-9030.512492,-2145.067394
22105.165022,-2368.659014,-9252.574275,-76.609550
22105.165355,-1110.308913,-6587.832884,3983.696590
22105.165688,3404.947333,-6217.729913,6358.592633
22105.166021,4663.297435,-5477.523971,4826.401637
22105.166354,1924.535449,-9548.656652,2451.505594
22105.166687,4663.297435,-8364.327145,-3677.258390
22105.167020,2294.638420,-13027.624579,-1302.362347
22105.167353,-370.102971,-12435.459826,-3524.039291
22105.167686,0.000000,-7179.997637,-2451.505594
22105.168019,-1850.514855,-13619.789333,-2528.115143
22105.168352,0.000000,-9696.697840,1149.143247
22105.168685,-1998.556043,-7254.018232,-76.609550
22105.169018,-1110.308913,-7846.182985,0.000000
22105.169351,-1184.329507,-11917.315666,5209.449386
22105.169684,2146.597232,-5403.503377,3370.820191
22105.170017,2960.823768,-9548.656652,6358.592633
22105.170350,-74.020594,-10362.883188,3753.867940
22105.170683,4145.153275,-4811.338623,612.876398
22105.171016,-2072.576638,-9548.656652,306.438199
22105.171349,814.226536,-5699.585753,-2604.724693
22105.171683,-4589.276840,-10066.800811,-4826.401637
22105.172016,-4663.297435,-12287.418637,-3294.210641
22105.172349,-1258.350101,-8882.471304,-3753.867940
22105.172682,-5921.647536,-11621.233289,1532.190996
22105.173015,-370.102971,-7179.997637,0.000000
22105.173348,-3552.988522,-5403.503377,2451.505594
22105.173681,3182.885551,-9474.636058,3294.210641
22105.174014,2368.659014,-9622.677246,2451.505594
22105.174347,2738.761985,-8808.450710,3830.477490
22105.174680,3997.112087,-9696.697840,4136.915689
22105.175013,5551.544565,-7254.018232,2987.772442
22105.175346,6735.874072,-9474.636058,-76.609550
22105.175679,1480.411884,-11325.150913,-459.657299
22105.176012,0.000000,-9252.574275,-2604.724693
22105.176345,-1184.329507,-8512.368333,-4903.011187
22105.176678,-2220.617826,-11991.336260,-1225.752797
22105.177011,-666.185348,-9178.553681,-3140.991542
22105.177344,-5921.647536,-11917.315666,0.000000
22105.177677,0.000000,-6291.750507,2987.772442
22105.178010,2294.638420,-10214.842000,4903.011187
22105.178343,1184.329507,-2442.679609,5209.449386
22105.178676,3775.050304,-7698.141797,2374.896044
22105.179009,-444.123565,-10732.986159,1072.533697
22105.179342,2368.659014,-7846.182985,-766.095498
22105.179675,-666.185348,-10807.006753,-2987.772442
22105.180008,518.144159,-9770.718434,-3447.429741
22105.180341,0.000000,-9548.656652,-3907.087040
22105.180674,-74.020594,-13619.789333,-1302.362347
22105.181007,-1554.432478,-7179.997637,0.000000
22105.181340,592.164754,-9844.739029,3983.696590
22105.181674,1998.556043,-9030.512492,842.705048
22105.182007,3256.906145,-11843.295072,6358.592633
22105.182340,3330.926739,-5255.462188,4903.011187
22105.182673,1702.473667,-9474.636058,4213.525239
22105.183006,0.000000,-7476.080014,1225.752797
22105.183339,-3552.988522,-13027.624579,-1302.362347
22105.183672,-2294.638420,-7179.997637,-4903.011187
22105.184005,-3997.112087,-7179.997637,-6128.763984
22105.184338,-2368.659014,-13619.789333,-2528.115143
22105.184671,-1480.411884,-7476.080014,2604.724693
22105.185004,-962.267725,-8216.285956,0.000000
22105.185337,1702.473667,-7550.100608,2911.162892
22105.185670,-1036.288319,-9844.739029,4596.572988
22105.186003,888.247130,-7179.997637,4596.572988
22105.186336,-74.020594,-11843.295072,-76.609550
22105.186669,1184.329507,-8660.409521,306.438199
22105.187002,2886.803174,-9474.636058,2374.896044
22105.187335,1998.556043,-7105.977043,-76.609550
22105.187668,-1776.494261,-8660.409521,-1532.190996
22105.188001,-2442.679609,-10658.965565,-2834.553343
22105.188334,-740.205942,-9326.594869,-3447.429741
22105.188667,-1258.350101,-8808.450710,-766.095498
22105.189000,3997.112087,-8512.368333,1225.752797
22105.189333,1850.514855,-9326.594869,1991.848295
22105.189666,4071.132681,-8586.388927,2987.772442
22105.189999,5477.523971,-9770.718434,3447.429741
22105.190332,-666.185348,-10955.047942,76.609550
22105.190665,2516.700203,-7179.997637,306.438199
22105.190998,-888.247130,-13841.851115,2374.896044
22105.191331,-1850.514855,-4885.359217,-4213.525239
22105.191665,-1776.494261,-9252.574275,-153.219100
22105.191998,-666.185348,-9474.636058,-689.485948
22105.192331,518.144159,-6587.832884,766.095498
22105.192664,-3182.885551,-7698.141797,-2451.505594
22105.192997,-74.020594,-7624.121203,-3524.039291
22105.193330,-2368.659014,-10732.986159,0.000000
22105.193663,4071.132681,-7402.059420,0.000000
22105.193996,5847.626942,-13027.624579,2987.772442
22105.194329,518.144159,-8660.409521,2451.505594
22105.194662,-1776.494261,-8956.491898,612.876398
22105.194995,888.247130,-8660.409521,0.000000
22105.195328,444.123565,-11029.068536,1685.410096
22105.195661,1258.350101,-8068.244768,612.876398
22105.195994,0.000000,-8586.388927,229.828649
22105.196327,-370.102971,-9474.636058,-76.609550
22105.196660,-1480.411884,-7179.997637,-1225.752797
22105.196993,-370.102971,-9474.636058,-3140.991542
22105.197326,-3849.070898,-11029.068536,306.438199
22105.197659,2294.638420,-10658.965565,3524.039291
22105.197992,2886.803174,-10955.047942,4519.963438
22105.198325,0.000000,-8956.491898,2068.457845
22105.198658,-222.061783,-7698.141797,76.609550
22105.198991,-2960.823768,-7920.203579,612.876398
22105.199324,1110.308913,-6143.709319,3524.039291
22105.199657,-2368.659014,-5995.668130,3907.087040
22105.199990,-1628.453072,-7476.080014,-2451.505594
22105.200323,-5921.647536,-7179.997637,306.438199
22105.200656,-666.185348,-9474.636058,-6205.373534
22105.200989,1110.308913,-8660.409521,-1915.238745
22105.201323,-666.185348,-13471.748144,-1149.143247
22105.201656,3108.864956,-10288.862594,-612.876398
22105.201989,1554.432478,-11843.295072,2451.505594
22105.202322,3701.029710,-7920.203579,1149.143247
22105.202655,5847.626942,-9474.636058,3600.648841
22105.202988,1480.411884,-7179.997637,4903.011187
22105.203321,4663.297435,-7105.977043,4826.401637
22105.203654,-74.020594,-8290.306550,76.609550
22105.203987,-3552.988522,-5995.668130,-2451.505594
22105.204320,-5995.668130,-9770.718434,-3753.867940
22105.204653,-1258.350101,-6513.812290,-2681.334243
22105.204986,-4367.215058,-11177.109724,-2834.553343
22105.205319,-3404.947333,-10214.842000,-1455.581446
22105.205652,-666.185348,-9474.636058,-3447.429741
22105.205985,1480.411884,-11473.192101,1685.410096
22105.206318,4145.153275,-9474.636058,4519.963438
22105.206651,2886.803174,-8142.265362,2374.896044
22105.206984,4737.318029,-9104.533087,3677.258390
22105.207317,2294.638420,-8808.450710,459.657299
22105.207650,2368.659014,-8660.409521,0.000000
22105.207983,3478.967927,-9474.636058,-76.609550
22105.208316,-1184.329507,-7772.162391,-919.314598
22105.208649,-2368.659014,-9104.533087,-2451.505594
22105.208982,-1184.329507,-10140.821405,2451.505594
22105.209315,-1776.494261,-7698.141797,-2528.115143
22105.209648,-740.205942,-10955.047942,1532.190996
22105.209981,-74.020594,-11843.295072,1149.143247
22105.210314,1702.473667,-6217.729913,0.000000
22105.210647,740.205942,-8068.244768,4826.401637
22105.210980,3478.967927,-11843.295072,-76.609550
22105.211314,0.000000,-9548.656652,-1225.752797
22105.211647,-1258.350101,-13619.789333,-76.609550
22105.211980,-2368.659014,-9474.636058,0.000000
22105.212313,148.041188,-8734.430116,1608.800546
22105.212646,-592.164754,-9252.574275,1991.848295
22105.212979,-2072.576638,-6291.750507,1225.752797
22105.213312,-666.185348,-3627.009116,0.000000
22105.213645,4663.297435,-9474.636058,2374.896044
22105.213978,888.247130,-5995.668130,5209.449386
22105.214311,0.000000,-10732.986159,3677.258390
22105.214644,0.000000,-9548.656652,-995.924147
22105.214977,0.000000,-13323.706956,-76.609550
22105.215310,4145.153275,-5033.400406,1685.410096
22105.215643,1184.329507,-9104.533087,-1532.190996
22105.215976,2294.638420,-9474.636058,-3753.867940
22105.216309,-74.020594,-10658.965565,-6358.592633
22105.216642,296.082377,-14285.974681,-2451.505594
22105.216975,2960.823768,-10658.965565,7277.907231
22105.217308,0.000000,-5403.503377,1225.752797
22105.217641,2368.659014,-5995.668130,4903.011187
22105.217974,2886.803174,-7698.141797,3294.210641
22105.218307,3552.988522,-7920.203579,3064.381992
22105.218640,814.226536,-9770.718434,689.485948
22105.218973,3182.885551,-11251.130318,-76.609550
22105.219306,-5921.647536,-10140.821405,-2451.505594
22105.219639,-666.185348,-8882.471304,-4979.620737
22105.219972,-4737.318029,-9548.656652,-7354.516781
22105.220305,0.000000,-9400.615463,-689.485948
22105.220638,814.226536,-9252.574275,-612.876398
22105.220971,-1628.453072,-9770.718434,2374.896044
22105.221304,-5329.482782,-10436.903782,-1532.190996
22105.221637,0.000000,-7254.018232,2145.067394
22105.221970,5255.462188,-9474.636058,4826.401637
22105.222303,5921.647536,-5403.503377,8580.269578
22105.222636,3627.009116,-8512.368333,3830.477490
22105.222969,592.164754,-6217.729913,-2911.162892
22105.223302,-2590.720797,-14952.160028,-2528.115143
22105.223635,-2442.679609,-11843.295072,-1915.238745
22105.223968,-2368.659014,-2738.761985,-7967.393179
22105.224301,-4145.153275,-20503.704593,-76.609550
22105.224634,1998.556043,2072.576638,-919.314598
22105.224967,-4441.235652,-10436.903782,306.438199
22105.225300,-1998.556043,-21317.931130,4826.401637
22105.225633,4441.235652,-4811.338623,3677.258390
22105.225966,7624.121203,4737.318029,4826.401637
22105.226299,3256.906145,-8660.409521,8273.831378
22105.226632,-3923.091493,-14804.118840,536.266849
22105.226965,-7105.977043,-13397.727550,1225.752797
22105.227298,-74.020594,-11547.212695,-76.609550
22105.227631,1998.556043,-7550.100608,-7048.078582
22105.227964,-1776.494261,-10140.821405,-6435.202183
22105.228297,5847.626942,-3552.988522,-5286.058936
22105.228630,-2368.659014,-5847.626942,-2681.334243
22105.228963,1776.494261,-6883.915261,0.000000
22105.229296,222.061783,-11251.130318,4826.401637
22105.229629,0.000000,-6291.750507,3064.381992
22105.229962,2368.659014,-5403.503377,8580.269578
22105.230295,3182.885551,-11695.253884,3907.087040
22105.230628,4737.318029,-7179.997637,306.438199
22105.230961,0.000000,-10436.903782,7277.907231
22105.231294,3182.885551,-6883.915261,0.000000
22105.231627,370.102971,-15322.262999,4443.353888
22105.231960,-518.144159,-8808.450710,-306.438199
22105.232293,-3552.988522,-9992.780217,-5669.106685
22105.232626,-2590.720797,-9474.636058,-3447.429741
22105.232959,-888.247130,-11103.089130,-3140.991542
22105.233291,-74.020594,-8142.265362,-2834.553343
22105.233624,1184.329507,-9548.656652,-1532.190996
22105.233957,2294.638420,-15988.448347,1762.019645
22105.234290,592.164754,-11917.315666,1532.190996
22105.234623,1850.514855,-10881.027347,-1072.533697
22105.234956,2368.659014,-13767.830521,2911.162892
22105.235289,4441.235652,-5255.462188,0.000000
22105.235622,2368.659014,-8290.306550,1378.971896
22105.235955,2886.803174,-6513.812290,-1302.362347
22105.236288,-4737.318029,-5995.668130,-4290.134789
22105.236621,-3552.988522,-6439.791695,-1302.362347
22105.236954,-666.185348,-7994.224174,-4060.306139
22105.237287,-4145.153275,-8364.327145,-2451.505594
22105.237620,-666.185348,-10955.047942,76.609550
22105.237953,-5329.482782,-11917.315666,-1532.190996
22105.238286,4515.256246,-5403.503377,5209.449386
22105.238619,-4811.338623,-12287.418637,1608.800546
22105.238952,7254.018232,-7105.977043,7277.907231
22105.239285,-5033.400406,-11029.068536,5362.668486
22105.239618,2960.823768,-3627.009116,3370.820191
22105.239951,-1554.432478,-10362.883188,3064.381992
22105.240284,518.144159,-4737.318029,842.705048
22105.240617,4663.297435,-9474.636058,2374.896044
22105.240950,-2738.761985,-5551.544565,-2451.505594
22105.241283,1480.411884,-3627.009116,-4903.011187
22105.241616,-2368.659014,-10140.821405,-2145.067394
22105.241949,3775.050304,-11399.171507,306.438199
22105.242282,-888.247130,-9770.718434,1915.238745
22105.242615,3034.844362,-13101.645173,2451.505594
22105.242948,3552.988522,-9474.636058,4903.011187
22105.243281,1776.494261,-8660.409521,2911.162892
22105.243614,4663.297435,-9178.553681,3600.648841
22105.243947,4071.132681,-4737.318029,2451.505594
22105.244280,0.000000,-5995.668130,-2451.505594
22105.244613,-74.020594,-12435.459826,-76.609550
22105.244946,-5329.482782,-10140.821405,-4596.572988
22105.245279,-4737.318029,-10510.924376,-4290.134789
22105.245612,-1110.308913,-9178.553681,-3064.381992
22105.245945,1110.308913,-10510.924376,-995.924147
22105.246278,0.000000,-7476.080014,0.000000
22105.246611,1998.556043,-12435.459826,2298.286494
22105.246944,4663.297435,-11251.130318,-76.609550
22105.247277,1184.329507,-9844.739029,3677.258390
22105.247610,2368.659014,-10732.986159,6052.154434
22105.247943,0.000000,-8364.327145,1838.629195
22105.248276,-3034.844362,-8216.285956,-3294.210641
22105.248609,888.247130,-7328.038826,-1532.190996
22105.248942,-2220.617826,-8364.327145,0.000000
22105.249275,0.000000,-5995.668130,-4290.134789
22105.249608,-1258.350101,-11843.295072,-76.609550
22105.249941,-1258.350101,-8438.347739,-4136.915689
22105.250274,888.247130,-8660.409521,2451.505594
22105.250607,2886.803174,-13027.624579,6052.154434
22105.250940,740.205942,-8364.327145,612.876398
22105.251273,-1554.432478,-8882.471304,1149.143247
22105.251606,-296.082377,-9474.636058,1455.581446
22105.251939,-1702.473667,-8586.388927,4826.401637
22105.252272,296.082377,-4811.338623,1225.752797
22105.252605,-1850.514855,-9400.615463,1838.629195
22105.252938,-1776.494261,-6365.771101,842.705048
22105.253271,-2960.823768,-6587.832884,-1302.362347
22105.253603,-1258.350101,-9474.636058,-76.609550
22105.253936,1406.391290,-5403.503377,1225.752797
22105.254269,1480.411884,-9474.636058,2374.896044
22105.254602,4663.297435,-9474.636058,-383.047749
22105.254935,0.000000,-9844.739029,0.000000
22105.255268,3775.050304,-15100.201217,2374.896044
22105.255601,6069.688724,-9548.656652,3370.820191
22105.255934,-1776.494261,-16062.468941,1991.848295
22105.256267,2442.679609,-6957.935855,-919.314598
22105.256600,-3256.906145,-9548.656652,-2451.505594
22105.256933,5699.585753,-6587.832884,-2451.505594
22105.257266,4663.297435,-9178.553681,4826.401637
22105.257599,518.144159,-5699.585753,-2298.286494
22105.257932,1036.288319,-6291.750507,0.000000
22105.258265,-3256.906145,-10436.903782,-2145.067394
22105.258598,2368.659014,-9252.574275,306.438199
22105.258931,-1036.288319,-10362.883188,-459.657299
22105.259264,2960.823768,-10510.924376,-1378.971896
22105.259597,0.000000,-11029.068536,2451.505594
22105.259930,-370.102971,-9030.512492,-3677.258390
22105.260263,-74.020594,-11843.295072,-76.609550
22105.260596,-3034.844362,-10214.842000,-1685.410096
22105.260929,0.000000,-5403.503377,0.000000
22105.261262,-1628.453072,-7920.203579,306.438199
22105.261595,1036.288319,-7624.121203,229.828649
22105.261928,1480.411884,-8586.388927,2298.286494
22105.262261,2442.679609,-7920.203579,2834.553343
22105.262594,3182.885551,-10658.965565,2987.772442
22105.262927,-2368.659014,-11917.315666,3064.381992
22105.263260,1110.308913,-8142.265362,0.000000
22105.263593,-222.061783,-9844.739029,-2451.505594
22105.263926,2368.659014,-12139.377449,-76.609550
22105.264259,-74.020594,-8290.306550,-76.609550
22105.264592,-5033.400406,-12583.501014,-1685.410096
22105.264925,370.102971,-4737.318029,-919.314598
22105.265258,-7105.977043,-11695.253884,-3064.381992
22105.265591,592.164754,-8290.306550,1302.362347
22105.265924,-1554.432478,-11547.212695,2987.772442
22105.266257,1702.473667,-6587.832884,0.000000
22105.266590,3552.988522,-8660.409521,9806.022374
22105.266923,5847.626942,-5921.647536,3600.648841
22105.267256,5255.462188,-9178.553681,5286.058936
22105.267589,-1554.432478,-10658.965565,-76.609550
22105.267922,1702.473667,-8956.491898,-2221.676944
22105.268255,-4367.215058,-11399.171507,-1608.800546
22105.268588,-592.164754,-8512.368333,-6971.469032
22105.268921,-5477.523971,-15396.283594,-1378.971896
22105.269254,-2886.803174,-8364.327145,-3447.429741
22105.269587,-2368.659014,-7476.080014,-1838.629195
22105.269920,74.020594,-10658.965565,2145.067394
22105.270253,6735.874072,-3182.885551,3217.601092
22105.270586,3552.988522,-10214.842000,7890.783629
22105.270919,8808.450710,-9178.553681,6511.811733
22105.271252,814.226536,-8364.327145,1225.752797
22105.271585,7550.100608,-10362.883188,2221.676944
22105.271918,4071.132681,-13619.789333,3447.429741
22105.272251,1702.473667,-8068.244768,-3753.867940
22105.272584,-1406.391290,-12435.459826,-5209.449386
22105.272917,-5625.565159,-10140.821405,-3753.867940
22105.273250,-4145.153275,-6291.750507,-4903.011187
22105.273583,-2072.576638,-10066.800811,2221.676944
22105.273915,-2886.803174,-7476.080014,-2145.067394
22105.274248,-2590.720797,-6291.750507,1838.629195
22105.274581,3701.029710,-5921.647536,4519.963438
22105.274914,2368.659014,-8364.327145,3064.381992
22105.275247,2664.741391,-9622.677246,4136.915689
22105.275580,3997.112087,-7476.080014,1991.848295
22105.275913,888.247130,-11399.171507,-76.609550
22105.276246,2294.638420,-7698.141797,-1302.362347
22105.276579,-370.102971,-13027.624579,-2528.115143
22105.276912,-2590.720797,-11325.150913,-3677.258390
22105.277245,0.000000,-9696.697840,0.000000
22105.277578,-4145.153275,-12435.459826,-76.609550
22105.277911,2368.659014,-5699.585753,2681.334243
22105.278244,-1258.350101,-10140.821405,2451.505594
22105.278577,4663.297435,-7402.059420,5515.887586
22105.278910,4737.318029,-9104.533087,5439.278036
22105.279243,518.144159,-8290.306550,3907.087040
22105.279576,3478.967927,-7105.977043,1762.019645
22105.279909,-5921.647536,-7772.162391,1225.752797
22105.280242,-1036.288319,-8586.388927,-4060.306139
22105.280575,-5403.503377,-8882.471304,-4519.963438
22105.280908,-2590.720797,-9178.553681,-689.485948
22105.281241,-2590.720797,-6365.771101,-3983.696590
22105.281574,-6365.771101,-13915.871710,-1455.581446
22105.281907,-2368.659014,-7550.100608,-1532.190996
22105.282240,-2960.823768,-12065.356855,3677.258390
22105.282573,4663.297435,-5995.668130,3983.696590
22105.282906,6291.750507,-9474.636058,9729.412825
22105.283239,6439.791695,-9474.636058,2681.334243
22105.283572,5921.647536,-7179.997637,6511.811733
22105.283905,1258.350101,-11251.130318,-689.485948
22105.284238,5181.441594,-10140.821405,-995.924147
22105.284571,-2516.700203,-13693.809927,-2221.676944
22105.284904,-666.185348,-9844.739029,-4903.011187
22105.285237,-4737.318029,-10140.821405,-4290.134789
22105.285570,-5033.400406,-9548.656652,-4060.306139
22105.285903,-2442.679609,-7031.956449,-1685.410096
22105.286236,-74.020594,-7846.182985,3524.039291
22105.286569,2368.659014,-6513.812290,4673.182538
22105.286902,-1776.494261,-8364.327145,3677.258390
22105.287235,3478.967927,-8882.471304,1149.143247
22105.287568,592.164754,-7772.162391,2451.505594
22105.287901,4071.132681,-9474.636058,2987.772442
22105.288234,2886.803174,-8882.471304,-76.609550
22105.288567,-1776.494261,-8956.491898,-4136.915689
22105.288900,-2368.659014,-11325.150913,-5286.058936
22105.289233,-592.164754,-11251.130318,-3294.210641
22105.289566,-1554.432478,-10584.944971,-383.047749
22105.289899,-74.020594,-10066.800811,2987.772442
22105.290232,1036.288319,-8364.327145,2451.505594
22105.290565,2368.659014,-6587.832884,6128.763984
22105.290898,5847.626942,-9474.636058,5286.058936
22105.291231,1332.370696,-5995.668130,1532.190996
22105.291564,4515.256246,-10362.883188,4060.306139
22105.291897,-518.144159,-8438.347739,-995.924147
22105.292230,-444.123565,-8438.347739,-1915.238745
22105.292563,-2368.659014,-9474.636058,-4366.744339
22105.292896,-1850.514855,-7698.141797,-2528.115143
22105.293229,-4145.153275,-5403.503377,1225.752797
22105.293562,1702.473667,-8882.471304,1838.629195
22105.293895,-74.020594,-9474.636058,-76.609550
22105.294227,-2960.823768,-10732.986159,612.876398
22105.294560,1998.556043,-7994.224174,1762.019645
22105.294893,518.144159,-11177.109724,1762.019645
22105.295226,3330.926739,-10955.047942,3140.991542
22105.295559,1184.329507,-9696.697840,3064.381992
22105.295892,2072.576638,-7179.997637,0.000000
22105.296225,0.000000,-8364.327145,4903.011187
22105.296558,4071.132681,-4441.235652,-1302.362347
22105.296891,-3256.906145,-6587.832884,-6128.763984
22105.297224,1184.329507,-8364.327145,-689.485948
22105.297557,-666.185348,-11843.295072,-4903.011187
22105.297890,-1406.391290,-12583.501014,1608.800546
22105.298223,2368.659014,-8660.409521,-459.657299
22105.298556,0.000000,-13249.686362,3524.039291
22105.298889,1258.350101,-6587.832884,2374.896044
22105.299222,-1332.370696,-10066.800811,-76.609550
22105.299555,1776.494261,-9696.697840,3370.820191
22105.299888,-1776.494261,-9178.553681,3140.991542
22105.300221,2294.638420,-7105.977043,1762.019645
22105.300554,-2442.679609,-8586.388927,-842.705048
22105.300887,-3404.947333,-6587.832884,-2451.505594
22105.301220,-74.020594,-8290.306550,-1302.362347
22105.301553,-1850.514855,-9178.553681,-1378.971896
22105.301886,-888.247130,-9104.533087,-2451.505594
22105.302219,-148.041188,-11843.295072,-459.657299
22105.302552,2664.741391,-11325.150913,1838.629195
22105.302885,1628.453072,-12065.356855,4290.134789
22105.303218,3775.050304,-8808.450710,1991.848295
22105.303551,2960.823768,-9178.553681,1762.019645
22105.303884,0.000000,-10881.027347,4749.792088
22105.304217,2294.638420,-7994.224174,2374.896044
22105.304550,-3034.844362,-5699.585753,-3370.820191
22105.304883,-3034.844362,-8882.471304,-1302.362347
22105.305216,0.000000,-3627.009116,-4903.011187
22105.305549,-74.020594,-11177.109724,1685.410096
22105.305882,-74.020594,-6957.935855,0.000000
22105.306215,0.000000,-7772.162391,-2451.505594
22105.306548,-74.020594,-14211.954086,76.609550
22105.306881,4737.318029,-11103.089130,2987.772442
22105.307214,3478.967927,-13915.871710,2681.334243
22105.307547,2960.823768,-8364.327145,2451.505594
22105.307880,888.247130,-10436.903782,1608.800546
22105.308213,0.000000,-7772.162391,1072.533697
22105.308546,0.000000,-8660.409521,-459.657299
22105.308879,-1850.514855,-7179.997637,-3064.381992
22105.309212,1110.308913,-9474.636058,2068.457845
22105.309545,-2294.638420,-5403.503377,-1838.629195
22105.309878,2294.638420,-5921.647536,-76.609550
22105.310211,-74.020594,-7772.162391,-3677.258390
22105.310544,5921.647536,-8956.491898,1149.143247
22105.310877,4071.132681,-15100.201217,1149.143247
22105.311210,2960.823768,-15248.242405,4673.182538
22105.311543,1702.473667,-11695.253884,-383.047749
22105.311876,1776.494261,-13027.624579,1302.362347
22105.312209,2072.576638,-7846.182985,2604.724693
22105.312542,1184.329507,-4219.173869,2451.505594
22105.312875,-74.020594,-4885.359217,0.000000
22105.313208,-2960.823768,-5995.668130,0.000000
22105.313541,-2960.823768,-9474.636058,-76.609550
22105.313874,-962.267725,-7698.141797,-1302.362347
22105.314206,-592.164754,-9326.594869,383.047749
22105.314539,888.247130,-8808.450710,766.095498
22105.314872,3404.947333,-10807.006753,1608.800546
22105.315205,-1184.329507,-13397.727550,383.047749
22105.315538,592.164754,-11177.109724,1608.800546
22105.315871,814.226536,-10732.986159,2374.896044
22105.316204,666.185348,-7920.203579,-383.047749
22105.316537,-592.164754,-10436.903782,-306.438199
22105.316870,-666.185348,-7698.141797,-383.047749
22105.317203,-2368.659014,-6291.750507,383.047749
22105.317536,1998.556043,-9474.636058,2374.896044
22105.317869,-2960.823768,-5995.668130,2451.505594
22105.318202,-1998.556043,-8734.430116,229.828649
22105.318535,-222.061783,-10362.883188,-76.609550
22105.318868,1702.473667,-11251.130318,-2145.067394
22105.319202,0.000000,-13693.809927,2528.115143
22105.319535,4663.297435,-7920.203579,3524.039291
22105.319868,-1776.494261,-11917.315666,2451.505594
22105.320201,0.000000,-7179.997637,2528.115143
22105.320534,-3627.009116,-9474.636058,-4979.620737
22105.320867,-1850.514855,-7402.059420,-4060.306139
22105.321200,-3256.906145,-7179.997637,-612.876398
22105.321533,-1258.350101,-5477.523971,-2145.067394
22105.321866,-888.247130,-7402.059420,842.705048
22105.322199,-1184.329507,-7179.997637,536.266849
22105.322532,1998.556043,-9770.718434,1455.581446
22105.322865,3552.988522,-9548.656652,4903.011187
22105.323198,4663.297435,-11251.130318,2681.334243
22105.323531,1184.329507,-7772.162391,1991.848295
22105.323865,1184.329507,-11325.150913,1225.752797
22105.324198,3478.967927,-11843.295072,-1302.362347
22105.324531,0.000000,-9548.656652,-4290.134789
22105.324864,1184.329507,-10510.924376,-2298.286494
22105.325197,-2146.597232,-12583.501014,153.219100
22105.325530,1332.370696,-5773.606348,-536.266849
22105.325863,-1258.350101,-8290.306550,1149.143247
22105.326196,2294.638420,-5329.482782,1762.019645
22105.326529,2886.803174,-2738.761985,612.876398
22105.326862,4293.194464,-8586.388927,7277.907231
22105.327195,518.144159,-11251.130318,1149.143247
22105.327528,1110.308913,-9696.697840,-76.609550
22105.327861,1628.453072,-14285.974681,-766.095498
22105.328194,5181.441594,-9326.594869,1685.410096
22105.328528,1036.288319,-10140.821405,-995.924147
22105.328861,-1776.494261,-6661.853478,-5515.887586
22105.329194,-3923.091493,-12287.418637,-6128.763984
22105.329527,-2072.576638,-7920.203579,-3677.258390
22105.329860,-148.041188,-11843.295072,3600.648841
22105.330193,-1998.556043,-6143.709319,1532.190996
22105.330526,5551.544565,-6439.791695,7277.907231
22105.330859,0.000000,-7772.162391,7124.688131
22105.331192,6365.771101,-4515.256246,4443.353888
22105.331525,-222.061783,-10436.903782,2681.334243
22105.331858,1332.370696,-9548.656652,-2145.067394
22105.332191,-2220.617826,-13471.748144,0.000000
22105.332524,-4737.318029,-13397.727550,-6205.373534
22105.332857,-6735.874072,-12805.562797,-7124.688131
22105.333191,-8956.491898,-10732.986159,-3753.867940
22105.333524,-3849.070898,-4811.338623,-383.047749
22105.333857,-666.185348,-7105.977043,6665.030833
22105.334190,-4219.173869,-6069.688724,3830.477490
