#time,accel_x,accel_y,accel_z
22389.494807,7624.121203,-8586.388927,2911.162892
22389.495141,8660.409521,-10066.800811,3983.696590
22389.495475,10288.862594,-7698.141797,2987.772442
22389.495809,11473.192101,-10362.883188,6052.154434
22389.496142,11325.150913,-9474.636058,1149.143247
22389.496476,5477.523971,-8660.409521,-1838.629195
22389.496810,8882.471304,-10658.965565,-1532.190996
22389.497144,5477.523971,-7920.203579,-2451.505594
22389.497478,7031.956449,-9474.636058,-3140.991542
22389.497811,7254.018232,-10066.800811,-1302.362347
22389.498145,9474.636058,-9104.533087,612.876398
22389.498479,10658.965565,-9104.533087,2451.505594
22389.498813,12361.439231,-10658.965565,2987.772442
22389.499146,7328.038826,-10066.800811,1149.143247
22389.499480,3552.988522,-10140.821405,2451.505594
22389.499814,3478.967927,-11695.253884,1149.143247
22389.500148,3701.029710,-9474.636058,1455.581446
22389.500482,2220.617826,-8068.244768,306.438199
22389.500815,3775.050304,-6513.812290,229.828649
22389.501149,4663.297435,-5921.647536,1608.800546
22389.501483,8216.285956,-7105.977043,1762.019645
22389.501817,7624.121203,-6217.729913,-2451.505594
22389.502151,7402.059420,-7772.162391,153.219100
22389.502484,10658.965565,-9252.574275,2681.334243
22389.502818,11769.274478,-10658.965565,-1915.238745
22389.503152,10658.965565,-12435.459826,-459.657299
22389.503486,10881.027347,-12213.398043,-1072.533697
22389.503819,10584.944971,-11843.295072,-383.047749
22389.504153,9104.533087,-11843.295072,-459.657299
22389.504487,8512.368333,-12583.501014,1762.019645
22389.504821,7402.059420,-9104.533087,919.314598
22389.505155,9548.656652,-6587.832884,3064.381992
22389.505488,11103.089130,-5625.565159,4060.306139
22389.505822,8290.306550,-4811.338623,2451.505594
22389.506156,9474.636058,-6587.832884,2451.505594
22389.506490,9400.615463,-9326.594869,1762.019645
22389.506824,7031.956449,-6883.915261,-2451.505594
22389.507157,5329.482782,-11029.068536,-1149.143247
22389.507491,6069.688724,-11251.130318,-1302.362347
22389.507825,6217.729913,-9104.533087,-689.485948
22389.508159,8142.265362,-8438.347739,-612.876398
22389.508492,9030.512492,-9030.512492,229.828649
22389.508826,9474.636058,-9326.594869,306.438199
22389.509160,5921.647536,-7179.997637,1225.752797
22389.509494,11769.274478,-8882.471304,-2604.724693
22389.509828,8290.306550,-7179.997637,-4290.134789
22389.510161,10066.800811,-10362.883188,995.924147
22389.510495,9474.636058,-10732.986159,306.438199
22389.510829,10584.944971,-11547.212695,2528.115143
22389.511163,11251.130318,-10140.821405,3370.820191
22389.511497,13767.830521,-8068.244768,5822.325785
22389.511830,14137.933492,-6513.812290,5898.935335
22389.512164,13619.789333,-6143.709319,4826.401637
22389.512498,14137.933492,-5921.647536,-1838.629195
22389.512832,9770.718434,-8364.327145,-1685.410096
22389.513166,9400.615463,-13027.624579,-4060.306139
22389.513499,5255.462188,-11843.295072,-7124.688131
22389.513833,2812.782580,-12213.398043,-8733.488677
22389.514167,6587.832884,-12065.356855,-3907.087040
22389.514501,11695.253884,-9474.636058,2604.724693
22389.514834,12435.459826,-5403.503377,6741.640382
22389.515168,17690.922014,-6513.812290,7890.783629
22389.515502,14211.954086,-6587.832884,7584.345430
22389.515836,13027.624579,-4811.338623,7354.516781
22389.516170,15322.262999,-8290.306550,4826.401637
22389.516503,11029.068536,-7179.997637,-2451.505594
22389.516837,8290.306550,-8364.327145,-6128.763984
22389.517171,7254.018232,-11695.253884,-7354.516781
22389.517505,7328.038826,-12657.521608,-5745.716235
22389.517839,5033.400406,-14211.954086,-3370.820191
22389.518172,5847.626942,-9548.656652,-5822.325785
22389.518506,9474.636058,-9844.739029,3524.039291
22389.518840,15988.448347,-7624.121203,10648.727422
22389.519174,14730.098246,-5255.462188,6588.421283
22389.519507,11843.295072,-5403.503377,7354.516781
22389.519841,12583.501014,-8142.265362,5132.839837
22389.520175,11177.109724,-6883.915261,3064.381992
22389.520509,11547.212695,-7179.997637,-459.657299
22389.520843,8882.471304,-9030.512492,-3983.696590
22389.521176,4811.338623,-9474.636058,-9116.536426
22389.521510,3330.926739,-11473.192101,-9193.145976
22389.521844,6069.688724,-11621.233289,-4136.915689
22389.522178,6809.894666,-10881.027347,-2451.505594
22389.522512,12435.459826,-10140.821405,4290.134789
22389.522845,14730.098246,-8290.306550,6052.154434
22389.523179,14137.933492,-5847.626942,4903.011187
22389.523513,13027.624579,-8512.368333,8886.707777
22389.523847,15322.262999,-7105.977043,6665.030833
22389.524180,12435.459826,-5403.503377,1608.800546
22389.524514,9178.553681,-10955.047942,-995.924147
22389.524848,3330.926739,-9770.718434,-7890.783629
22389.525182,2886.803174,-13989.892304,-7660.954980
22389.525516,7328.038826,-10066.800811,-3753.867940
22389.525849,8808.450710,-8142.265362,-3524.039291
22389.526183,9474.636058,-7476.080014,0.000000
22389.526517,10658.965565,-11769.274478,6665.030833
22389.526851,12657.521608,-8660.409521,4826.401637
22389.527185,15322.262999,-8734.430116,4826.401637
22389.527518,13915.871710,-11325.150913,6971.469032
22389.527852,13397.727550,-4589.276840,4213.525239
22389.528186,9400.615463,-11843.295072,3140.991542
22389.528520,7254.018232,-7550.100608,-2221.676944
22389.528854,5255.462188,-4811.338623,-7354.516781
22389.529187,5921.647536,-10658.965565,-1608.800546
22389.529521,11547.212695,-6587.832884,1762.019645
22389.529855,5551.544565,-9178.553681,-4596.572988
22389.530189,10584.944971,-8882.471304,-689.485948
22389.530522,8512.368333,-10066.800811,689.485948
22389.530856,12435.459826,-8068.244768,1532.190996
22389.531190,10510.924376,-9400.615463,2987.772442
22389.531524,11399.171507,-6883.915261,2145.067394
22389.531858,13323.706956,-9844.739029,3064.381992
22389.532191,14656.077652,-8882.471304,4826.401637
22389.532525,8808.450710,-12583.501014,1378.971896
22389.532859,7698.141797,-4811.338623,-612.876398
22389.533193,5847.626942,-13471.748144,-3983.696590
22389.533527,8290.306550,-5255.462188,-3140.991542
22389.533860,10510.924376,-8882.471304,-1608.800546
22389.534194,9104.533087,-10658.965565,-383.047749
22389.534528,13323.706956,-8068.244768,0.000000
22389.534862,8290.306550,-12213.398043,536.266849
22389.535195,14952.160028,-8882.471304,4826.401637
22389.535529,12213.398043,-10140.821405,2681.334243
22389.535863,12657.521608,-11547.212695,3600.648841
22389.536197,5847.626942,-7698.141797,-76.609550
22389.536531,5921.647536,-8364.327145,0.000000
22389.536864,7920.203579,-11843.295072,3600.648841
22389.537198,4663.297435,-11251.130318,-689.485948
22389.537532,5255.462188,-8882.471304,1149.143247
22389.537866,-1776.494261,-7698.141797,-2834.553343
22389.538200,2368.659014,-7846.182985,-5362.668486
22389.538533,3627.009116,-7846.182985,1149.143247
22389.538867,9474.636058,-7476.080014,3830.477490
22389.539201,11177.109724,-8142.265362,6665.030833
22389.539535,4737.318029,-9548.656652,6205.373534
22389.539868,7031.956449,-10362.883188,-536.266849
22389.540202,4959.379811,-8882.471304,-1608.800546
22389.540536,3552.988522,-14434.015869,-3064.381992
22389.540870,5255.462188,-7772.162391,0.000000
22389.541204,370.102971,-11991.336260,-842.705048
22389.541537,1480.411884,-7698.141797,383.047749
22389.541871,2590.720797,-7698.141797,-689.485948
22389.542205,5551.544565,-5921.647536,1608.800546
22389.542539,3849.070898,-10510.924376,6511.811733
22389.542873,6735.874072,-4737.318029,1149.143247
22389.543206,148.041188,-10140.821405,612.876398
22389.543540,2368.659014,-9030.512492,766.095498
22389.543874,8438.347739,-5995.668130,1685.410096
22389.544208,2960.823768,-12287.418637,2681.334243
22389.544542,8586.388927,-5255.462188,-76.609550
22389.544875,-5181.441594,-16062.468941,-3677.258390
22389.545209,592.164754,-8364.327145,-6128.763984
22389.545543,3182.885551,-10658.965565,-2834.553343
22389.545877,888.247130,-13101.645173,0.000000
22389.546210,7105.977043,-4811.338623,1532.190996
22389.546544,3478.967927,-12435.459826,4826.401637
22389.546878,4145.153275,-8364.327145,5439.278036
22389.547212,5995.668130,-7920.203579,4443.353888
22389.547546,5107.421000,-8882.471304,4903.011187
22389.547879,3108.864956,-5699.585753,2528.115143
22389.548213,888.247130,-9474.636058,1762.019645
22389.548547,5551.544565,-5921.647536,-1915.238745
22389.548881,-3552.988522,-11325.150913,-1838.629195
22389.549215,1184.329507,-4219.173869,-383.047749
22389.549548,-4811.338623,-14211.954086,-6205.373534
22389.549882,-2220.617826,-11769.274478,-3753.867940
22389.550216,-3627.009116,-9400.615463,-4903.011187
22389.550550,-666.185348,-11621.233289,-76.609550
22389.550883,5921.647536,-5477.523971,3983.696590
22389.551217,5625.565159,-9252.574275,7277.907231
22389.551551,11177.109724,-7254.018232,8120.612279
22389.551885,6143.709319,-8882.471304,8503.660028
22389.552219,5625.565159,-9548.656652,2911.162892
22389.552552,1258.350101,-7772.162391,0.000000
22389.552886,0.000000,-6587.832884,-3983.696590
22389.553220,4367.215058,-9178.553681,-2528.115143
22389.553554,-1554.432478,-13323.706956,-3677.258390
22389.553888,0.000000,-5551.544565,-4903.011187
22389.554221,-9252.574275,-18949.272115,-3753.867940
22389.554555,-1702.473667,-8142.265362,-5286.058936
22389.554889,0.000000,-10362.883188,2374.896044
22389.555223,-1628.453072,-7994.224174,5056.230287
22389.555556,5921.647536,-2738.761985,7354.516781
22389.555890,-3552.988522,-5403.503377,7967.393179
22389.556224,7031.956449,-7402.059420,2068.457845
22389.556558,0.000000,-7179.997637,229.828649
22389.556892,1184.329507,-9548.656652,1149.143247
22389.557225,-7105.977043,-11917.315666,-7967.393179
22389.557559,-2072.576638,-8438.347739,-7124.688131
22389.557893,-5403.503377,-12287.418637,-3830.477490
22389.558227,-1480.411884,-8734.430116,-1838.629195
22389.558561,2294.638420,-15100.201217,4826.401637
22389.558894,-3552.988522,-8364.327145,6052.154434
22389.559228,2886.803174,-6217.729913,2451.505594
22389.559562,0.000000,-6291.750507,7814.174080
22389.559896,4589.276840,-6957.935855,5745.716235
22389.560229,-666.185348,-5921.647536,2068.457845
22389.560563,3404.947333,-5847.626942,229.828649
22389.560897,-2294.638420,-11103.089130,-5898.935335
22389.561231,-2664.741391,-11917.315666,-3447.429741
22389.561565,-7698.141797,-9548.656652,-8580.269578
22389.561898,-3923.091493,-14211.954086,-5592.497135
22389.562232,0.000000,-7476.080014,-4519.963438
22389.562566,0.000000,-14878.139434,4826.401637
22389.562900,8512.368333,-4441.235652,7277.907231
22389.563234,0.000000,-8142.265362,5898.935335
22389.563567,6809.894666,-5477.523971,4903.011187
22389.563901,4219.173869,-9918.759623,8810.098227
22389.564235,5181.441594,-6217.729913,5439.278036
22389.564569,2960.823768,-3404.947333,919.314598
22389.564903,-2738.761985,-10584.944971,-7967.393179
22389.565236,-2368.659014,-11251.130318,-4979.620737
22389.565570,-4811.338623,-13027.624579,-4979.620737
22389.565904,-2146.597232,-8956.491898,-5515.887586
22389.566238,-4737.318029,-8808.450710,-1991.848295
22389.566571,-3330.926739,-10732.986159,766.095498
22389.566905,1628.453072,-8882.471304,1685.410096
22389.567239,2886.803174,-10288.862594,4903.011187
22389.567573,9474.636058,-6291.750507,8120.612279
22389.567907,3182.885551,-9326.594869,5515.887586
22389.568240,6735.874072,-3849.070898,3524.039291
22389.568574,-74.020594,-9030.512492,-995.924147
22389.568908,-1628.453072,-13027.624579,-2221.676944
22389.569242,1184.329507,-10732.986159,-3983.696590
22389.569576,1110.308913,-9474.636058,-1149.143247
22389.569909,-2368.659014,-6291.750507,0.000000
22389.570243,2294.638420,-7698.141797,-76.609550
22389.570577,-4811.338623,-14211.954086,-1302.362347
22389.570911,0.000000,-6587.832884,-1838.629195
22389.571244,2886.803174,-8660.409521,3064.381992
22389.571578,3404.947333,-7698.141797,2987.772442
22389.571912,2738.761985,-7772.162391,4366.744339
22389.572246,-1258.350101,-8882.471304,-76.609550
22389.572580,814.226536,-8956.491898,-3064.381992
22389.572913,0.000000,-10881.027347,2451.505594
22389.573247,6143.709319,-8290.306550,-1915.238745
22389.573581,-1258.350101,-8882.471304,-4596.572988
22389.573915,-3404.947333,-15100.201217,-76.609550
22389.574249,-740.205942,-7031.956449,-3370.820191
22389.574582,0.000000,-16506.592507,5745.716235
22389.574916,5255.462188,-4367.215058,4136.915689
22389.575250,1110.308913,-4737.318029,2374.896044
22389.575584,-3330.926739,-4811.338623,0.000000
22389.575917,444.123565,-12287.418637,1149.143247
22389.576251,-2442.679609,-12731.542202,-76.609550
22389.576585,1998.556043,-4811.338623,1838.629195
22389.576919,-74.020594,-9326.594869,-536.266849
22389.577253,-1924.535449,-8882.471304,153.219100
22389.577586,-5255.462188,-6883.915261,-3907.087040
22389.577920,-4737.318029,-12065.356855,-6511.811733
22389.578254,-2368.659014,-11621.233289,-2451.505594
22389.578588,-1628.453072,-12213.398043,3600.648841
22389.578922,1998.556043,-8882.471304,3294.210641
22389.579255,-2368.659014,-5107.421000,1838.629195
22389.579589,740.205942,-11399.171507,4826.401637
22389.579923,2294.638420,-8882.471304,995.924147
22389.580257,9474.636058,-4737.318029,6971.469032
22389.580591,888.247130,-7105.977043,3600.648841
22389.580924,1628.453072,-8438.347739,1225.752797
22389.581258,-4145.153275,-6735.874072,-1838.629195
22389.581592,-4071.132681,-13027.624579,-4749.792088
22389.581926,1184.329507,-9622.677246,-3830.477490
22389.582259,-370.102971,-11621.233289,0.000000
22389.582593,-74.020594,-10658.965565,-4366.744339
22389.582927,296.082377,-7105.977043,2068.457845
22389.583261,-4737.318029,-10732.986159,0.000000
22389.583595,6587.832884,-8586.388927,7277.907231
22389.583928,4367.215058,-9474.636058,5286.058936
22389.584262,5847.626942,-5921.647536,2987.772442
22389.584596,592.164754,-10510.924376,4519.963438
22389.584930,2072.576638,-4293.194464,-1532.190996
22389.585264,-74.020594,-11621.233289,-1149.143247
22389.585597,740.205942,-9548.656652,-4673.182538
22389.585931,1702.473667,-16580.613101,2068.457845
22389.586265,-4737.318029,-9548.656652,-1915.238745
22389.586599,-74.020594,-11843.295072,-2604.724693
22389.586932,-7105.977043,-6291.750507,-3677.258390
22389.587266,1776.494261,-7476.080014,2757.943793
22389.587600,6143.709319,-2812.782580,6358.592633
22389.587934,3478.967927,-9400.615463,6358.592633
22389.588268,2812.782580,-7624.121203,3524.039291
22389.588601,-1776.494261,-9844.739029,1149.143247
22389.588935,0.000000,-7476.080014,-3447.429741
22389.589269,-74.020594,-9474.636058,-76.609550
22389.589603,2886.803174,-9474.636058,-2528.115143
22389.589937,-5699.585753,-9548.656652,-5515.887586
22389.590270,-2368.659014,-14582.057057,-2911.162892
22389.590604,-5921.647536,-11325.150913,-3064.381992
22389.590937,370.102971,-9992.780217,1991.848295
22389.591271,3923.091493,-6439.791695,5209.449386
22389.591604,2220.617826,-6069.688724,5056.230287
22389.591937,1776.494261,-6587.832884,4903.011187
22389.592270,2294.638420,-8882.471304,-76.609550
22389.592604,3108.864956,-9844.739029,689.485948
22389.592937,0.000000,-8660.409521,5209.449386
22389.593270,-74.020594,-7698.141797,-3140.991542
22389.593603,-6735.874072,-12065.356855,-383.047749
22389.593937,-5181.441594,-6587.832884,-7354.516781
22389.594270,-3404.947333,-11621.233289,-4749.792088
22389.594603,592.164754,-8882.471304,2987.772442
22389.594937,-74.020594,-10658.965565,-76.609550
22389.595270,-3552.988522,-7476.080014,612.876398
22389.595603,-2368.659014,-7179.997637,919.314598
22389.595936,2294.638420,-9474.636058,2374.896044
22389.596270,5255.462188,-7994.224174,4673.182538
22389.596603,6217.729913,-7698.141797,3600.648841
22389.596936,5699.585753,-9474.636058,3064.381992
22389.597269,-888.247130,-9992.780217,76.609550
22389.597603,-1258.350101,-11103.089130,-3447.429741
22389.597936,-2146.597232,-12509.480420,995.924147
22389.598269,296.082377,-6365.771101,-5439.278036
22389.598602,-222.061783,-7846.182985,-2604.724693
22389.598936,-2442.679609,-12139.377449,-1762.019645
22389.599269,814.226536,-8512.368333,689.485948
22389.599602,0.000000,-9992.780217,5439.278036
22389.599935,3775.050304,-10066.800811,1838.629195
22389.600269,4737.318029,-2738.761985,9193.145976
22389.600602,4663.297435,-6513.812290,1762.019645
22389.600935,3849.070898,-5995.668130,229.828649
22389.601268,-1184.329507,-12583.501014,-76.609550
22389.601602,-2072.576638,-11769.274478,-5515.887586
22389.601935,-2220.617826,-11325.150913,-3677.258390
22389.602268,-1258.350101,-10658.965565,-6205.373534
22389.602601,-2442.679609,-15100.201217,-76.609550
22389.602935,-5403.503377,-11251.130318,-2834.553343
22389.603268,1184.329507,-5995.668130,0.000000
22389.603601,4737.318029,-7772.162391,11184.994271
22389.603935,9400.615463,-4145.153275,9729.412825
22389.604268,3478.967927,-7846.182985,4979.620737
22389.604601,-666.185348,-9844.739029,2987.772442
22389.604934,-1850.514855,-5477.523971,-5822.325785
22389.605268,-2072.576638,-8364.327145,0.000000
22389.605601,-1258.350101,-11843.295072,-2528.115143
22389.605934,-8290.306550,-5403.503377,-3064.381992
22389.606267,-8290.306550,-14137.933492,-7890.783629
22389.606601,-5995.668130,-14211.954086,-5286.058936
22389.606934,-1628.453072,-7476.080014,-1072.533697
22389.607267,-2368.659014,-8364.327145,1991.848295
22389.607600,5699.585753,-4515.256246,4673.182538
22389.607934,-592.164754,-10436.903782,4673.182538
22389.608267,6513.812290,-7179.997637,9729.412825
22389.608600,3627.009116,-4219.173869,3064.381992
22389.608933,4663.297435,-10658.965565,3600.648841
22389.609267,-666.185348,-10362.883188,-4060.306139
22389.609600,-3552.988522,-6587.832884,-612.876398
22389.609933,-3256.906145,-12879.583391,-4443.353888
22389.610266,-1184.329507,-9104.533087,-4213.525239
22389.610600,-2516.700203,-10140.821405,-2681.334243
22389.610933,-2146.597232,-7772.162391,-2451.505594
22389.611266,2960.823768,-7402.059420,229.828649
22389.611599,0.000000,-9548.656652,5362.668486
22389.611933,3330.926739,-12435.459826,3600.648841
22389.612266,2368.659014,-4811.338623,2451.505594
22389.612599,5699.585753,-11843.295072,6052.154434
22389.612933,7624.121203,-4737.318029,2374.896044
22389.613266,4145.153275,-11547.212695,3907.087040
22389.613599,-2516.700203,-11251.130318,-2834.553343
22389.613932,-1628.453072,-9474.636058,-7354.516781
22389.614266,-1110.308913,-13841.851115,-3217.601092
22389.614599,2738.761985,-9400.615463,2987.772442
22389.614932,1628.453072,-5847.626942,-2145.067394
22389.615265,-1702.473667,-13471.748144,1838.629195
22389.615599,-1036.288319,-7624.121203,-1149.143247
22389.615932,-370.102971,-7254.018232,689.485948
22389.616265,5329.482782,-8512.368333,7967.393179
22389.616598,3478.967927,-7105.977043,3600.648841
22389.616932,-4145.153275,-4811.338623,1838.629195
22389.617265,-1998.556043,-12139.377449,-4979.620737
22389.617598,-1258.350101,-11843.295072,-3600.648841
22389.617931,888.247130,-8660.409521,-1455.581446
22389.618265,-1406.391290,-11843.295072,-1302.362347
22389.618598,-1258.350101,-6291.750507,-6588.421283
22389.618931,-5921.647536,-16950.716072,-2451.505594
22389.619264,3478.967927,-10658.965565,4519.963438
22389.619598,5107.421000,-5403.503377,6128.763984
22389.619931,1184.329507,-7772.162391,9806.022374
22389.620264,3923.091493,-4737.318029,2987.772442
22389.620597,0.000000,-8364.327145,3983.696590
22389.620931,-1850.514855,-7254.018232,1149.143247
22389.621264,1924.535449,-5699.585753,-689.485948
22389.621597,-4589.276840,-12509.480420,-3983.696590
22389.621931,-4219.173869,-7698.141797,-4366.744339
22389.622264,-3923.091493,-11843.295072,-7431.126331
22389.622597,-5921.647536,-10732.986159,-3064.381992
22389.622930,-2516.700203,-12879.583391,-76.609550
22389.623264,4293.194464,-7550.100608,5745.716235
22389.623597,5255.462188,-7698.141797,6665.030833
22389.623930,6291.750507,-6661.853478,5286.058936
22389.624263,3182.885551,-11177.109724,3983.696590
22389.624597,-2960.823768,-9326.594869,229.828649
22389.624930,2960.823768,-7179.997637,0.000000
22389.625263,3478.967927,-9474.636058,2451.505594
22389.625596,0.000000,-8364.327145,1532.190996
22389.625930,-814.226536,-7698.141797,-4366.744339
22389.626263,-7328.038826,-15396.283594,-6818.249932
22389.626596,-4441.235652,-8660.409521,-7431.126331
22389.626929,-740.205942,-10214.842000,2374.896044
22389.627263,1110.308913,-6143.709319,1532.190996
22389.627596,1184.329507,-7179.997637,5515.887586
22389.627929,592.164754,-6809.894666,2911.162892
22389.628262,1184.329507,-10732.986159,3217.601092
22389.628596,6735.874072,-6513.812290,4826.401637
22389.628929,7031.956449,-6587.832884,0.000000
22389.629262,2516.700203,-10510.924376,-76.609550
22389.629595,222.061783,-10807.006753,-6205.373534
22389.629929,-3775.050304,-13915.871710,-6205.373534
22389.630262,370.102971,-13323.706956,76.609550
22389.630595,3478.967927,-8290.306550,-1455.581446
22389.630929,2294.638420,-11843.295072,4519.963438
22389.631262,0.000000,-5551.544565,1838.629195
22389.631595,-518.144159,-8586.388927,3370.820191
22389.631928,888.247130,-5847.626942,5209.449386
22389.632262,8660.409521,-2146.597232,4060.306139
22389.632595,2960.823768,-10807.006753,5515.887586
22389.632928,2368.659014,-1850.514855,0.000000
22389.633261,-2960.823768,-16580.613101,-3753.867940
22389.633595,-5329.482782,-10732.986159,-7354.516781
22389.633928,148.041188,-11547.212695,-6052.154434
22389.634261,-666.185348,-13915.871710,-76.609550
22389.634594,3256.906145,-6587.832884,459.657299
22389.634928,-5477.523971,-12879.583391,-1072.533697
22389.635261,-2738.761985,-12435.459826,2068.457845
22389.635594,4663.297435,-4441.235652,4213.525239
22389.635927,3552.988522,-8364.327145,11031.775171
22389.636261,9326.594869,-1628.453072,10342.289223
22389.636594,3182.885551,-6069.688724,3064.381992
22389.636927,-4737.318029,-9548.656652,0.000000
22389.637260,-74.020594,-9474.636058,-4136.915689
22389.637594,-4737.318029,-13397.727550,-4903.011187
22389.637927,-1850.514855,-9104.533087,-4366.744339
22389.638260,-7846.182985,-12953.603985,-4903.011187
22389.638594,-7105.977043,-8956.491898,-5515.887586
22389.638927,-4737.318029,-10732.986159,-995.924147
22389.639260,2886.803174,-9474.636058,3600.648841
22389.639593,4663.297435,-6661.853478,4903.011187
22389.639927,3923.091493,-7105.977043,8503.660028
22389.640260,2960.823768,-4959.379811,5209.449386
22389.640593,-74.020594,-9326.594869,1149.143247
22389.640926,6217.729913,-9474.636058,3600.648841
22389.641260,2220.617826,-6661.853478,306.438199
22389.641593,592.164754,-12065.356855,-2451.505594
22389.641926,-666.185348,-11843.295072,-1302.362347
22389.642259,-6587.832884,-13249.686362,-8273.831378
22389.642593,-3552.988522,-9844.739029,-3677.258390
22389.642926,-666.185348,-11251.130318,-76.609550
22389.643259,3182.885551,-6587.832884,0.000000
22389.643592,2590.720797,-7698.141797,4903.011187
22389.643926,3034.844362,-4885.359217,-689.485948
22389.644259,-666.185348,-14285.974681,5592.497135
22389.644592,5847.626942,-8142.265362,4903.011187
22389.644925,7105.977043,-9696.697840,5132.839837
22389.645259,3997.112087,-4737.318029,3600.648841
22389.645592,2368.659014,-8512.368333,-3983.696590
22389.645925,-5107.421000,-12731.542202,-4903.011187
22389.646258,-1184.329507,-7476.080014,-5822.325785
22389.646592,-666.185348,-14211.954086,-2528.115143
22389.646925,-1480.411884,-9474.636058,-3140.991542
22389.647258,0.000000,-6587.832884,0.000000
22389.647592,-3182.885551,-10288.862594,1608.800546
22389.647925,5699.585753,-3034.844362,4519.963438
22389.648258,1110.308913,-8216.285956,4290.134789
22389.648591,7402.059420,-7105.977043,6894.859482
22389.648925,2368.659014,-8068.244768,5286.058936
22389.649258,1110.308913,-7550.100608,0.000000
22389.649591,-74.020594,-9474.636058,-5286.058936
22389.649924,-2812.782580,-11325.150913,-4903.011187
22389.650258,0.000000,-12213.398043,153.219100
22389.650591,1924.535449,-9474.636058,-1225.752797
22389.650924,-2738.761985,-12657.521608,-1302.362347
22389.651257,-5477.523971,-9992.780217,-2298.286494
22389.651591,-962.267725,-8586.388927,-1072.533697
22389.651924,1850.514855,-10362.883188,6665.030833
22389.652257,2368.659014,-4219.173869,6741.640382
22389.652590,1998.556043,-6809.894666,4826.401637
22389.652924,-3108.864956,-5995.668130,1838.629195
22389.653257,1702.473667,-8882.471304,2374.896044
22389.653590,-74.020594,-8290.306550,-76.609550
22389.653923,1036.288319,-10658.965565,-76.609550
22389.654257,-3627.009116,-6809.894666,-6588.421283
22389.654590,-4219.173869,-11251.130318,-8273.831378
22389.654923,-5255.462188,-15544.324782,-6281.983084
22389.655256,-370.102971,-17764.942608,4213.525239
22389.655590,3552.988522,-4811.338623,4290.134789
22389.655923,0.000000,-10140.821405,8580.269578
22389.656256,6143.709319,-2368.659014,3294.210641
22389.656590,1184.329507,-4811.338623,3677.258390
22389.656923,1998.556043,-6069.688724,4213.525239
22389.657256,4441.235652,-5921.647536,2068.457845
22389.657589,-3256.906145,-13841.851115,229.828649
22389.657923,-3182.885551,-6661.853478,-5745.716235
22389.658256,-6587.832884,-9474.636058,-10495.508323
22389.658589,-4737.318029,-14285.974681,-3753.867940
22389.658922,1110.308913,-7994.224174,-1915.238745
22389.659256,-74.020594,-10214.842000,0.000000
22389.659589,3552.988522,-3627.009116,3677.258390
22389.659922,1110.308913,-9548.656652,4903.011187
22389.660255,814.226536,-7105.977043,1455.581446
22389.660589,4737.318029,-10362.883188,2987.772442
22389.660922,5625.565159,-7476.080014,4903.011187
22389.661255,5551.544565,-8808.450710,2604.724693
22389.661588,6735.874072,-6217.729913,2374.896044
22389.661922,-4737.318029,-12953.603985,-3753.867940
22389.662255,-2886.803174,-9104.533087,-7584.345430
22389.662588,-592.164754,-13693.809927,1149.143247
22389.662921,-74.020594,-9474.636058,-2451.505594
22389.663255,-1184.329507,-5403.503377,-2451.505594
22389.663588,-3552.988522,-7772.162391,2145.067394
22389.663921,-74.020594,-10066.800811,1608.800546
22389.664254,3552.988522,-5403.503377,6435.202183
22389.664588,6439.791695,-8142.265362,5132.839837
22389.664921,3478.967927,-5847.626942,2987.772442
22389.665254,1702.473667,-7254.018232,306.438199
22389.665588,-3034.844362,-12435.459826,-5286.058936
22389.665921,-74.020594,-11843.295072,-7431.126331
22389.666254,0.000000,-11029.068536,-1915.238745
22389.666587,1998.556043,-13619.789333,-689.485948
22389.666921,-1554.432478,-9400.615463,-2221.676944
22389.667254,-962.267725,-12287.418637,-76.609550
22389.667587,-1258.350101,-9104.533087,1532.190996
22389.667920,4367.215058,-6513.812290,5898.935335
22389.668254,4811.338623,-8142.265362,7507.735880
22389.668587,2960.823768,-4811.338623,6435.202183
22389.668920,518.144159,-3627.009116,0.000000
22389.669253,-5329.482782,-15100.201217,-76.609550
22389.669587,-74.020594,-7031.956449,-4596.572988
22389.669920,-3552.988522,-11917.315666,-1838.629195
22389.670253,0.000000,-6291.750507,-1915.238745
22389.670586,-3997.112087,-9844.739029,-2987.772442
22389.670920,-7846.182985,-13545.768739,-3677.258390
22389.671253,-4959.379811,-8586.388927,-2221.676944
22389.671586,-74.020594,-9030.512492,4290.134789
22389.671919,2368.659014,-6587.832884,7354.516781
22389.672253,7624.121203,-4737.318029,6052.154434
22389.672586,740.205942,-9548.656652,4903.011187
22389.672919,2886.803174,-7994.224174,2987.772442
22389.673252,2664.741391,-11251.130318,1225.752797
22389.673586,2368.659014,-10510.924376,153.219100
22389.673919,888.247130,-9252.574275,-3524.039291
22389.674252,-2812.782580,-10288.862594,-4443.353888
22389.674586,-5995.668130,-12435.459826,-6818.249932
22389.674919,-2072.576638,-11695.253884,-1302.362347
22389.675252,-2072.576638,-9548.656652,1225.752797
22389.675585,0.000000,-4811.338623,3677.258390
22389.675919,5551.544565,-7105.977043,5745.716235
22389.676252,1332.370696,-5921.647536,4903.011187
22389.676585,1554.432478,-3478.967927,-689.485948
22389.676918,1036.288319,-7994.224174,1072.533697
22389.677252,3775.050304,-10881.027347,2451.505594
22389.677585,2146.597232,-10510.924376,-2298.286494
22389.677918,2590.720797,-13027.624579,-2528.115143
22389.678251,-4071.132681,-15766.386565,-7890.783629
22389.678585,296.082377,-12287.418637,-306.438199
22389.678918,2368.659014,-7328.038826,1685.410096
22389.679251,2886.803174,-11251.130318,2374.896044
22389.679584,-888.247130,-10584.944971,4903.011187
22389.679918,148.041188,-7105.977043,2221.676944
22389.680251,1332.370696,-5403.503377,4903.011187
22389.680584,5033.400406,-1850.514855,6741.640382
22389.680917,5255.462188,-9178.553681,5439.278036
22389.681251,1332.370696,-3701.029710,-995.924147
22389.681584,1332.370696,-13915.871710,-3907.087040
22389.681917,-8290.306550,-14656.077652,-5132.839837
22389.682250,-2220.617826,-8660.409521,-6741.640382
22389.682584,-3034.844362,-13619.789333,-2834.553343
22389.682917,222.061783,-11843.295072,-4060.306139
22389.683250,-3552.988522,-11029.068536,0.000000
22389.683584,3478.967927,-11843.295072,6052.154434
22389.683917,-740.205942,-6587.832884,2757.943793
22389.684250,4589.276840,-6587.832884,7354.516781
22389.684583,4441.235652,-4663.297435,3983.696590
22389.684917,2886.803174,-10510.924376,6052.154434
22389.685250,1776.494261,-5403.503377,3217.601092
22389.685583,1702.473667,-11843.295072,-1302.362347
22389.685916,74.020594,-8364.327145,0.000000
22389.686250,-5921.647536,-9548.656652,-3064.381992
22389.686583,-1850.514855,-14063.912898,-2604.724693
22389.686916,-5921.647536,-11843.295072,-2834.553343
22389.687249,-7031.956449,-9400.615463,-5592.497135
22389.687583,-4219.173869,-9400.615463,-2068.457845
22389.687916,518.144159,-8734.430116,4060.306139
22389.688249,5847.626942,-4145.153275,4826.401637
22389.688582,814.226536,-6587.832884,1838.629195
22389.688916,1184.329507,-9696.697840,1762.019645
22389.689249,3478.967927,-11843.295072,4519.963438
22389.689582,5255.462188,-3627.009116,612.876398
22389.689915,2368.659014,-10658.965565,2068.457845
22389.690249,-1184.329507,-8068.244768,-1838.629195
22389.690582,-4811.338623,-14211.954086,-7124.688131
22389.690915,-2220.617826,-9844.739029,-2911.162892
22389.691248,-2738.761985,-11843.295072,-1302.362347
22389.691581,-1332.370696,-10140.821405,-919.314598
22389.691914,888.247130,-4737.318029,2528.115143
22389.692247,-2294.638420,-10140.821405,2451.505594
22389.692580,0.000000,-6587.832884,2451.505594
22389.692913,2368.659014,-5995.668130,5898.935335
22389.693246,5847.626942,-9474.636058,5439.278036
22389.693579,1184.329507,-4811.338623,1225.752797
22389.693912,-2368.659014,-9548.656652,-2987.772442
22389.694245,-6217.729913,-10732.986159,-8580.269578
22389.694578,-2368.659014,-13841.851115,-4903.011187
22389.694911,2664.741391,-11177.109724,229.828649
22389.695244,3404.947333,-13027.624579,-1915.238745
22389.695577,3182.885551,-11547.212695,3600.648841
22389.695910,-4441.235652,-9548.656652,1532.190996
22389.696243,7624.121203,-5921.647536,3907.087040
22389.696576,6439.791695,-6513.812290,6435.202183
22389.696909,5329.482782,-5699.585753,5822.325785
22389.697242,7031.956449,-8290.306550,7277.907231
22389.697575,-2886.803174,-8290.306550,-1302.362347
22389.697908,-1184.329507,-9622.677246,-3830.477490
22389.698241,-4737.318029,-9400.615463,-5515.887586
22389.698574,0.000000,-11547.212695,-5669.106685
22389.698907,-666.185348,-9474.636058,-1915.238745
22389.699240,-6513.812290,-11917.315666,-6128.763984
22389.699573,-1184.329507,-12287.418637,-1608.800546
22389.699906,2294.638420,-9178.553681,1762.019645
22389.700239,5329.482782,-7179.997637,4903.011187
22389.700572,6439.791695,-8586.388927,9346.365076
22389.700905,5477.523971,-6883.915261,5592.497135
22389.701238,2368.659014,-7772.162391,4290.134789
22389.701571,2442.679609,-7105.977043,1149.143247
22389.701904,3478.967927,-9474.636058,-842.705048
22389.702237,-3552.988522,-11917.315666,-229.828649
22389.702570,-74.020594,-7105.977043,-6205.373534
22389.702903,-11103.089130,-14285.974681,-9039.926876
22389.703236,-4737.318029,-10732.986159,-3370.820191
22389.703569,-8142.265362,-11029.068536,-3677.258390
22389.703902,2886.803174,-7550.100608,4903.011187
22389.704235,2146.597232,-7698.141797,9039.926876
22389.704568,1258.350101,-5107.421000,4979.620737
22389.704901,0.000000,-7476.080014,1225.752797
22389.705234,1110.308913,-9474.636058,-76.609550
22389.705567,4515.256246,-8956.491898,2757.943793
22389.705900,0.000000,-10140.821405,1532.190996
22389.706233,1110.308913,-11251.130318,-2681.334243
22389.706566,-11843.295072,-13101.645173,-8580.269578
22389.706899,-296.082377,-9252.574275,-6435.202183
22389.707232,-5255.462188,-15988.448347,1608.800546
22389.707565,7550.100608,-4441.235652,2528.115143
22389.707898,-2960.823768,-8364.327145,6435.202183
22389.708231,1776.494261,-3849.070898,5592.497135
22389.708564,2886.803174,-5181.441594,7048.078582
22389.708897,2220.617826,-4811.338623,3753.867940
22389.709230,7031.956449,-4737.318029,-383.047749
22389.709563,-2960.823768,-11029.068536,0.000000
22389.709896,1924.535449,-10362.883188,-5592.497135
22389.710229,-4811.338623,-13397.727550,-8580.269578
22389.710562,-4589.276840,-14878.139434,-8427.050478
22389.710895,2294.638420,-13249.686362,-76.609550
22389.711228,740.205942,-9992.780217,919.314598
22389.711561,3627.009116,-7105.977043,306.438199
22389.711894,3330.926739,-11547.212695,6511.811733
22389.712227,3108.864956,-5107.421000,4903.011187
22389.712560,5625.565159,-3034.844362,8580.269578
22389.712893,11177.109724,-6809.894666,9422.974625
22389.713226,5551.544565,-2368.659014,3907.087040
22389.713559,0.000000,-8364.327145,-1532.190996
22389.713892,-1850.514855,-11251.130318,-6205.373534
22389.714225,-9918.759623,-15988.448347,-9576.193725
22389.714558,-296.082377,-8068.244768,-7124.688131
22389.714891,-2442.679609,-14359.995275,-919.314598
22389.715224,0.000000,-10881.027347,612.876398
22389.715557,-5033.400406,-8364.327145,612.876398
22389.715890,-74.020594,-9474.636058,-76.609550
22389.716223,4737.318029,-4959.379811,7354.516781
22389.716556,3552.988522,-5107.421000,9959.241474
22389.716889,4737.318029,-5107.421000,4903.011187
22389.717222,1110.308913,-5329.482782,76.609550
22389.717555,-1110.308913,-13175.665768,-1762.019645
22389.717888,1036.288319,-10140.821405,0.000000
22389.718221,-74.020594,-11843.295072,-1608.800546
22389.718554,-1184.329507,-11325.150913,-1455.581446
22389.718887,-4811.338623,-13027.624579,-3753.867940
22389.719220,-7105.977043,-8364.327145,-2451.505594
22389.719553,-3627.009116,-10658.965565,-76.609550
22389.719886,1702.473667,-4737.318029,-995.924147
22389.720219,2294.638420,-9844.739029,7584.345430
22389.720552,4071.132681,962.267725,4903.011187
22389.720885,-74.020594,-9178.553681,3524.039291
22389.721218,-3552.988522,-5995.668130,0.000000
22389.721551,3478.967927,-11843.295072,-1302.362347
22389.721884,1184.329507,-11325.150913,3064.381992
22389.722217,0.000000,-7772.162391,-2681.334243
22389.722550,-1554.432478,-14804.118840,-2834.553343
22389.722883,-5107.421000,-12731.542202,-4366.744339
22389.723216,-2146.597232,-10584.944971,-3677.258390
22389.723549,0.000000,-9474.636058,1149.143247
22389.723883,3034.844362,-8660.409521,3753.867940
22389.724216,3849.070898,-1850.514855,4903.011187
22389.724549,-666.185348,-10362.883188,3600.648841
22389.724882,2590.720797,-5921.647536,3064.381992
22389.725215,3182.885551,-6957.935855,4060.306139
22389.725548,2960.823768,-9178.553681,2681.334243
22389.725881,1184.329507,-6587.832884,-3370.820191
22389.726214,-1850.514855,-12435.459826,-2528.115143
22389.726547,-2146.597232,-9548.656652,-7967.393179
22389.726880,-4145.153275,-15988.448347,-383.047749
22389.727213,-1258.350101,-11843.295072,-76.609550
22389.727546,-2294.638420,-5403.503377,-4903.011187
22389.727879,666.185348,-8660.409521,612.876398
22389.728212,4071.132681,-9474.636058,3447.429741
22389.728545,3108.864956,-7105.977043,7737.564530
22389.728878,3552.988522,-6735.874072,5822.325785
22389.729211,7624.121203,-7698.141797,3600.648841
22389.729544,4441.235652,-7179.997637,612.876398
22389.729877,3552.988522,-10881.027347,2374.896044
22389.730210,-1406.391290,-11547.212695,-5592.497135
22389.730543,-3849.070898,-12213.398043,-7048.078582
22389.730876,-888.247130,-14137.933492,0.000000
22389.731209,370.102971,-7179.997637,919.314598
22389.731542,518.144159,-9326.594869,-229.828649
22389.731875,-3627.009116,-9474.636058,1762.019645
22389.732208,-74.020594,-5921.647536,-2834.553343
22389.732541,2368.659014,-6291.750507,7737.564530
22389.732874,4663.297435,-9178.553681,7890.783629
22389.733207,2812.782580,-4811.338623,919.314598
22389.733540,-74.020594,-12435.459826,2987.772442
22389.733873,-148.041188,-7772.162391,-3677.258390
22389.734206,-814.226536,-11621.233289,-2528.115143
22389.734539,-1480.411884,-12361.439231,-4136.915689
22389.734872,222.061783,-8364.327145,-5898.935335
22389.735205,-4737.318029,-14285.974681,-4903.011187
22389.735538,-222.061783,-13027.624579,1762.019645
22389.735871,0.000000,-4811.338623,0.000000
22389.736204,0.000000,-9548.656652,4903.011187
22389.736537,7031.956449,-2960.823768,3600.648841
22389.736870,1184.329507,-8586.388927,6052.154434
22389.737203,3701.029710,-7698.141797,4366.744339
22389.737536,1554.432478,-9104.533087,2834.553343
22389.737869,296.082377,-9252.574275,76.609550
22389.738202,-1184.329507,-8512.368333,-3524.039291
22389.738535,-1036.288319,-11325.150913,-3677.258390
22389.738868,-3627.009116,-12139.377449,-7584.345430
22389.739201,-3478.967927,-14063.912898,-766.095498
22389.739534,-1258.350101,-10955.047942,-2528.115143
22389.739867,1998.556043,-8438.347739,1838.629195
22389.740200,3552.988522,-5847.626942,7354.516781
22389.740533,3478.967927,-7105.977043,4826.401637
22389.740866,0.000000,-9992.780217,4903.011187
22389.741199,3256.906145,-4737.318029,-1302.362347
22389.741532,2368.659014,-12879.583391,3907.087040
22389.741865,4737.318029,-6957.935855,4443.353888
22389.742198,2146.597232,-9178.553681,-1915.238745
22389.742531,-5921.647536,-12805.562797,-3753.867940
22389.742864,-6587.832884,-9548.656652,-8580.269578
22389.743197,74.020594,-12435.459826,-76.609550
22389.743530,-1258.350101,-11547.212695,1149.143247
22389.743863,-962.267725,-5921.647536,-1302.362347
22389.744196,-814.226536,-10658.965565,2068.457845
22389.744529,1184.329507,-6735.874072,3370.820191
22389.744862,3182.885551,-6883.915261,5132.839837
22389.745195,3849.070898,-6587.832884,3983.696590
22389.745528,5847.626942,-7698.141797,4213.525239
22389.745861,-1184.329507,-11621.233289,0.000000
22389.746194,1110.308913,-14211.954086,-1915.238745
22389.746527,-1554.432478,-12509.480420,-4596.572988
22389.746860,592.164754,-8364.327145,0.000000
22389.747193,-370.102971,-9548.656652,-2451.505594
22389.747526,-666.185348,-7920.203579,459.657299
22389.747859,-2220.617826,-7105.977043,-1149.143247
22389.748192,-2886.803174,-7994.224174,-2374.896044
22389.748525,3478.967927,-6587.832884,2834.553343
22389.748858,2664.741391,-11695.253884,5745.716235
22389.749191,9400.615463,-5921.647536,6052.154434
22389.749524,-2368.659014,-8364.327145,0.000000
22389.749857,5255.462188,-9178.553681,1685.410096
22389.750190,-1628.453072,-11917.315666,-1225.752797
22389.750523,1702.473667,-12213.398043,-3447.429741
22389.750856,1110.308913,-11103.089130,-1302.362347
22389.751189,-5181.441594,-13693.809927,-3907.087040
22389.751522,-4145.153275,-7476.080014,-3064.381992
22389.751855,-2738.761985,-13027.624579,-4060.306139
22389.752188,0.000000,-9548.656652,5209.449386
22389.752521,0.000000,-1258.350101,11031.775171
22389.752854,8216.285956,-4737.318029,7277.907231
22389.753187,1776.494261,-7179.997637,6435.202183
22389.753520,2368.659014,-5329.482782,2068.457845
22389.753853,1110.308913,-11251.130318,2374.896044
22389.754186,2072.576638,-10066.800811,-689.485948
22389.754519,-5329.482782,-10732.986159,-7354.516781
22389.754852,-7179.997637,-14137.933492,-7584.345430
22389.755185,-4515.256246,-12879.583391,-8044.002729
22389.755518,-5551.544565,-11695.253884,-1991.848295
22389.755851,2886.803174,-6513.812290,536.266849
22389.756184,2664.741391,-6291.750507,8733.488677
22389.756517,6291.750507,-4737.318029,7277.907231
22389.756850,4663.297435,-11843.295072,4826.401637
22389.757183,1184.329507,-4219.173869,5056.230287
22389.757516,4663.297435,-8882.471304,3600.648841
22389.757849,3849.070898,-8956.491898,3140.991542
22389.758182,518.144159,-10510.924376,-2145.067394
22389.758515,-4737.318029,-11843.295072,-6741.640382
22389.758848,-9474.636058,-9548.656652,-10878.556072
22389.759181,-7698.141797,-11917.315666,-7354.516781
22389.759514,-74.020594,-11843.295072,-689.485948
22389.759847,-666.185348,-7105.977043,1149.143247
22389.760180,1776.494261,-5995.668130,5822.325785
22389.760513,-1480.411884,-6291.750507,3600.648841
22389.760846,5773.606348,-4515.256246,8656.879127
22389.761179,4589.276840,-5995.668130,5975.544884
22389.761512,6735.874072,-6661.853478,4213.525239
22389.761845,2294.638420,-11547.212695,1762.019645
22389.762178,-5329.482782,-11917.315666,-4443.353888
22389.762511,-1258.350101,-10955.047942,-9729.412825
22389.762844,-5329.482782,-13693.809927,-4903.011187
22389.763177,2960.823768,-11843.295072,1149.143247
22389.763510,0.000000,-7105.977043,2451.505594
22389.763843,-2146.597232,-9474.636058,-995.924147
22389.764176,-1406.391290,-9252.574275,5745.716235
22389.764509,-1850.514855,-2220.617826,3217.601092
22389.764842,4663.297435,-4589.276840,3600.648841
22389.765175,3701.029710,-8586.388927,6971.469032
22389.765508,2072.576638,-4811.338623,0.000000
22389.765841,-4737.318029,-11917.315666,-995.924147
22389.766174,-74.020594,-10362.883188,-4979.620737
22389.766507,-370.102971,-13027.624579,-7431.126331
22389.766840,2368.659014,-12657.521608,1149.143247
22389.767173,2220.617826,-8956.491898,0.000000
22389.767506,-1406.391290,-13397.727550,-5439.278036
22389.767839,-4441.235652,-13101.645173,2451.505594
22389.768172,4663.297435,-4737.318029,2374.896044
22389.768505,4737.318029,-8068.244768,11031.775171
22389.768838,7105.977043,-2738.761985,9729.412825
22389.769171,-2368.659014,-3627.009116,0.000000
22389.769504,-2442.679609,-7476.080014,1762.019645
22389.769837,518.144159,-4219.173869,-3983.696590
22389.770170,-962.267725,-15988.448347,-995.924147
22389.770503,-1332.370696,-7920.203579,-3140.991542
22389.770836,-5921.647536,-13101.645173,-6128.763984
22389.771169,-2442.679609,-12509.480420,-6741.640382
22389.771502,-1702.473667,-14137.933492,-842.705048
22389.771835,1406.391290,-8586.388927,2834.553343
22389.772168,5033.400406,-5773.606348,4673.182538
22389.772501,2368.659014,-6587.832884,6435.202183
22389.772834,4071.132681,-8290.306550,4826.401637
22389.773167,814.226536,-4811.338623,0.000000
22389.773500,2960.823768,-10658.965565,1762.019645
22389.773833,5847.626942,-9474.636058,2374.896044
22389.774166,1480.411884,-8364.327145,3677.258390
22389.774499,-962.267725,-7698.141797,-5669.106685
22389.774832,-5181.441594,-15248.242405,-3830.477490
22389.775165,-7254.018232,-11843.295072,-5362.668486
22389.775498,-962.267725,-5625.565159,-689.485948
22389.775831,-3034.844362,-10658.965565,-4443.353888
22389.776164,1776.494261,-7179.997637,0.000000
22389.776497,-2368.659014,-10658.965565,4826.401637
22389.776830,1998.556043,-6069.688724,1532.190996
22389.777163,3552.988522,-8512.368333,7584.345430
22389.777496,4737.318029,-8512.368333,3677.258390
22389.777829,6513.812290,-7254.018232,5745.716235
22389.778162,814.226536,-10510.924376,-3294.210641
22389.778495,-2442.679609,-17764.942608,-3140.991542
22389.778828,-74.020594,-6883.915261,-4290.134789
22389.779161,1480.411884,-12435.459826,-76.609550
22389.779494,2294.638420,-9474.636058,1762.019645
22389.779827,-3923.091493,-7179.997637,-2757.943793
22389.780160,-1554.432478,-10066.800811,1149.143247
22389.780493,-444.123565,-3330.926739,3600.648841
22389.780826,3034.844362,-6587.832884,2757.943793
22389.781159,148.041188,-7402.059420,3447.429741
22389.781492,1776.494261,-3923.091493,919.314598
22389.781825,-1480.411884,-12509.480420,0.000000
22389.782158,2294.638420,-14211.954086,-1608.800546
22389.782491,-518.144159,-8660.409521,-3524.039291
22389.782824,0.000000,-8364.327145,-1225.752797
22389.783157,4663.297435,-11843.295072,-76.609550
22389.783490,-740.205942,-11177.109724,-153.219100
22389.783823,-5551.544565,-13915.871710,-919.314598
22389.784156,0.000000,-5551.544565,0.000000
22389.784489,592.164754,-9548.656652,3677.258390
22389.784822,6809.894666,-3923.091493,7354.516781
22389.785155,5847.626942,-5403.503377,4596.572988
22389.785488,-222.061783,-11251.130318,536.266849
22389.785821,4071.132681,-9474.636058,-76.609550
22389.786154,-2442.679609,-13027.624579,-1302.362347
22389.786487,1924.535449,-4811.338623,-2451.505594
22389.786820,-7105.977043,-13693.809927,-4903.011187
22389.787153,-2738.761985,-15100.201217,-4979.620737
22389.787486,-2442.679609,-10066.800811,-1685.410096
22389.787820,-3182.885551,-9992.780217,1149.143247
22389.788153,6365.771101,-3552.988522,5209.449386
22389.788486,1406.391290,-8586.388927,6205.373534
22389.788819,5107.421000,-6217.729913,5209.449386
22389.789152,592.164754,-8660.409521,4826.401637
22389.789485,0.000000,-9548.656652,5209.449386
22389.789818,6143.709319,-9178.553681,2987.772442
22389.790151,1554.432478,-10066.800811,842.705048
22389.790484,0.000000,-7698.141797,-4443.353888
22389.790817,-4219.173869,-14656.077652,-4596.572988
22389.791150,-5181.441594,-9696.697840,-4903.011187
22389.791483,-518.144159,-6957.935855,-3294.210641
22389.791816,-4589.276840,-12879.583391,-2451.505594
22389.792149,3478.967927,-5921.647536,1149.143247
22389.792482,-222.061783,-13471.748144,4903.011187
22389.792815,5847.626942,-8290.306550,6052.154434
22389.793148,814.226536,-6439.791695,3677.258390
22389.793481,5329.482782,-6587.832884,7660.954980
22389.793814,3849.070898,-5551.544565,2451.505594
22389.794146,4219.173869,-9474.636058,-76.609550
22389.794479,-5033.400406,-14508.036463,-5669.106685
22389.794812,-3330.926739,-13249.686362,-6894.859482
22389.795145,-3552.988522,-9548.656652,-5822.325785
22389.795478,-74.020594,-11843.295072,-2528.115143
22389.795811,1036.288319,-12435.459826,2987.772442
22389.796144,-3627.009116,-8142.265362,-3677.258390
22389.796477,740.205942,-10658.965565,5439.278036
22389.796810,7031.956449,-7105.977043,7277.907231
22389.797143,7254.018232,-5403.503377,7737.564530
22389.797475,5625.565159,-3923.091493,7967.393179
22389.797808,888.247130,-9252.574275,1762.019645
22389.798141,-74.020594,-11769.274478,-2221.676944
22389.798474,-2442.679609,-13027.624579,-8580.269578
22389.798807,1184.329507,-11917.315666,-1302.362347
22389.799140,2294.638420,-14211.954086,-76.609550
22389.799473,-2738.761985,-10362.883188,-3983.696590
22389.799806,-3627.009116,-11843.295072,-1915.238745
22389.800139,-4811.338623,-11177.109724,-1532.190996
22389.800471,2220.617826,-6883.915261,4443.353888
22389.800804,2886.803174,-3552.988522,6358.592633
22389.801137,4663.297435,-4737.318029,6971.469032
22389.801470,0.000000,-7994.224174,4596.572988
22389.801803,-1036.288319,-7179.997637,1072.533697
22389.802136,2812.782580,-7772.162391,1685.410096
22389.802469,2960.823768,-7254.018232,-1838.629195
22389.802802,0.000000,-12287.418637,-4213.525239
22389.803135,-2442.679609,-15100.201217,-7584.345430
22389.803468,-4885.359217,-15470.304188,-4903.011187
22389.803800,-888.247130,-10658.965565,-1302.362347
22389.804133,3330.926739,-10955.047942,3294.210641
22389.804466,5551.544565,-4515.256246,7277.907231
22389.804799,3108.864956,-4441.235652,5209.449386
22389.805132,-888.247130,-6291.750507,2145.067394
22389.805465,2368.659014,-8438.347739,3064.381992
22389.805798,-370.102971,-10732.986159,6971.469032
22389.806131,814.226536,-3627.009116,0.000000
22389.806464,-444.123565,-10362.883188,-76.609550
22389.806796,-1850.514855,-9474.636058,-5592.497135
22389.807129,-5921.647536,-13101.645173,-8273.831378
22389.807462,518.144159,-10214.842000,-4596.572988
22389.807795,-3478.967927,-13027.624579,-2298.286494
22389.808128,1998.556043,-9030.512492,1149.143247
22389.808461,2294.638420,-10066.800811,4213.525239
22389.808794,1776.494261,-10584.944971,6052.154434
22389.809127,1554.432478,-3034.844362,4903.011187
22389.809460,2960.823768,-7179.997637,1149.143247
22389.809793,10584.944971,-10658.965565,12793.794817
22389.810125,4663.297435,-5625.565159,6665.030833
22389.810458,148.041188,-11325.150913,-1532.190996
22389.810791,-6883.915261,-9474.636058,-6818.249932
22389.811124,-7624.121203,-13397.727550,-10801.946522
22389.811457,-3552.988522,-9548.656652,-1838.629195
22389.811790,-74.020594,-7994.224174,-3753.867940
22389.812123,-4737.318029,-10955.047942,-2451.505594
22389.812456,-3034.844362,-11843.295072,-76.609550
22389.812789,222.061783,-4811.338623,3064.381992
22389.813121,3552.988522,-5699.585753,8733.488677
22389.813454,9622.677246,-3256.906145,9499.584175
22389.813787,3775.050304,-6587.832884,2987.772442
22389.814120,-666.185348,-10955.047942,-3217.601092
22389.814453,814.226536,-15396.283594,-1915.238745
22389.814786,-962.267725,-9548.656652,-4903.011187
22389.815119,5847.626942,-14211.954086,-76.609550
22389.815452,814.226536,-9474.636058,-3753.867940
22389.815785,-4441.235652,-11325.150913,-3064.381992
22389.816118,-3256.906145,-11325.150913,2987.772442
22389.816450,2368.659014,-4811.338623,3524.039291
22389.816783,-740.205942,-11251.130318,6741.640382
22389.817116,4811.338623,1258.350101,5132.839837
22389.817449,3478.967927,-10658.965565,6052.154434
22389.817782,1554.432478,-3627.009116,1991.848295
22389.818115,-370.102971,-8882.471304,-383.047749
22389.818448,-4811.338623,-12139.377449,-6205.373534
22389.818781,148.041188,-8586.388927,-6894.859482
22389.819114,-5551.544565,-16580.613101,-3753.867940
22389.819446,1036.288319,-9622.677246,-4903.011187
22389.819779,-8882.471304,-13101.645173,-1225.752797
22389.820112,-370.102971,-7698.141797,1762.019645
22389.820445,8216.285956,-3108.864956,4749.792088
22389.820778,9474.636058,-9104.533087,14555.814462
22389.821111,7254.018232,-3849.070898,7048.078582
22389.821444,-3478.967927,-13767.830521,459.657299
22389.821777,2442.679609,-7550.100608,-919.314598
22389.822110,-2442.679609,-15396.283594,-2528.115143
22389.822443,5847.626942,-5107.421000,0.000000
22389.822775,-3256.906145,-14137.933492,-2145.067394
22389.823108,-2738.761985,-13027.624579,-4979.620737
22389.823441,-3627.009116,-8660.409521,-2145.067394
22389.823774,-2146.597232,-10066.800811,2987.772442
22389.824107,888.247130,-3701.029710,5439.278036
22389.824440,0.000000,-2664.741391,4596.572988
22389.824773,-888.247130,-8068.244768,1838.629195
22389.825106,-2738.761985,-4811.338623,-2298.286494
22389.825439,-3552.988522,-9548.656652,0.000000
22389.825771,2886.803174,-10066.800811,-2528.115143
22389.826104,1480.411884,-9548.656652,-3677.258390
22389.826437,2368.659014,-13101.645173,-689.485948
22389.826770,-666.185348,-12509.480420,-3677.258390
22389.827103,3034.844362,-10955.047942,-2528.115143
22389.827436,2368.659014,-13397.727550,3064.381992
22389.827769,4441.235652,-9104.533087,4826.401637
22389.828102,3552.988522,-6957.935855,4443.353888
22389.828435,-666.185348,-7698.141797,3600.648841
22389.828768,-1258.350101,-5921.647536,-2068.457845
22389.829100,0.000000,-5699.585753,2528.115143
22389.829433,4663.297435,-8586.388927,4519.963438
22389.829766,-1258.350101,-7772.162391,612.876398
22389.830099,-3034.844362,-10955.047942,-2987.772442
22389.830432,-3256.906145,-8660.409521,-3217.601092
22389.830765,-2146.597232,-10140.821405,-3753.867940
22389.831098,4441.235652,-9696.697840,3064.381992
22389.831431,888.247130,-9178.553681,4826.401637
22389.831764,-3034.844362,-8882.471304,-6511.811733
22389.832096,0.000000,-9548.656652,919.314598
22389.832429,-370.102971,-11103.089130,-76.609550
22389.832762,6439.791695,-4515.256246,4903.011187
22389.833095,4959.379811,-8142.265362,5439.278036
22389.833428,1628.453072,-11399.171507,919.314598
22389.833761,2516.700203,-10362.883188,3217.601092
22389.834094,5255.462188,-5921.647536,2987.772442
22389.834427,3108.864956,-10362.883188,2681.334243
22389.834760,-1184.329507,-8882.471304,306.438199
22389.835093,-3552.988522,-9696.697840,-2451.505594
22389.835425,-4737.318029,-11177.109724,-2451.505594
22389.835758,-3552.988522,-7772.162391,-689.485948
22389.836091,-8290.306550,-6587.832884,-6128.763984
22389.836424,1110.308913,-9474.636058,-76.609550
22389.836757,-222.061783,-8290.306550,-76.609550
22389.837090,0.000000,-7402.059420,1762.019645
22389.837423,1554.432478,-13027.624579,1915.238745
22389.837756,2368.659014,-11473.192101,919.314598
22389.838089,8438.347739,-9844.739029,7431.126331
22389.838421,7846.182985,-7550.100608,7048.078582
22389.838754,6439.791695,-7105.977043,1149.143247
22389.839087,-3552.988522,-15100.201217,2451.505594
22389.839420,-3034.844362,-9474.636058,-8963.317327
22389.839753,-3849.070898,-9696.697840,-1225.752797
22389.840086,-3552.988522,-11029.068536,1225.752797
22389.840419,370.102971,-3182.885551,612.876398
22389.840752,-7624.121203,-8364.327145,-842.705048
22389.841085,-1628.453072,-6587.832884,-383.047749
22389.841418,-1702.473667,-8660.409521,1455.581446
22389.841750,3701.029710,-4811.338623,2451.505594
22389.842083,4663.297435,-9474.636058,7277.907231
22389.842416,1110.308913,-8290.306550,-2528.115143
22389.842749,-1480.411884,-11029.068536,-2451.505594
22389.843082,-2442.679609,-15396.283594,-1302.362347
22389.843415,2368.659014,-10066.800811,-1302.362347
22389.843748,-1184.329507,-12361.439231,-689.485948
22389.844081,-1258.350101,-11399.171507,-3600.648841
22389.844414,370.102971,-10214.842000,1149.143247
22389.844746,-1184.329507,-9548.656652,3830.477490
22389.845079,7920.203579,-3256.906145,383.047749
22389.845412,0.000000,-14285.974681,11184.994271
22389.845745,10288.862594,-2368.659014,10955.165621
22389.846078,2294.638420,-9474.636058,4826.401637
22389.846411,-2368.659014,-8956.491898,2374.896044
22389.846744,-3404.947333,-4737.318029,-6052.154434
22389.847077,-5995.668130,-11473.192101,-6358.592633
22389.847410,1184.329507,-9178.553681,-4673.182538
22389.847743,-7698.141797,-14285.974681,-3064.381992
22389.848075,-5403.503377,-12435.459826,-6511.811733
22389.848408,-3923.091493,-10807.006753,-3294.210641
22389.848741,3034.844362,-7920.203579,2834.553343
22389.849074,9992.780217,-5107.421000,10572.117872
22389.849407,7105.977043,-5995.668130,11184.994271
22389.849740,8808.450710,-7105.977043,4826.401637
22389.850073,1702.473667,-11325.150913,0.000000
22389.850406,4737.318029,-10214.842000,2834.553343
22389.850739,7031.956449,-8290.306550,-76.609550
22389.851071,888.247130,-11029.068536,-3217.601092
22389.851404,-4219.173869,-8364.327145,-6588.421283
22389.851737,-11621.233289,-15692.365970,-10572.117872
22389.852070,-3552.988522,-9844.739029,-3677.258390
22389.852403,-4737.318029,-10732.986159,1532.190996
22389.852736,2886.803174,-5329.482782,4673.182538
22389.853069,0.000000,-666.185348,6128.763984
22389.853402,0.000000,-5403.503377,306.438199
22389.853735,1850.514855,-7772.162391,1225.752797
22389.854068,2220.617826,-10288.862594,4213.525239
22389.854400,4071.132681,-6439.791695,-383.047749
22389.854733,0.000000,-12583.501014,-1072.533697
22389.855066,1110.308913,-14211.954086,-4979.620737
22389.855399,-4737.318029,-13693.809927,-2528.115143
22389.855732,-74.020594,-7994.224174,-4596.572988
22389.856065,0.000000,-9844.739029,612.876398
22389.856398,2368.659014,-9844.739029,7967.393179
22389.856731,5551.544565,-4145.153275,7201.297681
22389.857064,-1850.514855,-9918.759623,3064.381992
22389.857396,740.205942,-7105.977043,7124.688131
22389.857729,4367.215058,-2368.659014,3600.648841
22389.858062,740.205942,-8660.409521,2451.505594
22389.858395,-74.020594,-6809.894666,-1302.362347
22389.858728,-10658.965565,-10140.821405,-11031.775171
22389.859061,-8882.471304,-13397.727550,-6894.859482
22389.859394,-3923.091493,-11547.212695,-5592.497135
22389.859727,-1850.514855,-12139.377449,-2068.457845
22389.860060,740.205942,-5995.668130,2911.162892
22389.860393,-222.061783,-9992.780217,1302.362347
22389.860725,1776.494261,-9622.677246,3907.087040
22389.861058,3552.988522,-5699.585753,6435.202183
22389.861391,4663.297435,-6513.812290,1225.752797
22389.861724,6513.812290,-9474.636058,7277.907231
22389.862057,2886.803174,-11843.295072,-76.609550
22389.862390,1332.370696,-9548.656652,-1838.629195
22389.862723,-2146.597232,-11843.295072,-1762.019645
22389.863056,-2886.803174,-11473.192101,-6588.421283
22389.863389,-1850.514855,-10955.047942,-1532.190996
22389.863721,-2442.679609,-7105.977043,-3294.210641
22389.864054,-2368.659014,-9548.656652,-1225.752797
22389.864387,-4811.338623,-7994.224174,-1072.533697
22389.864720,-666.185348,-7031.956449,4519.963438
22389.865053,814.226536,-5181.441594,5822.325785
22389.865386,6735.874072,-3404.947333,3907.087040
22389.865719,0.000000,-8364.327145,2451.505594
22389.866052,3182.885551,-9178.553681,-995.924147
22389.866385,0.000000,-9548.656652,0.000000
22389.866718,2886.803174,-11843.295072,-3753.867940
22389.867050,2590.720797,-11843.295072,-3447.429741
22389.867383,0.000000,-9548.656652,-2298.286494
22389.867716,-1258.350101,-13027.624579,-4290.134789
22389.868049,-148.041188,-10066.800811,-1991.848295
22389.868382,1036.288319,-10510.924376,2451.505594
22389.868715,7550.100608,-8586.388927,8503.660028
22389.869048,7031.956449,-3552.988522,9729.412825
22389.869381,5625.565159,-1850.514855,3677.258390
22389.869714,888.247130,-9770.718434,2987.772442
22389.870047,-1258.350101,-7105.977043,-3294.210641
22389.870379,-592.164754,-11769.274478,-3140.991542
22389.870712,-1998.556043,-12213.398043,-2681.334243
22389.871045,-2368.659014,-9474.636058,-6511.811733
22389.871378,-6661.853478,-14137.933492,-5669.106685
22389.871711,-2442.679609,-9474.636058,-4366.744339
22389.872044,-3627.009116,-9548.656652,0.000000
22389.872377,4367.215058,-8290.306550,4826.401637
22389.872710,5255.462188,-8290.306550,8503.660028
22389.873043,2072.576638,-4219.173869,5209.449386
22389.873375,3478.967927,-8882.471304,5132.839837
22389.873708,4071.132681,-7105.977043,2834.553343
22389.874041,4811.338623,-10881.027347,4443.353888
22389.874374,2590.720797,-6957.935855,1762.019645
22389.874707,-5329.482782,-11917.315666,-7354.516781
22389.875040,-7105.977043,-12509.480420,-6128.763984
22389.875373,-5995.668130,-15396.283594,-7431.126331
22389.875706,-4145.153275,-9548.656652,-2451.505594
22389.876039,-2368.659014,-7179.997637,4290.134789
22389.876372,-1850.514855,-5921.647536,0.000000
22389.876704,-2960.823768,-7994.224174,2834.553343
22389.877037,-1776.494261,-7476.080014,2451.505594
22389.877370,2664.741391,-5107.421000,4826.401637
22389.877703,3849.070898,-7772.162391,5056.230287
22389.878036,3108.864956,-8142.265362,3447.429741
22389.878369,1184.329507,-9548.656652,-995.924147
22389.878702,-666.185348,-11473.192101,-3600.648841
22389.879035,-666.185348,-13027.624579,-4979.620737
22389.879368,0.000000,-14211.954086,-4979.620737
22389.879700,0.000000,-11325.150913,3677.258390
22389.880033,1406.391290,-8290.306550,4213.525239
22389.880366,-74.020594,-7994.224174,1455.581446
22389.880699,2886.803174,-7105.977043,6665.030833
22389.881032,1850.514855,-5625.565159,5439.278036
22389.881365,5181.441594,-4515.256246,6971.469032
22389.881698,-444.123565,-7550.100608,766.095498
22389.882031,-2294.638420,-9992.780217,-1685.410096
22389.882364,-2442.679609,-9252.574275,-1915.238745
22389.882697,-4737.318029,-10732.986159,-2145.067394
22389.883029,5255.462188,-7105.977043,-3753.867940
22389.883362,-2072.576638,-13323.706956,-2911.162892
22389.883695,1776.494261,-7254.018232,-4903.011187
22389.884028,-2442.679609,-18949.272115,-4673.182538
22389.884361,4145.153275,-10066.800811,1915.238745
22389.884694,7624.121203,-9178.553681,6665.030833
22389.885027,7105.977043,-5107.421000,11338.213370
22389.885360,3775.050304,-4145.153275,2374.896044
22389.885693,1702.473667,-10658.965565,2987.772442
22389.886025,4071.132681,-9474.636058,1149.143247
22389.886358,0.000000,-5107.421000,612.876398
22389.886691,740.205942,-11843.295072,306.438199
22389.887024,-6217.729913,-8364.327145,-4826.401637
22389.887357,-5847.626942,-11177.109724,-7277.907231
22389.887690,-5033.400406,-13397.727550,-4596.572988
22389.888023,-1480.411884,-8956.491898,-306.438199
22389.888356,-3256.906145,-7179.997637,-2451.505594
22389.888689,2294.638420,-8290.306550,2221.676944
22389.889022,592.164754,-5995.668130,1838.629195
22389.889354,592.164754,-10955.047942,6665.030833
22389.889687,7031.956449,-3256.906145,3294.210641
22389.890020,296.082377,-15470.304188,3447.429741
22389.890353,2664.741391,-9992.780217,4443.353888
22389.890686,1850.514855,-5995.668130,1225.752797
22389.891019,888.247130,-8438.347739,-3140.991542
22389.891352,1036.288319,-10066.800811,1762.019645
22389.891685,-5995.668130,-12435.459826,-5286.058936
22389.892018,0.000000,-7179.997637,-1225.752797
22389.892350,-6217.729913,-15174.221811,-76.609550
22389.892683,-370.102971,-8290.306550,-3753.867940
22389.893016,-3552.988522,-9844.739029,3600.648841
22389.893349,2442.679609,-5181.441594,1608.800546
22389.893682,2368.659014,-7772.162391,4826.401637
22389.894015,4219.173869,-5477.523971,5362.668486
22389.894348,6069.688724,-7476.080014,4826.401637
22389.894681,2886.803174,-9918.759623,-5515.887586
22389.895014,222.061783,-16136.489536,2987.772442
22389.895347,296.082377,-5921.647536,-5209.449386
22389.895679,888.247130,-11325.150913,0.000000
22389.896012,-3552.988522,-11621.233289,-536.266849
22389.896345,-74.020594,-5921.647536,-5209.449386
22389.896678,-1258.350101,-13619.789333,-76.609550
22389.897011,1480.411884,-5995.668130,3830.477490
22389.897344,666.185348,-7402.059420,2987.772442
22389.897677,2294.638420,-9178.553681,4826.401637
22389.898010,4293.194464,-4811.338623,3064.381992
22389.898343,-74.020594,-10288.862594,2298.286494
22389.898676,2368.659014,-7328.038826,612.876398
22389.899009,-2072.576638,-9252.574275,-1302.362347
22389.899341,-666.185348,-10732.986159,-6435.202183
22389.899674,1184.329507,-10732.986159,0.000000
22389.900007,-5921.647536,-14063.912898,-3447.429741
22389.900340,-2368.659014,-10732.986159,-3524.039291
22389.900673,-74.020594,-10362.883188,-842.705048
22389.901006,4737.318029,-8216.285956,5898.935335
22389.901339,5995.668130,-7179.997637,12334.137518
22389.901672,3478.967927,-6513.812290,3294.210641
22389.902005,4145.153275,-8290.306550,3600.648841
22389.902338,-1184.329507,-7179.997637,612.876398
22389.902671,5255.462188,-11251.130318,-76.609550
22389.903004,518.144159,-10658.965565,-1608.800546
22389.903336,-3997.112087,-11843.295072,-7431.126331
22389.903669,-7328.038826,-13915.871710,-8886.707777
22389.904002,-5329.482782,-8660.409521,-3217.601092
22389.904335,518.144159,-6809.894666,-689.485948
22389.904668,1776.494261,-6735.874072,4903.011187
22389.905001,4515.256246,-7105.977043,6052.154434
22389.905334,592.164754,-9548.656652,1225.752797
22389.905667,1776.494261,-12953.603985,8503.660028
22389.906000,6883.915261,-1184.329507,1225.752797
22389.906333,0.000000,-10140.821405,4060.306139
22389.906666,3256.906145,-6143.709319,-153.219100
22389.906998,-5329.482782,-11621.233289,-6511.811733
22389.907331,-4885.359217,-12213.398043,-6128.763984
22389.907664,-1554.432478,-9474.636058,-3140.991542
22389.907997,-4811.338623,-12213.398043,-4136.915689
22389.908330,-2368.659014,-11769.274478,2068.457845
22389.908663,2294.638420,-8290.306550,4826.401637
22389.908996,370.102971,-4811.338623,3677.258390
22389.909329,3552.988522,-3034.844362,5515.887586
22389.909662,4589.276840,-11251.130318,9729.412825
22389.909995,3552.988522,-6735.874072,1225.752797
22389.910328,4219.173869,-7328.038826,2451.505594
22389.910660,-1258.350101,-14211.954086,-2834.553343
22389.910993,-2368.659014,-11325.150913,-6665.030833
22389.911326,-4219.173869,-14656.077652,-7660.954980
22389.911659,0.000000,-13249.686362,-4060.306139
22389.911992,1110.308913,-11547.212695,459.657299
22389.912325,2072.576638,-7698.141797,2681.334243
22389.912658,-1258.350101,-5995.668130,919.314598
22389.912991,0.000000,-4811.338623,7354.516781
22389.913324,4071.132681,-4737.318029,3447.429741
22389.913657,2590.720797,-6587.832884,4136.915689
22389.913990,3552.988522,-4811.338623,2911.162892
22389.914322,-1184.329507,-11325.150913,0.000000
22389.914655,-666.185348,-9030.512492,-3370.820191
22389.914988,-1258.350101,-12287.418637,-6818.249932
22389.915321,-666.185348,-14211.954086,-4979.620737
22389.915654,814.226536,-10732.986159,-3064.381992
22389.915987,148.041188,-10732.986159,-3677.258390
22389.916320,1110.308913,-15988.448347,-76.609550
22389.916653,1998.556043,-6883.915261,5515.887586
22389.916986,4959.379811,-4737.318029,5745.716235
22389.917319,7994.224174,-6291.750507,12487.356617
22389.917652,3627.009116,-3923.091493,1991.848295
22389.917984,2072.576638,-6587.832884,1455.581446
22389.918317,-2516.700203,-7179.997637,-3064.381992
22389.918650,0.000000,-8364.327145,-4290.134789
22389.918983,-370.102971,-18357.107362,-76.609550
22389.919316,1110.308913,-9474.636058,-6358.592633
22389.919649,-7698.141797,-14878.139434,-6435.202183
22389.919982,-1998.556043,-9474.636058,-5056.230287
22389.920315,-370.102971,-9548.656652,306.438199
22389.920648,2516.700203,-8660.409521,3907.087040
22389.920981,3552.988522,-5329.482782,9193.145976
22389.921314,888.247130,-5699.585753,3677.258390
22389.921646,4441.235652,-6143.709319,8503.660028
22389.921979,4071.132681,-8290.306550,2987.772442
22389.922312,1924.535449,-6291.750507,-2145.067394
22389.922645,-2368.659014,-11473.192101,-76.609550
22389.922978,-3923.091493,-10362.883188,-5745.716235
22389.923311,-4515.256246,-10362.883188,-5898.935335
22389.923644,-3997.112087,-9548.656652,-1838.629195
22389.923977,-4737.318029,-11029.068536,-1685.410096
22389.924310,-4737.318029,-10140.821405,0.000000
22389.924643,1110.308913,-5625.565159,2068.457845
22389.924976,-666.185348,-8734.430116,2451.505594
22389.925308,3923.091493,-6143.709319,6281.983084
22389.925641,-1258.350101,-11547.212695,2987.772442
22389.925974,2368.659014,-4959.379811,0.000000
22389.926307,-2368.659014,-12065.356855,2451.505594
22389.926640,5551.544565,-8882.471304,-689.485948
22389.926973,-1258.350101,-11399.171507,-3677.258390
22389.927306,-74.020594,-10658.965565,-6205.373534
22389.927639,2072.576638,-12435.459826,-383.047749
22389.927972,-666.185348,-10658.965565,2221.676944
22389.928305,3034.844362,-4071.132681,2221.676944
22389.928638,-5699.585753,-13397.727550,-2374.896044
22389.928970,2886.803174,-8586.388927,1762.019645
22389.929303,0.000000,-4811.338623,3140.991542
22389.929636,4663.297435,-7105.977043,3294.210641
22389.929969,1480.411884,-5921.647536,2834.553343
22389.930302,-2368.659014,-9548.656652,612.876398
22389.930635,518.144159,-10066.800811,-919.314598
22389.930968,1258.350101,-10510.924376,-2221.676944
22389.931301,2590.720797,-9770.718434,-1225.752797
22389.931634,1406.391290,-7328.038826,536.266849
22389.931967,-2072.576638,-9844.739029,-3600.648841
22389.932300,-1850.514855,-15396.283594,-1608.800546
22389.932632,-74.020594,-11843.295072,842.705048
22389.932965,1776.494261,-3627.009116,1225.752797
22389.933298,7698.141797,-11843.295072,8197.221829
22389.933631,3552.988522,-6291.750507,4290.134789
22389.933964,2886.803174,-8142.265362,1225.752797
22389.934297,296.082377,-6735.874072,766.095498
22389.934630,3478.967927,-9696.697840,-2221.676944
22389.934963,-2368.659014,-13693.809927,0.000000
22389.935296,2294.638420,-7105.977043,-2221.676944
22389.935629,-5921.647536,-7402.059420,-8197.221829
22389.935962,-3552.988522,-13101.645173,-76.609550
22389.936294,-74.020594,-5921.647536,-76.609550
22389.936627,740.205942,-9326.594869,3294.210641
22389.936960,3404.947333,-7476.080014,4903.011187
22389.937293,-370.102971,-7920.203579,2068.457845
22389.937626,-1628.453072,-10955.047942,3140.991542
22389.937959,1702.473667,-9474.636058,2374.896044
22389.938292,2294.638420,-4811.338623,-2451.505594
22389.938625,5625.565159,-10066.800811,4826.401637
22389.938958,1110.308913,-11843.295072,-76.609550
22389.939291,-6439.791695,-10881.027347,-6741.640382
22389.939624,-6069.688724,-13471.748144,-4060.306139
22389.939956,-814.226536,-9326.594869,-1225.752797
22389.940289,1998.556043,-8364.327145,-919.314598
22389.940622,1406.391290,-9844.739029,0.000000
22389.940955,-1258.350101,-13027.624579,-76.609550
22389.941288,592.164754,-5477.523971,2681.334243
22389.941621,3775.050304,-7179.997637,3830.477490
22389.941954,3997.112087,-9548.656652,6128.763984
22389.942287,1184.329507,-5995.668130,2757.943793
22389.942620,1628.453072,-8882.471304,1762.019645
22389.942953,-4219.173869,-11103.089130,-4366.744339
22389.943286,-4737.318029,-7179.997637,-2451.505594
22389.943618,-2442.679609,-10362.883188,-2834.553343
22389.943951,-3034.844362,-9548.656652,-4903.011187
22389.944284,-2146.597232,-10584.944971,-1378.971896
22389.944617,-5107.421000,-10288.862594,-2987.772442
22389.944950,0.000000,-8586.388927,383.047749
22389.945283,4663.297435,-5625.565159,4826.401637
22389.945616,7105.977043,-8290.306550,8503.660028
22389.945949,296.082377,-7772.162391,10418.898773
22389.946282,2886.803174,-4589.276840,229.828649
22389.946615,-2590.720797,-13101.645173,-4903.011187
22389.946948,6439.791695,-13027.624579,-1608.800546
22389.947280,-1258.350101,-13249.686362,-2451.505594
22389.947613,1554.432478,-9696.697840,-383.047749
22389.947946,1184.329507,-7476.080014,-2145.067394
22389.948279,-7105.977043,-11917.315666,-2451.505594
22389.948612,2294.638420,-7105.977043,-1915.238745
22389.948945,1110.308913,-7105.977043,2374.896044
22389.949278,3478.967927,-7105.977043,3294.210641
22389.949611,1184.329507,-4515.256246,6665.030833
22389.949944,1110.308913,-8290.306550,1762.019645
22389.950277,592.164754,-7179.997637,1991.848295
22389.950610,1184.329507,-6439.791695,153.219100
22389.950942,2590.720797,-7994.224174,-612.876398
22389.951275,296.082377,-10658.965565,-1991.848295
22389.951608,-1850.514855,-10955.047942,-9499.584175
22389.951941,-148.041188,-15396.283594,-5822.325785
22389.952274,-1850.514855,-21317.931130,-76.609550
22389.952607,4737.318029,-2738.761985,2757.943793
22389.952940,2368.659014,-11621.233289,7354.516781
22389.953273,7328.038826,-1480.411884,9116.536426
22389.953606,0.000000,-8290.306550,4366.744339
22389.953939,1184.329507,-7772.162391,4596.572988
22389.954272,5107.421000,-5921.647536,1762.019645
22389.954605,-2368.659014,-11917.315666,1838.629195
22389.954937,5551.544565,-4737.318029,-2221.676944
22389.955270,-11251.130318,-10807.006753,-11721.261119
22389.955603,-7105.977043,-13693.809927,-6435.202183
22389.955936,-4737.318029,-10807.006753,-5209.449386
22389.956269,0.000000,-11991.336260,-766.095498
22389.956602,-296.082377,-6587.832884,2911.162892
22389.956935,1702.473667,-5033.400406,4903.011187
22389.957268,962.267725,-9474.636058,5439.278036
22389.957601,3552.988522,-4367.215058,9806.022374
22389.957934,3034.844362,-6661.853478,4213.525239
22389.958267,2886.803174,-6513.812290,2374.896044
22389.958599,3849.070898,-9178.553681,-842.705048
22389.958932,-2442.679609,-18357.107362,-2528.115143
22389.959265,592.164754,-8068.244768,-1378.971896
22389.959598,-370.102971,-11251.130318,-5592.497135
22389.959931,-3034.844362,-14508.036463,-3600.648841
22389.960264,-3552.988522,-7772.162391,-1838.629195
22389.960597,-4293.194464,-9326.594869,-689.485948
22389.960930,-1036.288319,-9178.553681,2911.162892
22389.961263,-74.020594,-7994.224174,4673.182538
22389.961596,2220.617826,-5995.668130,7354.516781
22389.961929,4959.379811,-3404.947333,8120.612279
22389.962261,1184.329507,-3627.009116,1532.190996
22389.962594,-74.020594,-10066.800811,-4060.306139
22389.962927,-3330.926739,-9548.656652,-7354.516781
22389.963260,-74.020594,-13915.871710,-6818.249932
22389.963593,2294.638420,-11843.295072,-3600.648841
22389.963926,-1332.370696,-11843.295072,-1455.581446
22389.964259,296.082377,-8660.409521,0.000000
22389.964592,-1110.308913,-9992.780217,1608.800546
22389.964925,4737.318029,-5403.503377,3983.696590
22389.965258,4737.318029,-10732.986159,10955.165621
22389.965591,4071.132681,-6587.832884,9806.022374
22389.965923,-1184.329507,-5403.503377,0.000000
22389.966256,-444.123565,-13027.624579,4826.401637
22389.966589,0.000000,-3627.009116,612.876398
22389.966922,444.123565,-5329.482782,-3140.991542
22389.967255,-1406.391290,-10732.986159,-3447.429741
22389.967588,-4737.318029,-10732.986159,-8273.831378
22389.967921,-4219.173869,-15100.201217,-3753.867940
22389.968254,-4293.194464,-12731.542202,-1915.238745
22389.968587,-1258.350101,-6291.750507,-2451.505594
22389.968920,0.000000,-9992.780217,4826.401637
22389.969253,7698.141797,-9030.512492,8503.660028
22389.969585,4367.215058,-10955.047942,6052.154434
22389.969918,6069.688724,-7476.080014,5745.716235
22389.970251,4441.235652,-9548.656652,3830.477490
22389.970584,5921.647536,-7772.162391,3983.696590
22389.970917,1776.494261,-8068.244768,0.000000
22389.971250,-1554.432478,-7698.141797,-7354.516781
22389.971583,-3997.112087,-10732.986159,-11644.651570
22389.971916,-6809.894666,-13693.809927,0.000000
22389.972249,3478.967927,-5329.482782,-76.609550
22389.972582,-1258.350101,-10066.800811,4519.963438
22389.972915,-3108.864956,-5847.626942,2604.724693
22389.973247,-3108.864956,-3923.091493,1608.800546
22389.973580,-3775.050304,-10732.986159,1762.019645
22389.973913,4737.318029,-3627.009116,1685.410096
22389.974246,-1554.432478,-12139.377449,1838.629195
22389.974579,1924.535449,-7105.977043,-153.219100
22389.974912,-2442.679609,-12361.439231,-1762.019645
22389.975245,-2812.782580,-10140.821405,-5515.887586
22389.975578,592.164754,-7846.182985,-2374.896044
22389.975911,3478.967927,-11843.295072,-3140.991542
22389.976244,888.247130,-11917.315666,0.000000
22389.976577,-444.123565,-12213.398043,3677.258390
22389.976909,3923.091493,-9178.553681,2757.943793
22389.977242,5181.441594,-5699.585753,7967.393179
22389.977575,5847.626942,-7550.100608,5362.668486
22389.977908,3701.029710,-6291.750507,3753.867940
22389.978241,-74.020594,-10955.047942,153.219100
22389.978574,-3552.988522,-12657.521608,-4903.011187
22389.978907,-4219.173869,-9992.780217,-4903.011187
22389.979240,-7105.977043,-6587.832884,-3677.258390
22389.979573,-2072.576638,-9918.759623,-2528.115143
22389.979906,-1258.350101,-7105.977043,-3140.991542
22389.980239,-3404.947333,-9326.594869,-2528.115143
22389.980571,-740.205942,-6143.709319,76.609550
22389.980904,-2146.597232,-12805.562797,2681.334243
22389.981237,7772.162391,-5329.482782,7277.907231
22389.981570,6143.709319,-11547.212695,9422.974625
22389.981903,4663.297435,-3627.009116,2451.505594
22389.982236,3849.070898,-10658.965565,2145.067394
22389.982569,2294.638420,-15396.283594,-1608.800546
22389.982902,5921.647536,-5995.668130,612.876398
22389.983235,-666.185348,-11843.295072,-3907.087040
22389.983568,1702.473667,-11695.253884,842.705048
22389.983901,-8290.306550,-9844.739029,-3294.210641
22389.984233,-2812.782580,-5255.462188,-5515.887586
22389.984566,-4885.359217,-9548.656652,-1991.848295
22389.984899,-3552.988522,-4811.338623,2451.505594
22389.985232,1110.308913,-8882.471304,4213.525239
22389.985565,-666.185348,-8290.306550,536.266849
22389.985898,0.000000,-7179.997637,1225.752797
22389.986231,1406.391290,-8882.471304,3064.381992
22389.986564,5921.647536,-6587.832884,2834.553343
22389.986897,2146.597232,-10807.006753,383.047749
22389.987230,-74.020594,-14285.974681,-3217.601092
22389.987563,0.000000,-7772.162391,-6818.249932
22389.987895,-3256.906145,-15544.324782,-229.828649
22389.988228,4663.297435,-5625.565159,919.314598
22389.988561,-1924.535449,-14211.954086,3830.477490
22389.988894,6291.750507,-5329.482782,5745.716235
22389.989227,-1258.350101,-9474.636058,-689.485948
22389.989560,0.000000,-6587.832884,1838.629195
22389.989893,-2368.659014,-8068.244768,1762.019645
22389.990226,2294.638420,-9474.636058,2681.334243
22389.990559,2368.659014,-4811.338623,2757.943793
22389.990892,-1924.535449,-7105.977043,-3907.087040
22389.991225,-3478.967927,-14211.954086,-3524.039291
22389.991557,-2442.679609,-9770.718434,-4673.182538
22389.991890,-962.267725,-11251.130318,-2221.676944
22389.992223,2072.576638,-6587.832884,0.000000
22389.992556,592.164754,-10140.821405,4213.525239
22389.992889,-1258.350101,-10955.047942,2374.896044
22389.993222,2886.803174,-6809.894666,1378.971896
22389.993555,5255.462188,-8290.306550,4519.963438
22389.993888,5773.606348,-9548.656652,3830.477490
22389.994221,5625.565159,-8660.409521,7660.954980
22389.994554,74.020594,-8068.244768,3677.258390
22389.994887,-2960.823768,-8364.327145,0.000000
22389.995219,-74.020594,-5625.565159,-6665.030833
22389.995552,-2368.659014,-11029.068536,-4060.306139
22389.995885,-3330.926739,-11843.295072,-5669.106685
22389.996218,-4441.235652,-9548.656652,-8273.831378
22389.996551,-6513.812290,-13249.686362,-4136.915689
22389.996884,-1924.535449,-10140.821405,689.485948
22389.997217,2294.638420,-7105.977043,4749.792088
22389.997550,6439.791695,-7920.203579,7584.345430
22389.997883,9400.615463,-6809.894666,9116.536426
22389.998216,814.226536,-6587.832884,2451.505594
22389.998549,5847.626942,-10658.965565,1149.143247
22389.998882,2294.638420,-5995.668130,0.000000
22389.999215,3552.988522,-10510.924376,-76.609550
22389.999548,3478.967927,-11843.295072,-2528.115143
22389.999881,-4663.297435,-15322.262999,-5286.058936
22390.000215,-2442.679609,-14211.954086,-5592.497135
22390.000548,-3849.070898,-9548.656652,-3907.087040
22390.000881,-666.185348,-7920.203579,-229.828649
22390.001214,888.247130,-10288.862594,7277.907231
22390.001547,4663.297435,-2072.576638,5515.887586
22390.001880,-2368.659014,-8660.409521,4903.011187
22390.002213,3330.926739,-8882.471304,2987.772442
22390.002546,2294.638420,-8290.306550,2834.553343
22390.002879,592.164754,-9474.636058,2374.896044
22390.003212,2368.659014,-2886.803174,-1991.848295
22390.003545,-5699.585753,-14730.098246,-6435.202183
22390.003878,-296.082377,-10214.842000,-4213.525239
22390.004211,-4145.153275,-14211.954086,-2528.115143
22390.004544,666.185348,-9992.780217,-1455.581446
22390.004877,-592.164754,-12805.562797,2757.943793
22390.005210,2886.803174,-5181.441594,1072.533697
22390.005543,4959.379811,-11843.295072,8810.098227
22390.005876,2368.659014,-6735.874072,9576.193725
22390.006209,11473.192101,-4737.318029,6971.469032
22390.006542,-2442.679609,-11917.315666,5515.887586
22390.006876,3849.070898,-666.185348,1378.971896
22390.007209,-2442.679609,-8290.306550,-7431.126331
22390.007542,-7698.141797,-14211.954086,-7890.783629
22390.007875,-4811.338623,-6809.894666,-11568.042020
22390.008208,-9030.512492,-17246.798449,-5822.325785
22390.008541,2368.659014,-6587.832884,-1838.629195
22390.008874,-4145.153275,-10140.821405,2068.457845
22390.009207,2294.638420,-8068.244768,2987.772442
22390.009540,5847.626942,-5995.668130,5209.449386
22390.009873,4737.318029,-8808.450710,7890.783629
22390.010206,8216.285956,-5995.668130,6741.640382
22390.010539,5921.647536,-8956.491898,6435.202183
22390.010872,3478.967927,-9474.636058,-459.657299
22390.011205,1554.432478,-11177.109724,-4443.353888
22390.011538,-962.267725,-13545.768739,-1915.238745
22390.011871,1110.308913,-11251.130318,-3753.867940
22390.012204,-5329.482782,-11917.315666,-2451.505594
22390.012537,-3552.988522,-7772.162391,-2451.505594
22390.012870,-6217.729913,-9178.553681,-536.266849
22390.013203,1184.329507,-4811.338623,4979.620737
22390.013537,1850.514855,-8290.306550,5592.497135
22390.013870,814.226536,-8956.491898,5439.278036
22390.014203,3034.844362,-3182.885551,4596.572988
22390.014536,-5107.421000,-11843.295072,0.000000
22390.014869,5255.462188,-4737.318029,-842.705048
22390.015202,-2960.823768,-10732.986159,-2451.505594
22390.015535,0.000000,-13767.830521,-689.485948
22390.015868,2664.741391,-9474.636058,-1608.800546
22390.016201,-4811.338623,-15248.242405,-4366.744339
22390.016534,1258.350101,-7254.018232,-1685.410096
22390.016867,1480.411884,-9474.636058,1762.019645
22390.017200,5773.606348,-12139.377449,11031.775171
22390.017533,7698.141797,-3627.009116,9806.022374
22390.017866,518.144159,-5403.503377,1838.629195
22390.018199,1702.473667,-10362.883188,4213.525239
22390.018532,-74.020594,-10658.965565,-689.485948
22390.018865,-2960.823768,-7920.203579,0.000000
22390.019198,-666.185348,-6809.894666,-3140.991542
22390.019531,-9474.636058,-13101.645173,-9193.145976
22390.019864,-6587.832884,-10955.047942,-7507.735880
22390.020197,-4441.235652,-9474.636058,-4826.401637
22390.020531,0.000000,-9548.656652,1225.752797
22390.020864,3108.864956,-6587.832884,3677.258390
22390.021197,2368.659014,-8586.388927,5056.230287
22390.021530,3849.070898,-7402.059420,4673.182538
22390.021863,6365.771101,-9030.512492,3524.039291
22390.022196,5921.647536,-11325.150913,7967.393179
22390.022529,9400.615463,-5921.647536,3600.648841
22390.022862,0.000000,-12509.480420,3447.429741
22390.023195,-74.020594,-6513.812290,-3140.991542
22390.023528,-5107.421000,-13619.789333,-8656.879127
22390.023861,-2072.576638,-9548.656652,-2451.505594
22390.024194,-4959.379811,-9770.718434,-4596.572988
22390.024527,-4071.132681,-9474.636058,-1762.019645
22390.024860,-5329.482782,-7920.203579,0.000000
22390.025193,-2442.679609,-8290.306550,2374.896044
22390.025526,2368.659014,-4811.338623,6128.763984
22390.025859,3552.988522,-5403.503377,9729.412825
22390.026192,7031.956449,-9474.636058,3753.867940
22390.026525,0.000000,-5995.668130,0.000000
22390.026858,2294.638420,-13619.789333,-1302.362347
22390.027192,-1998.556043,-10436.903782,-5592.497135
22390.027525,3108.864956,-10066.800811,-2221.676944
22390.027858,-592.164754,-13989.892304,-1072.533697
22390.028191,3182.885551,-8586.388927,-76.609550
22390.028524,-7105.977043,-7772.162391,-1225.752797
22390.028857,-2442.679609,-8290.306550,-76.609550
22390.029190,2886.803174,-4219.173869,612.876398
22390.029523,296.082377,-11917.315666,9729.412825
22390.029856,4663.297435,-4441.235652,3983.696590
22390.030189,-2960.823768,-7328.038826,-76.609550
22390.030522,-740.205942,-10732.986159,-1532.190996
22390.030855,-962.267725,-8956.491898,-1991.848295
22390.031188,0.000000,-8364.327145,-3064.381992
22390.031521,0.000000,-8364.327145,-76.609550
22390.031854,-3034.844362,-13027.624579,-1302.362347
22390.032187,-2368.659014,-5329.482782,-3447.429741
22390.032520,2368.659014,-7476.080014,-612.876398
22390.032853,1998.556043,-12583.501014,4060.306139
22390.033186,5033.400406,-4885.359217,4673.182538
22390.033519,2590.720797,-12435.459826,5822.325785
22390.033853,3478.967927,-8290.306550,6435.202183
22390.034186,-2072.576638,-8956.491898,-2911.162892
22390.034519,3627.009116,-9030.512492,3753.867940
22390.034852,148.041188,-6143.709319,-1302.362347
22390.035185,2368.659014,-7994.224174,-689.485948
22390.035518,-4811.338623,-11843.295072,-2528.115143
22390.035851,-4811.338623,-9474.636058,-8503.660028
22390.036184,-7105.977043,-12213.398043,-2298.286494
22390.036517,-74.020594,-9474.636058,-1302.362347
22390.036850,962.267725,-9474.636058,3524.039291
22390.037183,2294.638420,-3923.091493,3140.991542
22390.037516,2886.803174,-10584.944971,2911.162892
22390.037849,-1628.453072,-11103.089130,2451.505594
22390.038182,5699.585753,-9326.594869,2145.067394
22390.038515,3182.885551,-10140.821405,3370.820191
22390.038848,7624.121203,-9844.739029,3753.867940
22390.039181,1776.494261,-8290.306550,5745.716235
22390.039514,-2294.638420,-7624.121203,-5592.497135
22390.039847,-4367.215058,-7179.997637,-4903.011187
22390.040180,-3923.091493,-11843.295072,-2834.553343
22390.040513,0.000000,-5551.544565,-2451.505594
22390.040847,-4811.338623,-12657.521608,-2451.505594
22390.041180,-5403.503377,-11843.295072,-3677.258390
22390.041513,0.000000,-7179.997637,2757.943793
22390.041846,1110.308913,-9030.512492,3064.381992
22390.042179,10436.903782,-6513.812290,7890.783629
22390.042512,2886.803174,-10362.883188,6052.154434
22390.042845,1776.494261,-5107.421000,383.047749
22390.043178,0.000000,-7772.162391,0.000000
22390.043511,518.144159,-10658.965565,-995.924147
22390.043844,4515.256246,-6143.709319,1378.971896
22390.044177,0.000000,-8734.430116,-3677.258390
22390.044510,-1998.556043,-14804.118840,-4979.620737
22390.044843,-8290.306550,-9548.656652,-5515.887586
22390.045176,-666.185348,-10807.006753,-3064.381992
22390.045509,0.000000,-4811.338623,3677.258390
22390.045842,6439.791695,-11843.295072,6971.469032
22390.046175,2886.803174,-9178.553681,4826.401637
22390.046508,1480.411884,-9178.553681,3447.429741
22390.046841,-222.061783,-8734.430116,536.266849
22390.047174,4145.153275,-5847.626942,1608.800546
22390.047508,296.082377,-6661.853478,0.000000
22390.047841,1554.432478,-11251.130318,-689.485948
22390.048174,-5995.668130,-8660.409521,-7354.516781
22390.048507,-592.164754,-13619.789333,-2911.162892
22390.048840,-2738.761985,-11843.295072,-1915.238745
22390.049173,2294.638420,-8734.430116,-689.485948
22390.049506,4071.132681,-11695.253884,2834.553343
22390.049839,3552.988522,-9326.594869,10189.070123
22390.050172,4293.194464,-6957.935855,4749.792088
22390.050505,2442.679609,-9178.553681,5822.325785
22390.050838,1036.288319,-12435.459826,2681.334243
22390.051171,-1258.350101,-5107.421000,-1378.971896
22390.051504,-1258.350101,-10955.047942,-4136.915689
22390.051837,-1184.329507,-9326.594869,-6358.592633
22390.052170,-8290.306550,-11917.315666,-5515.887586
22390.052503,-2368.659014,-7105.977043,-3294.210641
22390.052836,-2442.679609,-14211.954086,-76.609550
22390.053169,1406.391290,-4811.338623,0.000000
22390.053502,4737.318029,-9400.615463,7814.174080
22390.053835,3478.967927,-7698.141797,4136.915689
22390.054169,4737.318029,-8142.265362,3600.648841
22390.054502,4145.153275,-11029.068536,6128.763984
22390.054835,7772.162391,-5255.462188,6281.983084
22390.055168,0.000000,-11917.315666,3677.258390
22390.055501,-888.247130,-11843.295072,-3753.867940
22390.055834,-10732.986159,-10732.986159,-11031.775171
22390.056167,-3627.009116,-5995.668130,-8273.831378
22390.056500,-2812.782580,-10510.924376,-2834.553343
22390.056833,0.000000,-7179.997637,306.438199
22390.057166,-3775.050304,-8882.471304,0.000000
22390.057499,740.205942,-6957.935855,2604.724693
22390.057832,4367.215058,-7402.059420,5132.839837
22390.058165,5847.626942,-8586.388927,7890.783629
22390.058498,6439.791695,-13619.789333,4826.401637
22390.058831,0.000000,-7476.080014,1838.629195
22390.059164,1480.411884,-13545.768739,-689.485948
22390.059497,1924.535449,-11547.212695,-1302.362347
22390.059830,1110.308913,-9474.636058,-2528.115143
22390.060163,-3775.050304,-11769.274478,-8733.488677
22390.060496,-2220.617826,-10510.924376,-459.657299
22390.060830,-2664.741391,-5699.585753,-2451.505594
22390.061163,-1776.494261,-7328.038826,1378.971896
22390.061496,3478.967927,-6809.894666,4979.620737
22390.061829,-3256.906145,-6587.832884,7967.393179
22390.062162,7031.956449,-2368.659014,6052.154434
22390.062495,-1628.453072,-10362.883188,-1608.800546
22390.062828,-1406.391290,-15988.448347,-1455.581446
22390.063161,444.123565,-11325.150913,-1378.971896
22390.063494,-1554.432478,-12731.542202,-4136.915689
22390.063827,1036.288319,-7624.121203,-2604.724693
22390.064160,-3256.906145,-9548.656652,-2757.943793
22390.064493,-2072.576638,-5995.668130,-1225.752797
22390.064826,-370.102971,-10362.883188,-76.609550
22390.065159,5847.626942,-10362.883188,1455.581446
22390.065492,2960.823768,-7179.997637,13023.623466
22390.065825,4885.359217,-4145.153275,7890.783629
22390.066158,3404.947333,-7550.100608,7354.516781
22390.066491,-3849.070898,-10807.006753,-4060.306139
22390.066824,4663.297435,-5477.523971,-3140.991542
22390.067157,-5773.606348,-14063.912898,-4596.572988
22390.067490,0.000000,-13101.645173,-4903.011187
22390.067824,-7031.956449,-11621.233289,-3677.258390
22390.068157,-6069.688724,-8956.491898,-6588.421283
22390.068490,-1036.288319,-7550.100608,-306.438199
22390.068823,-1776.494261,-7179.997637,2451.505594
22390.069156,2886.803174,-4811.338623,612.876398
22390.069489,0.000000,-5699.585753,8427.050478
22390.069822,7624.121203,-8882.471304,6052.154434
22390.070155,4663.297435,-8882.471304,4826.401637
22390.070488,6069.688724,-11103.089130,6358.592633
22390.070821,3849.070898,-10288.862594,-689.485948
22390.071154,592.164754,-11769.274478,-1608.800546
22390.071487,-3034.844362,-12287.418637,-6741.640382
22390.071820,-3627.009116,-11843.295072,-6205.373534
22390.072153,-6957.935855,-5107.421000,-5822.325785
22390.072486,-4737.318029,-10732.986159,2068.457845
22390.072819,-666.185348,-2960.823768,-1302.362347
22390.073152,-5921.647536,-13101.645173,4903.011187
22390.073485,2294.638420,2368.659014,536.266849
22390.073818,2072.576638,-17394.839637,8503.660028
22390.074151,4737.318029,-4811.338623,3600.648841
22390.074485,4737.318029,-1036.288319,919.314598
22390.074818,-3701.029710,-21095.869347,0.000000
22390.075151,0.000000,-23760.610738,2298.286494
22390.075484,4959.379811,3108.864956,-3140.991542
22390.075817,7624.121203,296.082377,-4366.744339
22390.076150,-666.185348,-11843.295072,-76.609550
22390.076483,-7550.100608,-15174.221811,1225.752797
22390.076816,-5033.400406,-9474.636058,3294.210641
22390.077149,1850.514855,-10140.821405,842.705048
22390.077482,0.000000,-13027.624579,536.266849
22390.077815,7698.141797,-2590.720797,-1838.629195
22390.078148,7031.956449,-10658.965565,2374.896044
22390.078481,6439.791695,-5403.503377,2451.505594
22390.078814,-1184.329507,-12805.562797,2451.505594
22390.079147,3775.050304,-9474.636058,6052.154434
22390.079480,-666.185348,-2442.679609,0.000000
22390.079813,814.226536,-5921.647536,76.609550
22390.080146,2368.659014,-5995.668130,4519.963438
22390.080479,-3256.906145,-5033.400406,1072.533697
22390.080812,-5625.565159,-9844.739029,-3677.258390
22390.081146,-7179.997637,-16284.530724,-2757.943793
22390.081479,1628.453072,-13471.748144,3447.429741
22390.081812,1406.391290,-11769.274478,4443.353888
22390.082145,4663.297435,-11547.212695,-76.609550
22390.082478,-74.020594,-12583.501014,-2068.457845
22390.082811,592.164754,-11473.192101,-153.219100
22390.083144,7920.203579,-10658.965565,4213.525239
22390.083477,1406.391290,-10658.965565,1149.143247
22390.083810,3478.967927,-4737.318029,-1302.362347
22390.084143,-6587.832884,-14063.912898,-7584.345430
22390.084476,-666.185348,-7920.203579,-7277.907231
22390.084809,-740.205942,-12583.501014,-5286.058936
22390.085142,-2368.659014,-10732.986159,0.000000
22390.085475,4071.132681,-9918.759623,2451.505594
22390.085808,-222.061783,-10658.965565,-689.485948
22390.086141,1998.556043,-6291.750507,1991.848295
22390.086474,-2886.803174,-4811.338623,-1225.752797
22390.086807,4737.318029,-3627.009116,1838.629195
22390.087140,-1776.494261,-8438.347739,3677.258390
22390.087473,1036.288319,-5773.606348,0.000000
22390.087806,-8364.327145,-10732.986159,0.000000
22390.088140,-2812.782580,-8290.306550,-1608.800546
22390.088473,-2738.761985,-6587.832884,-6128.763984
22390.088806,3478.967927,-13027.624579,-76.609550
22390.089139,3478.967927,-8660.409521,-919.314598
22390.089472,1184.329507,-11325.150913,1225.752797
22390.089805,4293.194464,-14804.118840,8886.707777
22390.090138,7328.038826,-5773.606348,7584.345430
22390.090471,8438.347739,-9844.739029,9499.584175
22390.090804,9400.615463,-3849.070898,8197.221829
22390.091137,2442.679609,-7698.141797,2374.896044
22390.091470,0.000000,-8364.327145,2451.505594
22390.091803,-2738.761985,-7179.997637,-3677.258390
22390.092136,-5921.647536,-5995.668130,-3677.258390
22390.092469,-2146.597232,-9474.636058,-2528.115143
22390.092802,-4811.338623,-6957.935855,-5286.058936
22390.093135,-4589.276840,-11843.295072,-3447.429741
22390.093468,-2368.659014,-10732.986159,-76.609550
22390.093801,2146.597232,-9474.636058,3294.210641
22390.094134,4441.235652,-8364.327145,4673.182538
22390.094467,8660.409521,-11843.295072,8503.660028
22390.094801,296.082377,-8364.327145,3064.381992
22390.095134,5255.462188,-11843.295072,1762.019645
22390.095467,2294.638420,-10881.027347,-3677.258390
22390.095800,-2368.659014,-11325.150913,-2298.286494
22390.096133,-814.226536,-7550.100608,-6818.249932
22390.096466,222.061783,-10214.842000,-4826.401637
22390.096799,-6217.729913,-13397.727550,-4979.620737
22390.097132,-148.041188,-8290.306550,-3447.429741
22390.097465,-2738.761985,-13619.789333,2374.896044
22390.097798,3997.112087,-6069.688724,3830.477490
22390.098131,2294.638420,-8586.388927,5975.544884
22390.098464,222.061783,-9252.574275,4596.572988
22390.098797,1332.370696,-5403.503377,612.876398
22390.099130,-1258.350101,-12435.459826,1149.143247
22390.099464,0.000000,-3627.009116,-4290.134789
22390.099797,-7105.977043,-9548.656652,-76.609550
22390.100130,-1258.350101,-4737.318029,-7124.688131
22390.100463,-7846.182985,-8660.409521,-6128.763984
22390.100796,-3034.844362,-9474.636058,-3140.991542
22390.101129,740.205942,-3775.050304,-1072.533697
22390.101462,2294.638420,-14582.057057,5745.716235
22390.101795,8142.265362,-7105.977043,12487.356617
22390.102128,4663.297435,-9178.553681,6052.154434
22390.102461,5329.482782,-11325.150913,9882.631924
22390.102795,4663.297435,-10658.965565,5745.716235
22390.103128,1998.556043,-8808.450710,306.438199
22390.103461,-2368.659014,-10140.821405,2221.676944
22390.103794,1332.370696,-7105.977043,-5132.839837
22390.104127,-6661.853478,-11621.233289,-3370.820191
22390.104460,-2146.597232,-6587.832884,-2068.457845
22390.104793,-3627.009116,-6661.853478,-4979.620737
22390.105126,-3627.009116,-12731.542202,-3140.991542
22390.105459,2368.659014,-5699.585753,2374.896044
22390.105792,-2442.679609,-13323.706956,6052.154434
22390.106125,9400.615463,-7105.977043,5669.106685
22390.106459,814.226536,-13619.789333,8503.660028
22390.106792,4441.235652,-5625.565159,2068.457845
22390.107125,5921.647536,-9178.553681,306.438199
22390.107458,-666.185348,-14508.036463,-2145.067394
22390.107791,0.000000,-8364.327145,-7354.516781
22390.108124,-7179.997637,-13693.809927,-7201.297681
22390.108457,1184.329507,-8956.491898,-3753.867940
22390.108790,-1850.514855,-10658.965565,-2221.676944
22390.109123,0.000000,-7105.977043,-1302.362347
22390.109456,-2368.659014,-7772.162391,-1149.143247
22390.109789,3182.885551,-10658.965565,3447.429741
22390.110123,6661.853478,-8734.430116,11108.384721
22390.110456,5403.503377,-5107.421000,8350.440928
22390.110789,5551.544565,-8290.306550,7277.907231
22390.111122,-3552.988522,-9548.656652,-3370.820191
22390.111455,-74.020594,-8142.265362,-5592.497135
22390.111788,-5403.503377,-11917.315666,-7354.516781
22390.112121,-1184.329507,-10436.903782,-4979.620737
22390.112454,-6439.791695,-10140.821405,-4136.915689
22390.112787,-4145.153275,-9326.594869,-4366.744339
22390.113120,-888.247130,-7328.038826,2451.505594
22390.113453,-222.061783,-6809.894666,1685.410096
22390.113787,9400.615463,-5921.647536,7277.907231
22390.114120,2960.823768,-8660.409521,10801.946522
22390.114453,6365.771101,-8956.491898,7507.735880
22390.114786,3552.988522,-8956.491898,4290.134789
22390.115119,1998.556043,-13249.686362,3294.210641
22390.115452,6735.874072,-6809.894666,-76.609550
22390.115785,-4737.318029,-13101.645173,-4903.011187
22390.116118,-74.020594,-9474.636058,-8044.002729
22390.116451,-8808.450710,-12065.356855,-5822.325785
22390.116784,-6513.812290,-6587.832884,-5515.887586
22390.117117,-2442.679609,-8734.430116,1608.800546
22390.117451,-3997.112087,-6365.771101,1685.410096
22390.117784,5773.606348,-666.185348,3524.039291
22390.118117,370.102971,-10288.862594,6511.811733
22390.118450,4071.132681,-9474.636058,3907.087040
22390.118783,0.000000,-11621.233289,4596.572988
22390.119116,4071.132681,-11843.295072,-76.609550
22390.119449,370.102971,-11621.233289,0.000000
22390.119782,296.082377,-9548.656652,153.219100
22390.120115,-2442.679609,-7698.141797,-8886.707777
22390.120448,-2738.761985,-9474.636058,-5822.325785
22390.120782,-74.020594,-9178.553681,2068.457845
22390.121115,444.123565,-5477.523971,2298.286494
22390.121448,0.000000,-10140.821405,7354.516781
22390.121781,2368.659014,-4737.318029,2374.896044
22390.122114,-74.020594,-12731.542202,536.266849
22390.122447,518.144159,-5995.668130,612.876398
22390.122780,2590.720797,-13619.789333,-1302.362347
22390.123113,-2368.659014,-12657.521608,153.219100
22390.123446,1406.391290,-7994.224174,-2068.457845
22390.123779,-3404.947333,-10362.883188,-4060.306139
22390.124112,4663.297435,-4071.132681,766.095498
22390.124446,-592.164754,-5847.626942,-306.438199
22390.124779,5255.462188,-9474.636058,-76.609550
22390.125112,-2368.659014,-7179.997637,4290.134789
22390.125445,-74.020594,-13915.871710,2374.896044
22390.125778,3775.050304,-7105.977043,1762.019645
22390.126111,0.000000,-13693.809927,6741.640382
22390.126444,3478.967927,-6143.709319,-3370.820191
22390.126777,2886.803174,-9178.553681,2681.334243
22390.127110,-2664.741391,-12361.439231,-2987.772442
22390.127443,1924.535449,-8512.368333,612.876398
22390.127776,-3627.009116,-11991.336260,-1072.533697
22390.128110,2294.638420,-5033.400406,1225.752797
22390.128443,-2664.741391,-4589.276840,919.314598
22390.128776,518.144159,-4293.194464,-4136.915689
22390.129109,-5773.606348,-12509.480420,0.000000
22390.129442,2072.576638,-8290.306550,-1302.362347
22390.129775,-2738.761985,-12139.377449,-689.485948
22390.130108,740.205942,-6587.832884,2451.505594
22390.130441,2590.720797,-12435.459826,1149.143247
22390.130774,2368.659014,-8068.244768,1225.752797
22390.131107,3552.988522,-13693.809927,3983.696590
22390.131440,888.247130,-5625.565159,-536.266849
22390.131774,0.000000,-14582.057057,1225.752797
22390.132107,-74.020594,-5181.441594,3064.381992
22390.132440,2886.803174,-5921.647536,-1915.238745
22390.132773,-4515.256246,-7476.080014,-3370.820191
22390.133106,-2368.659014,-5995.668130,-3983.696590
22390.133439,-7698.141797,-8956.491898,-7354.516781
22390.133772,592.164754,-13693.809927,1685.410096
22390.134105,-370.102971,-10288.862594,1072.533697
22390.134438,-1850.514855,-14434.015869,1455.581446
22390.134771,2294.638420,-8586.388927,4519.963438
22390.135105,0.000000,-6291.750507,1838.629195
22390.135438,7031.956449,-3552.988522,2374.896044
22390.135771,3552.988522,-5403.503377,6128.763984
22390.136104,2886.803174,-8290.306550,-3753.867940
22390.136437,-666.185348,-14211.954086,-689.485948
22390.136770,-1480.411884,-11399.171507,1149.143247
22390.137103,2294.638420,-5921.647536,-689.485948
22390.137436,-962.267725,-12583.501014,2528.115143
22390.137769,-1184.329507,-10881.027347,-3217.601092
22390.138102,1480.411884,-9696.697840,3600.648841
22390.138435,0.000000,-5403.503377,1225.752797
22390.138769,3552.988522,-4811.338623,3677.258390
22390.139102,4071.132681,-11251.130318,4213.525239
22390.139435,1184.329507,-5403.503377,1532.190996
22390.139768,-1554.432478,-12731.542202,-766.095498
22390.140101,-444.123565,-5033.400406,-3753.867940
22390.140434,-4219.173869,-11399.171507,-383.047749
22390.140767,148.041188,-1554.432478,-2987.772442
22390.141100,-666.185348,-11843.295072,-689.485948
22390.141433,-4737.318029,-9548.656652,-383.047749
22390.141766,2886.803174,-9474.636058,2374.896044
22390.142099,-666.185348,-9548.656652,0.000000
22390.142433,4737.318029,-6291.750507,2604.724693
22390.142766,3478.967927,-11843.295072,3217.601092
22390.143099,4737.318029,-11473.192101,7124.688131
22390.143432,2516.700203,-6883.915261,2604.724693
22390.143765,1850.514855,-9770.718434,1455.581446
22390.144098,-74.020594,-8734.430116,-3294.210641
22390.144431,-2442.679609,-7994.224174,-1915.238745
22390.144764,-5847.626942,-7476.080014,-4366.744339
22390.145097,-5625.565159,-8142.265362,-6205.373534
22390.145430,-8882.471304,-12509.480420,-3677.258390
22390.145763,-666.185348,-9178.553681,995.924147
22390.146097,0.000000,-7772.162391,766.095498
22390.146430,4737.318029,-5995.668130,6665.030833
22390.146763,2146.597232,-9770.718434,3447.429741
22390.147096,1332.370696,-7328.038826,2451.505594
22390.147429,3108.864956,-8438.347739,2068.457845
22390.147762,814.226536,-12213.398043,-2221.676944
22390.148095,3849.070898,-12731.542202,76.609550
22390.148428,-370.102971,-10658.965565,-76.609550
22390.148761,-1258.350101,-9474.636058,-6511.811733
22390.149094,-2960.823768,-8364.327145,306.438199
22390.149427,-4441.235652,-10732.986159,-689.485948
22390.149761,3923.091493,-6513.812290,1762.019645
22390.150094,0.000000,-9548.656652,6971.469032
22390.150427,1480.411884,-6587.832884,1225.752797
22390.150760,444.123565,-10584.944971,5439.278036
22390.151093,4589.276840,-7402.059420,4060.306139
22390.151426,1332.370696,-9548.656652,766.095498
22390.151759,3478.967927,-5181.441594,-2528.115143
22390.152092,-4145.153275,-14211.954086,-2528.115143
22390.152425,-3627.009116,-10066.800811,-4366.744339
22390.152758,-2146.597232,-5403.503377,-5822.325785
22390.153092,-74.020594,-10658.965565,-76.609550
22390.153425,962.267725,-10881.027347,2757.943793
22390.153758,2368.659014,-9400.615463,1838.629195
22390.154091,-962.267725,-11547.212695,3677.258390
22390.154424,3552.988522,-4811.338623,1225.752797
22390.154757,3923.091493,-9548.656652,5515.887586
22390.155090,7105.977043,-9992.780217,9422.974625
22390.155423,7031.956449,-8586.388927,3753.867940
22390.155756,-4737.318029,-8364.327145,-4290.134789
22390.156089,-1776.494261,-7179.997637,-7201.297681
22390.156422,-4589.276840,-10658.965565,-1302.362347
22390.156756,2516.700203,-3701.029710,-1455.581446
22390.157089,-5107.421000,-10658.965565,-4213.525239
22390.157422,-1258.350101,-9474.636058,-1608.800546
22390.157755,-5625.565159,-11621.233289,-1302.362347
22390.158088,4367.215058,-7698.141797,2451.505594
22390.158421,1480.411884,-8364.327145,7354.516781
22390.158754,4367.215058,-9474.636058,4519.963438
22390.159087,4737.318029,-9548.656652,2451.505594
22390.159420,1776.494261,-11843.295072,3294.210641
22390.159753,5625.565159,-7179.997637,459.657299
22390.160086,1406.391290,-9326.594869,995.924147
22390.160420,3478.967927,-7698.141797,-2528.115143
22390.160753,-6439.791695,-11251.130318,-3294.210641
22390.161086,-2664.741391,-8956.491898,-4903.011187
22390.161419,-6735.874072,-11103.089130,-4443.353888
22390.161752,-1258.350101,-10584.944971,-536.266849
22390.162085,2886.803174,-6809.894666,2987.772442
22390.162418,-1184.329507,-9548.656652,4903.011187
22390.162751,2368.659014,-7624.121203,3600.648841
22390.163084,-2738.761985,-11325.150913,2604.724693
22390.163417,-3552.988522,-8364.327145,2451.505594
22390.163750,-2442.679609,-7698.141797,-1302.362347
22390.164084,-5921.647536,-10436.903782,-995.924147
22390.164417,-5255.462188,-6439.791695,-3064.381992
22390.164750,-10732.986159,-13397.727550,-2528.115143
22390.165083,-4515.256246,-3775.050304,-4903.011187
22390.165416,-8586.388927,-12139.377449,1149.143247
22390.165749,-1850.514855,-11843.295072,4826.401637
22390.166082,1406.391290,-4811.338623,5515.887586
22390.166415,-5329.482782,-12805.562797,6741.640382
22390.166748,1406.391290,-5921.647536,2757.943793
22390.167081,-9030.512492,-14434.015869,1532.190996
22390.167415,-3701.029710,-10362.883188,-766.095498
22390.167748,-9474.636058,-10510.924376,-995.924147
22390.168081,-11103.089130,-10140.821405,-4903.011187
22390.168414,-7772.162391,-8882.471304,-1915.238745
22390.168747,-10510.924376,-7772.162391,-3064.381992
22390.169080,-6883.915261,-666.185348,0.000000
22390.169413,-7550.100608,-7105.977043,2374.896044
22390.169746,0.000000,-3627.009116,1378.971896
22390.170079,-3478.967927,-12139.377449,2298.286494
22390.170412,-1776.494261,-13101.645173,1608.800546
22390.170745,-3552.988522,-11547.212695,689.485948
22390.171079,-1036.288319,-13915.871710,1762.019645
22390.171412,-74.020594,-13027.624579,-76.609550
22390.171745,-4737.318029,-10140.821405,1838.629195
22390.172078,-4589.276840,-8660.409521,-1225.752797
22390.172411,-8660.409521,-11251.130318,-689.485948
22390.172744,-8882.471304,-7772.162391,1072.533697
22390.173077,-7846.182985,-4959.379811,919.314598
22390.173410,-6735.874072,-7550.100608,1762.019645
22390.173743,-6439.791695,-8290.306550,2221.676944
22390.174076,-7772.162391,-8882.471304,1608.800546
22390.174409,-6661.853478,-11029.068536,612.876398
22390.174743,-5773.606348,-8808.450710,0.000000
22390.175076,-6365.771101,-11547.212695,-306.438199
22390.175409,-10066.800811,-9548.656652,-1838.629195
22390.175742,-11251.130318,-9548.656652,-612.876398
22390.176075,-10732.986159,-9474.636058,-2528.115143
22390.176408,-8660.409521,-7105.977043,-3140.991542
22390.176741,-9770.718434,-7476.080014,0.000000
22390.177074,-8438.347739,-4811.338623,0.000000
22390.177407,-9474.636058,-8364.327145,842.705048
22390.177740,-8290.306550,-11473.192101,-459.657299
22390.178073,-7105.977043,-11177.109724,5515.887586
22390.178407,-5773.606348,-9992.780217,6741.640382
22390.178740,-4071.132681,-8364.327145,3753.867940
22390.179073,-4811.338623,-7994.224174,-536.266849
22390.179406,-9178.553681,-7772.162391,0.000000
22390.179739,-11843.295072,-9548.656652,612.876398
22390.180072,-11177.109724,-8956.491898,-4136.915689
22390.180405,-12879.583391,-11103.089130,-1915.238745
22390.180738,-15248.242405,-11177.109724,-3600.648841
22390.181071,-14211.954086,-6069.688724,-5056.230287
22390.181404,-14285.974681,-9474.636058,-2528.115143
22390.181738,-13027.624579,-8364.327145,2145.067394
22390.182071,-8586.388927,-5403.503377,2451.505594
22390.182404,-7105.977043,-10436.903782,7584.345430
22390.182737,-2590.720797,-8882.471304,7277.907231
22390.183070,-7772.162391,-9474.636058,3600.648841
22390.183403,-5699.585753,-9326.594869,1762.019645
22390.183736,-7402.059420,-9474.636058,-612.876398
22390.184069,-8660.409521,-11399.171507,-1455.581446
22390.184402,-8956.491898,-8660.409521,-3753.867940
22390.184735,-13101.645173,-14211.954086,-3753.867940
22390.185068,-13619.789333,-6587.832884,-3370.820191
22390.185402,-16580.613101,-9548.656652,-306.438199
22390.185735,-11325.150913,-7994.224174,-1302.362347
22390.186068,-14211.954086,-7772.162391,306.438199
22390.186401,-9474.636058,-8364.327145,4903.011187
22390.186734,-6365.771101,-5477.523971,6741.640382
22390.187067,-6883.915261,-6735.874072,4979.620737
22390.187400,-5995.668130,-6957.935855,2221.676944
22390.187733,-8956.491898,-7179.997637,-2757.943793
22390.188066,-9474.636058,-11917.315666,-1302.362347
22390.188399,-11325.150913,-11547.212695,-5898.935335
22390.188732,-13101.645173,-13323.706956,-8503.660028
22390.189066,-14211.954086,-9548.656652,-3677.258390
22390.189399,-10288.862594,-8808.450710,-1225.752797
22390.189732,-7550.100608,-6143.709319,689.485948
22390.190065,-5699.585753,-8290.306550,4826.401637
22390.190398,-7105.977043,-9770.718434,5822.325785
22390.190731,-5551.544565,-8512.368333,5132.839837
22390.191064,-6735.874072,-10658.965565,4826.401637
22390.191397,-4515.256246,-7846.182985,3064.381992
22390.191730,-8882.471304,-8142.265362,1149.143247
22390.192063,-10732.986159,-11843.295072,-2528.115143
22390.192396,-15766.386565,-9770.718434,-8273.831378
22390.192730,-16284.530724,-8660.409521,-7354.516781
22390.193063,-12435.459826,-9474.636058,-689.485948
22390.193396,-9992.780217,-6661.853478,153.219100
22390.193729,-11251.130318,-6143.709319,1225.752797
22390.194062,-6957.935855,-7254.018232,3064.381992
22390.194395,-5773.606348,-9844.739029,4673.182538
22390.194728,-5329.482782,-11917.315666,4826.401637
22390.195061,-6587.832884,-11843.295072,2068.457845
22390.195394,-7476.080014,-10214.842000,-2757.943793
22390.195727,-7105.977043,-11103.089130,1762.019645
22390.196060,-7179.997637,-13027.624579,-76.609550
22390.196394,-11547.212695,-8364.327145,-3064.381992
22390.196727,-11325.150913,-8882.471304,-689.485948
22390.197060,-11843.295072,-5847.626942,-1838.629195
22390.197393,-9844.739029,-5403.503377,0.000000
22390.197726,-8216.285956,-6513.812290,3294.210641
22390.198059,-8882.471304,-5403.503377,2451.505594
22390.198392,-8068.244768,-8660.409521,0.000000
22390.198725,-8882.471304,-14063.912898,2068.457845
22390.199058,-11029.068536,-13323.706956,-2221.676944
22390.199391,-11917.315666,-12805.562797,-3064.381992
22390.199725,-10066.800811,-11029.068536,0.000000
22390.200058,-7920.203579,-7994.224174,1685.410096
22390.200395,-5699.585753,-3330.926739,1762.019645
22390.200728,-6513.812290,-3627.009116,2221.676944
22390.201061,-6587.832884,-7105.977043,-76.609550
22390.201394,-13915.871710,-8364.327145,-2451.505594
22390.201727,-13323.706956,-12657.521608,-3677.258390
22390.202060,-11029.068536,-13619.789333,-2528.115143
22390.202393,-9474.636058,-10732.986159,0.000000
22390.202726,-4811.338623,-11251.130318,4826.401637
22390.203059,-4885.359217,-7994.224174,4826.401637
22390.203392,-4811.338623,-6809.894666,2374.896044
22390.203725,-6439.791695,-8882.471304,2068.457845
22390.204058,-9474.636058,-9548.656652,76.609550
22390.204391,-9844.739029,-11843.295072,-2528.115143
22390.204724,-15396.283594,-8364.327145,-4596.572988
22390.205057,-17172.777854,-7179.997637,-5515.887586
22390.205390,-14878.139434,-10658.965565,-5592.497135
22390.205723,-14285.974681,-10658.965565,-1915.238745
22390.206056,-13915.871710,-8660.409521,1225.752797
22390.206389,-9474.636058,-8956.491898,6894.859482
22390.206722,-5847.626942,-6587.832884,9193.145976
22390.207055,-4441.235652,-3627.009116,9806.022374
22390.207388,-74.020594,-5181.441594,6358.592633
22390.207721,-370.102971,-6809.894666,3600.648841
22390.208054,-3034.844362,-8956.491898,-2911.162892
22390.208387,-7179.997637,-12139.377449,-8886.707777
22390.208720,-11843.295072,-13101.645173,-11031.775171
22390.209053,-9548.656652,-14211.954086,-9882.631924
22390.209386,-8364.327145,-10732.986159,-7354.516781
22390.209719,-5921.647536,-11251.130318,1149.143247
22390.210052,-1258.350101,-9474.636058,4826.401637
22390.210385,0.000000,-5403.503377,9806.022374
22390.210718,2294.638420,-5625.565159,12027.699319
22390.211051,3182.885551,-5847.626942,9576.193725
22390.211384,1554.432478,-8290.306550,7584.345430
22390.211717,-296.082377,-9474.636058,4826.401637
22390.212050,-1850.514855,-9474.636058,-2451.505594
22390.212383,-4737.318029,-9548.656652,-7354.516781
22390.212716,-7105.977043,-12805.562797,-4366.744339
22390.213049,-8586.388927,-11769.274478,-5132.839837
22390.213382,-8290.306550,-9844.739029,-2911.162892
22390.213715,-6069.688724,-9400.615463,306.438199
22390.214048,-3034.844362,-9474.636058,4826.401637
22390.214381,-1628.453072,-8956.491898,10495.508323
22390.214714,-74.020594,-9178.553681,11568.042020
22390.215046,-74.020594,-4959.379811,7354.516781
22390.215379,296.082377,-10584.944971,10955.165621
22390.215712,814.226536,-8290.306550,6665.030833
22390.216045,-3552.988522,-8364.327145,7354.516781
22390.216378,-1258.350101,-9474.636058,2374.896044
22390.216711,-5255.462188,-9770.718434,2068.457845
22390.217044,-7105.977043,-10288.862594,2834.553343
22390.217377,-6217.729913,-9548.656652,4290.134789
22390.217710,-6439.791695,-10140.821405,7048.078582
22390.218043,-7105.977043,-9548.656652,9806.022374
22390.218376,-2738.761985,-10658.965565,15858.176809
22390.218709,-1628.453072,-6883.915261,17466.977354
22390.219042,-2368.659014,-7179.997637,22063.550342
22390.219375,2294.638420,-8882.471304,18386.291952
22390.219708,148.041188,-8142.265362,19612.044749
22390.220041,0.000000,-7994.224174,17850.025103
22390.220374,-2294.638420,-7698.141797,14402.595362
22390.220707,-4589.276840,-7476.080014,12870.404366
22390.221040,-5921.647536,-8068.244768,13713.109414
22390.221373,-5699.585753,-7031.956449,14709.033562
22390.221706,-3330.926739,-5773.606348,16930.710506
22390.222039,-962.267725,-6809.894666,19535.435199
22390.222372,-888.247130,-4737.318029,22599.817191
22390.222705,0.000000,-5403.503377,23595.741338
22390.223038,2960.823768,-8882.471304,25357.760984
22390.223371,4663.297435,-10658.965565,22906.255390
22390.223704,1702.473667,-10362.883188,23825.569988
22390.224037,1998.556043,-10362.883188,20761.187996
22390.224370,-1184.329507,-7402.059420,17620.196454
22390.224703,-666.185348,-5107.421000,16777.491406
22390.225036,1036.288319,-4589.276840,18309.682402
22390.225369,4367.215058,-3849.070898,20454.749797
22390.225702,0.000000,-4811.338623,20991.016645
22390.226035,2886.803174,-4441.235652,15858.176809
22390.226368,1258.350101,-7698.141797,15551.738609
22390.226701,1184.329507,-7772.162391,15321.909960
22390.227034,3478.967927,-12435.459826,15704.957709
22390.227367,592.164754,-11695.253884,17160.539155
22390.227700,-1332.370696,-9252.574275,15015.471761
22390.228033,814.226536,-7105.977043,14172.766713
22390.228366,370.102971,-7105.977043,13406.671215
22390.228699,1702.473667,-7698.141797,15475.129060
22390.229032,-666.185348,-7994.224174,12180.918418
22390.229365,-2442.679609,-5995.668130,6741.640382
22390.229698,-5329.482782,-12065.356855,9193.145976
22390.230031,-3552.988522,-10140.821405,10572.117872
22390.230364,-962.267725,-8364.327145,9576.193725
22390.230697,148.041188,-5477.523971,6971.469032
22390.231030,2146.597232,-8142.265362,8197.221829
22390.231363,1480.411884,-9548.656652,9806.022374
22390.231696,3478.967927,-11843.295072,9729.412825
22390.232029,-666.185348,-8882.471304,5745.716235
22390.232362,-2368.659014,-9844.739029,7737.564530
22390.232695,-74.020594,-9474.636058,6665.030833
22390.233028,0.000000,-7550.100608,5898.935335
22390.233361,-2072.576638,-7920.203579,1532.190996
22390.233693,-3775.050304,-9992.780217,919.314598
22390.234026,-2886.803174,-10288.862594,1608.800546
22390.234359,2738.761985,-11695.253884,7890.783629
22390.234692,3478.967927,-7698.141797,3830.477490
22390.235025,1184.329507,-9104.533087,5669.106685
22390.235358,4663.297435,-13915.871710,8503.660028
22390.235691,3478.967927,-6809.894666,4826.401637
22390.236024,3552.988522,-5033.400406,5439.278036
22390.236357,3182.885551,-5403.503377,0.000000
22390.236690,-592.164754,-10436.903782,-76.609550
22390.237023,-1628.453072,-12361.439231,1378.971896
22390.237356,-148.041188,-12065.356855,2374.896044
22390.237689,-2368.659014,-8808.450710,0.000000
22390.238022,518.144159,-8808.450710,459.657299
22390.238355,1702.473667,-9844.739029,3294.210641
22390.238688,296.082377,-10732.986159,2451.505594
22390.239021,1480.411884,-11621.233289,4290.134789
22390.239354,4071.132681,-9474.636058,4826.401637
22390.239687,3182.885551,-8142.265362,3677.258390
22390.240020,1184.329507,-7179.997637,6281.983084
22390.240353,518.144159,-10658.965565,4826.401637
22390.240686,-2294.638420,-8512.368333,2451.505594
22390.241019,-1628.453072,-11917.315666,4903.011187
22390.241352,-1406.391290,-11029.068536,5209.449386
22390.241685,-2960.823768,-6957.935855,3677.258390
22390.242018,-3552.988522,-8956.491898,8120.612279
22390.242351,-74.020594,-7994.224174,7584.345430
22390.242684,0.000000,-10140.821405,9806.022374
22390.243017,1850.514855,-10658.965565,10955.165621
22390.243350,1480.411884,-11917.315666,10418.898773
22390.243683,2442.679609,-11103.089130,13406.671215
22390.244016,2368.659014,-5995.668130,15321.909960
22390.244349,-222.061783,-5033.400406,8427.050478
22390.244682,-666.185348,-7105.977043,6665.030833
22390.245015,-1480.411884,-10658.965565,8503.660028
22390.245348,-1258.350101,-11325.150913,10418.898773
22390.245681,0.000000,-8660.409521,16930.710506
22390.246014,-74.020594,-5921.647536,15092.081311
22390.246347,-74.020594,-1776.494261,12793.794817
22390.246680,1332.370696,-8438.347739,14249.376263
22390.247013,3256.906145,-13175.665768,21757.112143
22390.247346,1998.556043,-9548.656652,19612.044749
22390.247679,0.000000,-2442.679609,17160.539155
22390.248012,3478.967927,-2368.659014,15245.300410
22390.248345,3552.988522,-2442.679609,12257.527968
22390.248678,2368.659014,-10288.862594,18922.558801
22390.249011,-74.020594,-10658.965565,14019.547613
22390.249344,-2294.638420,-7772.162391,12870.404366
22390.249677,-2960.823768,-7920.203579,15858.176809
22390.250010,-1110.308913,-6883.915261,16700.881856
22390.250343,444.123565,-7624.121203,18233.072852
22390.250676,-74.020594,-7698.141797,18309.682402
22390.251009,0.000000,-5995.668130,18386.291952
22390.251342,5847.626942,-13619.789333,24438.446386
22390.251675,3923.091493,-4145.153275,23212.693589
22390.252007,0.000000,-74.020594,18539.511052
22390.252340,0.000000,-2738.761985,14096.157163
22390.252673,-2220.617826,-7402.059420,11721.261119
22390.253006,-2738.761985,-9178.553681,7737.564530
22390.253339,-666.185348,-11251.130318,12180.918418
22390.253672,-1554.432478,-9474.636058,10955.165621
22390.254005,-4515.256246,-6291.750507,11338.213370
22390.254338,-962.267725,-5625.565159,10955.165621
22390.254671,-2146.597232,-7550.100608,9116.536426
22390.255004,-444.123565,-10732.986159,11951.089769
22390.255337,4071.132681,-11251.130318,14632.424012
22390.255670,1184.329507,-6883.915261,11644.651570
22390.256003,2368.659014,-3034.844362,15475.129060
22390.256336,4071.132681,-5773.606348,8197.221829
22390.256669,-1184.329507,-8364.327145,2757.943793
22390.257002,0.000000,-11621.233289,3600.648841
22390.257335,-1850.514855,-13175.665768,995.924147
22390.257668,-888.247130,-9400.615463,-766.095498
22390.258001,-1850.514855,-13175.665768,3140.991542
22390.258334,1702.473667,-11251.130318,7277.907231
22390.258667,-888.247130,-2442.679609,3064.381992
22390.259000,3330.926739,-6513.812290,-76.609550
22390.259333,4663.297435,-12731.542202,4213.525239
22390.259666,1406.391290,-11917.315666,6128.763984
22390.259999,2738.761985,-11251.130318,6358.592633
22390.260332,1628.453072,-4219.173869,2528.115143
22390.260665,-1036.288319,-4219.173869,-3830.477490
22390.260998,2368.659014,-5995.668130,-2757.943793
22390.261331,0.000000,-2442.679609,-12257.527968
22390.261664,-4737.318029,-5995.668130,-14402.595362
22390.261997,2294.638420,-15100.201217,-11721.261119
22390.262330,-740.205942,-18949.272115,-3753.867940
22390.262663,592.164754,-13693.809927,-1685.410096
22390.262996,444.123565,-5995.668130,-7354.516781
22390.263329,444.123565,-9548.656652,-10112.460574
22390.263662,4959.379811,-9844.739029,-5975.544884
22390.263995,3627.009116,-15100.201217,-76.609550
22390.264328,2812.782580,-10658.965565,-1991.848295
22390.264661,-2368.659014,-3701.029710,-4979.620737
22390.264994,-666.185348,-12731.542202,-8044.002729
22390.265327,-1628.453072,-6143.709319,-9193.145976
22390.265660,-4737.318029,-3627.009116,-14402.595362
22390.265993,0.000000,-11621.233289,-11797.870669
22390.266326,-1702.473667,-15026.180623,-7660.954980
22390.266659,-2072.576638,-12805.562797,-5822.325785
22390.266992,-1036.288319,-8364.327145,-6741.640382
22390.267325,1998.556043,-14508.036463,-5286.058936
22390.267658,7031.956449,-11843.295072,-4060.306139
22390.267991,1184.329507,-7179.997637,-7201.297681
22390.268324,0.000000,-11917.315666,-3217.601092
22390.268657,1110.308913,-9474.636058,-4979.620737
22390.268990,0.000000,-8068.244768,-4366.744339
22390.269323,-1258.350101,-7772.162391,-8580.269578
22390.269656,-962.267725,-8290.306550,-10495.508323
22390.269989,370.102971,-6957.935855,-9499.584175
22390.270322,-1110.308913,-9326.594869,-5362.668486
22390.270654,1406.391290,-11251.130318,-3830.477490
22390.270987,1480.411884,-12731.542202,-306.438199
22390.271320,2294.638420,-18875.251521,4366.744339
22390.271653,1924.535449,-15470.304188,8580.269578
22390.271986,-74.020594,0.000000,-689.485948
22390.272319,1184.329507,-3034.844362,-842.705048
22390.272652,4367.215058,-8586.388927,2757.943793
22390.272985,2368.659014,-11917.315666,4903.011187
22390.273318,-1480.411884,-10140.821405,-689.485948
22390.273651,-5477.523971,-6587.832884,-4749.792088
22390.273984,814.226536,-9548.656652,2528.115143
22390.274317,1924.535449,-8142.265362,8963.317327
22390.274650,2072.576638,-4959.379811,3140.991542
22390.274983,0.000000,-8660.409521,0.000000
22390.275316,4071.132681,-14211.954086,9116.536426
22390.275649,2294.638420,-9548.656652,6741.640382
22390.275982,0.000000,-8364.327145,11568.042020
22390.276315,2294.638420,-4145.153275,7277.907231
22390.276648,-1776.494261,-2442.679609,2911.162892
22390.276981,-296.082377,-11621.233289,4903.011187
22390.277314,-1554.432478,-11843.295072,5822.325785
22390.277647,-3923.091493,-7476.080014,2757.943793
22390.277980,-2664.741391,-7772.162391,5362.668486
22390.278313,-2442.679609,-8808.450710,4136.915689
22390.278646,-888.247130,-7772.162391,9806.022374
22390.278979,2738.761985,-8882.471304,11568.042020
22390.279312,2294.638420,-6143.709319,8580.269578
22390.279645,5773.606348,-17172.777854,17696.806004
22390.279978,4885.359217,-6217.729913,18616.120601
22390.280311,-1924.535449,-1850.514855,8120.612279
22390.280644,-1036.288319,-5181.441594,6205.373534
22390.280977,-1258.350101,-8290.306550,7277.907231
22390.281310,-2886.803174,-4811.338623,3677.258390
22390.281643,2516.700203,-7105.977043,6052.154434
22390.281976,-1554.432478,-11843.295072,1762.019645
22390.282309,-3256.906145,-9548.656652,7354.516781
