#time,accel_x,accel_y,accel_z
22173.596095,3182.885551,-9918.759623,-4749.792088
22173.596429,3256.906145,-11251.130318,-4060.306139
22173.596763,4071.132681,-10955.047942,-2528.115143
22173.597097,7031.956449,-10066.800811,-76.609550
22173.597432,12361.439231,-13027.624579,4826.401637
22173.597766,10881.027347,-6587.832884,3677.258390
22173.598100,12139.377449,-8290.306550,7890.783629
22173.598434,13841.851115,-6809.894666,2987.772442
22173.598768,12213.398043,-7920.203579,4519.963438
22173.599103,11473.192101,-7846.182985,306.438199
22173.599437,8808.450710,-10807.006753,-1838.629195
22173.599771,6365.771101,-10881.027347,-3447.429741
22173.600105,2812.782580,-11029.068536,-5592.497135
22173.600439,2294.638420,-13027.624579,-6052.154434
22173.600774,-962.267725,-10732.986159,-5515.887586
22173.601108,1184.329507,-10288.862594,1762.019645
22173.601442,8216.285956,-9474.636058,7277.907231
22173.601776,9696.697840,-4737.318029,9116.536426
22173.602110,12435.459826,-4663.297435,10955.165621
22173.602445,11843.295072,-4885.359217,8810.098227
22173.602779,11843.295072,-5107.421000,4060.306139
22173.603113,12361.439231,-8290.306550,1762.019645
22173.603447,6513.812290,-9548.656652,-4903.011187
22173.603781,5773.606348,-12731.542202,-7201.297681
22173.604116,5255.462188,-13915.871710,-10495.508323
22173.604450,4663.297435,-12509.480420,-8886.707777
22173.604784,3849.070898,-11917.315666,-4903.011187
22173.605118,5625.565159,-10732.986159,-1685.410096
22173.605452,8586.388927,-10510.924376,3140.991542
22173.605787,12361.439231,-7254.018232,8044.002729
22173.606121,15914.427753,-6217.729913,9729.412825
22173.606455,15026.180623,-3330.926739,9806.022374
22173.606789,14730.098246,-4737.318029,7584.345430
22173.607123,12213.398043,-6587.832884,3907.087040
22173.607458,8216.285956,-8512.368333,-2221.676944
22173.607792,1184.329507,-10140.821405,-6741.640382
22173.608126,1702.473667,-13027.624579,-8044.002729
22173.608460,-74.020594,-11547.212695,-10648.727422
22173.608794,1184.329507,-11473.192101,-5362.668486
22173.609129,6439.791695,-13619.789333,-76.609550
22173.609463,9474.636058,-7772.162391,4903.011187
22173.609797,14730.098246,-6513.812290,7814.174080
22173.610131,14285.974681,-6217.729913,6741.640382
22173.610465,13989.892304,-7031.956449,4673.182538
22173.610800,14137.933492,-7550.100608,4213.525239
22173.611134,12361.439231,-9326.594869,842.705048
22173.611468,7105.977043,-8364.327145,-3830.477490
22173.611802,2960.823768,-11325.150913,-3677.258390
22173.612136,5847.626942,-14211.954086,-3753.867940
22173.612471,7105.977043,-10436.903782,-536.266849
22173.612805,9770.718434,-7476.080014,459.657299
22173.613139,13545.768739,-6439.791695,2451.505594
22173.613473,13915.871710,-6587.832884,4673.182538
22173.613807,15322.262999,-7105.977043,3600.648841
22173.614142,14137.933492,-9474.636058,0.000000
22173.614476,9770.718434,-10140.821405,536.266849
22173.614810,9474.636058,-11325.150913,1455.581446
22173.615144,10288.862594,-10362.883188,-842.705048
22173.615478,12361.439231,-8586.388927,-383.047749
22173.615813,10288.862594,-8882.471304,383.047749
22173.616147,11769.274478,-7994.224174,766.095498
22173.616481,10436.903782,-9104.533087,612.876398
22173.616815,9474.636058,-8956.491898,0.000000
22173.617149,9770.718434,-8364.327145,0.000000
22173.617484,13545.768739,-11843.295072,3294.210641
22173.617818,14730.098246,-7402.059420,842.705048
22173.618152,13175.665768,-7476.080014,0.000000
22173.618486,14137.933492,-10362.883188,-383.047749
22173.618820,9844.739029,-6809.894666,-842.705048
22173.619155,6809.894666,-10732.986159,-2298.286494
22173.619489,9104.533087,-13027.624579,1149.143247
22173.619823,8290.306550,-5995.668130,1225.752797
22173.620157,9474.636058,-8364.327145,5056.230287
22173.620491,10436.903782,-6365.771101,2528.115143
22173.620826,8512.368333,-9474.636058,689.485948
22173.621160,9400.615463,-11103.089130,1149.143247
22173.621494,10066.800811,-8660.409521,2374.896044
22173.621828,12361.439231,-5625.565159,-1991.848295
22173.622162,11695.253884,-9474.636058,-1225.752797
22173.622497,11177.109724,-12731.542202,-1608.800546
22173.622831,8882.471304,-11769.274478,0.000000
22173.623165,9400.615463,-10881.027347,1072.533697
22173.623499,11325.150913,-8512.368333,1302.362347
22173.623833,10510.924376,-7105.977043,1762.019645
22173.624168,7105.977043,-7698.141797,-2221.676944
22173.624502,7698.141797,-9548.656652,2145.067394
22173.624836,7476.080014,-5403.503377,0.000000
22173.625170,11991.336260,-10510.924376,3447.429741
22173.625504,11177.109724,-9474.636058,2374.896044
22173.625839,7031.956449,-9178.553681,-1302.362347
22173.626173,5847.626942,-13619.789333,-2221.676944
22173.626507,9474.636058,-7920.203579,-383.047749
22173.626841,13323.706956,-8364.327145,3677.258390
22173.627176,13249.686362,-4737.318029,4596.572988
22173.627510,10584.944971,-10955.047942,2068.457845
22173.627844,4737.318029,-11917.315666,0.000000
22173.628178,8290.306550,-10436.903782,-689.485948
22173.628512,10584.944971,-8438.347739,0.000000
22173.628847,4737.318029,-7179.997637,-4290.134789
22173.629181,8808.450710,-9252.574275,-3370.820191
22173.629515,7846.182985,-13545.768739,3524.039291
22173.629849,16210.510130,-4441.235652,6511.811733
22173.630183,13693.809927,-8068.244768,6971.469032
22173.630518,11621.233289,-5477.523971,2681.334243
22173.630852,10658.965565,-8364.327145,1455.581446
22173.631186,9400.615463,-11843.295072,2374.896044
22173.631520,9400.615463,-7476.080014,-3524.039291
22173.631854,7698.141797,-9918.759623,-2451.505594
22173.632189,5255.462188,-13471.748144,-4136.915689
22173.632523,3552.988522,-8956.491898,-2604.724693
22173.632856,1332.370696,-12435.459826,-3677.258390
22173.633190,2146.597232,-10362.883188,-1302.362347
22173.633523,5329.482782,-6587.832884,2451.505594
22173.633857,9474.636058,-8586.388927,6971.469032
22173.634190,12361.439231,-6217.729913,9499.584175
22173.634524,11177.109724,-3330.926739,2451.505594
22173.634857,9474.636058,-11177.109724,5515.887586
22173.635190,7402.059420,-10510.924376,1685.410096
22173.635524,5255.462188,-10584.944971,-2987.772442
22173.635857,74.020594,-11843.295072,-6511.811733
22173.636191,-888.247130,-12731.542202,-7354.516781
22173.636524,666.185348,-11029.068536,-7354.516781
22173.636858,518.144159,-13397.727550,612.876398
22173.637191,4515.256246,-6513.812290,3753.867940
22173.637525,3775.050304,-8882.471304,4213.525239
22173.637858,7031.956449,-7994.224174,7277.907231
22173.638192,4367.215058,-1702.473667,3677.258390
22173.638525,4737.318029,-6291.750507,4903.011187
22173.638859,8512.368333,-8882.471304,2987.772442
22173.639192,3775.050304,-9548.656652,0.000000
22173.639525,2368.659014,-6735.874072,-2298.286494
22173.639859,1406.391290,-11547.212695,-5592.497135
22173.640192,-1184.329507,-10140.821405,-6588.421283
22173.640526,1850.514855,-11103.089130,-6894.859482
22173.640859,2664.741391,-10288.862594,-2451.505594
22173.641193,4663.297435,-9474.636058,-3524.039291
22173.641526,4441.235652,-13915.871710,4519.963438
22173.641860,5255.462188,-9474.636058,6052.154434
22173.642193,6883.915261,-5995.668130,5515.887586
22173.642527,8216.285956,-9474.636058,7277.907231
22173.642860,3404.947333,-10732.986159,7124.688131
22173.643194,5921.647536,-5699.585753,3677.258390
22173.643527,3108.864956,-4811.338623,2451.505594
22173.643860,0.000000,-6291.750507,-2451.505594
22173.644194,2294.638420,-7550.100608,-4903.011187
22173.644527,-1924.535449,-13471.748144,-3753.867940
22173.644861,-1406.391290,-11177.109724,-9039.926876
22173.645194,-4811.338623,-10658.965565,-7967.393179
22173.645528,-1776.494261,-11029.068536,-2451.505594
22173.645861,2442.679609,-9770.718434,1455.581446
22173.646195,4737.318029,-8142.265362,6128.763984
22173.646528,4071.132681,-9474.636058,5975.544884
22173.646862,4663.297435,-7105.977043,4826.401637
22173.647195,3849.070898,-6883.915261,6128.763984
22173.647529,4663.297435,-9474.636058,1762.019645
22173.647862,3552.988522,-5403.503377,2451.505594
22173.648196,740.205942,-9474.636058,-1072.533697
22173.648529,2738.761985,-9474.636058,-2911.162892
22173.648862,-3627.009116,-11251.130318,-4979.620737
22173.649196,-3034.844362,-12953.603985,-6358.592633
22173.649529,-666.185348,-11103.089130,-2757.943793
22173.649863,-1850.514855,-11991.336260,383.047749
22173.650196,2590.720797,-10658.965565,2374.896044
22173.650530,1554.432478,-8364.327145,3064.381992
22173.650863,0.000000,-7179.997637,7048.078582
22173.651197,4663.297435,-4145.153275,4903.011187
22173.651530,1924.535449,-5773.606348,6741.640382
22173.651864,1702.473667,-5329.482782,1378.971896
22173.652197,-3182.885551,-7402.059420,-3370.820191
22173.652531,-2738.761985,-10066.800811,-3753.867940
22173.652864,-4293.194464,-8956.491898,-5439.278036
22173.653197,-3627.009116,-9474.636058,-6511.811733
22173.653531,-5921.647536,-13693.809927,-5209.449386
22173.653864,-2146.597232,-11325.150913,-1149.143247
22173.654198,444.123565,-9548.656652,1762.019645
22173.654531,5107.421000,-8882.471304,6665.030833
22173.654865,3552.988522,-7179.997637,7354.516781
22173.655198,4737.318029,-6439.791695,7124.688131
22173.655532,2516.700203,-7920.203579,4290.134789
22173.655865,592.164754,-6883.915261,153.219100
22173.656199,1110.308913,-8586.388927,-3064.381992
22173.656532,-1258.350101,-9030.512492,-3753.867940
22173.656866,-2664.741391,-11843.295072,-4060.306139
22173.657199,-3330.926739,-8882.471304,-4060.306139
22173.657533,-3552.988522,-13101.645173,-3064.381992
22173.657866,1184.329507,-8290.306550,-76.609550
22173.658199,1110.308913,-11843.295072,2374.896044
22173.658533,2368.659014,-4811.338623,2451.505594
22173.658866,4663.297435,-9474.636058,6971.469032
22173.659200,0.000000,-7179.997637,3983.696590
22173.659533,1554.432478,-9030.512492,2681.334243
22173.659867,1480.411884,-6809.894666,612.876398
22173.660200,592.164754,-9104.533087,-2987.772442
22173.660534,888.247130,-9844.739029,229.828649
22173.660867,-74.020594,-9474.636058,-4979.620737
22173.661201,-3108.864956,-11917.315666,-4596.572988
22173.661534,0.000000,-6587.832884,0.000000
22173.661868,2146.597232,-15100.201217,2374.896044
22173.662201,4737.318029,-7920.203579,6052.154434
22173.662534,3627.009116,-9844.739029,3677.258390
22173.662868,370.102971,-10436.903782,3370.820191
22173.663201,2886.803174,-5551.544565,2987.772442
22173.663535,3478.967927,-9474.636058,4213.525239
22173.663868,-74.020594,-5921.647536,-842.705048
22173.664202,-4145.153275,-9844.739029,-1915.238745
22173.664535,-4219.173869,-10362.883188,-2221.676944
22173.664869,-1258.350101,-1850.514855,-4903.011187
22173.665202,-2960.823768,-11029.068536,1149.143247
22173.665536,814.226536,-4885.359217,-1225.752797
22173.665869,-2664.741391,-11843.295072,-995.924147
22173.666203,1480.411884,-8956.491898,1762.019645
22173.666536,4663.297435,-10658.965565,2374.896044
22173.666869,3775.050304,-11399.171507,3524.039291
22173.667203,2442.679609,-10362.883188,1762.019645
22173.667536,1036.288319,-11769.274478,2604.724693
22173.667870,0.000000,-6291.750507,0.000000
22173.668203,-2368.659014,-10140.821405,2221.676944
22173.668537,2294.638420,-6809.894666,-689.485948
22173.668870,-3404.947333,-7772.162391,-2451.505594
22173.669204,-2368.659014,-8364.327145,0.000000
22173.669537,-2368.659014,-7772.162391,-2451.505594
22173.669871,-1184.329507,-13989.892304,4596.572988
22173.670204,3701.029710,-4811.338623,4903.011187
22173.670538,2294.638420,-9622.677246,3370.820191
22173.670871,3330.926739,-10066.800811,4826.401637
22173.671205,-74.020594,-7772.162391,-459.657299
22173.671538,-666.185348,-9030.512492,-2451.505594
22173.671871,-1184.329507,-9548.656652,-1225.752797
22173.672205,-5329.482782,-12509.480420,1149.143247
22173.672538,-2516.700203,-7550.100608,-2451.505594
22173.672872,-2886.803174,-8882.471304,-689.485948
22173.673205,-1998.556043,-5847.626942,-3217.601092
22173.673539,-1924.535449,-12953.603985,1685.410096
22173.673872,1628.453072,-5921.647536,2374.896044
22173.674206,1776.494261,-8808.450710,5286.058936
22173.674539,1184.329507,-7179.997637,1532.190996
22173.674873,7624.121203,-9474.636058,3600.648841
22173.675206,2886.803174,-9548.656652,612.876398
22173.675540,2590.720797,-10066.800811,1149.143247
22173.675873,2294.638420,-12435.459826,-689.485948
22173.676206,-2516.700203,-12731.542202,-1915.238745
22173.676540,-370.102971,-8586.388927,-4519.963438
22173.676873,-3923.091493,-12509.480420,-4519.963438
22173.677207,-1258.350101,-10658.965565,-76.609550
22173.677540,-4737.318029,-6587.832884,612.876398
22173.677874,-3256.906145,-8364.327145,1532.190996
22173.678207,2294.638420,-5625.565159,3983.696590
22173.678541,2368.659014,-2738.761985,4290.134789
22173.678874,3478.967927,-8956.491898,4443.353888
22173.679208,4811.338623,-7105.977043,2068.457845
22173.679541,2368.659014,-10140.821405,0.000000
22173.679875,1998.556043,-11177.109724,766.095498
22173.680208,222.061783,-10510.924376,-5286.058936
22173.680542,-1776.494261,-11917.315666,-2528.115143
22173.680875,-666.185348,-13027.624579,-1302.362347
22173.681208,-1258.350101,-9474.636058,-6511.811733
22173.681542,-3552.988522,-7179.997637,-1838.629195
22173.681875,-74.020594,-10066.800811,229.828649
22173.682209,3923.091493,-4515.256246,4443.353888
22173.682542,1184.329507,-9030.512492,9193.145976
22173.682876,2590.720797,-3182.885551,3064.381992
22173.683209,4071.132681,-7179.997637,3064.381992
22173.683543,-1036.288319,-8808.450710,842.705048
22173.683876,2812.782580,-8142.265362,1149.143247
22173.684210,-3997.112087,-9622.677246,-2374.896044
22173.684543,2220.617826,-11843.295072,-76.609550
22173.684877,-4811.338623,-10658.965565,-5056.230287
22173.685210,-2368.659014,-9548.656652,-4903.011187
22173.685543,-6513.812290,-12731.542202,-5286.058936
22173.685877,-2738.761985,-12583.501014,-2757.943793
22173.686210,296.082377,-7179.997637,4290.134789
22173.686544,-74.020594,-8142.265362,5132.839837
22173.686877,5773.606348,-3775.050304,5515.887586
22173.687211,518.144159,-8512.368333,4060.306139
22173.687544,7624.121203,-6513.812290,4519.963438
22173.687878,2294.638420,-9474.636058,1762.019645
22173.688211,3552.988522,-8882.471304,2374.896044
22173.688545,-2442.679609,-15100.201217,-689.485948
22173.688878,-2590.720797,-8956.491898,-6128.763984
22173.689212,-1258.350101,-12583.501014,-1302.362347
22173.689545,-4737.318029,-11917.315666,-1762.019645
22173.689878,740.205942,-3923.091493,-2987.772442
22173.690212,-7402.059420,-15692.365970,459.657299
22173.690545,-1776.494261,-3034.844362,153.219100
22173.690879,-370.102971,-4811.338623,0.000000
22173.691212,4885.359217,-9474.636058,7890.783629
22173.691546,4959.379811,-3849.070898,3677.258390
22173.691879,0.000000,-7179.997637,3983.696590
22173.692213,1998.556043,-8290.306550,-76.609550
22173.692546,-2368.659014,-10436.903782,-2757.943793
22173.692880,296.082377,-11473.192101,-1915.238745
22173.693213,-1628.453072,-11843.295072,-3447.429741
22173.693547,148.041188,-9548.656652,-3983.696590
22173.693880,-4737.318029,-11917.315666,-1838.629195
22173.694214,4663.297435,-12435.459826,1149.143247
22173.694547,4367.215058,-9622.677246,2451.505594
22173.694880,3256.906145,-8808.450710,8886.707777
22173.695214,5033.400406,-5403.503377,3677.258390
22173.695547,1184.329507,-6735.874072,5132.839837
22173.695881,518.144159,-6069.688724,-1302.362347
22173.696214,740.205942,-8956.491898,1532.190996
22173.696548,-74.020594,-8290.306550,-1608.800546
22173.696881,-2368.659014,-13175.665768,-1302.362347
22173.697215,-3775.050304,-5995.668130,-5515.887586
22173.697548,-5329.482782,-8364.327145,-6741.640382
22173.697882,-370.102971,-14211.954086,-1608.800546
22173.698215,1184.329507,-9844.739029,0.000000
22173.698549,2294.638420,-11843.295072,4213.525239
22173.698882,-518.144159,-7328.038826,4826.401637
22173.699215,2960.823768,-5625.565159,3294.210641
22173.699549,4663.297435,-7105.977043,1149.143247
22173.699882,7105.977043,-9178.553681,6358.592633
22173.700216,3182.885551,-8512.368333,1072.533697
22173.700549,-444.123565,-11843.295072,-995.924147
22173.700883,-4293.194464,-9104.533087,-5209.449386
22173.701216,-1850.514855,-13027.624579,-5592.497135
22173.701550,0.000000,-7476.080014,0.000000
22173.701883,-74.020594,-13027.624579,-76.609550
22173.702217,1406.391290,-9400.615463,612.876398
22173.702550,592.164754,-8364.327145,6128.763984
22173.702884,3478.967927,-7550.100608,2987.772442
22173.703217,4959.379811,-8290.306550,3907.087040
22173.703551,1554.432478,-10436.903782,6894.859482
22173.703884,1776.494261,-3182.885551,1991.848295
22173.704217,-1110.308913,-5699.585753,-1149.143247
22173.704551,-4589.276840,-11769.274478,-4366.744339
22173.704884,-3627.009116,-10658.965565,-4673.182538
22173.705218,-4737.318029,-7772.162391,-4596.572988
22173.705551,1480.411884,-13027.624579,-76.609550
22173.705885,-3627.009116,-8364.327145,-2451.505594
22173.706218,1702.473667,-9400.615463,1149.143247
22173.706552,2072.576638,-8808.450710,4903.011187
22173.706885,6439.791695,-7254.018232,5439.278036
22173.707219,4737.318029,-8364.327145,5515.887586
22173.707552,5403.503377,-12731.542202,4826.401637
22173.707886,-2442.679609,-9178.553681,-3370.820191
22173.708219,-4145.153275,-8364.327145,-3677.258390
22173.708552,0.000000,-11843.295072,-3140.991542
22173.708886,592.164754,-7179.997637,-1991.848295
22173.709219,-740.205942,-13619.789333,2604.724693
22173.709553,-2664.741391,-6291.750507,-1915.238745
22173.709886,-2516.700203,-10288.862594,-1302.362347
22173.710220,-1258.350101,-12435.459826,2374.896044
22173.710553,5255.462188,-6513.812290,3294.210641
22173.710887,0.000000,-7179.997637,5515.887586
22173.711220,4071.132681,-7105.977043,3600.648841
22173.711554,1702.473667,-7105.977043,1149.143247
22173.711887,0.000000,-8364.327145,-153.219100
22173.712221,2294.638420,-12953.603985,-1762.019645
22173.712554,-4071.132681,-11991.336260,-3294.210641
22173.712887,-3701.029710,-11029.068536,-5592.497135
22173.713221,-3330.926739,-10510.924376,-1302.362347
22173.713554,-888.247130,-9030.512492,-3524.039291
22173.713888,-370.102971,-9992.780217,2681.334243
22173.714221,2886.803174,-8216.285956,3294.210641
22173.714555,2960.823768,-4811.338623,5669.106685
22173.714888,0.000000,-7179.997637,5515.887586
22173.715222,5181.441594,-6217.729913,4213.525239
22173.715555,2886.803174,-9474.636058,2374.896044
22173.715889,592.164754,-6587.832884,-2145.067394
22173.716222,0.000000,-11843.295072,1149.143247
22173.716556,-4441.235652,-8956.491898,-2451.505594
22173.716889,-1110.308913,-10066.800811,-6588.421283
22173.717223,-4219.173869,-10658.965565,-3140.991542
22173.717556,-1184.329507,-11325.150913,-4443.353888
22173.717889,-666.185348,-9400.615463,-1225.752797
22173.718223,2294.638420,-11843.295072,-76.609550
22173.718556,1036.288319,-9104.533087,2757.943793
22173.718890,1776.494261,-5403.503377,8580.269578
22173.719223,5181.441594,-6587.832884,4903.011187
22173.719557,3923.091493,-7476.080014,5056.230287
22173.719890,5773.606348,-5107.421000,2911.162892
22173.720224,-1480.411884,-12213.398043,0.000000
22173.720557,1998.556043,-7698.141797,-2528.115143
22173.720891,-2960.823768,-13101.645173,-1838.629195
22173.721224,-1776.494261,-6143.709319,-5822.325785
22173.721558,0.000000,-10732.986159,-3370.820191
22173.721891,-666.185348,-14211.954086,-2528.115143
22173.722224,-74.020594,-9178.553681,-1455.581446
22173.722558,-1628.453072,-11843.295072,-76.609550
22173.722891,2368.659014,-5921.647536,4290.134789
22173.723225,-1776.494261,-9548.656652,3753.867940
22173.723558,5033.400406,-5033.400406,7124.688131
22173.723892,1406.391290,-6439.791695,6052.154434
22173.724225,1554.432478,-3923.091493,1225.752797
22173.724559,-2368.659014,-7179.997637,0.000000
22173.724892,-2146.597232,-15396.283594,-3140.991542
22173.725226,74.020594,-7254.018232,-5898.935335
22173.725559,-3478.967927,-13471.748144,-4826.401637
22173.725893,-1924.535449,-9696.697840,-4749.792088
22173.726226,-3775.050304,-11325.150913,-4826.401637
22173.726559,666.185348,-13175.665768,1991.848295
22173.726893,2886.803174,-8882.471304,4826.401637
22173.727226,2368.659014,-7179.997637,8503.660028
22173.727560,5551.544565,-6513.812290,8503.660028
22173.727893,2294.638420,-2886.803174,1838.629195
22173.728227,2368.659014,-3034.844362,3677.258390
22173.728560,-1258.350101,-9474.636058,1762.019645
22173.728894,-1110.308913,-6957.935855,-3907.087040
22173.729227,-2664.741391,-10288.862594,-2145.067394
22173.729561,-2442.679609,-8290.306550,-5592.497135
22173.729894,-4811.338623,-11843.295072,-7431.126331
22173.730228,-4293.194464,-12287.418637,-3830.477490
22173.730561,-1480.411884,-11843.295072,-2298.286494
22173.730895,-222.061783,-12953.603985,3677.258390
22173.731228,3552.988522,-5551.544565,5515.887586
22173.731561,4515.256246,-8290.306550,5439.278036
22173.731895,4145.153275,-3627.009116,4903.011187
22173.732228,3849.070898,-5107.421000,4826.401637
22173.732562,2294.638420,-11103.089130,1762.019645
22173.732895,148.041188,-4811.338623,-2451.505594
22173.733229,-2368.659014,-12139.377449,-3753.867940
22173.733562,-592.164754,-9770.718434,-2528.115143
22173.733896,0.000000,-9992.780217,-4060.306139
22173.734229,-666.185348,-14211.954086,-3140.991542
22173.734563,2294.638420,-11251.130318,-1302.362347
22173.734896,0.000000,-12509.480420,2374.896044
22173.735230,3478.967927,-11103.089130,6971.469032
22173.735563,2294.638420,-5699.585753,1532.190996
22173.735896,3552.988522,-7179.997637,8350.440928
22173.736230,1184.329507,-6069.688724,3677.258390
22173.736563,-962.267725,-7476.080014,1149.143247
22173.736897,-2368.659014,-7179.997637,-4213.525239
22173.737230,-2590.720797,-10140.821405,-4060.306139
22173.737563,370.102971,-9400.615463,-842.705048
22173.737897,-4737.318029,-8364.327145,-3370.820191
22173.738230,-1036.288319,-10658.965565,-2528.115143
22173.738564,-74.020594,-13027.624579,-1915.238745
22173.738897,1776.494261,-11917.315666,3064.381992
22173.739230,4145.153275,-7698.141797,5515.887586
22173.739564,4663.297435,-9178.553681,5898.935335
22173.739897,2368.659014,-6143.709319,3677.258390
22173.740231,6069.688724,-6883.915261,5515.887586
22173.740564,518.144159,-8068.244768,-1225.752797
22173.740897,-74.020594,-11251.130318,-76.609550
22173.741231,-1258.350101,-8882.471304,-6358.592633
22173.741564,-6513.812290,-8364.327145,-2451.505594
22173.741898,-148.041188,-9474.636058,-1149.143247
22173.742231,-1184.329507,-9622.677246,-76.609550
22173.742564,-444.123565,-9252.574275,689.485948
22173.742898,1110.308913,-9474.636058,1455.581446
22173.743231,4663.297435,-8290.306550,4826.401637
22173.743565,0.000000,-7476.080014,5822.325785
22173.743898,5847.626942,-9178.553681,1455.581446
22173.744231,1184.329507,-7179.997637,0.000000
22173.744565,0.000000,-10732.986159,1149.143247
22173.744898,740.205942,-9474.636058,-3064.381992
22173.745232,-2664.741391,-11399.171507,-2221.676944
22173.745565,-2516.700203,-9770.718434,-3140.991542
22173.745898,-888.247130,-9178.553681,-1072.533697
22173.746232,-370.102971,-9474.636058,-1915.238745
22173.746565,592.164754,-10140.821405,2528.115143
22173.746899,2368.659014,-7772.162391,7354.516781
22173.747232,4737.318029,-5255.462188,4519.963438
22173.747565,2886.803174,-10362.883188,5898.935335
22173.747899,4663.297435,-6513.812290,-76.609550
22173.748232,0.000000,-10140.821405,919.314598
22173.748566,-2442.679609,-11843.295072,-4979.620737
22173.748899,-4737.318029,-11325.150913,-4290.134789
22173.749232,-4811.338623,-13323.706956,-3753.867940
22173.749566,-3182.885551,-9474.636058,-2528.115143
22173.749899,-4737.318029,-10807.006753,-995.924147
22173.750233,-888.247130,-5921.647536,-76.609550
22173.750566,1998.556043,-8586.388927,2528.115143
22173.750899,3034.844362,-6291.750507,6205.373534
22173.751233,4737.318029,-5995.668130,7354.516781
22173.751566,3478.967927,-10658.965565,4826.401637
22173.751900,5255.462188,-4441.235652,0.000000
22173.752233,296.082377,-11917.315666,0.000000
22173.752566,4663.297435,-10362.883188,-1915.238745
22173.752900,-2812.782580,-12879.583391,-4060.306139
22173.753233,-2368.659014,-10140.821405,-5439.278036
22173.753566,-4293.194464,-12583.501014,-1608.800546
22173.753900,-3552.988522,-8364.327145,-1838.629195
22173.754233,-4737.318029,-9548.656652,2681.334243
22173.754567,-3627.009116,-6217.729913,0.000000
22173.754900,296.082377,-3034.844362,2451.505594
22173.755233,3552.988522,-1258.350101,7890.783629
22173.755567,1924.535449,-5995.668130,3983.696590
22173.755900,2738.761985,-6735.874072,2221.676944
22173.756234,4219.173869,-10732.986159,1225.752797
22173.756567,814.226536,-11251.130318,-3294.210641
22173.756900,-74.020594,-14211.954086,-4979.620737
22173.757234,-3997.112087,-14582.057057,-4979.620737
22173.757567,-74.020594,-11843.295072,-6818.249932
22173.757901,148.041188,-9844.739029,306.438199
22173.758234,1184.329507,-10732.986159,3983.696590
22173.758567,3775.050304,-8512.368333,4826.401637
22173.758901,2886.803174,-5847.626942,2987.772442
22173.759234,3552.988522,-10214.842000,4826.401637
22173.759568,3775.050304,-7105.977043,9729.412825
22173.759901,1184.329507,-3627.009116,1532.190996
22173.760234,4071.132681,-9326.594869,1608.800546
22173.760568,0.000000,-5995.668130,-3677.258390
22173.760901,0.000000,-10881.027347,-2528.115143
22173.761235,-3627.009116,-11843.295072,-5286.058936
22173.761568,-2738.761985,-12805.562797,-5132.839837
22173.761901,-5699.585753,-14137.933492,-2451.505594
22173.762235,-3923.091493,-8364.327145,-3294.210641
22173.762568,-1998.556043,-8586.388927,-1149.143247
22173.762902,444.123565,-4959.379811,1072.533697
22173.763235,5551.544565,-9178.553681,6358.592633
22173.763568,5033.400406,-4293.194464,7277.907231
22173.763902,1554.432478,-9548.656652,5056.230287
22173.764235,2664.741391,-6809.894666,2834.553343
22173.764569,1110.308913,-7105.977043,-76.609550
22173.764902,-74.020594,-15396.283594,-1302.362347
22173.765235,-2072.576638,-7179.997637,-2451.505594
22173.765569,-2442.679609,-13619.789333,-2145.067394
22173.765902,-1776.494261,-11843.295072,-2451.505594
22173.766236,-4145.153275,-10140.821405,-1225.752797
22173.766569,-2590.720797,-10214.842000,-2221.676944
22173.766902,-3108.864956,-8364.327145,-306.438199
22173.767236,-1850.514855,-7550.100608,689.485948
22173.767569,1184.329507,-4811.338623,1225.752797
22173.767903,1110.308913,-7402.059420,3830.477490
22173.768236,2072.576638,-3627.009116,4903.011187
22173.768569,3108.864956,-9178.553681,4519.963438
22173.768903,2294.638420,-11251.130318,2374.896044
22173.769236,148.041188,-6587.832884,-766.095498
22173.769570,-2294.638420,-11547.212695,-3677.258390
22173.769903,-518.144159,-11917.315666,-1838.629195
22173.770236,-1776.494261,-9474.636058,-5439.278036
22173.770570,-74.020594,-15618.345376,-1302.362347
22173.770903,1110.308913,-6587.832884,-3064.381992
22173.771236,1184.329507,-10288.862594,2451.505594
22173.771570,6439.791695,-7105.977043,4519.963438
22173.771903,1332.370696,-5995.668130,2451.505594
22173.772237,5847.626942,-5921.647536,5745.716235
22173.772570,3256.906145,-8586.388927,5132.839837
22173.772903,2072.576638,-7772.162391,229.828649
22173.773237,0.000000,-9548.656652,-3600.648841
22173.773570,-3034.844362,-12435.459826,-2528.115143
22173.773904,-4737.318029,-7179.997637,-4290.134789
22173.774237,-3034.844362,-11843.295072,-1915.238745
22173.774570,-3034.844362,-11843.295072,-4979.620737
22173.774904,0.000000,-4811.338623,0.000000
22173.775237,1110.308913,-11251.130318,3600.648841
22173.775571,592.164754,-7772.162391,4060.306139
22173.775904,1850.514855,-8290.306550,4366.744339
22173.776237,3997.112087,-5773.606348,4443.353888
22173.776571,6439.791695,-7105.977043,2987.772442
22173.776904,1924.535449,-12657.521608,3064.381992
22173.777238,1184.329507,-8068.244768,-1532.190996
22173.777571,-4737.318029,-12065.356855,-5056.230287
22173.777904,-2960.823768,-10732.986159,0.000000
22173.778238,-1258.350101,-11103.089130,-3140.991542
22173.778571,-1332.370696,-8660.409521,0.000000
22173.778905,-2960.823768,-7772.162391,1838.629195
22173.779238,1110.308913,-9474.636058,2987.772442
22173.779571,2664.741391,-3627.009116,4060.306139
22173.779905,2590.720797,-10881.027347,5286.058936
22173.780238,4737.318029,-6587.832884,4136.915689
22173.780572,-1776.494261,-9178.553681,919.314598
22173.780905,-74.020594,-9474.636058,-2528.115143
22173.781238,-2442.679609,-10658.965565,-3753.867940
22173.781572,-4737.318029,-10732.986159,-3677.258390
22173.781905,-74.020594,-11251.130318,-76.609550
22173.782239,-666.185348,-11251.130318,-76.609550
22173.782572,-666.185348,-9770.718434,612.876398
22173.782905,-74.020594,-5625.565159,0.000000
22173.783239,2294.638420,-7105.977043,2221.676944
22173.783572,3701.029710,-8956.491898,4136.915689
22173.783906,3108.864956,-6365.771101,2987.772442
22173.784239,5403.503377,-11251.130318,3600.648841
22173.784572,296.082377,-8364.327145,2451.505594
22173.784906,4663.297435,-8882.471304,-1302.362347
22173.785239,-3256.906145,-13323.706956,-6052.154434
22173.785573,-3330.926739,-13027.624579,-3753.867940
22173.785906,-2072.576638,-8956.491898,-3524.039291
22173.786239,-3775.050304,-12287.418637,0.000000
22173.786573,814.226536,-4959.379811,1302.362347
22173.786906,-2368.659014,-8364.327145,1225.752797
22173.787240,2294.638420,-6365.771101,2604.724693
22173.787573,3775.050304,-7105.977043,6052.154434
22173.787906,2294.638420,-9474.636058,2374.896044
22173.788240,3552.988522,-4811.338623,3983.696590
22173.788573,-2368.659014,-10732.986159,1225.752797
22173.788907,2072.576638,-8290.306550,-1608.800546
22173.789240,-3108.864956,-12805.562797,-4290.134789
22173.789573,-74.020594,-11547.212695,-5822.325785
22173.789907,-1258.350101,-15988.448347,-842.705048
22173.790240,-2368.659014,-7179.997637,0.000000
22173.790573,-74.020594,-12435.459826,-229.828649
22173.790907,0.000000,-6365.771101,995.924147
22173.791240,2368.659014,-5995.668130,4366.744339
22173.791574,3775.050304,-9030.512492,6358.592633
22173.791907,5921.647536,-4293.194464,7584.345430
22173.792240,2886.803174,-7846.182985,4826.401637
22173.792574,2738.761985,-8068.244768,2374.896044
22173.792907,1110.308913,-8882.471304,-1302.362347
22173.793241,-4145.153275,-11325.150913,-7967.393179
22173.793574,-3478.967927,-14211.954086,-4979.620737
22173.793907,-5699.585753,-10658.965565,-6281.983084
22173.794241,-2368.659014,-13619.789333,-2528.115143
22173.794574,-74.020594,-9474.636058,3600.648841
22173.794908,1184.329507,-5699.585753,2757.943793
22173.795241,0.000000,-4219.173869,7277.907231
22173.795574,4071.132681,-6513.812290,2757.943793
22173.795908,296.082377,-7772.162391,3064.381992
22173.796241,2516.700203,-11103.089130,3907.087040
22173.796575,4071.132681,-6587.832884,2298.286494
22173.796908,814.226536,-11769.274478,-842.705048
22173.797241,3182.885551,-9030.512492,-2528.115143
22173.797575,-3034.844362,-12435.459826,-4366.744339
22173.797908,-2886.803174,-10140.821405,-4903.011187
22173.798242,-74.020594,-13027.624579,-689.485948
22173.798575,-74.020594,-12731.542202,-2528.115143
22173.798908,0.000000,-10288.862594,612.876398
22173.799242,1702.473667,-8290.306550,5898.935335
22173.799575,2516.700203,-6513.812290,4443.353888
22173.799909,2516.700203,-4663.297435,7277.907231
22173.800242,-740.205942,-6365.771101,1608.800546
22173.800575,592.164754,-5995.668130,0.000000
22173.800909,-4737.318029,-6587.832884,0.000000
22173.801242,-1554.432478,-14211.954086,-4060.306139
22173.801576,-2886.803174,-9474.636058,-3753.867940
22173.801909,-5921.647536,-10140.821405,-4903.011187
22173.802242,222.061783,-9104.533087,-3370.820191
22173.802576,-2738.761985,-12065.356855,-3753.867940
22173.802909,3923.091493,-10881.027347,2681.334243
22173.803243,148.041188,-7846.182985,1378.971896
22173.803576,7179.997637,-7920.203579,7354.516781
22173.803909,0.000000,-8956.491898,5745.716235
22173.804243,7031.956449,-5921.647536,2451.505594
22173.804576,1332.370696,-8660.409521,5515.887586
22173.804910,3404.947333,-7402.059420,3907.087040
22173.805243,1184.329507,-6587.832884,1838.629195
22173.805576,-4737.318029,-10214.842000,-3600.648841
22173.805910,-518.144159,-9770.718434,-2298.286494
22173.806243,-5847.626942,-10436.903782,-5975.544884
22173.806577,-1850.514855,-10658.965565,-2834.553343
22173.806910,-666.185348,-9474.636058,-3140.991542
22173.807243,-2812.782580,-10732.986159,-3370.820191
22173.807577,592.164754,-7698.141797,4826.401637
22173.807910,1554.432478,-6883.915261,2757.943793
22173.808243,2368.659014,-7179.997637,7814.174080
22173.808577,4293.194464,-2146.597232,2757.943793
22173.808910,444.123565,-9844.739029,0.000000
22173.809244,3849.070898,-9474.636058,2221.676944
22173.809577,-2886.803174,-11547.212695,-3217.601092
22173.809910,370.102971,-10658.965565,-4060.306139
22173.810244,-370.102971,-12213.398043,-1532.190996
22173.810577,-2442.679609,-11177.109724,-2451.505594
22173.810911,1110.308913,-9178.553681,-1762.019645
22173.811244,-74.020594,-11695.253884,1149.143247
22173.811577,0.000000,-8364.327145,4673.182538
22173.811911,4589.276840,-7846.182985,4826.401637
22173.812244,2664.741391,-7179.997637,3983.696590
22173.812578,0.000000,-7179.997637,3677.258390
22173.812911,1776.494261,-5107.421000,1838.629195
22173.813244,444.123565,-9474.636058,-229.828649
22173.813578,-3701.029710,-10436.903782,-2374.896044
22173.813911,-4737.318029,-9252.574275,-3983.696590
22173.814245,-7994.224174,-9548.656652,-5822.325785
22173.814578,-2442.679609,-8290.306550,-3753.867940
22173.814911,-74.020594,-11251.130318,-2834.553343
22173.815245,1184.329507,-8660.409521,6894.859482
22173.815578,4663.297435,-7105.977043,6052.154434
22173.815912,3849.070898,-7476.080014,5515.887586
22173.816245,3034.844362,-10510.924376,4290.134789
22173.816578,4367.215058,-8808.450710,2374.896044
22173.816912,3404.947333,-8882.471304,842.705048
22173.817245,1480.411884,-12361.439231,0.000000
22173.817579,-666.185348,-9178.553681,-6205.373534
22173.817912,-3552.988522,-11325.150913,-3677.258390
22173.818245,-2220.617826,-10658.965565,-1302.362347
22173.818579,-2442.679609,-8290.306550,-3294.210641
22173.818912,-1184.329507,-8216.285956,995.924147
22173.819246,0.000000,-5921.647536,1532.190996
22173.819579,1850.514855,-7402.059420,3907.087040
22173.819912,3330.926739,-7105.977043,3600.648841
22173.820246,5255.462188,-10362.883188,4826.401637
22173.820579,4367.215058,-8068.244768,919.314598
22173.820913,3108.864956,-7328.038826,3907.087040
22173.821246,2886.803174,-9474.636058,-6818.249932
22173.821579,-2294.638420,-15840.407159,-3677.258390
22173.821913,888.247130,-7698.141797,-5286.058936
22173.822246,-2812.782580,-15618.345376,-1225.752797
22173.822580,74.020594,-10436.903782,0.000000
22173.822913,-740.205942,-9178.553681,-76.609550
22173.823246,-74.020594,-11251.130318,2374.896044
22173.823580,4145.153275,-4293.194464,5515.887586
22173.823913,3182.885551,-4811.338623,4136.915689
22173.824247,4959.379811,-7772.162391,6971.469032
22173.824580,1184.329507,-4811.338623,4903.011187
22173.824913,0.000000,-9400.615463,1455.581446
22173.825247,-74.020594,-10955.047942,-2374.896044
22173.825580,-2960.823768,-9548.656652,-6741.640382
22173.825913,-4589.276840,-14211.954086,-7431.126331
22173.826247,-5255.462188,-12657.521608,-4060.306139
22173.826580,-4737.318029,-11843.295072,-1838.629195
22173.826914,-4663.297435,-9104.533087,1225.752797
22173.827247,2516.700203,-5329.482782,3907.087040
22173.827580,4293.194464,-6513.812290,8273.831378
22173.827914,4145.153275,-8216.285956,11568.042020
22173.828247,518.144159,-4811.338623,4903.011187
22173.828581,2072.576638,-9326.594869,5515.887586
22173.828914,3182.885551,-8882.471304,-76.609550
22173.829247,2368.659014,-7920.203579,-2451.505594
22173.829581,-3627.009116,-14508.036463,-4826.401637
22173.829914,-3478.967927,-12287.418637,-6665.030833
22173.830248,-5329.482782,-13027.624579,-4673.182538
22173.830581,-1850.514855,-11251.130318,-1302.362347
22173.830914,-296.082377,-9030.512492,1149.143247
22173.831248,0.000000,-5995.668130,1838.629195
22173.831581,2294.638420,-9178.553681,4213.525239
22173.831915,1110.308913,-4441.235652,2068.457845
22173.832248,4219.173869,-7105.977043,4826.401637
22173.832581,1702.473667,-8512.368333,2757.943793
22173.832915,3256.906145,-8660.409521,2528.115143
22173.833248,296.082377,-9178.553681,-689.485948
22173.833582,-3552.988522,-10732.986159,-4290.134789
22173.833915,-74.020594,-10955.047942,-4366.744339
22173.834248,-2072.576638,-10732.986159,-4903.011187
22173.834582,0.000000,-12657.521608,689.485948
22173.834915,518.144159,-7698.141797,-1149.143247
22173.835249,0.000000,-11325.150913,612.876398
22173.835582,5255.462188,-3478.967927,3447.429741
22173.835915,1924.535449,-10510.924376,3830.477490
22173.836249,3034.844362,-6513.812290,3140.991542
22173.836582,3478.967927,-9178.553681,4213.525239
22173.836915,-370.102971,-6587.832884,0.000000
22173.837249,4663.297435,-9474.636058,2374.896044
22173.837582,-962.267725,-9474.636058,-2834.553343
22173.837915,-4145.153275,-14285.974681,-2451.505594
22173.838248,-3849.070898,-6291.750507,-5515.887586
22173.838582,0.000000,-12213.398043,-612.876398
22173.838915,-74.020594,-12435.459826,1608.800546
22173.839248,4441.235652,-7476.080014,4519.963438
22173.839581,-814.226536,-11251.130318,4213.525239
22173.839915,1036.288319,-5995.668130,3064.381992
22173.840248,-3330.926739,-8734.430116,1685.410096
22173.840581,5033.400406,-3849.070898,3830.477490
22173.840915,1110.308913,-9030.512492,2451.505594
22173.841248,2960.823768,-9992.780217,2451.505594
22173.841581,962.267725,-6661.853478,-1991.848295
22173.841914,-7105.977043,-14285.974681,-383.047749
22173.842248,-74.020594,-9474.636058,-5745.716235
22173.842581,-3552.988522,-11917.315666,-1378.971896
22173.842914,592.164754,-8660.409521,-76.609550
22173.843248,-2220.617826,-11325.150913,2451.505594
22173.843581,1924.535449,-6217.729913,1149.143247
22173.843914,1924.535449,-9252.574275,3600.648841
22173.844247,2886.803174,-8290.306550,3600.648841
22173.844581,2146.597232,-6291.750507,3217.601092
22173.844914,-2812.782580,-10732.986159,0.000000
22173.845247,4071.132681,-7105.977043,-76.609550
22173.845580,-4367.215058,-11251.130318,-2298.286494
22173.845914,1776.494261,-9474.636058,-689.485948
22173.846247,-4737.318029,-9400.615463,-1608.800546
22173.846580,-2442.679609,-10436.903782,-4519.963438
22173.846914,-1702.473667,-8734.430116,-536.266849
22173.847247,-1184.329507,-7772.162391,-1225.752797
22173.847580,1110.308913,-3627.009116,2451.505594
22173.847913,3182.885551,-8882.471304,2374.896044
22173.848247,3849.070898,-7994.224174,842.705048
22173.848580,0.000000,-9548.656652,3217.601092
22173.848913,4071.132681,-9326.594869,-1455.581446
22173.849247,814.226536,-9326.594869,995.924147
22173.849580,-1184.329507,-11325.150913,-2757.943793
22173.849913,1258.350101,-7031.956449,-2604.724693
22173.850246,-4737.318029,-15026.180623,-1225.752797
22173.850580,1776.494261,-6661.853478,-1302.362347
22173.850913,-74.020594,-11843.295072,-1455.581446
22173.851246,-1776.494261,-9548.656652,2451.505594
22173.851579,2960.823768,-5699.585753,6971.469032
22173.851913,1110.308913,-6513.812290,2451.505594
22173.852246,5033.400406,-5329.482782,2604.724693
22173.852579,1702.473667,-8660.409521,3600.648841
22173.852913,1776.494261,-9622.677246,2221.676944
22173.853246,2368.659014,-6069.688724,1378.971896
22173.853579,-1258.350101,-13619.789333,-3753.867940
22173.853912,814.226536,-12139.377449,-4826.401637
22173.854246,-1110.308913,-11769.274478,-1149.143247
22173.854579,-2812.782580,-11843.295072,-5592.497135
22173.854912,0.000000,-7179.997637,-1685.410096
22173.855246,-7105.977043,-9548.656652,-1072.533697
22173.855579,4663.297435,-8882.471304,4826.401637
22173.855912,2294.638420,-7994.224174,7124.688131
22173.856245,3478.967927,-4441.235652,4213.525239
22173.856579,4293.194464,-8882.471304,5898.935335
22173.856912,2886.803174,-4811.338623,4903.011187
22173.857245,1184.329507,-9400.615463,1991.848295
22173.857578,0.000000,-8216.285956,-459.657299
22173.857912,-4145.153275,-9548.656652,-8886.707777
22173.858245,-4811.338623,-17764.942608,-7431.126331
22173.858578,-3034.844362,-8512.368333,-6128.763984
22173.858912,-5773.606348,-12805.562797,-3677.258390
22173.859245,-74.020594,-11843.295072,-76.609550
22173.859578,592.164754,-9326.594869,2681.334243
22173.859911,1480.411884,-7179.997637,9806.022374
22173.860245,4071.132681,592.164754,6741.640382
22173.860578,2960.823768,-8364.327145,4749.792088
22173.860911,6809.894666,-7402.059420,9116.536426
22173.861245,370.102971,-6587.832884,0.000000
22173.861578,0.000000,-9548.656652,612.876398
22173.861911,-3034.844362,-11843.295072,-7431.126331
22173.862244,-5625.565159,-10732.986159,-9806.022374
22173.862578,-3034.844362,-14211.954086,-4979.620737
22173.862911,-2738.761985,-11547.212695,-4979.620737
22173.863244,-2146.597232,-12509.480420,0.000000
22173.863578,1702.473667,-8290.306550,4979.620737
22173.863911,5255.462188,-5625.565159,6052.154434
22173.864244,0.000000,-4811.338623,7967.393179
22173.864577,7031.956449,-5921.647536,7277.907231
22173.864911,5847.626942,-3256.906145,1225.752797
22173.865244,2368.659014,-12509.480420,5209.449386
22173.865577,4663.297435,-5921.647536,0.000000
22173.865910,-4737.318029,-12879.583391,-4979.620737
22173.866244,-1332.370696,-8808.450710,-8427.050478
22173.866577,-5255.462188,-16950.716072,-5592.497135
22173.866910,-1110.308913,-9548.656652,-3677.258390
22173.867244,-4737.318029,-9548.656652,0.000000
22173.867577,1110.308913,-9474.636058,2068.457845
22173.867910,4737.318029,-4811.338623,2451.505594
22173.868243,5329.482782,-8216.285956,10955.165621
22173.868577,5847.626942,-3404.947333,3064.381992
22173.868910,1924.535449,-10881.027347,5745.716235
22173.869243,2886.803174,-8438.347739,2374.896044
22173.869577,814.226536,-6661.853478,-1915.238745
22173.869910,-2072.576638,-11917.315666,-3907.087040
22173.870243,-2442.679609,-9178.553681,-4903.011187
22173.870576,-3701.029710,-13175.665768,-4136.915689
22173.870910,666.185348,-9474.636058,-2374.896044
22173.871243,-1258.350101,-14211.954086,1762.019645
22173.871576,2294.638420,-7105.977043,536.266849
22173.871909,740.205942,-6587.832884,4903.011187
22173.872243,2368.659014,-8364.327145,8197.221829
22173.872576,3775.050304,-3552.988522,3600.648841
22173.872909,888.247130,-9252.574275,-1838.629195
22173.873243,1924.535449,-11177.109724,3064.381992
22173.873576,-888.247130,-5921.647536,-536.266849
22173.873909,0.000000,-12287.418637,-1991.848295
22173.874242,-814.226536,-9474.636058,-1608.800546
22173.874576,-3849.070898,-11843.295072,-5592.497135
22173.874909,-2368.659014,-10732.986159,919.314598
22173.875242,-370.102971,-8586.388927,-76.609550
22173.875576,-74.020594,-11843.295072,383.047749
22173.875909,1406.391290,-7105.977043,3600.648841
22173.876242,2590.720797,-6809.894666,1378.971896
22173.876575,-592.164754,-11399.171507,2221.676944
22173.876909,2886.803174,-6587.832884,2145.067394
22173.877242,-3256.906145,-8660.409521,612.876398
22173.877575,3478.967927,-8290.306550,0.000000
22173.877908,1184.329507,-9548.656652,1302.362347
22173.878242,-74.020594,-13027.624579,-1149.143247
22173.878575,-3552.988522,-7105.977043,-2681.334243
22173.878908,-4441.235652,-9844.739029,-2298.286494
22173.879242,-2368.659014,-8956.491898,-229.828649
22173.879575,2368.659014,-6957.935855,383.047749
22173.879908,962.267725,-11103.089130,3600.648841
22173.880241,5551.544565,-7105.977043,4826.401637
22173.880575,-2886.803174,-9548.656652,-1838.629195
22173.880908,4071.132681,-9474.636058,-76.609550
22173.881241,2294.638420,-10066.800811,-842.705048
22173.881575,0.000000,-11769.274478,2374.896044
22173.881908,-74.020594,-8882.471304,-689.485948
22173.882241,0.000000,-9992.780217,-689.485948
22173.882574,1332.370696,-7328.038826,1915.238745
22173.882908,1924.535449,-8734.430116,842.705048
22173.883241,2516.700203,-6957.935855,0.000000
22173.883574,-2368.659014,-10140.821405,3600.648841
22173.883907,4071.132681,-6587.832884,-2145.067394
22173.884241,0.000000,-7179.997637,0.000000
22173.884574,0.000000,-13841.851115,1149.143247
22173.884907,7031.956449,-7550.100608,995.924147
22173.885241,296.082377,-11251.130318,536.266849
22173.885574,2960.823768,-12139.377449,2987.772442
22173.885907,1628.453072,-6439.791695,1149.143247
22173.886240,-592.164754,-11621.233289,-1149.143247
22173.886574,-888.247130,-10881.027347,1149.143247
22173.886907,-1184.329507,-7550.100608,-612.876398
22173.887240,-3034.844362,-9030.512492,-1072.533697
22173.887574,444.123565,-7402.059420,612.876398
22173.887907,814.226536,-7994.224174,2374.896044
22173.888240,1776.494261,-5403.503377,2374.896044
22173.888573,1998.556043,-11843.295072,2374.896044
22173.888907,0.000000,-7476.080014,0.000000
22173.889240,0.000000,-12213.398043,2374.896044
22173.889573,3182.885551,-10658.965565,1149.143247
22173.889907,0.000000,-10066.800811,-76.609550
22173.890240,-592.164754,-8660.409521,-3217.601092
22173.890573,-370.102971,-11769.274478,-3830.477490
22173.890906,-5329.482782,-11917.315666,-1838.629195
22173.891240,-2368.659014,-7179.997637,0.000000
22173.891573,-2442.679609,-10066.800811,1149.143247
22173.891906,-74.020594,-3923.091493,689.485948
22173.892239,592.164754,-6143.709319,4826.401637
22173.892573,2294.638420,-4071.132681,1838.629195
22173.892906,3627.009116,-6809.894666,1149.143247
22173.893239,148.041188,-13249.686362,3677.258390
22173.893573,1332.370696,-8290.306550,0.000000
22173.893906,-2368.659014,-13323.706956,-2451.505594
22173.894239,-2368.659014,-11325.150913,-2528.115143
22173.894572,-1258.350101,-9548.656652,-6741.640382
22173.894906,-1184.329507,-11917.315666,0.000000
22173.895239,592.164754,-8586.388927,1762.019645
22173.895572,-4145.153275,-10140.821405,1532.190996
22173.895906,814.226536,-6513.812290,4596.572988
22173.896239,3775.050304,-5255.462188,5592.497135
22173.896572,5329.482782,-6587.832884,7354.516781
22173.896905,3182.885551,-7105.977043,4213.525239
22173.897239,3478.967927,-8290.306550,1149.143247
22173.897572,-1258.350101,-5995.668130,0.000000
22173.897905,2960.823768,-9844.739029,-995.924147
22173.898238,1702.473667,-14211.954086,-3140.991542
22173.898572,-666.185348,-10436.903782,-5439.278036
22173.898905,-6291.750507,-14285.974681,-8350.440928
22173.899238,-4071.132681,-10658.965565,-3447.429741
22173.899572,-2072.576638,-9844.739029,-1149.143247
22173.899905,2368.659014,-7179.997637,5515.887586
22173.900238,5847.626942,-3108.864956,5898.935335
22173.900571,3256.906145,-4515.256246,4903.011187
22173.900905,6439.791695,-9474.636058,6052.154434
22173.901238,3849.070898,-5403.503377,4903.011187
22173.901571,3478.967927,-10658.965565,3600.648841
22173.901905,1332.370696,-9844.739029,-842.705048
22173.902238,-1924.535449,-10658.965565,-5592.497135
22173.902571,-2664.741391,-12509.480420,-8427.050478
22173.902904,296.082377,-12509.480420,-6741.640382
22173.903238,-3034.844362,-16136.489536,-1378.971896
22173.903571,1702.473667,-6661.853478,-919.314598
22173.903904,-1924.535449,-11399.171507,2911.162892
22173.904237,2516.700203,-3478.967927,6511.811733
22173.904571,592.164754,-3627.009116,3983.696590
22173.904904,4663.297435,-4737.318029,6052.154434
22173.905237,592.164754,-3627.009116,2451.505594
22173.905571,-74.020594,-11251.130318,3600.648841
22173.905904,-74.020594,-8290.306550,-689.485948
22173.906237,-9178.553681,-13249.686362,-5898.935335
22173.906570,-6513.812290,-11029.068536,-6588.421283
22173.906904,-3923.091493,-12583.501014,-5669.106685
22173.907237,-2368.659014,-11769.274478,-4903.011187
22173.907570,2886.803174,-11547.212695,3907.087040
22173.907904,-4737.318029,-11325.150913,3677.258390
22173.908237,3552.988522,-74.020594,4903.011187
22173.908570,1776.494261,-12879.583391,8503.660028
22173.908903,4219.173869,-1850.514855,2451.505594
22173.909237,2072.576638,-7624.121203,5439.278036
22173.909570,-370.102971,-8068.244768,1608.800546
22173.909903,2294.638420,-7402.059420,-536.266849
22173.910236,-5773.606348,-9104.533087,-2451.505594
22173.910570,-1554.432478,-11843.295072,-6205.373534
22173.910903,-8290.306550,-9548.656652,-4903.011187
22173.911236,-1554.432478,-9030.512492,-3677.258390
22173.911570,962.267725,-12435.459826,-383.047749
22173.911903,-962.267725,-9252.574275,3064.381992
22173.912236,2294.638420,-7402.059420,1762.019645
22173.912569,5773.606348,-7994.224174,5745.716235
22173.912903,4737.318029,-7772.162391,4673.182538
22173.913236,5181.441594,-7105.977043,2451.505594
22173.913569,2960.823768,-9844.739029,612.876398
22173.913903,2368.659014,-11917.315666,1149.143247
22173.914236,2294.638420,-9474.636058,-3294.210641
22173.914569,0.000000,-10732.986159,0.000000
22173.914902,740.205942,-13027.624579,-76.609550
22173.915236,-1850.514855,-6143.709319,-3524.039291
22173.915569,2294.638420,-10955.047942,536.266849
22173.915902,3849.070898,-8882.471304,3064.381992
22173.916236,3034.844362,-10436.903782,6894.859482
22173.916569,6439.791695,-5921.647536,2987.772442
22173.916902,592.164754,-10214.842000,3140.991542
22173.917235,370.102971,-7550.100608,689.485948
22173.917569,-1258.350101,-8586.388927,-2298.286494
22173.917902,1998.556043,-10658.965565,-1302.362347
22173.918235,-1258.350101,-13619.789333,-2528.115143
22173.918568,-4145.153275,-10140.821405,0.000000
22173.918902,-1258.350101,-7698.141797,-76.609550
22173.919235,-3627.009116,-6587.832884,-6128.763984
22173.919568,-74.020594,-12879.583391,766.095498
22173.919902,3552.988522,-9474.636058,5439.278036
22173.920235,1036.288319,-9252.574275,4826.401637
22173.920568,3108.864956,-5477.523971,1838.629195
22173.920901,-444.123565,-11917.315666,1838.629195
22173.921235,0.000000,-8364.327145,919.314598
22173.921568,0.000000,-8364.327145,3677.258390
22173.921901,-666.185348,-12435.459826,-76.609550
22173.922235,-1258.350101,-11251.130318,-1915.238745
22173.922568,-4219.173869,-10362.883188,-1302.362347
22173.922901,-2442.679609,-9474.636058,-689.485948
22173.923234,-2368.659014,-5403.503377,919.314598
22173.923568,-4219.173869,-6513.812290,-689.485948
22173.923901,1036.288319,-7254.018232,-1455.581446
22173.924234,-74.020594,-11843.295072,5439.278036
22173.924567,4145.153275,-4293.194464,3064.381992
22173.924901,3478.967927,-12435.459826,2987.772442
22173.925234,1184.329507,-10140.821405,2451.505594
22173.925567,2960.823768,-9104.533087,459.657299
22173.925901,-1554.432478,-11325.150913,-2145.067394
22173.926234,0.000000,-10362.883188,-4826.401637
22173.926567,-3108.864956,-13471.748144,-919.314598
22173.926900,2294.638420,-7105.977043,1608.800546
22173.927234,-1998.556043,-5403.503377,0.000000
22173.927567,-74.020594,-9178.553681,-76.609550
22173.927900,1110.308913,-9474.636058,2068.457845
22173.928234,-666.185348,-6661.853478,3677.258390
22173.928567,7476.080014,-6143.709319,6665.030833
22173.928900,0.000000,-10732.986159,1685.410096
22173.929233,2812.782580,-6661.853478,-1685.410096
22173.929567,1628.453072,-12879.583391,-2911.162892
22173.929900,1110.308913,-13175.665768,0.000000
22173.930233,592.164754,-9548.656652,-2757.943793
22173.930566,-74.020594,-15988.448347,-2528.115143
22173.930900,592.164754,-5699.585753,-2451.505594
22173.931233,-4737.318029,-12657.521608,1762.019645
22173.931566,3478.967927,-7105.977043,1762.019645
22173.931900,-2072.576638,-8956.491898,3983.696590
22173.932233,-74.020594,-8216.285956,4826.401637
22173.932566,4145.153275,-1628.453072,5439.278036
22173.932899,1184.329507,-7624.121203,612.876398
22173.933233,2368.659014,-6587.832884,2451.505594
22173.933566,1036.288319,-10732.986159,842.705048
22173.933899,1776.494261,-9104.533087,-1838.629195
22173.934233,-3478.967927,-15174.221811,-4596.572988
22173.934566,-74.020594,-10658.965565,-5898.935335
22173.934899,-6217.729913,-14285.974681,-3064.381992
22173.935232,1850.514855,-8734.430116,-76.609550
22173.935566,-74.020594,-7105.977043,0.000000
22173.935899,-3404.947333,-9548.656652,2451.505594
22173.936232,4663.297435,-4145.153275,7890.783629
22173.936565,592.164754,-6809.894666,5592.497135
22173.936899,1480.411884,-9178.553681,8503.660028
22173.937232,4663.297435,-444.123565,4749.792088
22173.937565,-1776.494261,-10140.821405,0.000000
22173.937899,0.000000,-5995.668130,0.000000
22173.938232,-2442.679609,-12435.459826,-6971.469032
22173.938565,-4145.153275,-13027.624579,-6511.811733
22173.938898,-74.020594,-12435.459826,-4443.353888
22173.939232,-3552.988522,-12139.377449,-306.438199
22173.939565,-74.020594,-9474.636058,-2528.115143
22173.939898,-1850.514855,-8216.285956,-1838.629195
22173.940232,1702.473667,-7772.162391,3677.258390
22173.940565,2960.823768,-5995.668130,6435.202183
22173.940898,5181.441594,-3330.926739,7354.516781
22173.941231,4071.132681,-9474.636058,3600.648841
22173.941565,74.020594,-7772.162391,1225.752797
22173.941898,1480.411884,-10288.862594,-76.609550
22173.942231,1184.329507,-10288.862594,-2451.505594
22173.942565,370.102971,-11843.295072,-3064.381992
22173.942898,-3256.906145,-10881.027347,-3677.258390
22173.943231,-2146.597232,-9030.512492,-5515.887586
22173.943564,-5995.668130,-13619.789333,-5286.058936
22173.943898,0.000000,-10436.903782,1149.143247
22173.944231,-1554.432478,-9474.636058,1149.143247
22173.944564,1184.329507,-5107.421000,5209.449386
22173.944898,3923.091493,-5921.647536,6665.030833
22173.945231,2886.803174,-6809.894666,6052.154434
22173.945564,5847.626942,-2368.659014,2604.724693
22173.945897,-592.164754,-13471.748144,1302.362347
22173.946231,1998.556043,-9326.594869,-2528.115143
22173.946564,-3923.091493,-13545.768739,-3140.991542
22173.946897,1406.391290,-10362.883188,-2834.553343
22173.947230,-2368.659014,-11917.315666,-3677.258390
22173.947564,148.041188,-12435.459826,-76.609550
22173.947897,-74.020594,-8290.306550,-2757.943793
22173.948230,-370.102971,-10658.965565,2834.553343
22173.948564,2072.576638,-7105.977043,3447.429741
22173.948897,2886.803174,-5477.523971,6358.592633
22173.949230,4589.276840,-6143.709319,4366.744339
22173.949563,592.164754,-7179.997637,2451.505594
22173.949897,2294.638420,-10658.965565,76.609550
22173.950230,-814.226536,-8290.306550,-459.657299
22173.950563,-814.226536,-10955.047942,-2145.067394
22173.950897,-2664.741391,-9104.533087,-3830.477490
22173.951230,-4737.318029,-10732.986159,-4136.915689
22173.951563,-1332.370696,-10658.965565,-689.485948
22173.951896,-74.020594,-11251.130318,536.266849
22173.952230,0.000000,-7179.997637,3140.991542
22173.952563,6439.791695,-9178.553681,8503.660028
22173.952896,814.226536,-6587.832884,1532.190996
22173.953230,4959.379811,-7772.162391,2987.772442
22173.953563,2960.823768,-9178.553681,2451.505594
22173.953896,4589.276840,-7994.224174,2145.067394
22173.954229,0.000000,-10732.986159,0.000000
22173.954563,-666.185348,-12731.542202,-5286.058936
22173.954896,-2220.617826,-10584.944971,-4290.134789
22173.955229,2294.638420,-12435.459826,-3753.867940
22173.955562,518.144159,-11843.295072,-1149.143247
22173.955896,0.000000,-6587.832884,4443.353888
22173.956229,0.000000,-7031.956449,1225.752797
22173.956562,814.226536,-4959.379811,2451.505594
22173.956896,666.185348,-9918.759623,2145.067394
22173.957229,6439.791695,-5921.647536,3600.648841
22173.957562,2294.638420,-9474.636058,-689.485948
22173.957895,0.000000,-9548.656652,-612.876398
22173.958229,-3627.009116,-15396.283594,-689.485948
22173.958562,-3034.844362,-5625.565159,-6971.469032
22173.958895,-518.144159,-13915.871710,-2681.334243
22173.959229,1184.329507,-9548.656652,153.219100
22173.959562,-74.020594,-11917.315666,383.047749
22173.959895,-4737.318029,-9696.697840,842.705048
22173.960228,148.041188,-5329.482782,0.000000
22173.960562,0.000000,-9844.739029,4903.011187
22173.960895,9326.594869,-5625.565159,9116.536426
22173.961228,3478.967927,-8068.244768,3753.867940
22173.961562,888.247130,-5995.668130,612.876398
22173.961895,3478.967927,-10362.883188,-76.609550
22173.962228,-2812.782580,-12509.480420,-995.924147
22173.962561,74.020594,-7476.080014,-3370.820191
22173.962895,-5033.400406,-13175.665768,-3677.258390
22173.963228,-2368.659014,-6735.874072,-4366.744339
22173.963561,-3552.988522,-8512.368333,-919.314598
22173.963894,-2516.700203,-9104.533087,0.000000
22173.964228,4219.173869,-5033.400406,4519.963438
22173.964561,1184.329507,-8660.409521,7660.954980
22173.964894,7031.956449,-8290.306550,6665.030833
22173.965228,-74.020594,-5995.668130,459.657299
22173.965561,1480.411884,-10362.883188,612.876398
22173.965894,2664.741391,-10658.965565,-383.047749
22173.966227,592.164754,-10436.903782,0.000000
22173.966561,-888.247130,-11547.212695,-2528.115143
22173.966894,-2812.782580,-11103.089130,-3294.210641
22173.967227,-1184.329507,-10288.862594,-2681.334243
22173.967561,-74.020594,-11843.295072,-76.609550
22173.967894,0.000000,-7772.162391,3370.820191
22173.968227,-74.020594,-5995.668130,0.000000
22173.968560,2960.823768,-7476.080014,4826.401637
22173.968894,6439.791695,-9474.636058,3600.648841
22173.969227,5255.462188,-11399.171507,5745.716235
22173.969560,6809.894666,-8290.306550,4826.401637
22173.969894,0.000000,-10436.903782,-1762.019645
22173.970227,518.144159,-11029.068536,-2221.676944
22173.970560,-4145.153275,-10214.842000,-5439.278036
22173.970893,1702.473667,-9474.636058,-1302.362347
22173.971227,-4737.318029,-9844.739029,-4903.011187
22173.971560,-1480.411884,-14211.954086,-76.609550
22173.971893,-3627.009116,-7328.038826,-2451.505594
22173.972226,-4441.235652,-6587.832884,0.000000
22173.972560,2886.803174,-5403.503377,2911.162892
22173.972893,1998.556043,-8216.285956,4826.401637
22173.973226,5181.441594,-7105.977043,6435.202183
22173.973560,3701.029710,-7105.977043,4213.525239
22173.973893,4367.215058,-7105.977043,536.266849
22173.974226,2368.659014,-11399.171507,2374.896044
22173.974559,-74.020594,-10658.965565,-3140.991542
22173.974893,-2442.679609,-13693.809927,-4290.134789
22173.975226,-2368.659014,-11325.150913,0.000000
22173.975559,-666.185348,-7328.038826,-3370.820191
22173.975893,-1258.350101,-11251.130318,-3907.087040
22173.976226,-1480.411884,-12731.542202,2834.553343
22173.976559,962.267725,-4959.379811,4903.011187
22173.976892,0.000000,-7179.997637,3677.258390
22173.977226,1924.535449,-9474.636058,6052.154434
22173.977559,1110.308913,-5403.503377,1838.629195
22173.977892,0.000000,-5403.503377,4290.134789
22173.978226,3701.029710,-7698.141797,1762.019645
22173.978559,-4145.153275,-9548.656652,-2451.505594
22173.978892,-3627.009116,-11695.253884,-3677.258390
22173.979225,-2960.823768,-9992.780217,-5669.106685
22173.979559,-3108.864956,-13989.892304,-6052.154434
22173.979892,-3034.844362,-10140.821405,-1838.629195
22173.980225,-740.205942,-7920.203579,0.000000
22173.980559,592.164754,-8512.368333,2911.162892
22173.980892,3997.112087,-7402.059420,6435.202183
22173.981225,6439.791695,-8290.306550,7277.907231
22173.981558,4663.297435,-7179.997637,5515.887586
22173.981892,4737.318029,-6587.832884,4826.401637
22173.982225,2886.803174,-10955.047942,-3753.867940
22173.982558,0.000000,-13397.727550,1225.752797
22173.982891,-2960.823768,-11325.150913,-76.609550
22173.983225,-2368.659014,-8364.327145,-5822.325785
22173.983558,-1776.494261,-11029.068536,-3907.087040
22173.983891,-6735.874072,-10732.986159,-4596.572988
22173.984225,-1036.288319,-5625.565159,-2987.772442
22173.984558,-5107.421000,-8512.368333,0.000000
22173.984891,2960.823768,-7031.956449,4213.525239
22173.985224,-74.020594,-11251.130318,4826.401637
22173.985558,5255.462188,-2442.679609,3983.696590
22173.985891,3775.050304,-9474.636058,4826.401637
22173.986224,2146.597232,-7179.997637,3447.429741
22173.986558,740.205942,-8956.491898,-1915.238745
22173.986891,-2146.597232,-10510.924376,-3983.696590
22173.987224,0.000000,-13101.645173,-1225.752797
22173.987557,-2960.823768,-9548.656652,-2451.505594
22173.987891,2294.638420,-13027.624579,-76.609550
22173.988224,1110.308913,-8216.285956,-689.485948
22173.988557,814.226536,-9548.656652,0.000000
22173.988891,1184.329507,-7179.997637,919.314598
22173.989224,3627.009116,-10584.944971,4673.182538
22173.989557,1776.494261,-6143.709319,3677.258390
22173.989890,3627.009116,-7328.038826,2834.553343
22173.990224,-666.185348,-10658.965565,-76.609550
22173.990557,-1776.494261,-8364.327145,-2145.067394
22173.990890,-3182.885551,-9474.636058,-2834.553343
22173.991223,-4441.235652,-7772.162391,-3677.258390
22173.991557,-1554.432478,-11843.295072,-689.485948
22173.991890,-2442.679609,-10362.883188,-1302.362347
22173.992223,-74.020594,-9326.594869,-1225.752797
22173.992557,1924.535449,-8438.347739,4366.744339
22173.992890,2442.679609,-7254.018232,3830.477490
22173.993223,1628.453072,-7772.162391,2451.505594
22173.993556,6439.791695,-9474.636058,4213.525239
22173.993890,2442.679609,-7920.203579,1225.752797
22173.994223,0.000000,-10140.821405,3064.381992
22173.994556,2294.638420,-11251.130318,-2528.115143
22173.994890,-1258.350101,-11843.295072,-3753.867940
22173.995223,-4811.338623,-11769.274478,-4060.306139
22173.995556,-1628.453072,-9918.759623,-3064.381992
22173.995889,-222.061783,-9918.759623,1149.143247
22173.996223,518.144159,-4811.338623,1532.190996
22173.996556,1702.473667,-9474.636058,4519.963438
22173.996889,-2072.576638,-5181.441594,4213.525239
22173.997223,0.000000,-4515.256246,-1225.752797
22173.997556,2146.597232,-9030.512492,1149.143247
22173.997889,2294.638420,-9326.594869,-536.266849
22173.998222,-1184.329507,-12435.459826,-383.047749
22173.998556,-74.020594,-10658.965565,-5592.497135
22173.998889,-5921.647536,-14952.160028,-5439.278036
22173.999222,-1036.288319,-11769.274478,306.438199
22173.999555,962.267725,-6883.915261,-1225.752797
22173.999889,2886.803174,-8290.306550,2681.334243
22174.000222,888.247130,-7846.182985,3064.381992
22174.000555,4219.173869,-5255.462188,6358.592633
22174.000889,1184.329507,-4811.338623,6741.640382
22174.001222,8216.285956,-7105.977043,6052.154434
22174.001555,1184.329507,-8364.327145,3370.820191
22174.001888,1184.329507,-7772.162391,-2374.896044
22174.002222,-74.020594,-15988.448347,-6205.373534
22174.002555,-5921.647536,-11917.315666,-4290.134789
22174.002888,-1258.350101,-8734.430116,-6894.859482
22174.003222,-1924.535449,-12731.542202,383.047749
22174.003555,-2072.576638,-8512.368333,-612.876398
22174.003888,-1480.411884,-9474.636058,2528.115143
22174.004221,2294.638420,-7105.977043,-76.609550
22174.004555,296.082377,-7772.162391,5515.887586
22174.004888,7031.956449,-7105.977043,9729.412825
22174.005221,4663.297435,-2960.823768,3140.991542
22174.005555,1184.329507,-11547.212695,2374.896044
22174.005888,0.000000,-10881.027347,-2145.067394
22174.006221,0.000000,-10881.027347,-2681.334243
22174.006554,0.000000,-10658.965565,-5286.058936
22174.006888,-74.020594,-12435.459826,-3753.867940
22174.007221,-4737.318029,-10732.986159,-5898.935335
22174.007554,-2368.659014,-9548.656652,-1532.190996
22174.007887,1702.473667,-11843.295072,-76.609550
22174.008221,518.144159,-8364.327145,1225.752797
22174.008554,2368.659014,-5773.606348,6665.030833
22174.008887,-518.144159,-7846.182985,5056.230287
22174.009221,-74.020594,-5033.400406,4903.011187
22174.009554,222.061783,-6217.729913,0.000000
22174.009887,3478.967927,-8586.388927,1762.019645
22174.010220,518.144159,-8216.285956,459.657299
22174.010554,-2960.823768,-10510.924376,-5362.668486
22174.010887,-3849.070898,-10510.924376,-5286.058936
22174.011220,-4737.318029,-13101.645173,-6128.763984
22174.011554,-74.020594,-14211.954086,-76.609550
22174.011887,1998.556043,-8290.306550,0.000000
22174.012220,592.164754,-5995.668130,0.000000
22174.012553,2368.659014,-9326.594869,6052.154434
22174.012887,2368.659014,-7179.997637,5515.887586
22174.013220,3552.988522,-5699.585753,5132.839837
22174.013553,1480.411884,-10658.965565,3064.381992
22174.013887,4071.132681,-6735.874072,5286.058936
22174.014220,-666.185348,-9474.636058,-76.609550
22174.014553,2516.700203,-4219.173869,-4596.572988
22174.014886,-5107.421000,-9548.656652,-6128.763984
22174.015220,-1184.329507,-10955.047942,-5592.497135
22174.015553,-74.020594,-13027.624579,-1302.362347
22174.015886,-296.082377,-14063.912898,-4060.306139
22174.016220,74.020594,-13915.871710,2374.896044
22174.016553,296.082377,-6069.688724,3370.820191
22174.016886,4145.153275,-6587.832884,5515.887586
22174.017219,2590.720797,-5477.523971,6971.469032
22174.017553,4737.318029,-7179.997637,7277.907231
22174.017886,0.000000,-5995.668130,1225.752797
22174.018219,-592.164754,-10584.944971,1149.143247
22174.018552,-2812.782580,-6587.832884,-3524.039291
22174.018886,-5625.565159,-12065.356855,-3677.258390
22174.019219,3478.967927,-5921.647536,-3294.210641
22174.019552,-3923.091493,-15248.242405,-995.924147
22174.019886,814.226536,-6291.750507,-1838.629195
22174.020219,-444.123565,-7550.100608,-842.705048
22174.020552,-666.185348,-15988.448347,-689.485948
22174.020885,4737.318029,-7772.162391,6588.421283
22174.021219,-666.185348,-14211.954086,-76.609550
22174.021552,5625.565159,-6587.832884,4903.011187
22174.021885,1184.329507,-7179.997637,5515.887586
22174.022219,4663.297435,-8364.327145,2757.943793
22174.022552,2812.782580,-7846.182985,2681.334243
22174.022885,-6217.729913,-10658.965565,-5362.668486
22174.023218,-888.247130,-7179.997637,-3370.820191
22174.023552,-6439.791695,-9844.739029,-4903.011187
22174.023885,0.000000,-9844.739029,-76.609550
22174.024218,-3923.091493,-10658.965565,-1302.362347
22174.024552,-74.020594,-5921.647536,-1685.410096
22174.024885,-2368.659014,-6587.832884,1838.629195
22174.025218,3182.885551,-6661.853478,3677.258390
22174.025551,2960.823768,-9474.636058,4213.525239
22174.025885,1184.329507,-9178.553681,2911.162892
22174.026218,3627.009116,-9548.656652,2221.676944
22174.026551,3182.885551,-5551.544565,1225.752797
22174.026884,296.082377,-6661.853478,-1149.143247
22174.027218,-444.123565,-9104.533087,-3983.696590
22174.027551,-2960.823768,-14285.974681,-2451.505594
22174.027884,-1554.432478,-14063.912898,-2528.115143
22174.028218,1998.556043,-9326.594869,0.000000
22174.028551,-1184.329507,-8364.327145,0.000000
22174.028884,4737.318029,-7920.203579,4826.401637
22174.029217,2294.638420,-10214.842000,2068.457845
22174.029551,296.082377,-8364.327145,6128.763984
22174.029884,5107.421000,-4737.318029,3830.477490
22174.030217,1332.370696,-8290.306550,3140.991542
22174.030551,2442.679609,-6809.894666,76.609550
22174.030884,-4811.338623,-11251.130318,-5592.497135
22174.031217,-1258.350101,-10066.800811,-6971.469032
22174.031550,-5921.647536,-8808.450710,-3753.867940
22174.031884,-2442.679609,-13027.624579,-3140.991542
22174.032217,-4515.256246,-8364.327145,-2451.505594
22174.032550,-74.020594,-13471.748144,2374.896044
22174.032884,2368.659014,-8068.244768,5515.887586
22174.033217,3775.050304,-5181.441594,6971.469032
22174.033550,4441.235652,-5773.606348,4060.306139
22174.033883,2664.741391,-9548.656652,4903.011187
22174.034217,4663.297435,-8364.327145,0.000000
22174.034550,4515.256246,-14211.954086,-1608.800546
22174.034883,-2590.720797,-15026.180623,-3064.381992
22174.035216,-2960.823768,-8956.491898,-3064.381992
22174.035550,-4441.235652,-6587.832884,-4979.620737
22174.035883,-1998.556043,-11103.089130,-1072.533697
22174.036216,-2220.617826,-10362.883188,1302.362347
22174.036549,0.000000,-7031.956449,2528.115143
22174.036882,2664.741391,-7105.977043,5745.716235
22174.037215,0.000000,-4219.173869,3677.258390
22174.037548,3478.967927,-8290.306550,2987.772442
22174.037882,962.267725,-7772.162391,1532.190996
22174.038215,-296.082377,-9474.636058,0.000000
22174.038548,3552.988522,-9474.636058,-2451.505594
22174.038881,666.185348,-10584.944971,-1762.019645
22174.039214,-592.164754,-11473.192101,-3677.258390
22174.039547,-1332.370696,-11029.068536,-2145.067394
22174.039880,-1554.432478,-8882.471304,-2451.505594
22174.040213,0.000000,-9548.656652,1915.238745
22174.040546,4219.173869,-8734.430116,2987.772442
22174.040879,2294.638420,-11843.295072,2374.896044
22174.041212,1924.535449,-4811.338623,1225.752797
22174.041546,4367.215058,-11251.130318,5745.716235
22174.041879,5847.626942,-11843.295072,4826.401637
22174.042212,5773.606348,-7698.141797,3907.087040
22174.042545,1184.329507,-8882.471304,-612.876398
22174.042878,-2294.638420,-8956.491898,-4903.011187
22174.043211,-666.185348,-11843.295072,-3907.087040
22174.043544,-3330.926739,-10881.027347,-2221.676944
22174.043877,-3330.926739,-11621.233289,-3983.696590
22174.044210,-4219.173869,-11843.295072,-1838.629195
22174.044543,-2220.617826,-6587.832884,0.000000
22174.044876,1406.391290,-7105.977043,2374.896044
22174.045210,4663.297435,-7105.977043,4826.401637
22174.045543,-2368.659014,-7772.162391,5515.887586
22174.045876,4145.153275,-7105.977043,5286.058936
22174.046209,2738.761985,-7698.141797,995.924147
22174.046542,4219.173869,-10510.924376,1149.143247
22174.046875,2368.659014,-8142.265362,-3447.429741
22174.047208,-2442.679609,-16210.510130,-1915.238745
22174.047541,0.000000,-8808.450710,-3677.258390
22174.047874,-3478.967927,-15396.283594,-2528.115143
22174.048207,-5921.647536,-11325.150913,-1225.752797
22174.048540,-4145.153275,-7179.997637,612.876398
22174.048874,-370.102971,-9178.553681,4213.525239
22174.049207,2368.659014,-2442.679609,5515.887586
22174.049540,-666.185348,-7402.059420,3140.991542
22174.049873,444.123565,-7402.059420,3140.991542
22174.050206,-2368.659014,-8660.409521,1149.143247
22174.050539,3478.967927,-8586.388927,-76.609550
22174.050872,3478.967927,-13027.624579,-1302.362347
22174.051205,0.000000,-9844.739029,-1225.752797
22174.051538,-2146.597232,-11843.295072,-3753.867940
22174.051871,-74.020594,-9474.636058,-5822.325785
22174.052204,-74.020594,-13693.809927,2221.676944
22174.052538,1184.329507,-10140.821405,1225.752797
22174.052871,4811.338623,-8290.306550,3447.429741
22174.053204,-666.185348,-9474.636058,4596.572988
22174.053537,2368.659014,-3330.926739,1532.190996
22174.053870,2886.803174,-5107.421000,1378.971896
22174.054203,2368.659014,-7772.162391,7354.516781
22174.054536,1850.514855,-9178.553681,-383.047749
22174.054869,-370.102971,-11251.130318,-689.485948
22174.055202,-7179.997637,-10066.800811,-7431.126331
22174.055535,0.000000,-10362.883188,-2374.896044
22174.055868,-1258.350101,-8586.388927,-383.047749
22174.056201,-370.102971,-9252.574275,-3447.429741
22174.056535,296.082377,-11991.336260,1838.629195
22174.056868,-2072.576638,-9548.656652,1225.752797
22174.057201,5847.626942,-7105.977043,2374.896044
22174.057534,3182.885551,-5995.668130,1225.752797
22174.057867,2664.741391,-11843.295072,4826.401637
22174.058200,962.267725,-7402.059420,1149.143247
22174.058533,592.164754,-10807.006753,-76.609550
22174.058866,2812.782580,-11325.150913,-2528.115143
22174.059199,1628.453072,-12731.542202,-1915.238745
22174.059532,518.144159,-10658.965565,2451.505594
22174.059865,-2220.617826,-6291.750507,-2145.067394
22174.060199,-3108.864956,-10066.800811,-229.828649
22174.060532,-3404.947333,-11251.130318,0.000000
22174.060865,3775.050304,-3182.885551,2987.772442
22174.061198,-1184.329507,-8068.244768,2451.505594
22174.061531,1110.308913,-5921.647536,536.266849
22174.061864,-3256.906145,-7772.162391,2604.724693
22174.062197,-666.185348,-10362.883188,-76.609550
22174.062530,1702.473667,-8290.306550,-2528.115143
22174.062863,-5921.647536,-13693.809927,-689.485948
22174.063196,-962.267725,-7179.997637,-1915.238745
22174.063529,-3182.885551,-9474.636058,-2604.724693
22174.063863,1406.391290,-10214.842000,0.000000
22174.064196,6439.791695,-5921.647536,7277.907231
22174.064529,-1776.494261,-9548.656652,3064.381992
22174.064862,2368.659014,-10140.821405,5592.497135
22174.065195,-666.185348,-8290.306550,-1302.362347
22174.065528,1184.329507,-7179.997637,0.000000
22174.065861,4071.132681,-8882.471304,3907.087040
22174.066194,888.247130,-10362.883188,-1302.362347
22174.066527,444.123565,-9844.739029,1302.362347
22174.066860,-518.144159,-8808.450710,-6128.763984
22174.067193,-2442.679609,-15322.262999,-2528.115143
22174.067527,-2368.659014,-8956.491898,2987.772442
22174.067860,2294.638420,-7105.977043,-76.609550
22174.068193,-1850.514855,-7105.977043,-1838.629195
22174.068526,0.000000,-5699.585753,919.314598
22174.068859,962.267725,-7031.956449,2911.162892
22174.069192,2146.597232,-5403.503377,3447.429741
22174.069525,1332.370696,-10066.800811,459.657299
22174.069858,2516.700203,-10288.862594,2145.067394
22174.070191,-2072.576638,-8364.327145,-2451.505594
22174.070524,4737.318029,-10140.821405,3600.648841
22174.070857,4071.132681,-10066.800811,-842.705048
22174.071190,0.000000,-10732.986159,-3524.039291
22174.071524,0.000000,-10140.821405,-383.047749
22174.071857,-3775.050304,-11029.068536,-4903.011187
22174.072190,-1406.391290,-12657.521608,-1302.362347
22174.072523,2442.679609,-6069.688724,1608.800546
22174.072856,2812.782580,-9770.718434,8044.002729
22174.073189,2960.823768,-2442.679609,3983.696590
22174.073522,666.185348,-9400.615463,3907.087040
22174.073855,-370.102971,-6217.729913,689.485948
22174.074188,148.041188,-9918.759623,2374.896044
22174.074521,2886.803174,-8882.471304,-76.609550
22174.074854,-370.102971,-14211.954086,-2604.724693
22174.075188,-5329.482782,-10140.821405,-4903.011187
22174.075521,-5921.647536,-11621.233289,-4290.134789
22174.075854,-3034.844362,-10658.965565,-5132.839837
22174.076187,1702.473667,-13545.768739,-76.609550
22174.076520,1110.308913,-8882.471304,3140.991542
22174.076853,2368.659014,-7179.997637,3217.601092
22174.077186,2220.617826,-5477.523971,5898.935335
22174.077519,1776.494261,-1406.391290,3064.381992
22174.077852,4959.379811,-8438.347739,3447.429741
22174.078185,4737.318029,-5995.668130,7584.345430
22174.078518,1110.308913,-11547.212695,-383.047749
22174.078852,666.185348,-7920.203579,-3064.381992
22174.079185,-2072.576638,-8438.347739,-7431.126331
22174.079518,-6439.791695,-14582.057057,-3600.648841
22174.079851,-3330.926739,-8734.430116,-1685.410096
22174.080184,-2442.679609,-9400.615463,-4749.792088
22174.080517,-4737.318029,-11177.109724,612.876398
22174.080850,-1850.514855,-5181.441594,-1072.533697
22174.081183,4663.297435,-8882.471304,6665.030833
22174.081516,4071.132681,-3034.844362,5515.887586
22174.081849,2664.741391,-9696.697840,4903.011187
22174.082182,1480.411884,-6587.832884,2911.162892
22174.082516,1480.411884,-9548.656652,0.000000
22174.082849,1184.329507,-11325.150913,-2451.505594
22174.083182,1998.556043,-9548.656652,-3677.258390
22174.083515,-666.185348,-14211.954086,-3140.991542
22174.083848,-3552.988522,-9548.656652,-4903.011187
22174.084181,-1258.350101,-12435.459826,-1915.238745
22174.084514,-74.020594,-9178.553681,-1149.143247
22174.084847,148.041188,-8660.409521,3677.258390
22174.085180,5847.626942,-8290.306550,7277.907231
22174.085513,4367.215058,-6365.771101,3140.991542
22174.085846,2812.782580,-10732.986159,6741.640382
22174.086180,4145.153275,-5255.462188,1915.238745
22174.086513,-592.164754,-9696.697840,1532.190996
22174.086846,2072.576638,-9252.574275,-76.609550
22174.087179,-3627.009116,-8660.409521,-5515.887586
22174.087512,-2368.659014,-8882.471304,-4290.134789
22174.087845,-370.102971,-13027.624579,-4366.744339
22174.088178,-370.102971,-12435.459826,-76.609550
22174.088511,-2442.679609,-11547.212695,-76.609550
22174.088844,-1776.494261,-6587.832884,1685.410096
22174.089177,2960.823768,-6883.915261,3447.429741
22174.089510,3182.885551,-8882.471304,4366.744339
22174.089843,10140.821405,-7698.141797,9729.412825
22174.090177,-888.247130,-10584.944971,3677.258390
22174.090510,5255.462188,-5477.523971,842.705048
22174.090843,-3034.844362,-13397.727550,-1149.143247
22174.091176,1258.350101,-6291.750507,-4519.963438
22174.091509,-592.164754,-12953.603985,1455.581446
22174.091842,-2442.679609,-10658.965565,-4979.620737
22174.092175,0.000000,-7179.997637,-2145.067394
22174.092508,-5699.585753,-12435.459826,-76.609550
22174.092841,5255.462188,-8290.306550,1762.019645
22174.093174,-1998.556043,-10362.883188,2681.334243
22174.093507,3256.906145,-5255.462188,5286.058936
22174.093841,74.020594,-6883.915261,2221.676944
22174.094174,0.000000,-8068.244768,3064.381992
22174.094507,0.000000,-6957.935855,-76.609550
22174.094840,-1850.514855,-11325.150913,-1225.752797
22174.095173,-2368.659014,-5995.668130,-3677.258390
22174.095506,-4071.132681,-11547.212695,-2068.457845
22174.095839,-3330.926739,-7179.997637,-4596.572988
22174.096172,-666.185348,-9992.780217,-689.485948
22174.096505,518.144159,-9030.512492,383.047749
22174.096838,3182.885551,-10066.800811,3140.991542
22174.097171,6291.750507,-10066.800811,8197.221829
22174.097505,3775.050304,-11251.130318,2374.896044
22174.097838,-2368.659014,-11325.150913,0.000000
22174.098171,4737.318029,-9030.512492,2374.896044
22174.098504,2294.638420,-13027.624579,842.705048
22174.098837,2960.823768,-5551.544565,4060.306139
22174.099170,-1258.350101,-8068.244768,-1762.019645
22174.099503,-3182.885551,-9104.533087,-995.924147
22174.099836,-888.247130,-6143.709319,-2604.724693
22174.100169,-4515.256246,-10510.924376,-1072.533697
22174.100502,-666.185348,-9474.636058,-689.485948
22174.100835,-4737.318029,-7179.997637,1225.752797
22174.101169,888.247130,-9474.636058,4826.401637
22174.101502,4663.297435,-5921.647536,2374.896044
22174.101835,2886.803174,-9474.636058,2374.896044
22174.102168,3108.864956,-11251.130318,1838.629195
22174.102501,-1850.514855,-13101.645173,-459.657299
22174.102834,592.164754,-7105.977043,-2374.896044
22174.103167,0.000000,-11473.192101,-919.314598
22174.103500,2590.720797,-8364.327145,153.219100
22174.103833,1628.453072,-8734.430116,3064.381992
22174.104166,-74.020594,-11843.295072,1149.143247
22174.104499,0.000000,-4811.338623,0.000000
22174.104832,-1850.514855,-13027.624579,2987.772442
22174.105166,2738.761985,-8956.491898,3447.429741
22174.105499,518.144159,-9918.759623,766.095498
22174.105832,-222.061783,-7624.121203,2834.553343
22174.106165,1776.494261,-4811.338623,2451.505594
22174.106498,-592.164754,-5995.668130,-919.314598
22174.106831,-2664.741391,-11029.068536,-3294.210641
22174.107164,-3182.885551,-10732.986159,-4903.011187
22174.107497,-3108.864956,-13323.706956,-4443.353888
22174.107830,0.000000,-8364.327145,-3064.381992
22174.108163,-74.020594,-13619.789333,-76.609550
22174.108496,0.000000,-7179.997637,2757.943793
22174.108830,1998.556043,-6365.771101,-76.609550
22174.109163,2886.803174,-9474.636058,3600.648841
22174.109496,4737.318029,-8956.491898,8197.221829
22174.109829,3034.844362,-5847.626942,3064.381992
22174.110162,2072.576638,-11917.315666,3370.820191
22174.110495,2220.617826,-7105.977043,229.828649
22174.110828,-74.020594,-10214.842000,-76.609550
22174.111161,-888.247130,-7179.997637,-3064.381992
22174.111494,-3552.988522,-13101.645173,-5515.887586
22174.111827,-1258.350101,-15396.283594,-3140.991542
22174.112160,-2886.803174,-7476.080014,-2145.067394
22174.112494,-1850.514855,-11251.130318,-76.609550
22174.112827,74.020594,-5699.585753,4443.353888
22174.113160,148.041188,-5699.585753,3064.381992
22174.113493,4737.318029,-7476.080014,6818.249932
22174.113826,1110.308913,-7105.977043,3294.210641
22174.114159,0.000000,-7772.162391,3677.258390
22174.114492,-222.061783,-8882.471304,3600.648841
22174.114825,-74.020594,-8882.471304,-4673.182538
22174.115158,-1776.494261,-9844.739029,0.000000
22174.115491,-666.185348,-9474.636058,-7431.126331
22174.115824,962.267725,-11769.274478,-3217.601092
22174.116158,-1776.494261,-12361.439231,-1685.410096
22174.116491,-2442.679609,-13101.645173,-1838.629195
22174.116824,0.000000,-5995.668130,-2068.457845
22174.117157,0.000000,-10732.986159,7124.688131
22174.117490,5847.626942,-7105.977043,5286.058936
22174.117823,4737.318029,-4811.338623,6128.763984
22174.118156,1184.329507,-8660.409521,4749.792088
22174.118489,4071.132681,-4737.318029,2221.676944
22174.118822,-1480.411884,-7624.121203,-76.609550
22174.119155,-444.123565,-9104.533087,-3983.696590
22174.119488,-5551.544565,-15026.180623,-4903.011187
22174.119822,-2960.823768,-9548.656652,-5898.935335
22174.120155,296.082377,-10066.800811,-3753.867940
22174.120488,-3182.885551,-11695.253884,-383.047749
22174.120821,296.082377,-6587.832884,306.438199
22174.121154,-74.020594,-13027.624579,6052.154434
22174.121487,7031.956449,-7105.977043,6052.154434
22174.121820,296.082377,-8364.327145,4903.011187
22174.122153,4737.318029,-7179.997637,6052.154434
22174.122486,2886.803174,-5921.647536,1302.362347
22174.122819,1776.494261,-7476.080014,0.000000
22174.123152,-444.123565,-12287.418637,-1685.410096
22174.123485,-3034.844362,-9474.636058,-4443.353888
22174.123819,1332.370696,-10436.903782,-4519.963438
22174.124152,-3627.009116,-14211.954086,-1608.800546
22174.124485,222.061783,-9474.636058,-3140.991542
22174.124818,-4737.318029,-10732.986159,306.438199
22174.125151,2886.803174,-10658.965565,7277.907231
22174.125484,4663.297435,-8142.265362,2987.772442
22174.125817,2590.720797,-7698.141797,6971.469032
22174.126150,4515.256246,-4367.215058,3064.381992
22174.126483,148.041188,-8512.368333,2374.896044
22174.126816,1184.329507,-5329.482782,229.828649
22174.127149,-5921.647536,-8364.327145,-3677.258390
22174.127483,-3034.844362,-9474.636058,-5898.935335
22174.127816,-1776.494261,-10732.986159,-2834.553343
22174.128149,-1850.514855,-14211.954086,-2834.553343
22174.128482,0.000000,-7179.997637,-1532.190996
22174.128815,-4737.318029,-11325.150913,0.000000
22174.129148,4441.235652,-6735.874072,1762.019645
22174.129481,-2368.659014,-13101.645173,5209.449386
22174.129814,6439.791695,-5995.668130,4519.963438
22174.130147,4663.297435,-10658.965565,9116.536426
22174.130480,-666.185348,-5995.668130,0.000000
22174.130813,4663.297435,-7105.977043,1762.019645
22174.131147,-5107.421000,-6291.750507,-2451.505594
22174.131480,666.185348,-8290.306550,-1915.238745
22174.131813,-2738.761985,-10362.883188,-1302.362347
22174.132146,-3552.988522,-11325.150913,-6205.373534
22174.132479,-2368.659014,-10140.821405,-3907.087040
22174.132812,-2368.659014,-14804.118840,1685.410096
22174.133145,3478.967927,-5773.606348,229.828649
22174.133478,2368.659014,-10140.821405,8963.317327
22174.133811,4663.297435,-8586.388927,1225.752797
22174.134144,5625.565159,-3627.009116,1225.752797
22174.134477,296.082377,-13027.624579,3600.648841
22174.134811,8142.265362,-7105.977043,2374.896044
22174.135144,-1480.411884,-9770.718434,-766.095498
22174.135477,-296.082377,-9918.759623,-2374.896044
22174.135810,-3997.112087,-7772.162391,-4903.011187
22174.136143,1776.494261,-8660.409521,-2145.067394
22174.136476,-2368.659014,-12213.398043,2681.334243
22174.136809,-962.267725,-7179.997637,0.000000
22174.137142,0.000000,-8068.244768,536.266849
22174.137476,2886.803174,-8512.368333,2068.457845
22174.137809,9104.533087,-9474.636058,3294.210641
22174.138142,740.205942,-11621.233289,7660.954980
22174.138475,6883.915261,-7105.977043,2374.896044
22174.138808,-2738.761985,-10140.821405,-2451.505594
22174.139141,-2664.741391,-12361.439231,-1915.238745
22174.139474,-1406.391290,-8882.471304,-4979.620737
22174.139808,-3997.112087,-8364.327145,-2068.457845
22174.140141,-370.102971,-9030.512492,-2451.505594
22174.140474,-2146.597232,-11843.295072,1762.019645
22174.140807,0.000000,-5551.544565,2451.505594
22174.141140,-2664.741391,-5107.421000,2451.505594
22174.141473,2368.659014,-9252.574275,6052.154434
22174.141807,4663.297435,-7105.977043,2911.162892
22174.142140,0.000000,-11917.315666,1225.752797
22174.142473,4367.215058,-6217.729913,-383.047749
22174.142806,-3997.112087,-12879.583391,-2068.457845
22174.143139,0.000000,-8956.491898,-3447.429741
22174.143472,-7031.956449,-12361.439231,-4213.525239
22174.143806,-3404.947333,-7772.162391,-4903.011187
22174.144139,0.000000,-6587.832884,3524.039291
22174.144472,-1258.350101,-6513.812290,-3064.381992
22174.144805,1776.494261,-6587.832884,3677.258390
22174.145138,-4441.235652,-7179.997637,-76.609550
22174.145471,3552.988522,-5403.503377,2451.505594
22174.145804,-444.123565,-14804.118840,2757.943793
22174.146138,7179.997637,-10807.006753,7124.688131
22174.146471,1258.350101,-6143.709319,153.219100
22174.146804,4663.297435,-10658.965565,-76.609550
22174.147137,2072.576638,-10066.800811,-76.609550
22174.147470,-1258.350101,-8586.388927,-6052.154434
22174.147803,-1924.535449,-8956.491898,-3370.820191
22174.148137,-4737.318029,-11917.315666,-3983.696590
22174.148470,-74.020594,-13545.768739,-76.609550
22174.148803,-1480.411884,-7920.203579,3677.258390
22174.149136,1776.494261,-4219.173869,1378.971896
22174.149469,-1332.370696,-9548.656652,3677.258390
22174.149802,2368.659014,-5847.626942,2757.943793
22174.150135,4663.297435,-9474.636058,1915.238745
22174.150469,5921.647536,-7179.997637,0.000000
22174.150802,4663.297435,-14211.954086,4213.525239
22174.151135,814.226536,-8216.285956,-4213.525239
22174.151468,-1332.370696,-11399.171507,-3370.820191
22174.151801,0.000000,-8142.265362,-4749.792088
22174.152134,1850.514855,-10214.842000,-2374.896044
22174.152468,-1850.514855,-11917.315666,-76.609550
22174.152801,-2146.597232,-9548.656652,-2757.943793
22174.153134,-1554.432478,-8734.430116,-459.657299
22174.153467,4219.173869,-6217.729913,8044.002729
22174.153800,2516.700203,-8142.265362,5822.325785
22174.154133,2368.659014,-8956.491898,4979.620737
22174.154466,0.000000,-6513.812290,-689.485948
22174.154800,2220.617826,-14211.954086,3600.648841
22174.155133,74.020594,-5107.421000,-2145.067394
22174.155466,-2442.679609,-10658.965565,-3064.381992
22174.155799,-1924.535449,-9104.533087,-3524.039291
22174.156132,-3552.988522,-9548.656652,-3370.820191
22174.156465,-3330.926739,-12361.439231,-1608.800546
22174.156799,-1332.370696,-9400.615463,0.000000
22174.157132,592.164754,-7402.059420,2834.553343
22174.157465,0.000000,-5995.668130,3677.258390
22174.157798,2294.638420,-6809.894666,4826.401637
22174.158131,4663.297435,-2960.823768,2604.724693
22174.158464,1184.329507,-9918.759623,2068.457845
22174.158797,-74.020594,-13027.624579,-76.609550
22174.159131,0.000000,-9252.574275,-1915.238745
22174.159464,-2220.617826,-12065.356855,-4596.572988
22174.159797,-814.226536,-11103.089130,842.705048
22174.160130,1776.494261,-8956.491898,-1225.752797
22174.160463,666.185348,-12583.501014,3600.648841
22174.160796,-2738.761985,-4811.338623,-4290.134789
22174.161130,-888.247130,-9548.656652,306.438199
22174.161463,-370.102971,-11843.295072,1762.019645
22174.161796,-2368.659014,-6587.832884,0.000000
22174.162129,1998.556043,-10362.883188,4213.525239
22174.162462,444.123565,-6365.771101,1225.752797
22174.162795,4367.215058,-3256.906145,1915.238745
22174.163129,518.144159,-12065.356855,-306.438199
22174.163462,3478.967927,-7698.141797,-2528.115143
22174.163795,-4441.235652,-7772.162391,-6128.763984
22174.164128,-740.205942,-16580.613101,-4519.963438
22174.164461,2886.803174,-10658.965565,-76.609550
22174.164794,-5847.626942,-9548.656652,-3064.381992
22174.165127,9252.574275,-5329.482782,4826.401637
22174.165461,370.102971,-9252.574275,1532.190996
22174.165794,4663.297435,-7846.182985,3677.258390
22174.166127,2072.576638,-9400.615463,4213.525239
22174.166460,1998.556043,-11843.295072,1762.019645
22174.166793,3552.988522,-7031.956449,4060.306139
22174.167126,-1406.391290,-11325.150913,-689.485948
22174.167460,1110.308913,-6365.771101,-3830.477490
22174.167793,-5921.647536,-9548.656652,-3677.258390
22174.168126,74.020594,-10955.047942,-2834.553343
22174.168459,-1258.350101,-8364.327145,0.000000
22174.168792,-5625.565159,-7772.162391,0.000000
22174.169125,1036.288319,-10658.965565,2374.896044
22174.169458,1480.411884,-6587.832884,4290.134789
22174.169792,4959.379811,-6809.894666,5132.839837
22174.170125,2072.576638,-8512.368333,7124.688131
22174.170458,4071.132681,-4737.318029,-1149.143247
22174.170791,-74.020594,-10658.965565,-76.609550
22174.171124,2294.638420,-13027.624579,-76.609550
22174.171457,-4441.235652,-9548.656652,-3677.258390
22174.171791,-2812.782580,-11843.295072,-3677.258390
22174.172124,-1110.308913,-13027.624579,-4979.620737
22174.172457,-1554.432478,-13027.624579,5362.668486
22174.172790,4367.215058,-2368.659014,3753.867940
22174.173123,2442.679609,-7772.162391,6511.811733
22174.173456,2812.782580,-7254.018232,6128.763984
22174.173789,-4071.132681,-7476.080014,0.000000
22174.174123,-148.041188,-10658.965565,-76.609550
22174.174456,0.000000,-7179.997637,0.000000
22174.174789,-74.020594,-13027.624579,-1915.238745
22174.175122,-3108.864956,-9548.656652,-4290.134789
22174.175455,-4959.379811,-8882.471304,-7431.126331
22174.175788,-5181.441594,-9548.656652,-6741.640382
22174.176122,0.000000,-8660.409521,153.219100
22174.176455,148.041188,-10732.986159,3217.601092
22174.176788,-1776.494261,-9252.574275,4290.134789
22174.177121,2294.638420,-5329.482782,1149.143247
22174.177454,5107.421000,-8808.450710,3064.381992
22174.177787,11769.274478,-10658.965565,6665.030833
22174.178120,4145.153275,-9548.656652,7507.735880
22174.178454,2368.659014,-10288.862594,0.000000
22174.178787,-592.164754,-11177.109724,-2221.676944
22174.179120,-3923.091493,-12213.398043,-6741.640382
22174.179453,1702.473667,-8586.388927,-2834.553343
22174.179786,-4811.338623,-12435.459826,-1915.238745
22174.180119,-4737.318029,-4811.338623,-3677.258390
22174.180453,-3034.844362,-10658.965565,-995.924147
22174.180786,-1480.411884,-5403.503377,0.000000
22174.181119,4663.297435,-8290.306550,6665.030833
22174.181452,2516.700203,-7772.162391,6128.763984
22174.181785,2960.823768,-8438.347739,5132.839837
22174.182118,962.267725,-7920.203579,3140.991542
22174.182452,3923.091493,-9474.636058,2068.457845
22174.182785,4663.297435,-9474.636058,-76.609550
22174.183118,0.000000,-8364.327145,-3677.258390
22174.183451,-148.041188,-12657.521608,-5898.935335
22174.183784,-1924.535449,-10881.027347,-4596.572988
22174.184117,-888.247130,-10140.821405,-4519.963438
22174.184450,3478.967927,-13619.789333,4213.525239
22174.184784,0.000000,-8364.327145,3677.258390
22174.185117,2368.659014,-7179.997637,6358.592633
22174.185450,1110.308913,-11547.212695,5745.716235
22174.185783,3552.988522,-5107.421000,6435.202183
22174.186116,0.000000,-8882.471304,4826.401637
22174.186449,3552.988522,-7254.018232,4213.525239
22174.186783,-1332.370696,-8364.327145,-306.438199
22174.187116,-3478.967927,-6883.915261,-4443.353888
22174.187449,-2738.761985,-9474.636058,-5592.497135
22174.187782,-5847.626942,-9844.739029,-6128.763984
22174.188115,-1258.350101,-9474.636058,-3753.867940
22174.188448,-1258.350101,-10658.965565,-4366.744339
22174.188781,-1480.411884,-10732.986159,612.876398
22174.189115,3330.926739,-8882.471304,2374.896044
22174.189448,3552.988522,-10584.944971,7507.735880
22174.189781,4811.338623,-6069.688724,6052.154434
22174.190114,2442.679609,-12139.377449,4213.525239
22174.190447,1184.329507,-8364.327145,1532.190996
22174.190780,1184.329507,-6587.832884,1225.752797
22174.191114,-666.185348,-13323.706956,0.000000
22174.191447,0.000000,-4811.338623,-2451.505594
22174.191780,-6365.771101,-8364.327145,-5056.230287
22174.192113,-2442.679609,-7179.997637,-4903.011187
22174.192446,-2516.700203,-10214.842000,-1302.362347
22174.192779,962.267725,-7772.162391,0.000000
22174.193112,-3330.926739,-10214.842000,0.000000
22174.193446,-1924.535449,-11325.150913,-1225.752797
22174.193779,-2368.659014,-12509.480420,4213.525239
22174.194112,1998.556043,-5625.565159,0.000000
22174.194445,592.164754,-11325.150913,4290.134789
22174.194778,7031.956449,-8882.471304,6052.154434
22174.195111,1480.411884,-7476.080014,4903.011187
22174.195445,1554.432478,-4515.256246,-536.266849
22174.195778,2590.720797,-8586.388927,1455.581446
22174.196111,-1110.308913,-8734.430116,-995.924147
22174.196444,4071.132681,-6513.812290,-2221.676944
22174.196777,-1554.432478,-15396.283594,-2528.115143
22174.197110,0.000000,-10140.821405,-4903.011187
22174.197444,0.000000,-12879.583391,842.705048
22174.197777,3478.967927,-11547.212695,3064.381992
22174.198110,2368.659014,-8364.327145,4443.353888
22174.198443,2590.720797,-9548.656652,4673.182538
22174.198776,1110.308913,-7698.141797,1762.019645
22174.199109,2442.679609,-6069.688724,1991.848295
22174.199442,370.102971,-4441.235652,-612.876398
22174.199776,962.267725,-7846.182985,1072.533697
22174.200109,-1850.514855,-7698.141797,-2451.505594
22174.200442,-1850.514855,-11695.253884,-4826.401637
22174.200775,-5329.482782,-13397.727550,-3830.477490
22174.201108,-74.020594,-9474.636058,-2528.115143
22174.201441,2886.803174,-12583.501014,4213.525239
22174.201775,4663.297435,-8512.368333,2834.553343
22174.202108,2368.659014,-9252.574275,2451.505594
22174.202441,3849.070898,-10140.821405,6741.640382
22174.202774,4737.318029,-6587.832884,2757.943793
22174.203107,4959.379811,-10955.047942,2221.676944
22174.203440,2294.638420,-9474.636058,2374.896044
22174.203773,-2072.576638,-8586.388927,-4213.525239
22174.204107,-4737.318029,-11621.233289,-3064.381992
22174.204440,-4219.173869,-5033.400406,-7967.393179
22174.204773,-6735.874072,-11325.150913,-1838.629195
22174.205106,-3256.906145,-6809.894666,2374.896044
22174.205439,-1258.350101,-9474.636058,-2987.772442
22174.205772,-222.061783,-11843.295072,6665.030833
22174.206106,3108.864956,-4663.297435,4213.525239
22174.206439,-2664.741391,-11325.150913,2374.896044
22174.206772,4663.297435,-6513.812290,2221.676944
22174.207105,1110.308913,-13471.748144,1149.143247
22174.207438,0.000000,-4811.338623,0.000000
22174.207771,-74.020594,-12435.459826,-76.609550
22174.208104,-2442.679609,-8882.471304,-8273.831378
22174.208438,0.000000,-7179.997637,0.000000
22174.208771,-3627.009116,-14804.118840,-76.609550
22174.209104,4145.153275,-4811.338623,1532.190996
22174.209437,-1258.350101,-11843.295072,3907.087040
22174.209770,7550.100608,-5921.647536,5975.544884
22174.210103,4737.318029,-5403.503377,4060.306139
22174.210437,148.041188,-7179.997637,2451.505594
22174.210770,4071.132681,-9474.636058,-1608.800546
22174.211103,-4737.318029,-10732.986159,-6128.763984
22174.211436,0.000000,-10732.986159,-4596.572988
22174.211769,-4811.338623,-11251.130318,-5898.935335
22174.212102,0.000000,-6439.791695,-3907.087040
22174.212435,-2368.659014,-9474.636058,-76.609550
22174.212769,1480.411884,-9548.656652,919.314598
22174.213102,1628.453072,-5921.647536,3294.210641
22174.213435,4145.153275,-7105.977043,4290.134789
22174.213768,3997.112087,-11695.253884,4826.401637
22174.214101,3997.112087,-8734.430116,5439.278036
22174.214434,4145.153275,-11251.130318,3447.429741
22174.214768,5255.462188,-9400.615463,229.828649
22174.215101,1184.329507,-11029.068536,-919.314598
22174.215434,-74.020594,-16580.613101,-76.609550
22174.215767,-2146.597232,-8068.244768,-4903.011187
22174.216100,-3108.864956,-11843.295072,-4596.572988
22174.216433,-2442.679609,-7920.203579,-2298.286494
22174.216767,-3182.885551,-5995.668130,-1225.752797
22174.217100,-74.020594,-7105.977043,2374.896044
22174.217433,0.000000,-5181.441594,3830.477490
22174.217766,2516.700203,-6883.915261,2987.772442
22174.218099,0.000000,-9696.697840,7277.907231
22174.218432,-370.102971,-8068.244768,0.000000
22174.218765,592.164754,-8364.327145,1225.752797
22174.219099,-1850.514855,-11843.295072,1149.143247
22174.219432,0.000000,-4367.215058,-1225.752797
22174.219765,-4811.338623,-10214.842000,-8044.002729
22174.220098,888.247130,-9030.512492,-2681.334243
22174.220431,-4737.318029,-13101.645173,-1838.629195
22174.220764,-74.020594,-7105.977043,-2834.553343
22174.221098,-4145.153275,-14582.057057,4673.182538
22174.221431,1702.473667,-8290.306550,842.705048
22174.221764,3552.988522,-7772.162391,7354.516781
22174.222097,2960.823768,-5699.585753,5515.887586
22174.222430,2368.659014,-7254.018232,3677.258390
22174.222763,370.102971,-6809.894666,1608.800546
22174.223096,-2146.597232,-13841.851115,612.876398
22174.223430,-962.267725,-7105.977043,-3140.991542
22174.223763,-3701.029710,-10732.986159,-2451.505594
22174.224096,-74.020594,-5625.565159,-1302.362347
22174.224429,2294.638420,-5625.565159,-4443.353888
22174.224762,-2368.659014,-8364.327145,-1455.581446
22174.225095,1998.556043,-11843.295072,-76.609550
22174.225429,1480.411884,-9918.759623,76.609550
22174.225762,3330.926739,-14211.954086,4213.525239
22174.226095,2664.741391,-9326.594869,2145.067394
22174.226428,3478.967927,-9326.594869,3907.087040
22174.226761,1924.535449,-7476.080014,4213.525239
22174.227094,6439.791695,-4811.338623,1225.752797
22174.227427,888.247130,-11325.150913,1225.752797
22174.227761,4071.132681,-8290.306550,-689.485948
22174.228094,-3923.091493,-10658.965565,-3447.429741
22174.228427,1184.329507,-11843.295072,-2528.115143
22174.228760,5107.421000,-9104.533087,0.000000
22174.229093,888.247130,-13693.809927,3830.477490
22174.229426,6143.709319,-5921.647536,459.657299
22174.229760,-2960.823768,-16284.530724,2374.896044
22174.230093,592.164754,-6661.853478,-2298.286494
22174.230426,-2886.803174,-11103.089130,0.000000
22174.230759,-222.061783,-7994.224174,1915.238745
22174.231092,518.144159,-6957.935855,1762.019645
22174.231425,-1776.494261,-5995.668130,5439.278036
22174.231758,1702.473667,-2368.659014,-76.609550
22174.232092,-8290.306550,-9548.656652,-3064.381992
22174.232425,-296.082377,-9474.636058,-689.485948
22174.232758,-3034.844362,-11843.295072,-4519.963438
22174.233091,1258.350101,-11473.192101,-76.609550
22174.233424,1036.288319,-10732.986159,2145.067394
22174.233757,1998.556043,-10214.842000,306.438199
22174.234091,2368.659014,-9548.656652,2451.505594
22174.234424,0.000000,-13841.851115,4826.401637
22174.234757,3182.885551,-5551.544565,1225.752797
22174.235090,-4441.235652,-8364.327145,4903.011187
22174.235423,2886.803174,-7105.977043,-689.485948
22174.235756,-2442.679609,-5995.668130,-2451.505594
22174.236090,-666.185348,-9178.553681,4979.620737
22174.236423,-1184.329507,-1702.473667,0.000000
22174.236756,-5107.421000,-10510.924376,-2451.505594
22174.237089,-3552.988522,-8586.388927,-3983.696590
22174.237422,-3330.926739,-12361.439231,-1302.362347
22174.237755,-74.020594,-10584.944971,0.000000
22174.238088,296.082377,-10732.986159,0.000000
22174.238422,2368.659014,-10066.800811,3447.429741
22174.238755,592.164754,-7772.162391,2757.943793
22174.239088,2886.803174,-7402.059420,995.924147
22174.239421,3775.050304,-7179.997637,1225.752797
22174.239754,4515.256246,-8586.388927,2681.334243
22174.240087,2886.803174,-10066.800811,-76.609550
22174.240420,1480.411884,-10732.986159,2068.457845
22174.240754,-1258.350101,-10066.800811,-6281.983084
22174.241087,-1036.288319,-12065.356855,-3677.258390
22174.241420,0.000000,-13915.871710,6971.469032
22174.241753,3923.091493,-6513.812290,1608.800546
22174.242086,0.000000,-9548.656652,3983.696590
22174.242419,3256.906145,-7105.977043,1838.629195
22174.242752,666.185348,-7402.059420,1455.581446
22174.243085,592.164754,-5995.668130,1225.752797
22174.243419,1036.288319,-9548.656652,0.000000
22174.243752,-74.020594,-11251.130318,-383.047749
22174.244085,1702.473667,-11251.130318,-4060.306139
22174.244418,-4737.318029,-10732.986159,-1532.190996
22174.244751,-4293.194464,-10658.965565,-1915.238745
22174.245084,-5329.482782,-8438.347739,-1685.410096
22174.245417,-74.020594,-7698.141797,1302.362347
22174.245751,5181.441594,-6513.812290,4213.525239
22174.246084,5625.565159,-11325.150913,9806.022374
22174.246417,4145.153275,-4811.338623,6128.763984
22174.246750,3478.967927,-9178.553681,2068.457845
22174.247083,1480.411884,-9992.780217,-306.438199
22174.247416,1110.308913,-11473.192101,-2604.724693
22174.247749,-2960.823768,-12509.480420,-4596.572988
22174.248082,-2738.761985,-9548.656652,-6741.640382
22174.248416,-4145.153275,-13619.789333,-3140.991542
22174.248749,-1998.556043,-7698.141797,-1302.362347
22174.249082,-2738.761985,-4441.235652,-842.705048
22174.249415,148.041188,-10584.944971,6052.154434
22174.249748,962.267725,-4589.276840,9346.365076
22174.250081,4663.297435,-8438.347739,6665.030833
22174.250414,1184.329507,-3627.009116,3370.820191
22174.250748,3182.885551,-11843.295072,2374.896044
22174.251081,-1776.494261,-8364.327145,-3370.820191
22174.251414,-592.164754,-8586.388927,-1302.362347
22174.251747,-3627.009116,-21910.095883,-6818.249932
22174.252080,-5921.647536,-21391.951724,-3677.258390
22174.252413,5847.626942,0.000000,-2068.457845
22174.252746,6735.874072,6069.688724,-842.705048
22174.253079,-2590.720797,-9622.677246,4136.915689
22174.253413,-2516.700203,-14137.933492,4519.963438
22174.253746,-4811.338623,-14211.954086,6665.030833
22174.254079,2368.659014,-9548.656652,5515.887586
22174.254412,4663.297435,-13027.624579,4213.525239
22174.254745,7624.121203,-2072.576638,-8044.002729
22174.255078,5921.647536,-8660.409521,306.438199
22174.255411,3182.885551,-6661.853478,-1838.629195
22174.255744,888.247130,-12953.603985,-2451.505594
22174.256078,-4737.318029,-11991.336260,-1378.971896
22174.256411,-962.267725,-6365.771101,-842.705048
22174.256744,-3256.906145,-3627.009116,0.000000
22174.257077,0.000000,-8364.327145,6971.469032
22174.257410,-74.020594,-2960.823768,3600.648841
22174.257743,0.000000,-5403.503377,1225.752797
22174.258076,1184.329507,-14285.974681,7354.516781
22174.258410,814.226536,-15470.304188,3064.381992
22174.258743,3330.926739,-10362.883188,1762.019645
22174.259076,-2664.741391,-14211.954086,-1149.143247
22174.259409,1480.411884,-7105.977043,-4903.011187
22174.259742,-2368.659014,-13397.727550,-4826.401637
22174.260075,1702.473667,-7031.956449,-4213.525239
22174.260408,0.000000,-11325.150913,-2221.676944
22174.260741,-518.144159,-7476.080014,-2757.943793
22174.261075,2294.638420,-13027.624579,-76.609550
22174.261408,-370.102971,-7402.059420,-4749.792088
22174.261741,2960.823768,-13989.892304,5592.497135
22174.262074,4737.318029,-8364.327145,7277.907231
22174.262407,5255.462188,-7920.203579,-1532.190996
22174.262740,-1332.370696,-10584.944971,612.876398
22174.263073,-370.102971,-7031.956449,-4366.744339
22174.263407,-3552.988522,-7994.224174,-3370.820191
22174.263740,-444.123565,-10140.821405,0.000000
22174.264073,-1554.432478,-6809.894666,-3140.991542
22174.264406,-2072.576638,-7550.100608,-76.609550
22174.264739,0.000000,-3330.926739,-76.609550
22174.265072,-1258.350101,-8882.471304,-76.609550
22174.265405,1110.308913,-8586.388927,1608.800546
22174.265738,1998.556043,-9474.636058,4826.401637
22174.266072,2146.597232,-12213.398043,3064.381992
22174.266405,2738.761985,-14063.912898,4903.011187
22174.266738,1850.514855,-12139.377449,1838.629195
22174.267071,5921.647536,-8068.244768,3677.258390
22174.267404,2886.803174,-8290.306550,2987.772442
22174.267737,2960.823768,-5699.585753,4213.525239
22174.268070,-74.020594,-4737.318029,-76.609550
22174.268404,-2368.659014,-3849.070898,-2451.505594
22174.268737,-3552.988522,-5995.668130,-1072.533697
22174.269070,-2442.679609,-4885.359217,-1302.362347
22174.269403,-1628.453072,-10288.862594,-842.705048
22174.269736,-666.185348,-12657.521608,536.266849
22174.270069,2886.803174,-12435.459826,2374.896044
22174.270402,-1924.535449,-9548.656652,0.000000
22174.270735,4663.297435,-11695.253884,-76.609550
22174.271069,-1554.432478,-11695.253884,0.000000
22174.271402,0.000000,-7105.977043,2374.896044
22174.271735,2294.638420,-10510.924376,-383.047749
22174.272068,-888.247130,-12065.356855,-76.609550
22174.272401,2368.659014,-5699.585753,1149.143247
22174.272734,-296.082377,-9326.594869,-76.609550
22174.273067,1628.453072,-7624.121203,-76.609550
22174.273400,-4737.318029,-10732.986159,-2681.334243
22174.273734,3478.967927,-10732.986159,-1838.629195
22174.274067,0.000000,-11917.315666,0.000000
22174.274400,4885.359217,-11843.295072,-76.609550
22174.274733,3182.885551,-16580.613101,3600.648841
22174.275066,1480.411884,-9326.594869,5439.278036
22174.275399,-592.164754,-5181.441594,-919.314598
22174.275732,-1702.473667,-7920.203579,2145.067394
22174.276066,74.020594,-3330.926739,-2374.896044
22174.276399,-4737.318029,-6291.750507,-2834.553343
22174.276732,-2072.576638,-9770.718434,-689.485948
22174.277065,-4515.256246,-5699.585753,-5132.839837
22174.277398,-3108.864956,-9918.759623,-919.314598
22174.277731,518.144159,-8290.306550,1455.581446
22174.278064,1184.329507,-10436.903782,3294.210641
22174.278397,5847.626942,-11769.274478,5439.278036
22174.278731,5107.421000,-8364.327145,4903.011187
22174.279064,4737.318029,-6735.874072,5515.887586
22174.279397,4367.215058,-9474.636058,4826.401637
22174.279730,3182.885551,-7031.956449,919.314598
22174.280063,-2590.720797,-11991.336260,-1532.190996
22174.280396,-740.205942,-8512.368333,-2604.724693
22174.280729,-2368.659014,-8660.409521,-3370.820191
22174.281063,296.082377,-11843.295072,842.705048
22174.281396,-1258.350101,-7772.162391,1225.752797
22174.281729,-1554.432478,-5699.585753,-2451.505594
22174.282062,3849.070898,-12065.356855,7124.688131
22174.282395,-74.020594,-7402.059420,1915.238745
22174.282728,5181.441594,-7402.059420,2604.724693
22174.283061,-666.185348,-11547.212695,2451.505594
22174.283394,148.041188,-6661.853478,-1378.971896
22174.283728,-1702.473667,-8142.265362,-2451.505594
22174.284061,1480.411884,-11399.171507,-689.485948
22174.284394,-4219.173869,-14285.974681,-4903.011187
22174.284727,0.000000,-7179.997637,-4903.011187
22174.285060,-2664.741391,-14656.077652,-689.485948
22174.285393,-2368.659014,-5995.668130,-2451.505594
22174.285726,1406.391290,-9030.512492,1378.971896
22174.286059,2220.617826,-9252.574275,6052.154434
22174.286393,7254.018232,-5255.462188,6665.030833
22174.286726,2294.638420,-10658.965565,2987.772442
22174.287059,7031.956449,-10658.965565,5439.278036
22174.287392,-2220.617826,-5403.503377,3064.381992
22174.287725,888.247130,-9696.697840,-76.609550
22174.288058,-1258.350101,-9474.636058,-689.485948
22174.288391,-4811.338623,-9770.718434,-6205.373534
22174.288725,-2886.803174,-7550.100608,-6665.030833
22174.289058,-7254.018232,-14434.015869,-3830.477490
22174.289391,-3182.885551,-6291.750507,-5822.325785
22174.289724,-4737.318029,-9548.656652,766.095498
22174.290057,2886.803174,-8364.327145,2757.943793
22174.290390,6513.812290,-6883.915261,7967.393179
22174.290723,6439.791695,-9474.636058,7277.907231
22174.291056,7105.977043,-5995.668130,4290.134789
22174.291390,3923.091493,-9474.636058,6665.030833
22174.291723,3404.947333,-7994.224174,919.314598
22174.292056,-3330.926739,-11991.336260,-3217.601092
22174.292389,-3552.988522,-11917.315666,-5975.544884
22174.292722,-4737.318029,-9548.656652,-6128.763984
22174.293055,-74.020594,-8808.450710,-3370.820191
22174.293388,-1258.350101,-8882.471304,-2298.286494
22174.293722,-518.144159,-7772.162391,-1225.752797
22174.294055,962.267725,-7920.203579,1685.410096
22174.294388,2368.659014,-9548.656652,5209.449386
22174.294721,6439.791695,-9474.636058,6665.030833
22174.295054,962.267725,-10140.821405,4903.011187
22174.295387,3478.967927,-8586.388927,4826.401637
22174.295720,-1850.514855,-7698.141797,-1302.362347
22174.296053,-3552.988522,-8364.327145,-3064.381992
22174.296387,-1258.350101,-8734.430116,-4749.792088
22174.296720,-2072.576638,-11325.150913,-2911.162892
22174.297053,-814.226536,-9030.512492,-1838.629195
22174.297386,-1184.329507,-9696.697840,0.000000
22174.297719,-1554.432478,-7476.080014,0.000000
22174.298052,148.041188,-4811.338623,2451.505594
22174.298385,5699.585753,-14211.954086,7277.907231
22174.298718,4071.132681,-7105.977043,1762.019645
22174.299052,3849.070898,-13545.768739,6665.030833
22174.299385,0.000000,-7624.121203,2221.676944
22174.299718,222.061783,-7920.203579,-459.657299
22174.300051,-3108.864956,-9400.615463,-2145.067394
22174.300384,1110.308913,-9474.636058,-689.485948
22174.300717,-6217.729913,-3923.091493,-4290.134789
22174.301050,-1998.556043,-9474.636058,-4903.011187
22174.301384,-74.020594,-8290.306550,-3140.991542
22174.301717,-3552.988522,-9548.656652,0.000000
22174.302050,4663.297435,-6513.812290,536.266849
22174.302383,1480.411884,-15988.448347,6894.859482
22174.302716,3182.885551,-8808.450710,2987.772442
22174.303049,6069.688724,-9548.656652,5822.325785
22174.303382,3478.967927,-8734.430116,2221.676944
22174.303715,1184.329507,-5995.668130,2298.286494
22174.304049,-1406.391290,-9474.636058,-2834.553343
22174.304382,-2294.638420,-8290.306550,-3907.087040
22174.304715,-7105.977043,-8364.327145,-3677.258390
22174.305048,-3330.926739,-8882.471304,-3753.867940
22174.305381,-5181.441594,-8364.327145,-2298.286494
22174.305714,0.000000,-6661.853478,-612.876398
22174.306047,3701.029710,-5625.565159,4213.525239
22174.306381,3478.967927,-8882.471304,6665.030833
22174.306714,4293.194464,-8956.491898,3140.991542
22174.307047,2294.638420,-13027.624579,1991.848295
22174.307380,1036.288319,-17024.736666,689.485948
22174.307713,2368.659014,-10140.821405,4443.353888
22174.308046,-1258.350101,-8586.388927,-3753.867940
22174.308379,-4441.235652,-8364.327145,-1685.410096
22174.308712,-74.020594,-7105.977043,-1915.238745
22174.309046,-2738.761985,-7920.203579,-2451.505594
22174.309379,0.000000,-7179.997637,1225.752797
22174.309712,-666.185348,-8290.306550,-76.609550
22174.310045,1258.350101,-9474.636058,3600.648841
22174.310378,3701.029710,-8586.388927,3677.258390
22174.310711,4663.297435,-11843.295072,2068.457845
22174.311044,3034.844362,-11251.130318,2374.896044
22174.311378,0.000000,-10732.986159,612.876398
22174.311711,-74.020594,-10658.965565,-1302.362347
22174.312044,-1258.350101,-9474.636058,-3140.991542
22174.312377,-2442.679609,-11843.295072,-3753.867940
22174.312710,-3182.885551,-6513.812290,-1149.143247
22174.313043,-2220.617826,-6069.688724,-153.219100
22174.313376,296.082377,-5699.585753,2987.772442
22174.313709,0.000000,-3627.009116,612.876398
22174.314043,-74.020594,-11843.295072,1762.019645
22174.314376,4737.318029,-9844.739029,6052.154434
22174.314709,1702.473667,-11991.336260,0.000000
22174.315042,3849.070898,-12657.521608,612.876398
22174.315375,2368.659014,-12287.418637,842.705048
22174.315708,0.000000,-11325.150913,-919.314598
22174.316041,2442.679609,-6883.915261,-3140.991542
22174.316374,-1776.494261,-11325.150913,0.000000
22174.316708,3849.070898,-6291.750507,4290.134789
22174.317041,-666.185348,-4219.173869,0.000000
22174.317374,-2442.679609,-9474.636058,1762.019645
22174.317707,-1554.432478,-8290.306550,-1302.362347
22174.318040,-3552.988522,-7772.162391,1532.190996
22174.318373,3552.988522,-7179.997637,4903.011187
22174.318706,2294.638420,-11843.295072,2374.896044
22174.319040,1036.288319,-10140.821405,689.485948
22174.319373,592.164754,-11621.233289,0.000000
22174.319706,1702.473667,-9474.636058,-2528.115143
22174.320039,0.000000,-9548.656652,1225.752797
22174.320372,-74.020594,-8290.306550,-4673.182538
22174.320705,0.000000,-4811.338623,-5439.278036
22174.321038,1184.329507,-10436.903782,-76.609550
22174.321371,3478.967927,-11103.089130,6358.592633
22174.321705,3701.029710,-6365.771101,4826.401637
22174.322038,1924.535449,-11473.192101,3753.867940
22174.322371,-1480.411884,-11621.233289,2451.505594
22174.322704,-74.020594,-8882.471304,-76.609550
22174.323037,-2072.576638,-11325.150913,3600.648841
22174.323370,3701.029710,-6069.688724,1225.752797
22174.323703,-1258.350101,-10066.800811,1302.362347
22174.324037,-962.267725,-5995.668130,-1072.533697
22174.324370,-2442.679609,-7698.141797,-4979.620737
22174.324703,-7698.141797,-11917.315666,-3064.381992
22174.325036,-74.020594,-8290.306550,-2528.115143
22174.325369,-4811.338623,-9548.656652,-1685.410096
22174.325702,148.041188,-6883.915261,1915.238745
22174.326035,962.267725,-8290.306550,4213.525239
22174.326368,296.082377,-7105.977043,-612.876398
22174.326702,4367.215058,-9918.759623,4749.792088
22174.327035,962.267725,-11843.295072,2068.457845
22174.327368,4737.318029,-8956.491898,2757.943793
22174.327701,-2368.659014,-13101.645173,4903.011187
22174.328034,5847.626942,-5625.565159,-3140.991542
22174.328367,-74.020594,-10658.965565,-2068.457845
22174.328700,2960.823768,-7179.997637,3140.991542
22174.329033,-74.020594,-5625.565159,-3140.991542
22174.329367,-3923.091493,-11547.212695,-1378.971896
22174.329700,-5477.523971,-11177.109724,-3753.867940
22174.330033,-3997.112087,-8956.491898,-1991.848295
22174.330366,1480.411884,-8068.244768,3677.258390
22174.330699,0.000000,-7772.162391,7277.907231
22174.331032,2294.638420,-5699.585753,1225.752797
22174.331365,-1184.329507,-6587.832884,0.000000
22174.331699,592.164754,-10732.986159,689.485948
22174.332032,1480.411884,-5403.503377,0.000000
22174.332365,-962.267725,-11769.274478,-1302.362347
22174.332698,-1850.514855,-10807.006753,-3677.258390
22174.333031,0.000000,-9548.656652,-1915.238745
22174.333364,2294.638420,-11843.295072,-1302.362347
22174.333697,7105.977043,-10066.800811,2374.896044
22174.334030,1110.308913,-14804.118840,1762.019645
22174.334364,4145.153275,-7179.997637,4290.134789
22174.334697,-74.020594,-14211.954086,2068.457845
22174.335030,6735.874072,-6439.791695,5439.278036
22174.335363,1184.329507,-10066.800811,4519.963438
22174.335696,1998.556043,-6661.853478,3064.381992
22174.336029,-1258.350101,-7846.182985,995.924147
22174.336362,-5995.668130,-4959.379811,-6128.763984
22174.336696,-1258.350101,-9474.636058,-4060.306139
22174.337029,-4441.235652,-7179.997637,-4903.011187
22174.337362,-444.123565,-12731.542202,-2528.115143
22174.337695,-4071.132681,-8660.409521,-1532.190996
22174.338028,-518.144159,-11473.192101,5898.935335
22174.338361,2294.638420,-3256.906145,612.876398
22174.338694,2960.823768,-11769.274478,3677.258390
22174.339027,5699.585753,-7550.100608,3907.087040
22174.339361,2516.700203,-10732.986159,3294.210641
22174.339694,5255.462188,-10362.883188,3907.087040
22174.340027,1702.473667,-10140.821405,919.314598
22174.340360,-962.267725,-8808.450710,-3524.039291
22174.340693,740.205942,-8438.347739,0.000000
22174.341026,-5033.400406,-7994.224174,-4979.620737
22174.341359,2294.638420,-11251.130318,-76.609550
22174.341692,-3923.091493,-9918.759623,-2298.286494
22174.342025,-592.164754,-10140.821405,612.876398
22174.342358,-888.247130,-4885.359217,2451.505594
22174.342691,2294.638420,-6735.874072,2374.896044
22174.343024,1110.308913,-9474.636058,3140.991542
22174.343357,-592.164754,-9252.574275,1532.190996
22174.343690,814.226536,-10510.924376,536.266849
22174.344023,-2960.823768,-9548.656652,0.000000
22174.344357,-962.267725,-8882.471304,-3753.867940
22174.344690,-4219.173869,-9474.636058,-3753.867940
22174.345023,-4737.318029,-7772.162391,-4290.134789
22174.345356,2294.638420,-9474.636058,-76.609550
22174.345689,1036.288319,-9844.739029,2451.505594
22174.346022,2738.761985,-10807.006753,4213.525239
22174.346355,3627.009116,-7698.141797,2987.772442
22174.346688,4219.173869,-11547.212695,2987.772442
22174.347021,2368.659014,-13693.809927,4290.134789
22174.347354,6735.874072,-11251.130318,2374.896044
22174.347687,0.000000,-11917.315666,919.314598
22174.348020,0.000000,-10732.986159,2374.896044
22174.348353,-3627.009116,-8734.430116,-4366.744339
22174.348686,-4737.318029,-8512.368333,-2068.457845
22174.349019,0.000000,-5329.482782,-612.876398
22174.349353,-2442.679609,-6661.853478,-1685.410096
22174.349686,518.144159,-5107.421000,995.924147
22174.350019,-2442.679609,-13323.706956,1762.019645
22174.350352,2590.720797,-4737.318029,-76.609550
22174.350685,296.082377,-10140.821405,4290.134789
22174.351018,7772.162391,-11103.089130,6052.154434
22174.351351,4663.297435,-9918.759623,0.000000
22174.351684,2664.741391,-11621.233289,1838.629195
22174.352017,3330.926739,-10140.821405,-1685.410096
22174.352350,222.061783,-9326.594869,-2068.457845
22174.352683,-148.041188,-8438.347739,-2911.162892
22174.353016,-3034.844362,-7105.977043,-4979.620737
22174.353349,-1776.494261,-10732.986159,-1838.629195
22174.353682,-1258.350101,-5847.626942,0.000000
22174.354016,3923.091493,-11325.150913,4596.572988
22174.354349,0.000000,-7179.997637,7354.516781
22174.354682,2368.659014,-6587.832884,5822.325785
22174.355015,-666.185348,-13027.624579,1762.019645
22174.355348,-1480.411884,-7179.997637,0.000000
22174.355681,-4737.318029,-10732.986159,-689.485948
22174.356014,-3330.926739,-11029.068536,306.438199
22174.356347,-8882.471304,-8512.368333,-2604.724693
22174.356680,-10584.944971,-8068.244768,-6435.202183
22174.357013,-9844.739029,-8142.265362,-2068.457845
22174.357346,-7179.997637,-6365.771101,-1915.238745
22174.357679,-7476.080014,-5995.668130,612.876398
22174.358012,-3627.009116,-7550.100608,459.657299
22174.358345,-4737.318029,-8660.409521,5515.887586
22174.358678,-2368.659014,-7846.182985,6052.154434
22174.359012,-2960.823768,-13545.768739,1838.629195
22174.359345,-4737.318029,-14730.098246,1149.143247
22174.359678,-4737.318029,-10288.862594,1685.410096
22174.360011,-7105.977043,-11843.295072,-1302.362347
22174.360344,-6735.874072,-8882.471304,-229.828649
22174.360677,-11843.295072,-6587.832884,-1532.190996
22174.361010,-9474.636058,-2442.679609,-3524.039291
22174.361343,-9474.636058,-4811.338623,0.000000
22174.361676,-9548.656652,-8882.471304,-2528.115143
22174.362009,-6291.750507,-8290.306550,1149.143247
22174.362342,-7846.182985,-12435.459826,2068.457845
22174.362675,-1850.514855,-7105.977043,1378.971896
22174.363008,-4071.132681,-12213.398043,2911.162892
22174.363341,-2146.597232,-11177.109724,536.266849
22174.363675,-3627.009116,-13027.624579,2374.896044
22174.364008,-8290.306550,-13101.645173,612.876398
22174.364341,-8882.471304,-11621.233289,2681.334243
22174.364674,-8956.491898,-8882.471304,-2221.676944
22174.365007,-8290.306550,-3923.091493,0.000000
22174.365340,-8364.327145,-4737.318029,0.000000
22174.365673,-7105.977043,-4441.235652,229.828649
22174.366006,-6957.935855,-6513.812290,459.657299
22174.366339,-6883.915261,-10584.944971,1378.971896
22174.366672,-5403.503377,-9030.512492,383.047749
22174.367005,-8290.306550,-11177.109724,2221.676944
22174.367338,-4811.338623,-10955.047942,-2528.115143
22174.367671,-6587.832884,-10214.842000,-3983.696590
22174.368004,-7105.977043,-7772.162391,1838.629195
22174.368337,-5403.503377,-8216.285956,-766.095498
22174.368671,-5625.565159,-8068.244768,919.314598
22174.369004,-10658.965565,-9252.574275,76.609550
22174.369337,-8364.327145,-4663.297435,-1225.752797
22174.369670,-9548.656652,-8586.388927,-2221.676944
22174.370003,-7624.121203,-8734.430116,-1302.362347
22174.370336,-6957.935855,-9474.636058,2987.772442
22174.370669,-6735.874072,-8956.491898,459.657299
22174.371002,-3849.070898,-11695.253884,4213.525239
22174.371335,-6883.915261,-8586.388927,0.000000
22174.371668,-6217.729913,-11103.089130,0.000000
22174.372001,-9252.574275,-12879.583391,-76.609550
22174.372334,-9548.656652,-11251.130318,-1685.410096
22174.372667,-13027.624579,-8364.327145,0.000000
22174.373000,-10732.986159,-6883.915261,-1378.971896
22174.373333,-11843.295072,-7105.977043,-1685.410096
22174.373667,-13545.768739,-9400.615463,-995.924147
22174.374000,-10732.986159,-8882.471304,-76.609550
22174.374333,-9548.656652,-11251.130318,-536.266849
22174.374666,-8882.471304,-11399.171507,4673.182538
22174.374999,-7476.080014,-13619.789333,6052.154434
22174.375332,-8364.327145,-8290.306550,2068.457845
22174.375665,-7624.121203,-9696.697840,4673.182538
22174.375998,-9992.780217,-7624.121203,1378.971896
22174.376331,-10362.883188,-7698.141797,-153.219100
22174.376664,-14878.139434,-11251.130318,-2298.286494
22174.376997,-15840.407159,-7179.997637,-3370.820191
22174.377330,-16062.468941,-8364.327145,-7354.516781
22174.377663,-14211.954086,-9770.718434,-76.609550
22174.377996,-13101.645173,-7698.141797,-995.924147
22174.378330,-12509.480420,-7846.182985,0.000000
22174.378663,-8734.430116,-7698.141797,2987.772442
22174.378996,-7476.080014,-8512.368333,4826.401637
22174.379329,-5773.606348,-8882.471304,5898.935335
22174.379662,-5477.523971,-6513.812290,3600.648841
22174.379995,-7105.977043,-10510.924376,0.000000
22174.380328,-8882.471304,-8364.327145,0.000000
22174.380661,-7772.162391,-15396.283594,-2528.115143
22174.380994,-11325.150913,-10362.883188,-5362.668486
22174.381327,-11843.295072,-8660.409521,-4903.011187
22174.381660,-11251.130318,-9252.574275,-3370.820191
22174.381993,-8364.327145,-8290.306550,76.609550
22174.382326,-7698.141797,-9400.615463,2528.115143
22174.382659,-7698.141797,-8956.491898,2987.772442
22174.382992,-7179.997637,-9474.636058,2987.772442
22174.383326,-6513.812290,-10510.924376,4826.401637
22174.383659,-4071.132681,-5995.668130,2451.505594
22174.383992,-4737.318029,-7179.997637,5209.449386
22174.384325,-1850.514855,-7105.977043,-76.609550
22174.384658,-7994.224174,-10732.986159,-3677.258390
22174.384991,-10955.047942,-13545.768739,-5592.497135
22174.385324,-13693.809927,-12879.583391,-7201.297681
22174.385657,-12657.521608,-13249.686362,-3907.087040
22174.385990,-9548.656652,-10955.047942,-76.609550
22174.386323,-6513.812290,-8586.388927,4826.401637
22174.386656,-3478.967927,-4589.276840,7124.688131
22174.386989,-3923.091493,-5107.421000,6128.763984
22174.387322,-5921.647536,-7402.059420,3447.429741
