#time,accel_x,accel_y,accel_z
21718.670772,7105.977043,-7772.162391,3983.696590
21718.671106,8956.491898,-8882.471304,2374.896044
21718.671440,8290.306550,-9326.594869,766.095498
21718.671773,6217.729913,-10658.965565,-1072.533697
21718.672107,6291.750507,-10807.006753,-2987.772442
21718.672441,6217.729913,-10584.944971,-2757.943793
21718.672775,5033.400406,-8956.491898,-1838.629195
21718.673109,9400.615463,-9474.636058,-2834.553343
21718.673442,7698.141797,-7772.162391,1532.190996
21718.673776,10658.965565,-8660.409521,5592.497135
21718.674110,12435.459826,-7772.162391,3064.381992
21718.674444,12509.480420,-8882.471304,2987.772442
21718.674777,11547.212695,-8956.491898,3294.210641
21718.675111,8586.388927,-10436.903782,919.314598
21718.675445,5551.544565,-12139.377449,-689.485948
21718.675779,0.000000,-12805.562797,-2681.334243
21718.676113,-74.020594,-11251.130318,-4979.620737
21718.676446,0.000000,-8364.327145,-1838.629195
21718.676780,4219.173869,-7402.059420,2451.505594
21718.677114,7031.956449,-7698.141797,3600.648841
21718.677448,8216.285956,-4737.318029,3370.820191
21718.677781,10362.883188,-6291.750507,7124.688131
21718.678115,10955.047942,-5847.626942,4596.572988
21718.678449,10066.800811,-6291.750507,612.876398
21718.678783,12065.356855,-10658.965565,-76.609550
21718.679116,8216.285956,-8660.409521,-4903.011187
21718.679450,8068.244768,-10140.821405,-5822.325785
21718.679784,7105.977043,-14508.036463,-3140.991542
21718.680118,6439.791695,-15100.201217,-3753.867940
21718.680452,4219.173869,-11843.295072,-2757.943793
21718.680785,6735.874072,-9696.697840,-229.828649
21718.681119,9030.512492,-6809.894666,3294.210641
21718.681453,11843.295072,-2738.761985,5745.716235
21718.681787,14878.139434,-5625.565159,8810.098227
21718.682120,13323.706956,-6069.688724,7890.783629
21718.682454,9844.739029,-8068.244768,3677.258390
21718.682788,6291.750507,-10732.986159,-229.828649
21718.683122,5551.544565,-7698.141797,-4060.306139
21718.683456,3552.988522,-11325.150913,-1225.752797
21718.683789,5847.626942,-10362.883188,-4979.620737
21718.684123,3627.009116,-9548.656652,-4903.011187
21718.684457,5921.647536,-9548.656652,0.000000
21718.684791,10436.903782,-8290.306550,-689.485948
21718.685124,9252.574275,-9622.677246,-536.266849
21718.685458,10658.965565,-8364.327145,689.485948
21718.685792,10510.924376,-8068.244768,919.314598
21718.686126,14211.954086,-5995.668130,2451.505594
21718.686459,14063.912898,-11843.295072,4826.401637
21718.686793,13545.768739,-14211.954086,4213.525239
21718.687127,8512.368333,-8068.244768,1225.752797
21718.687461,12361.439231,-11251.130318,4213.525239
21718.687795,11843.295072,-5995.668130,1225.752797
21718.688128,12287.418637,-7624.121203,383.047749
21718.688462,10362.883188,-8216.285956,-919.314598
21718.688796,10732.986159,-7624.121203,-3140.991542
21718.689130,10066.800811,-10732.986159,-2604.724693
21718.689463,11177.109724,-14211.954086,-2528.115143
21718.689797,6587.832884,-11917.315666,-4136.915689
21718.690131,4737.318029,-8364.327145,0.000000
21718.690465,11917.315666,-9474.636058,2374.896044
21718.690799,15100.201217,-7328.038826,7277.907231
21718.691132,16654.633695,-5625.565159,9193.145976
21718.691466,13323.706956,-6365.771101,6205.373534
21718.691800,9918.759623,-9918.759623,1149.143247
21718.692134,7920.203579,-11251.130318,-1302.362347
21718.692467,7624.121203,-9474.636058,-2528.115143
21718.692801,9474.636058,-5995.668130,-3370.820191
21718.693135,8290.306550,-8956.491898,-4903.011187
21718.693469,11473.192101,-9474.636058,-4366.744339
21718.693803,7402.059420,-13397.727550,-76.609550
21718.694136,8290.306550,-9696.697840,459.657299
21718.694470,9918.759623,-9030.512492,1608.800546
21718.694804,13101.645173,-9548.656652,5592.497135
21718.695138,16210.510130,-7698.141797,8503.660028
21718.695471,12361.439231,-5107.421000,4673.182538
21718.695805,11103.089130,-8438.347739,2681.334243
21718.696139,7994.224174,-8660.409521,612.876398
21718.696473,7105.977043,-7476.080014,-1838.629195
21718.696806,8216.285956,-6735.874072,-3677.258390
21718.697140,4589.276840,-11843.295072,-6205.373534
21718.697474,2294.638420,-11843.295072,-9882.631924
21718.697808,1480.411884,-12213.398043,-4903.011187
21718.698142,6217.729913,-8956.491898,1072.533697
21718.698475,7846.182985,-8512.368333,4673.182538
21718.698809,10732.986159,-9474.636058,7277.907231
21718.699143,7328.038826,-8438.347739,5822.325785
21718.699477,6513.812290,-8660.409521,5898.935335
21718.699810,9252.574275,-7772.162391,3677.258390
21718.700144,7105.977043,-8290.306550,3600.648841
21718.700478,5255.462188,-8882.471304,-76.609550
21718.700812,-2146.597232,-6587.832884,-6128.763984
21718.701146,-3849.070898,-11029.068536,-9806.022374
21718.701479,-2294.638420,-14656.077652,-9039.926876
21718.701813,1332.370696,-10732.986159,383.047749
21718.702147,6143.709319,-6661.853478,1762.019645
21718.702481,5107.421000,-8290.306550,4826.401637
21718.702814,2368.659014,-8660.409521,4290.134789
21718.703148,7624.121203,-9474.636058,4213.525239
21718.703482,7698.141797,-4811.338623,7660.954980
21718.703816,10584.944971,-7994.224174,4213.525239
21718.704149,2886.803174,-8290.306550,-1302.362347
21718.704483,-296.082377,-13027.624579,-3140.991542
21718.704817,1480.411884,-8068.244768,-4903.011187
21718.705151,1998.556043,-10214.842000,-2834.553343
21718.705485,4737.318029,-7772.162391,-1378.971896
21718.705818,2812.782580,-11177.109724,1149.143247
21718.706152,3478.967927,-9622.677246,0.000000
21718.706486,2368.659014,-7772.162391,2451.505594
21718.706820,8808.450710,-10658.965565,4213.525239
21718.707153,5107.421000,-3923.091493,3677.258390
21718.707487,4663.297435,-9178.553681,2374.896044
21718.707821,4441.235652,-9326.594869,1225.752797
21718.708155,1110.308913,-11843.295072,536.266849
21718.708489,1110.308913,-7772.162391,-612.876398
21718.708822,1702.473667,-9474.636058,-76.609550
21718.709156,-2072.576638,-7772.162391,-2451.505594
21718.709490,2738.761985,-9474.636058,0.000000
21718.709824,3478.967927,-11251.130318,-76.609550
21718.710157,1924.535449,-7476.080014,0.000000
21718.710491,4663.297435,-9474.636058,1149.143247
21718.710825,3849.070898,-11399.171507,2834.553343
21718.711159,4737.318029,-7254.018232,76.609550
21718.711492,74.020594,-13101.645173,-919.314598
21718.711826,4071.132681,-10658.965565,995.924147
21718.712160,1184.329507,-9104.533087,1225.752797
21718.712494,1406.391290,-8438.347739,2145.067394
21718.712828,-444.123565,-7105.977043,536.266849
21718.713161,-1184.329507,-6291.750507,-2451.505594
21718.713495,-1184.329507,-13767.830521,2681.334243
21718.713829,1702.473667,-7105.977043,-76.609550
21718.714163,0.000000,-7179.997637,2451.505594
21718.714496,3478.967927,-7105.977043,2374.896044
21718.714830,518.144159,-10436.903782,0.000000
21718.715164,740.205942,-9622.677246,-689.485948
21718.715498,-2368.659014,-10362.883188,-383.047749
21718.715832,-2146.597232,-9696.697840,-4519.963438
21718.716165,592.164754,-12657.521608,2298.286494
21718.716499,-74.020594,-11843.295072,1762.019645
21718.716833,-1480.411884,-4811.338623,0.000000
21718.717167,-3552.988522,-7772.162391,3064.381992
21718.717500,2886.803174,-10658.965565,1149.143247
21718.717834,0.000000,-7476.080014,4903.011187
21718.718168,2886.803174,-7105.977043,3140.991542
21718.718502,2146.597232,-6957.935855,1915.238745
21718.718835,1258.350101,-9474.636058,-766.095498
21718.719169,4367.215058,-10658.965565,-76.609550
21718.719503,-1258.350101,-13027.624579,-2528.115143
21718.719837,-2960.823768,-8956.491898,-3370.820191
21718.720171,-4589.276840,-13249.686362,-4903.011187
21718.720504,1110.308913,-15396.283594,-2528.115143
21718.720838,-1258.350101,-11251.130318,2374.896044
21718.721172,-518.144159,-6291.750507,2451.505594
21718.721506,666.185348,-8068.244768,2374.896044
21718.721839,3330.926739,-6069.688724,4826.401637
21718.722173,1776.494261,-5403.503377,4290.134789
21718.722507,3182.885551,-3849.070898,1762.019645
21718.722841,0.000000,-7476.080014,612.876398
21718.723175,3478.967927,-10658.965565,1149.143247
21718.723508,-1184.329507,-7994.224174,-1608.800546
21718.723842,0.000000,-7105.977043,-5286.058936
21718.724176,-2960.823768,-13841.851115,-5209.449386
21718.724510,-3849.070898,-12509.480420,-4903.011187
21718.724843,-2738.761985,-12657.521608,-1225.752797
21718.725177,0.000000,-8734.430116,612.876398
21718.725511,-1628.453072,-6587.832884,2451.505594
21718.725845,3552.988522,-5625.565159,4826.401637
21718.726178,3478.967927,-9474.636058,4060.306139
21718.726512,2368.659014,-5403.503377,6281.983084
21718.726846,1998.556043,-9474.636058,2374.896044
21718.727180,3997.112087,-8438.347739,3830.477490
21718.727514,888.247130,-9252.574275,0.000000
21718.727847,592.164754,-9326.594869,-1302.362347
21718.728181,-1776.494261,-11991.336260,-3677.258390
21718.728515,-3775.050304,-12509.480420,-4749.792088
21718.728849,-3330.926739,-12435.459826,-4903.011187
21718.729182,-4293.194464,-11695.253884,-842.705048
21718.729516,-1258.350101,-7105.977043,0.000000
21718.729850,592.164754,-8364.327145,3677.258390
21718.730184,3478.967927,-7105.977043,5439.278036
21718.730518,0.000000,-3627.009116,6435.202183
21718.730851,2294.638420,-8586.388927,4060.306139
21718.731185,3478.967927,-7698.141797,2068.457845
21718.731518,-888.247130,-9030.512492,1149.143247
21718.731851,-666.185348,-7476.080014,0.000000
21718.732185,-1554.432478,-7846.182985,-5592.497135
21718.732518,-5033.400406,-13249.686362,-4443.353888
21718.732851,-666.185348,-9400.615463,-3753.867940
21718.733184,-74.020594,-15396.283594,-1915.238745
21718.733517,0.000000,-7994.224174,-689.485948
21718.733850,-2368.659014,-11917.315666,1532.190996
21718.734184,3478.967927,-7105.977043,4060.306139
21718.734517,2664.741391,-4811.338623,7354.516781
21718.734850,6661.853478,-7105.977043,7890.783629
21718.735183,5107.421000,-9030.512492,6894.859482
21718.735516,1702.473667,-6661.853478,1149.143247
21718.735849,1998.556043,-7105.977043,-76.609550
21718.736182,-74.020594,-8290.306550,-7354.516781
21718.736516,-1776.494261,-13397.727550,-2528.115143
21718.736849,-4145.153275,-12213.398043,-4979.620737
21718.737182,-4219.173869,-14656.077652,-5669.106685
21718.737515,-2442.679609,-8586.388927,-3447.429741
21718.737848,-1184.329507,-13915.871710,842.705048
21718.738181,2886.803174,-6809.894666,5592.497135
21718.738515,2072.576638,-4959.379811,4903.011187
21718.738848,4737.318029,-4219.173869,5822.325785
21718.739181,2516.700203,-10140.821405,5515.887586
21718.739514,5625.565159,-7105.977043,4826.401637
21718.739847,814.226536,-6439.791695,0.000000
21718.740180,0.000000,-8364.327145,0.000000
21718.740514,-74.020594,-11843.295072,-4979.620737
21718.740847,-3404.947333,-11695.253884,-4979.620737
21718.741180,-3552.988522,-10510.924376,-4213.525239
21718.741513,-4441.235652,-10066.800811,-4979.620737
21718.741846,-1702.473667,-12509.480420,0.000000
21718.742179,0.000000,-8364.327145,2757.943793
21718.742513,2294.638420,-9474.636058,5132.839837
21718.742846,1628.453072,-5847.626942,5056.230287
21718.743179,6883.915261,-10362.883188,9116.536426
21718.743512,4663.297435,-9474.636058,4826.401637
21718.743845,1702.473667,-4885.359217,1225.752797
21718.744178,666.185348,-7920.203579,-76.609550
21718.744511,-1850.514855,-10955.047942,-4903.011187
21718.744845,-2664.741391,-11399.171507,-3983.696590
21718.745178,-3182.885551,-9992.780217,-4443.353888
21718.745511,-3182.885551,-11251.130318,-3447.429741
21718.745844,-74.020594,-9992.780217,-1915.238745
21718.746177,-518.144159,-13027.624579,2374.896044
21718.746510,0.000000,-6143.709319,3753.867940
21718.746844,-666.185348,-7179.997637,2451.505594
21718.747177,4367.215058,-9474.636058,5745.716235
21718.747510,4663.297435,-9474.636058,7277.907231
21718.747843,3478.967927,-2220.617826,4826.401637
21718.748176,2738.761985,-7994.224174,536.266849
21718.748509,-3478.967927,-8586.388927,-3294.210641
21718.748843,-3627.009116,-11029.068536,-3983.696590
21718.749176,-5329.482782,-9252.574275,-6128.763984
21718.749509,-3627.009116,-14211.954086,-3753.867940
21718.749842,-3552.988522,-8660.409521,-4903.011187
21718.750175,-1184.329507,-13693.809927,1149.143247
21718.750508,2886.803174,-8290.306550,2451.505594
21718.750841,0.000000,-5403.503377,3064.381992
21718.751175,4663.297435,-9622.677246,3983.696590
21718.751508,6217.729913,-7698.141797,6281.983084
21718.751841,3923.091493,-6661.853478,4290.134789
21718.752174,4589.276840,-6957.935855,2987.772442
21718.752507,1702.473667,-6883.915261,-2987.772442
21718.752840,-592.164754,-14211.954086,-76.609550
21718.753174,-74.020594,-11251.130318,-3140.991542
21718.753507,-4219.173869,-9844.739029,-4903.011187
21718.753840,-1184.329507,-12731.542202,-3830.477490
21718.754173,-1776.494261,-13101.645173,919.314598
21718.754506,740.205942,-6587.832884,2834.553343
21718.754839,2960.823768,-7624.121203,6128.763984
21718.755173,2886.803174,-7328.038826,4596.572988
21718.755506,1480.411884,-7772.162391,4903.011187
21718.755839,2294.638420,-7105.977043,1762.019645
21718.756172,-518.144159,-7328.038826,-1225.752797
21718.756505,-4737.318029,-7179.997637,0.000000
21718.756838,-74.020594,-10510.924376,-689.485948
21718.757172,-2220.617826,-8068.244768,-612.876398
21718.757505,-1850.514855,-8956.491898,-1991.848295
21718.757838,-1850.514855,-8290.306550,-2451.505594
21718.758171,-518.144159,-9844.739029,-1685.410096
21718.758504,-1776.494261,-8068.244768,0.000000
21718.758837,2368.659014,-8956.491898,2221.676944
21718.759170,2368.659014,-11843.295072,2145.067394
21718.759504,5255.462188,-10658.965565,5898.935335
21718.759837,1702.473667,-11547.212695,4826.401637
21718.760170,0.000000,-6587.832884,2451.505594
21718.760503,-592.164754,-7994.224174,-76.609550
21718.760836,-74.020594,-9918.759623,-2221.676944
21718.761169,-2812.782580,-5107.421000,76.609550
21718.761503,-2442.679609,-10436.903782,-76.609550
21718.761836,-3775.050304,-8438.347739,-3677.258390
21718.762169,-2368.659014,-11917.315666,-459.657299
21718.762502,-1258.350101,-9918.759623,842.705048
21718.762835,518.144159,-4959.379811,919.314598
21718.763168,-1850.514855,-9548.656652,0.000000
21718.763502,5551.544565,-10658.965565,2374.896044
21718.763835,-1554.432478,-7698.141797,153.219100
21718.764168,1184.329507,-7476.080014,2145.067394
21718.764501,518.144159,-11843.295072,1149.143247
21718.764834,0.000000,-9252.574275,-229.828649
21718.765167,-1332.370696,-7105.977043,-1762.019645
21718.765501,-1850.514855,-9104.533087,-1915.238745
21718.765834,0.000000,-8364.327145,0.000000
21718.766167,-1850.514855,-11029.068536,1225.752797
21718.766500,2886.803174,-8882.471304,1149.143247
21718.766833,-3923.091493,-8956.491898,612.876398
21718.767166,0.000000,-4811.338623,0.000000
21718.767499,1184.329507,-11917.315666,1532.190996
21718.767833,4219.173869,-6513.812290,3140.991542
21718.768166,666.185348,-9992.780217,995.924147
21718.768499,962.267725,-9104.533087,306.438199
21718.768832,1110.308913,-9474.636058,-536.266849
21718.769165,-4145.153275,-11621.233289,-1225.752797
21718.769498,222.061783,-5921.647536,-3140.991542
21718.769832,-4737.318029,-9548.656652,-2451.505594
21718.770165,3478.967927,-11547.212695,842.705048
21718.770498,3182.885551,-7105.977043,4213.525239
21718.770831,4071.132681,-8586.388927,3830.477490
21718.771164,3701.029710,-7402.059420,1302.362347
21718.771497,4145.153275,-12065.356855,2298.286494
21718.771831,0.000000,-8956.491898,2221.676944
21718.772164,4367.215058,-8882.471304,-76.609550
21718.772497,-1258.350101,-8364.327145,-2451.505594
21718.772830,-4441.235652,-10140.821405,-1838.629195
21718.773163,-74.020594,-9326.594869,-1608.800546
21718.773496,-1258.350101,-8882.471304,-76.609550
21718.773829,-518.144159,-7328.038826,-1991.848295
21718.774163,0.000000,-9252.574275,306.438199
21718.774496,1776.494261,-8956.491898,1762.019645
21718.774829,222.061783,-6735.874072,1838.629195
21718.775162,3923.091493,-9474.636058,1455.581446
21718.775495,3849.070898,-11325.150913,4673.182538
21718.775828,1702.473667,-7179.997637,306.438199
21718.776162,2294.638420,-9844.739029,-612.876398
21718.776495,-1924.535449,-10362.883188,-1532.190996
21718.776828,592.164754,-12139.377449,-383.047749
21718.777161,-1258.350101,-13027.624579,-689.485948
21718.777494,-3701.029710,-6291.750507,-3064.381992
21718.777827,-4737.318029,-9400.615463,-1685.410096
21718.778161,-2442.679609,-7846.182985,-1991.848295
21718.778494,2146.597232,-7550.100608,3677.258390
21718.778827,-518.144159,-6587.832884,3064.381992
21718.779160,2590.720797,-6735.874072,4443.353888
21718.779493,592.164754,-8364.327145,2451.505594
21718.779826,4071.132681,-7994.224174,1608.800546
21718.780160,0.000000,-7179.997637,-2451.505594
21718.780493,0.000000,-11843.295072,-1302.362347
21718.780826,-1554.432478,-14211.954086,-3140.991542
21718.781159,-5329.482782,-11325.150913,-4903.011187
21718.781492,-1258.350101,-10510.924376,-3217.601092
21718.781825,222.061783,-9400.615463,536.266849
21718.782158,2886.803174,-8438.347739,2681.334243
21718.782492,3849.070898,-9326.594869,8197.221829
21718.782825,3478.967927,-7105.977043,4213.525239
21718.783158,0.000000,-4811.338623,2451.505594
21718.783491,0.000000,-7772.162391,5592.497135
21718.783824,2294.638420,-7994.224174,-689.485948
21718.784157,-888.247130,-9548.656652,842.705048
21718.784491,-2442.679609,-8882.471304,-4903.011187
21718.784824,-3330.926739,-13693.809927,-5286.058936
21718.785157,-2146.597232,-11399.171507,-4213.525239
21718.785490,-666.185348,-10288.862594,-2528.115143
21718.785823,-74.020594,-8290.306550,-3140.991542
21718.786156,592.164754,-10140.821405,2451.505594
21718.786490,4663.297435,-10658.965565,4826.401637
21718.786823,4663.297435,-2442.679609,2451.505594
21718.787156,5625.565159,-8586.388927,7890.783629
21718.787489,4293.194464,-8586.388927,2911.162892
21718.787822,3182.885551,-10362.883188,2834.553343
21718.788155,-444.123565,-6291.750507,-1378.971896
21718.788489,-74.020594,-9474.636058,-2528.115143
21718.788822,-1258.350101,-9992.780217,-3524.039291
21718.789155,1110.308913,-12287.418637,-3600.648841
21718.789488,-1480.411884,-12139.377449,-1378.971896
21718.789821,-2368.659014,-8364.327145,0.000000
21718.790154,-4145.153275,-9548.656652,0.000000
21718.790487,3923.091493,-8734.430116,4519.963438
21718.790821,74.020594,-4737.318029,229.828649
21718.791154,2368.659014,-5403.503377,3370.820191
21718.791487,1406.391290,-9252.574275,1532.190996
21718.791820,1184.329507,-8364.327145,919.314598
21718.792153,0.000000,-8438.347739,153.219100
21718.792486,0.000000,-10955.047942,-995.924147
21718.792820,-74.020594,-9474.636058,-1302.362347
21718.793153,-1554.432478,-13323.706956,-689.485948
21718.793486,1702.473667,-8290.306550,-3140.991542
21718.793819,-2738.761985,-8956.491898,-3064.381992
21718.794152,-2368.659014,-10732.986159,306.438199
21718.794485,2368.659014,-11399.171507,5056.230287
21718.794819,740.205942,-7920.203579,3753.867940
21718.795152,-592.164754,-8660.409521,3064.381992
21718.795485,0.000000,-5625.565159,2604.724693
21718.795818,1702.473667,-11251.130318,2374.896044
21718.796151,2368.659014,-370.102971,5209.449386
21718.796484,-2368.659014,-10140.821405,-2451.505594
21718.796817,0.000000,-8586.388927,-1302.362347
21718.797151,-3034.844362,-15396.283594,-1302.362347
21718.797484,-3849.070898,-7402.059420,-7048.078582
21718.797817,666.185348,-9474.636058,-1762.019645
21718.798150,-4219.173869,-9030.512492,-4136.915689
21718.798483,3997.112087,-10955.047942,1302.362347
21718.798816,1702.473667,-7624.121203,3677.258390
21718.799150,4367.215058,-11251.130318,4213.525239
21718.799483,4737.318029,-4811.338623,7967.393179
21718.799816,5847.626942,-15396.283594,7277.907231
21718.800149,0.000000,-4811.338623,612.876398
21718.800482,-4145.153275,-8364.327145,0.000000
21718.800815,-1036.288319,-4885.359217,-5822.325785
21718.801149,222.061783,-16580.613101,-76.609550
21718.801482,888.247130,-6069.688724,-995.924147
21718.801815,-4293.194464,-13249.686362,-3064.381992
21718.802148,-5921.647536,-5403.503377,-6741.640382
21718.802481,444.123565,-14211.954086,-76.609550
21718.802814,962.267725,-7698.141797,1532.190996
21718.803148,3552.988522,-3034.844362,3064.381992
21718.803481,3404.947333,-14211.954086,4826.401637
21718.803814,4737.318029,-5995.668130,3677.258390
21718.804147,3330.926739,-8882.471304,5286.058936
21718.804480,3552.988522,-7698.141797,995.924147
21718.804813,444.123565,-8364.327145,-2451.505594
21718.805146,-4515.256246,-12213.398043,-4290.134789
21718.805480,0.000000,-6365.771101,-4366.744339
21718.805813,-4811.338623,-13249.686362,-2757.943793
21718.806146,2812.782580,-6809.894666,-76.609550
21718.806479,2294.638420,-12435.459826,2987.772442
21718.806812,1184.329507,-6587.832884,4903.011187
21718.807145,2294.638420,-6217.729913,0.000000
21718.807479,2294.638420,-10658.965565,2374.896044
21718.807812,3478.967927,-8808.450710,1225.752797
21718.808145,2886.803174,-9844.739029,4673.182538
21718.808478,2516.700203,-10066.800811,1762.019645
21718.808811,-2812.782580,-9844.739029,-2528.115143
21718.809144,-2442.679609,-10732.986159,-2298.286494
21718.809478,-5921.647536,-9548.656652,-4290.134789
21718.809811,-4441.235652,-7179.997637,-2451.505594
21718.810144,-1258.350101,-10658.965565,-1915.238745
21718.810477,0.000000,-7476.080014,536.266849
21718.810810,740.205942,-7179.997637,5822.325785
21718.811143,2146.597232,-6661.853478,3294.210641
21718.811477,666.185348,-10066.800811,2987.772442
21718.811810,2516.700203,-7920.203579,2757.943793
21718.812143,888.247130,-10140.821405,1915.238745
21718.812476,0.000000,-7624.121203,306.438199
21718.812809,-1480.411884,-7772.162391,0.000000
21718.813142,-1554.432478,-14211.954086,-2834.553343
21718.813475,-370.102971,-7476.080014,-2145.067394
21718.813809,-5921.647536,-9548.656652,-2145.067394
21718.814142,-148.041188,-11251.130318,-76.609550
21718.814475,-888.247130,-7179.997637,0.000000
21718.814808,0.000000,-10658.965565,3064.381992
21718.815141,3182.885551,-3997.112087,3600.648841
21718.815474,1554.432478,-9178.553681,1762.019645
21718.815808,5625.565159,-10362.883188,6052.154434
21718.816141,296.082377,-7994.224174,1762.019645
21718.816474,-2368.659014,-9548.656652,1378.971896
21718.816807,-1850.514855,-7994.224174,-1915.238745
21718.817140,-74.020594,-9326.594869,-4979.620737
21718.817473,0.000000,-10436.903782,-612.876398
21718.817807,-3108.864956,-9844.739029,-4060.306139
21718.818140,-3256.906145,-10288.862594,-2528.115143
21718.818473,-2368.659014,-9548.656652,-1838.629195
21718.818806,2294.638420,-11251.130318,995.924147
21718.819139,592.164754,-6587.832884,4366.744339
21718.819472,7031.956449,-9474.636058,4826.401637
21718.819805,2812.782580,-5107.421000,3064.381992
21718.820139,2886.803174,-10955.047942,4519.963438
21718.820472,3108.864956,-6069.688724,1532.190996
21718.820805,-3182.885551,-13101.645173,-1378.971896
21718.821138,296.082377,-8438.347739,-4596.572988
21718.821471,-3256.906145,-10732.986159,-1225.752797
21718.821804,-2442.679609,-8734.430116,-5515.887586
21718.822138,518.144159,-7254.018232,-1608.800546
21718.822471,-1850.514855,-11029.068536,0.000000
21718.822804,4515.256246,-8882.471304,4443.353888
21718.823137,2368.659014,-3034.844362,2451.505594
21718.823470,4663.297435,-10658.965565,1762.019645
21718.823803,3182.885551,-5403.503377,0.000000
21718.824137,4071.132681,-13027.624579,3600.648841
21718.824470,4663.297435,-11251.130318,2374.896044
21718.824803,0.000000,-8364.327145,0.000000
21718.825136,-2294.638420,-10732.986159,-3983.696590
21718.825469,-2072.576638,-10436.903782,-766.095498
21718.825802,-2516.700203,-7328.038826,-3753.867940
21718.826136,-1776.494261,-8808.450710,-153.219100
21718.826469,1702.473667,-7698.141797,-689.485948
21718.826802,0.000000,-9548.656652,2451.505594
21718.827135,1184.329507,-5107.421000,5439.278036
21718.827468,1110.308913,-9474.636058,1149.143247
21718.827801,1184.329507,-7772.162391,3370.820191
21718.828134,1554.432478,-10732.986159,1532.190996
21718.828468,-1332.370696,-10807.006753,-306.438199
21718.828801,-1184.329507,-8068.244768,-1915.238745
21718.829134,-3627.009116,-13027.624579,-1455.581446
21718.829467,-74.020594,-9178.553681,-3677.258390
21718.829800,-3552.988522,-10510.924376,-76.609550
21718.830133,-2368.659014,-9696.697840,-76.609550
21718.830467,1110.308913,-6365.771101,-995.924147
21718.830800,1998.556043,-11843.295072,3600.648841
21718.831133,2368.659014,-5403.503377,4136.915689
21718.831466,-370.102971,-8882.471304,1685.410096
21718.831799,2146.597232,-8142.265362,995.924147
21718.832132,296.082377,-8660.409521,153.219100
21718.832466,0.000000,-10140.821405,-2451.505594
21718.832799,370.102971,-11843.295072,2987.772442
21718.833132,-3627.009116,-7550.100608,-2757.943793
21718.833465,-1554.432478,-8364.327145,0.000000
21718.833798,-1554.432478,-11251.130318,-1608.800546
21718.834131,-2368.659014,-9104.533087,-2911.162892
21718.834465,-3256.906145,-7846.182985,-1302.362347
21718.834798,-592.164754,-10881.027347,306.438199
21718.835131,296.082377,-3923.091493,2068.457845
21718.835464,2294.638420,-8216.285956,4213.525239
21718.835797,5033.400406,-7179.997637,3447.429741
21718.836130,4367.215058,-10658.965565,2681.334243
21718.836463,2368.659014,-10510.924376,3370.820191
21718.836797,3478.967927,-11843.295072,-76.609550
21718.837130,-4071.132681,-8364.327145,-4290.134789
21718.837463,-74.020594,-14211.954086,-689.485948
21718.837796,1110.308913,-8882.471304,-1608.800546
21718.838129,-1628.453072,-10140.821405,306.438199
21718.838462,1110.308913,-8290.306550,76.609550
21718.838796,2590.720797,-9030.512492,3447.429741
21718.839129,3256.906145,-7698.141797,5132.839837
21718.839462,3182.885551,-5773.606348,3600.648841
21718.839795,1776.494261,-7476.080014,4596.572988
21718.840128,2664.741391,-5403.503377,1225.752797
21718.840461,4663.297435,-11843.295072,-76.609550
21718.840795,1406.391290,-9474.636058,-3140.991542
21718.841128,-3034.844362,-13027.624579,-4903.011187
21718.841461,-1258.350101,-14211.954086,-3140.991542
21718.841794,-2220.617826,-10658.965565,-689.485948
21718.842127,-3849.070898,-8512.368333,-2757.943793
21718.842460,0.000000,-7920.203579,229.828649
21718.842793,1110.308913,-10658.965565,2987.772442
21718.843127,5625.565159,-7105.977043,8503.660028
21718.843460,2294.638420,-7105.977043,4060.306139
21718.843793,1258.350101,-5699.585753,2757.943793
21718.844126,2368.659014,-11473.192101,6741.640382
21718.844459,2146.597232,-9474.636058,1532.190996
21718.844792,-148.041188,-8364.327145,-2681.334243
21718.845126,-5181.441594,-12435.459826,-4136.915689
21718.845459,-1332.370696,-10955.047942,-3447.429741
21718.845792,-7105.977043,-13101.645173,-3677.258390
21718.846125,-666.185348,-8290.306550,-3907.087040
21718.846458,-3849.070898,-8364.327145,-1532.190996
21718.846791,1480.411884,-8364.327145,4366.744339
21718.847125,4663.297435,-8290.306550,7277.907231
21718.847458,1332.370696,-5033.400406,5439.278036
21718.847791,2368.659014,-6735.874072,2834.553343
21718.848124,370.102971,-10658.965565,1532.190996
21718.848457,2294.638420,-8808.450710,1302.362347
21718.848790,-1258.350101,-10510.924376,-76.609550
21718.849124,-666.185348,-8956.491898,-4903.011187
21718.849457,-2960.823768,-11621.233289,-2834.553343
21718.849790,-1480.411884,-14211.954086,2068.457845
21718.850123,-2442.679609,-8290.306550,-2528.115143
21718.850456,-2368.659014,-8586.388927,-1302.362347
21718.850789,74.020594,-8882.471304,-1072.533697
21718.851122,1776.494261,-9918.759623,4826.401637
21718.851456,3182.885551,-5255.462188,4596.572988
21718.851789,4885.359217,-10732.986159,6971.469032
21718.852122,5403.503377,-6661.853478,3753.867940
21718.852455,2220.617826,-9474.636058,2451.505594
21718.852788,2442.679609,-6809.894666,-1608.800546
21718.853121,-4071.132681,-11917.315666,-4749.792088
21718.853455,-2368.659014,-11177.109724,-3753.867940
21718.853788,-666.185348,-12435.459826,-2068.457845
21718.854121,-666.185348,-7476.080014,-4136.915689
21718.854454,0.000000,-8660.409521,-76.609550
21718.854787,-370.102971,-9474.636058,-76.609550
21718.855120,3849.070898,-7772.162391,3600.648841
21718.855454,2368.659014,-5995.668130,3677.258390
21718.855787,4663.297435,-9252.574275,3524.039291
21718.856120,3552.988522,-6883.915261,3677.258390
21718.856453,1776.494261,-10732.986159,6588.421283
21718.856786,2886.803174,-5921.647536,-1302.362347
21718.857119,-2368.659014,-9548.656652,-3677.258390
21718.857453,0.000000,-8068.244768,-4903.011187
21718.857786,-2368.659014,-14285.974681,-3677.258390
21718.858119,-1702.473667,-9474.636058,-3217.601092
21718.858452,-2294.638420,-11843.295072,-1991.848295
21718.858785,444.123565,-7624.121203,0.000000
21718.859119,5847.626942,-11843.295072,5439.278036
21718.859452,2368.659014,-6587.832884,7890.783629
21718.859785,4663.297435,-4811.338623,0.000000
21718.860118,3627.009116,-10955.047942,5439.278036
21718.860452,1998.556043,-10658.965565,3294.210641
21718.860785,-222.061783,-6957.935855,-76.609550
21718.861118,-3034.844362,-10955.047942,-1991.848295
21718.861451,-2738.761985,-10362.883188,-4979.620737
21718.861784,-5329.482782,-13175.665768,-2451.505594
21718.862118,-7105.977043,-5995.668130,-4903.011187
21718.862451,-2442.679609,-10658.965565,-1915.238745
21718.862784,-2368.659014,-9548.656652,0.000000
21718.863117,3627.009116,-9474.636058,6665.030833
21718.863451,814.226536,-7105.977043,3677.258390
21718.863784,592.164754,-5329.482782,1685.410096
21718.864117,2738.761985,-6587.832884,1838.629195
21718.864450,4367.215058,-11251.130318,3140.991542
21718.864784,1332.370696,-9178.553681,1762.019645
21718.865117,-2368.659014,-11473.192101,-2451.505594
21718.865450,-666.185348,-9918.759623,-6511.811733
21718.865783,-3552.988522,-14137.933492,-689.485948
21718.866117,-74.020594,-9474.636058,-1302.362347
21718.866450,-3997.112087,-6291.750507,-2451.505594
21718.866783,-1184.329507,-5847.626942,-689.485948
21718.867116,2886.803174,-9548.656652,2145.067394
21718.867449,3330.926739,-8290.306550,4979.620737
21718.867783,2220.617826,-7402.059420,2987.772442
21718.868116,3552.988522,-7179.997637,2757.943793
21718.868449,3478.967927,-11103.089130,2451.505594
21718.868782,2516.700203,-7846.182985,153.219100
21718.869116,-74.020594,-9770.718434,-2757.943793
21718.869449,-3108.864956,-11473.192101,-3753.867940
21718.869782,-2368.659014,-13101.645173,-2451.505594
21718.870115,-74.020594,-9326.594869,-1915.238745
21718.870449,-2738.761985,-7476.080014,-2451.505594
21718.870782,592.164754,-8882.471304,-76.609550
21718.871115,4071.132681,-9474.636058,3600.648841
21718.871448,592.164754,-6587.832884,4903.011187
21718.871781,4663.297435,-4145.153275,1915.238745
21718.872115,4293.194464,-11029.068536,4673.182538
21718.872448,3182.885551,-8956.491898,1685.410096
21718.872781,3256.906145,-9474.636058,2987.772442
21718.873114,-74.020594,-8734.430116,-3677.258390
21718.873448,0.000000,-10066.800811,-612.876398
21718.873781,-74.020594,-11843.295072,-4979.620737
21718.874114,-1702.473667,-13175.665768,-3294.210641
21718.874447,-1628.453072,-8734.430116,-2068.457845
21718.874781,-1554.432478,-11251.130318,-229.828649
21718.875114,4219.173869,-7920.203579,2834.553343
21718.875447,4959.379811,-9770.718434,4826.401637
21718.875780,4071.132681,-8290.306550,6052.154434
21718.876114,6439.791695,-4737.318029,612.876398
21718.876447,2368.659014,-11843.295072,4826.401637
21718.876780,1702.473667,-9474.636058,-76.609550
21718.877113,-2442.679609,-7179.997637,-4136.915689
21718.877446,-3330.926739,-11843.295072,-3753.867940
21718.877780,-3404.947333,-11029.068536,-4903.011187
21718.878113,-5699.585753,-11843.295072,-3677.258390
21718.878446,-4737.318029,-8142.265362,-4366.744339
21718.878779,-4737.318029,-9548.656652,-1225.752797
21718.879113,-1184.329507,-7179.997637,1225.752797
21718.879446,1480.411884,-9030.512492,7584.345430
21718.879779,1110.308913,-4737.318029,1455.581446
21718.880112,1184.329507,-5995.668130,5515.887586
21718.880446,6439.791695,-7105.977043,4826.401637
21718.880779,4219.173869,-8512.368333,4979.620737
21718.881112,962.267725,-9178.553681,-766.095498
21718.881445,-3701.029710,-12583.501014,-5132.839837
21718.881779,-4515.256246,-11029.068536,-7354.516781
21718.882112,-5477.523971,-14804.118840,-2834.553343
21718.882445,-4071.132681,-7105.977043,-2757.943793
21718.882778,-4811.338623,-9992.780217,-2298.286494
21718.883111,1406.391290,-6661.853478,5439.278036
21718.883445,4663.297435,-11251.130318,4826.401637
21718.883778,4737.318029,-1554.432478,6128.763984
21718.884111,5625.565159,-8290.306550,9729.412825
21718.884444,6439.791695,-7994.224174,2374.896044
21718.884778,2368.659014,-9548.656652,3983.696590
21718.885111,-1110.308913,-8290.306550,-6511.811733
21718.885444,-1184.329507,-14063.912898,-3677.258390
21718.885777,-3404.947333,-10732.986159,-6588.421283
21718.886111,-962.267725,-14211.954086,-4366.744339
21718.886444,-3552.988522,-8068.244768,306.438199
21718.886777,518.144159,-7179.997637,-2451.505594
21718.887110,592.164754,-7476.080014,2987.772442
21718.887443,7920.203579,-10066.800811,8503.660028
21718.887777,3182.885551,-4737.318029,4519.963438
21718.888110,5255.462188,-6513.812290,4749.792088
21718.888443,4071.132681,-8142.265362,2987.772442
21718.888776,2072.576638,-10584.944971,2681.334243
21718.889110,1554.432478,-7550.100608,-1915.238745
21718.889443,-666.185348,-14211.954086,-3140.991542
21718.889776,-3256.906145,-11029.068536,-4903.011187
21718.890109,-370.102971,-14211.954086,-1915.238745
21718.890443,-2442.679609,-6735.874072,-2451.505594
21718.890776,-3552.988522,-6587.832884,-2451.505594
21718.891109,518.144159,-9030.512492,-919.314598
21718.891442,4737.318029,-10510.924376,4673.182538
21718.891776,2738.761985,-8734.430116,3907.087040
21718.892109,3849.070898,-7920.203579,5592.497135
21718.892442,1702.473667,-6661.853478,1455.581446
21718.892775,5033.400406,-11251.130318,7277.907231
21718.893108,2886.803174,-8290.306550,1762.019645
21718.893442,-1850.514855,-8364.327145,-3677.258390
21718.893775,-3256.906145,-9326.594869,-2911.162892
21718.894108,-2960.823768,-13323.706956,-3447.429741
21718.894441,-3256.906145,-9474.636058,-1762.019645
21718.894775,-4367.215058,-9844.739029,-2911.162892
21718.895108,-1924.535449,-8660.409521,459.657299
21718.895441,0.000000,-7772.162391,3677.258390
21718.895774,3478.967927,-9474.636058,4213.525239
21718.896108,1332.370696,-5477.523971,2451.505594
21718.896441,-2368.659014,-7179.997637,4903.011187
21718.896774,4589.276840,-10584.944971,4749.792088
21718.897107,0.000000,-8364.327145,1838.629195
21718.897440,-444.123565,-9844.739029,-1072.533697
21718.897774,-1258.350101,-9474.636058,-2528.115143
21718.898107,-1776.494261,-13767.830521,-2681.334243
21718.898440,-3478.967927,-8364.327145,-2451.505594
21718.898773,-3182.885551,-9030.512492,-3217.601092
21718.899107,-296.082377,-9622.677246,0.000000
21718.899440,2072.576638,-8734.430116,4673.182538
21718.899773,4071.132681,-7994.224174,4213.525239
21718.900106,3478.967927,-6291.750507,3677.258390
21718.900440,3849.070898,-6883.915261,5439.278036
21718.900773,5847.626942,-10658.965565,-383.047749
21718.901106,0.000000,-9844.739029,2451.505594
21718.901439,-1480.411884,-11177.109724,-2834.553343
21718.901773,-1850.514855,-10066.800811,-3524.039291
21718.902106,-1406.391290,-12731.542202,-1608.800546
21718.902439,-2664.741391,-9474.636058,-2451.505594
21718.902772,-2368.659014,-6957.935855,-1608.800546
21718.903105,-2960.823768,-4811.338623,0.000000
21718.903439,4663.297435,-9474.636058,2987.772442
21718.903772,4663.297435,-10658.965565,5745.716235
21718.904105,1776.494261,-5995.668130,1838.629195
21718.904438,4071.132681,-9474.636058,1149.143247
21718.904772,1480.411884,-11325.150913,1915.238745
21718.905105,2146.597232,-10362.883188,-383.047749
21718.905438,-74.020594,-10066.800811,-2528.115143
21718.905771,-1184.329507,-11325.150913,0.000000
21718.906105,-888.247130,-10732.986159,0.000000
21718.906438,-296.082377,-9474.636058,1149.143247
21718.906771,-666.185348,-6587.832884,-2451.505594
21718.907104,-3552.988522,-7179.997637,0.000000
21718.907438,2368.659014,-7328.038826,0.000000
21718.907771,2220.617826,-9770.718434,2834.553343
21718.908104,-74.020594,-10214.842000,1762.019645
21718.908437,3701.029710,-5329.482782,3983.696590
21718.908770,2294.638420,-10362.883188,4213.525239
21718.909104,1184.329507,-5995.668130,689.485948
21718.909437,-74.020594,-11251.130318,-3140.991542
21718.909770,-4071.132681,-11917.315666,-5822.325785
21718.910103,0.000000,-10658.965565,-1072.533697
21718.910437,-666.185348,-15100.201217,-153.219100
21718.910770,-74.020594,-7698.141797,-1915.238745
21718.911103,518.144159,-9622.677246,2068.457845
21718.911436,3108.864956,-8660.409521,2987.772442
21718.911770,3182.885551,-7105.977043,4213.525239
21718.912103,3108.864956,-8290.306550,3600.648841
21718.912436,888.247130,-5995.668130,2757.943793
21718.912769,-2368.659014,-8364.327145,2757.943793
21718.913102,4071.132681,-11251.130318,1762.019645
21718.913436,-666.185348,-8882.471304,-919.314598
21718.913769,-1480.411884,-9770.718434,-3524.039291
21718.914102,-2960.823768,-11399.171507,-2757.943793
21718.914435,-3330.926739,-11843.295072,-2221.676944
21718.914769,-4441.235652,-6143.709319,-4060.306139
21718.915102,-1924.535449,-9474.636058,-1608.800546
21718.915435,296.082377,-8660.409521,2604.724693
21718.915768,3034.844362,-7920.203579,7354.516781
21718.916102,2812.782580,-4515.256246,4519.963438
21718.916435,3478.967927,-7402.059420,2987.772442
21718.916768,2812.782580,-9104.533087,4826.401637
21718.917101,3478.967927,-11251.130318,-1302.362347
21718.917435,0.000000,-8364.327145,-1072.533697
21718.917768,-3552.988522,-11029.068536,-4290.134789
21718.918101,-1258.350101,-12287.418637,-4366.744339
21718.918434,-1924.535449,-10658.965565,-1762.019645
21718.918767,-4071.132681,-8956.491898,-3447.429741
21718.919101,-666.185348,-9178.553681,1915.238745
21718.919434,-2368.659014,-5995.668130,1838.629195
21718.919767,3923.091493,-7994.224174,4213.525239
21718.920100,518.144159,-4737.318029,3907.087040
21718.920434,0.000000,-5995.668130,1838.629195
21718.920767,6439.791695,-10658.965565,3600.648841
21718.921100,296.082377,-12213.398043,3064.381992
21718.921433,-370.102971,-8068.244768,-4290.134789
21718.921767,-2220.617826,-12361.439231,-3600.648841
21718.922100,-962.267725,-11991.336260,-3830.477490
21718.922433,1776.494261,-12805.562797,766.095498
21718.922766,1998.556043,-11843.295072,2374.896044
21718.923099,-518.144159,-5107.421000,-1838.629195
21718.923433,0.000000,-8364.327145,4443.353888
21718.923766,5255.462188,-8734.430116,5132.839837
21718.924099,1776.494261,-4811.338623,4749.792088
21718.924432,370.102971,-8142.265362,1072.533697
21718.924766,1924.535449,-7624.121203,459.657299
21718.925099,0.000000,-11029.068536,306.438199
21718.925432,2294.638420,-7994.224174,-1302.362347
21718.925765,-1258.350101,-12435.459826,-7431.126331
21718.926099,-5329.482782,-13397.727550,-4749.792088
21718.926432,1776.494261,-11769.274478,2911.162892
21718.926765,-1258.350101,-10658.965565,-76.609550
21718.927098,2516.700203,-6069.688724,2911.162892
21718.927432,1184.329507,-8808.450710,4213.525239
21718.927765,4811.338623,-6809.894666,5822.325785
21718.928098,2886.803174,-6957.935855,3753.867940
21718.928431,1924.535449,-8882.471304,3600.648841
21718.928764,740.205942,-4737.318029,0.000000
21718.929098,-148.041188,-9992.780217,-306.438199
21718.929431,-666.185348,-9474.636058,-3600.648841
21718.929764,-6513.812290,-10732.986159,-5515.887586
21718.930097,0.000000,-8956.491898,-3064.381992
21718.930431,-74.020594,-13323.706956,-1915.238745
21718.930764,-1184.329507,-7772.162391,-2145.067394
21718.931097,-2368.659014,-9548.656652,1915.238745
21718.931430,370.102971,-5403.503377,919.314598
21718.931764,3849.070898,-9548.656652,5439.278036
21718.932097,2886.803174,-6143.709319,6818.249932
21718.932430,2516.700203,-6439.791695,1762.019645
21718.932763,888.247130,-9474.636058,3677.258390
21718.933097,1110.308913,-10214.842000,-612.876398
21718.933430,2294.638420,-9474.636058,-2068.457845
21718.933763,-4145.153275,-9844.739029,-919.314598
21718.934096,-2368.659014,-8660.409521,-4443.353888
21718.934429,-2294.638420,-14434.015869,-1225.752797
21718.934763,-4145.153275,-9992.780217,-1302.362347
21718.935096,-1406.391290,-7772.162391,-2374.896044
21718.935429,-370.102971,-9918.759623,2834.553343
21718.935762,5107.421000,-5921.647536,3907.087040
21718.936096,0.000000,-9548.656652,7967.393179
21718.936429,74.020594,-2368.659014,383.047749
21718.936762,296.082377,-8364.327145,0.000000
21718.937095,2294.638420,-11103.089130,1149.143247
21718.937429,4367.215058,-7105.977043,1149.143247
21718.937762,-1850.514855,-12583.501014,-3294.210641
21718.938095,0.000000,-10436.903782,-1532.190996
21718.938428,-2664.741391,-12065.356855,-3217.601092
21718.938761,592.164754,-11917.315666,459.657299
21718.939095,-222.061783,-9992.780217,-76.609550
21718.939428,0.000000,-6587.832884,612.876398
21718.939761,1184.329507,-6587.832884,6128.763984
21718.940094,5847.626942,-7105.977043,5439.278036
21718.940428,592.164754,-3627.009116,1225.752797
21718.940761,3478.967927,-9474.636058,3753.867940
21718.941094,2886.803174,-8734.430116,0.000000
21718.941427,-444.123565,-11029.068536,-766.095498
21718.941761,-2442.679609,-10288.862594,-4673.182538
21718.942094,-3034.844362,-10510.924376,-5592.497135
21718.942427,-2368.659014,-11621.233289,-689.485948
21718.942760,1110.308913,-11843.295072,2374.896044
21718.943094,-1258.350101,-7105.977043,-3524.039291
21718.943427,0.000000,-6587.832884,0.000000
21718.943760,2294.638420,-10955.047942,3600.648841
21718.944093,3034.844362,-7179.997637,5898.935335
21718.944426,2812.782580,-5477.523971,4519.963438
21718.944760,1332.370696,-7328.038826,2528.115143
21718.945093,4071.132681,-8882.471304,-76.609550
21718.945426,740.205942,-10881.027347,1532.190996
21718.945759,-2812.782580,-10288.862594,-3370.820191
21718.946093,-4293.194464,-8808.450710,-5439.278036
21718.946426,-5625.565159,-11325.150913,-6128.763984
21718.946759,-1850.514855,-14211.954086,-2834.553343
21718.947092,-2590.720797,-7105.977043,-1915.238745
21718.947426,-2368.659014,-8364.327145,612.876398
21718.947759,4663.297435,-7994.224174,7277.907231
21718.948092,2590.720797,-7772.162391,6128.763984
21718.948425,5847.626942,-6513.812290,5439.278036
21718.948759,2072.576638,-7476.080014,4290.134789
21718.949092,2146.597232,-9474.636058,459.657299
21718.949425,3478.967927,-13027.624579,2987.772442
21718.949758,-370.102971,-9474.636058,-3753.867940
21718.950091,-5625.565159,-11917.315666,-4903.011187
21718.950425,-6809.894666,-10732.986159,-2451.505594
21718.950758,-370.102971,-12435.459826,-1302.362347
21718.951091,-2368.659014,-6883.915261,2528.115143
21718.951424,-1110.308913,-7179.997637,0.000000
21718.951758,1258.350101,-5847.626942,3830.477490
21718.952091,1406.391290,-8808.450710,3370.820191
21718.952424,4367.215058,-5921.647536,4213.525239
21718.952757,2294.638420,-8882.471304,1149.143247
21718.953091,2368.659014,-7179.997637,995.924147
21718.953424,3182.885551,-12879.583391,1149.143247
21718.953757,-74.020594,-8364.327145,-4903.011187
21718.954090,-74.020594,-12435.459826,-3140.991542
21718.954423,-2368.659014,-11177.109724,-4596.572988
21718.954757,-74.020594,-14804.118840,-4366.744339
21718.955090,-4071.132681,-9548.656652,-995.924147
21718.955423,1184.329507,-6291.750507,1532.190996
21718.955756,1998.556043,-5181.441594,2757.943793
21718.956090,8586.388927,-8586.388927,10955.165621
21718.956423,-74.020594,-5477.523971,2451.505594
21718.956756,3108.864956,-7402.059420,5822.325785
21718.957089,-222.061783,-6291.750507,1302.362347
21718.957423,814.226536,-8882.471304,-2528.115143
21718.957756,666.185348,-10510.924376,-1072.533697
21718.958089,-3775.050304,-12435.459826,-6358.592633
21718.958422,1036.288319,-11251.130318,-3753.867940
21718.958755,-5921.647536,-14285.974681,-2145.067394
21718.959088,-74.020594,-8882.471304,-4366.744339
21718.959421,-74.020594,-10658.965565,0.000000
21718.959754,3478.967927,-8734.430116,2374.896044
21718.960087,4737.318029,-5995.668130,6128.763984
21718.960421,4367.215058,-7105.977043,6971.469032
21718.960754,5255.462188,-8290.306550,3600.648841
21718.961087,1406.391290,-6143.709319,2604.724693
21718.961420,4071.132681,-11547.212695,-76.609550
21718.961753,-2368.659014,-12657.521608,-689.485948
21718.962086,-2146.597232,-7846.182985,-4366.744339
21718.962419,-5329.482782,-13471.748144,-4366.744339
21718.962752,-1924.535449,-10140.821405,-995.924147
21718.963085,-1258.350101,-8882.471304,-76.609550
21718.963418,-4737.318029,-7179.997637,-4290.134789
21718.963751,666.185348,-8734.430116,2068.457845
21718.964085,-74.020594,-10362.883188,3064.381992
21718.964418,2368.659014,-3034.844362,4903.011187
21718.964751,4663.297435,-8882.471304,5132.839837
21718.965084,3478.967927,-8734.430116,2221.676944
21718.965417,2886.803174,-9770.718434,2374.896044
21718.965750,-888.247130,-9696.697840,-2068.457845
21718.966083,-666.185348,-7698.141797,-5592.497135
21718.966416,-4737.318029,-13989.892304,-1608.800546
21718.966749,296.082377,-10732.986159,-76.609550
21718.967082,-666.185348,-10658.965565,-995.924147
21718.967415,0.000000,-7328.038826,0.000000
21718.967749,1110.308913,-5921.647536,1225.752797
21718.968082,1036.288319,-7920.203579,3830.477490
21718.968415,3627.009116,-5181.441594,2528.115143
21718.968748,-1480.411884,-10658.965565,2834.553343
21718.969081,296.082377,-4811.338623,0.000000
21718.969414,0.000000,-13323.706956,3294.210641
21718.969747,962.267725,-10214.842000,0.000000
21718.970080,-1554.432478,-5995.668130,-4903.011187
21718.970413,-1110.308913,-13619.789333,-76.609550
21718.970746,592.164754,-8660.409521,-2298.286494
21718.971079,-1258.350101,-12879.583391,-689.485948
21718.971412,-1554.432478,-8142.265362,-2298.286494
21718.971746,370.102971,-7624.121203,76.609550
21718.972079,3849.070898,-11029.068536,7354.516781
21718.972412,6439.791695,-9474.636058,4826.401637
21718.972745,1258.350101,-5107.421000,3677.258390
21718.973078,740.205942,-7698.141797,4826.401637
21718.973411,4071.132681,-9474.636058,1149.143247
21718.973744,-3552.988522,-8364.327145,1838.629195
21718.974077,-370.102971,-4441.235652,-5669.106685
21718.974410,-2516.700203,-13175.665768,-3370.820191
21718.974743,-518.144159,-11399.171507,-2221.676944
21718.975076,-1776.494261,-10807.006753,-3677.258390
21718.975410,-3034.844362,-9992.780217,-2604.724693
21718.975743,1036.288319,-9474.636058,-306.438199
21718.976076,2960.823768,-10214.842000,5362.668486
21718.976409,4071.132681,-5921.647536,4826.401637
21718.976742,1924.535449,-4811.338623,2451.505594
21718.977075,2960.823768,-9474.636058,4826.401637
21718.977408,5551.544565,-9474.636058,2987.772442
21718.977741,592.164754,-9548.656652,1838.629195
21718.978074,-74.020594,-10362.883188,-4979.620737
21718.978407,-3552.988522,-13767.830521,-3830.477490
21718.978740,-2220.617826,-8586.388927,-2757.943793
21718.979074,-2072.576638,-12953.603985,-1378.971896
21718.979407,-2960.823768,-5995.668130,-2451.505594
21718.979740,-74.020594,-10288.862594,0.000000
21718.980073,3034.844362,-8142.265362,5745.716235
21718.980406,2294.638420,-6957.935855,4903.011187
21718.980739,74.020594,-2442.679609,612.876398
21718.981072,2960.823768,-8068.244768,1378.971896
21718.981405,2368.659014,-9548.656652,2451.505594
21718.981738,2368.659014,-10807.006753,-306.438199
21718.982071,-1850.514855,-10584.944971,-3524.039291
21718.982404,-1850.514855,-14804.118840,-2681.334243
21718.982738,-2220.617826,-8956.491898,-4290.134789
21718.983071,-666.185348,-15396.283594,-689.485948
21718.983404,-888.247130,-5107.421000,0.000000
21718.983737,-592.164754,-10436.903782,2451.505594
21718.984070,4811.338623,-7402.059420,7201.297681
21718.984403,2516.700203,-7994.224174,6971.469032
21718.984736,2738.761985,-4737.318029,3830.477490
21718.985069,2590.720797,-8216.285956,2681.334243
21718.985402,-2368.659014,-8882.471304,-1608.800546
21718.985735,0.000000,-10732.986159,0.000000
21718.986068,-5995.668130,-9844.739029,-6741.640382
21718.986402,-2146.597232,-7772.162391,-7048.078582
21718.986735,-3256.906145,-11991.336260,-995.924147
21718.987068,-74.020594,-12731.542202,-1302.362347
21718.987401,518.144159,-7402.059420,612.876398
21718.987734,0.000000,-9400.615463,2221.676944
21718.988067,3923.091493,-6809.894666,3447.429741
21718.988400,3256.906145,-9326.594869,5592.497135
21718.988733,1998.556043,-9474.636058,4213.525239
21718.989066,2664.741391,-4811.338623,1838.629195
21718.989399,2368.659014,-10510.924376,3677.258390
21718.989732,4663.297435,-13027.624579,-1302.362347
21718.990065,-2738.761985,-10658.965565,-383.047749
21718.990399,-1406.391290,-6513.812290,-5898.935335
21718.990732,-888.247130,-13471.748144,-1685.410096
21718.991065,-222.061783,-10510.924376,-76.609550
21718.991398,-3997.112087,-9548.656652,-2374.896044
21718.991731,-74.020594,-9178.553681,1149.143247
21718.992064,1332.370696,-5773.606348,1225.752797
21718.992397,3478.967927,-10807.006753,6052.154434
21718.992730,3627.009116,-4441.235652,4519.963438
21718.993063,0.000000,-5995.668130,-2451.505594
21718.993396,1480.411884,-11251.130318,-76.609550
21718.993729,2294.638420,-11843.295072,-76.609550
21718.994063,0.000000,-9696.697840,-306.438199
21718.994396,962.267725,-9474.636058,-3447.429741
21718.994729,-814.226536,-10214.842000,-4903.011187
21718.995062,1554.432478,-12139.377449,-153.219100
21718.995395,-1036.288319,-8364.327145,0.000000
21718.995728,2516.700203,-8808.450710,-995.924147
21718.996061,0.000000,-11029.068536,4903.011187
21718.996394,5477.523971,-9474.636058,9729.412825
21718.996727,1258.350101,-3627.009116,4903.011187
21718.997060,592.164754,-1258.350101,1532.190996
21718.997393,1332.370696,-9474.636058,-689.485948
21718.997727,-1702.473667,-10140.821405,0.000000
21718.998060,-2960.823768,-10510.924376,-4673.182538
21718.998393,-3923.091493,-11917.315666,-4903.011187
21718.998726,-3552.988522,-11251.130318,-3753.867940
21718.999059,-74.020594,-10362.883188,-689.485948
21718.999392,-74.020594,-13619.789333,-76.609550
21718.999725,-962.267725,-5551.544565,0.000000
21719.000058,3552.988522,-8882.471304,7201.297681
21719.000391,4663.297435,-8290.306550,4213.525239
21719.000724,3552.988522,-9252.574275,6665.030833
21719.001057,740.205942,-5403.503377,1149.143247
21719.001391,1924.535449,-9178.553681,2911.162892
21719.001724,666.185348,-10510.924376,0.000000
21719.002057,-1480.411884,-9918.759623,-2987.772442
21719.002390,-4219.173869,-11843.295072,-5592.497135
21719.002723,-7698.141797,-10140.821405,-4903.011187
21719.003056,-370.102971,-11843.295072,-1302.362347
21719.003389,-3627.009116,-11547.212695,-76.609550
21719.003722,-1110.308913,-5329.482782,995.924147
21719.004055,-592.164754,-6439.791695,4443.353888
21719.004388,3775.050304,-6587.832884,4366.744339
21719.004721,3330.926739,-7920.203579,6128.763984
21719.005055,0.000000,-7179.997637,2757.943793
21719.005388,2368.659014,-5403.503377,0.000000
21719.005721,370.102971,-14211.954086,-383.047749
21719.006054,3478.967927,-12435.459826,-2528.115143
21719.006387,-4145.153275,-10288.862594,-1838.629195
21719.006720,-1406.391290,-9474.636058,-2528.115143
21719.007053,0.000000,-9992.780217,1149.143247
21719.007386,-2960.823768,-9326.594869,-1532.190996
21719.007719,3034.844362,-6365.771101,2528.115143
21719.008052,-1776.494261,-7772.162391,2757.943793
21719.008385,3552.988522,-4811.338623,2451.505594
21719.008719,-888.247130,-9252.574275,3753.867940
21719.009052,1110.308913,-5625.565159,-1149.143247
21719.009385,2146.597232,-8660.409521,-1225.752797
21719.009718,0.000000,-10140.821405,0.000000
21719.010051,2146.597232,-10732.986159,-3447.429741
21719.010384,-1776.494261,-10140.821405,-689.485948
21719.010717,-74.020594,-11251.130318,-2834.553343
21719.011050,-74.020594,-11251.130318,-1608.800546
21719.011383,0.000000,-10732.986159,2068.457845
21719.011716,-814.226536,-8216.285956,-306.438199
21719.012049,2146.597232,-6883.915261,2911.162892
21719.012382,2294.638420,-5403.503377,3370.820191
21719.012716,6291.750507,-9104.533087,8120.612279
21719.013049,888.247130,-4219.173869,2451.505594
21719.013382,2368.659014,-7772.162391,3294.210641
21719.013715,1406.391290,-11843.295072,-76.609550
21719.014048,-1480.411884,-8660.409521,-2451.505594
21719.014381,-740.205942,-10362.883188,-5898.935335
21719.014714,-3775.050304,-11917.315666,-3983.696590
21719.015047,-1184.329507,-8068.244768,-4749.792088
21719.015380,-2368.659014,-13101.645173,0.000000
21719.015713,-666.185348,-8290.306550,-76.609550
21719.016046,-2368.659014,-5995.668130,3064.381992
21719.016380,3478.967927,-7994.224174,7201.297681
21719.016713,5551.544565,-8882.471304,4213.525239
21719.017046,592.164754,-4811.338623,4903.011187
21719.017379,3182.885551,-6365.771101,2374.896044
21719.017712,2294.638420,-7920.203579,229.828649
21719.018045,518.144159,-13323.706956,-153.219100
21719.018378,-3256.906145,-10288.862594,-3907.087040
21719.018711,-4441.235652,-11029.068536,-5362.668486
21719.019044,-4737.318029,-8660.409521,-2145.067394
21719.019377,-1850.514855,-15100.201217,-1302.362347
21719.019710,-3701.029710,-3627.009116,-1608.800546
21719.020044,-2368.659014,-7179.997637,2451.505594
21719.020377,4071.132681,-5329.482782,4290.134789
21719.020710,3478.967927,-7624.121203,7584.345430
21719.021043,2738.761985,-5773.606348,3753.867940
21719.021376,1702.473667,-6883.915261,1685.410096
21719.021709,0.000000,-7179.997637,-1762.019645
21719.022042,1406.391290,-13397.727550,-1838.629195
21719.022375,-3404.947333,-11177.109724,-3064.381992
21719.022708,-2886.803174,-11177.109724,-4979.620737
21719.023041,-1258.350101,-13027.624579,-995.924147
21719.023374,-74.020594,-11251.130318,-766.095498
21719.023708,-3552.988522,-8068.244768,153.219100
21719.024041,-2368.659014,-4811.338623,2451.505594
21719.024374,3330.926739,-8882.471304,2987.772442
21719.024707,4145.153275,-8512.368333,6128.763984
21719.025040,4071.132681,-6661.853478,5745.716235
21719.025373,4441.235652,-6217.729913,3370.820191
21719.025706,1776.494261,-7920.203579,689.485948
21719.026039,1406.391290,-13027.624579,-1915.238745
21719.026372,-814.226536,-11251.130318,-2528.115143
21719.026705,-5921.647536,-11325.150913,-4903.011187
21719.027038,-962.267725,-12435.459826,-3753.867940
21719.027372,-1258.350101,-12879.583391,-1915.238745
21719.027705,-74.020594,-9178.553681,-76.609550
21719.028038,518.144159,-7031.956449,919.314598
21719.028371,2664.741391,-5255.462188,2451.505594
21719.028704,5995.668130,-7105.977043,5209.449386
21719.029037,2368.659014,-5107.421000,6741.640382
21719.029370,5551.544565,-8290.306550,2681.334243
21719.029703,0.000000,-10140.821405,5286.058936
21719.030036,4367.215058,-10658.965565,-1915.238745
21719.030369,-2072.576638,-9548.656652,-3677.258390
21719.030702,-4737.318029,-12805.562797,-7354.516781
21719.031036,-1850.514855,-11843.295072,-4213.525239
21719.031369,-518.144159,-8808.450710,-1608.800546
21719.031702,-148.041188,-11843.295072,1149.143247
21719.032035,2220.617826,-9474.636058,6971.469032
21719.032368,1110.308913,-3923.091493,2451.505594
21719.032701,4071.132681,-10658.965565,6971.469032
21719.033034,2294.638420,-6513.812290,3447.429741
21719.033367,0.000000,-6587.832884,2374.896044
21719.033700,2368.659014,-9474.636058,3064.381992
21719.034033,1480.411884,-9474.636058,-383.047749
21719.034366,-2294.638420,-13027.624579,-2911.162892
21719.034699,-3330.926739,-11177.109724,-4366.744339
21719.035033,-2738.761985,-8882.471304,-5592.497135
21719.035366,-4737.318029,-12509.480420,-1532.190996
21719.035699,-74.020594,-9474.636058,76.609550
21719.036032,-2072.576638,-4811.338623,0.000000
21719.036365,2368.659014,-9178.553681,6665.030833
21719.036698,5551.544565,-6513.812290,7967.393179
21719.037031,2072.576638,-8586.388927,5439.278036
21719.037364,2368.659014,-5995.668130,3064.381992
21719.037697,222.061783,-8956.491898,1225.752797
21719.038030,518.144159,-9474.636058,-2221.676944
21719.038363,-3552.988522,-10732.986159,-3064.381992
21719.038697,-3627.009116,-9474.636058,-5286.058936
21719.039030,-2960.823768,-11103.089130,-2911.162892
21719.039363,-1702.473667,-9992.780217,-1225.752797
21719.039696,-74.020594,-11843.295072,-76.609550
21719.040029,-4145.153275,-8660.409521,1532.190996
21719.040362,2368.659014,-4219.173869,5669.106685
21719.040695,3478.967927,-9918.759623,2068.457845
21719.041028,5625.565159,-7920.203579,7967.393179
21719.041361,5847.626942,-6809.894666,4826.401637
21719.041694,2368.659014,-9030.512492,1685.410096
21719.042027,3256.906145,-8290.306550,-1149.143247
21719.042361,-2812.782580,-15692.365970,-3447.429741
21719.042694,-666.185348,-7179.997637,-5515.887586
21719.043027,-5329.482782,-11029.068536,-4290.134789
21719.043360,-74.020594,-11843.295072,-1302.362347
21719.043693,-74.020594,-10362.883188,-842.705048
21719.044026,-1184.329507,-7179.997637,766.095498
21719.044359,3182.885551,-6217.729913,536.266849
21719.044692,1924.535449,-9326.594869,3600.648841
21719.045025,4293.194464,-9548.656652,4903.011187
21719.045358,1480.411884,-6587.832884,3064.381992
21719.045691,4737.318029,-8364.327145,2451.505594
21719.046025,0.000000,-7772.162391,3677.258390
21719.046358,1998.556043,-9992.780217,-2451.505594
21719.046691,-2368.659014,-7179.997637,-7354.516781
21719.047024,-2368.659014,-13841.851115,-5592.497135
21719.047357,-1998.556043,-11029.068536,-2451.505594
21719.047690,0.000000,-11695.253884,-229.828649
21719.048023,-148.041188,-8956.491898,1532.190996
21719.048356,2146.597232,-6587.832884,3140.991542
21719.048689,4663.297435,-5181.441594,5898.935335
21719.049022,3552.988522,-8882.471304,7277.907231
21719.049355,2294.638420,-4811.338623,0.000000
21719.049689,-1776.494261,-10510.924376,1608.800546
21719.050022,-1628.453072,-5995.668130,-3217.601092
21719.050355,-1184.329507,-12509.480420,919.314598
21719.050688,-3256.906145,-10140.821405,-2451.505594
21719.051021,-3108.864956,-9104.533087,-2987.772442
21719.051354,-3182.885551,-10362.883188,-3447.429741
21719.051687,-2442.679609,-11695.253884,-1608.800546
21719.052020,-666.185348,-8882.471304,229.828649
21719.052353,740.205942,-4811.338623,1838.629195
21719.052686,1184.329507,-9474.636058,6052.154434
21719.053019,0.000000,-8068.244768,3064.381992
21719.053352,2960.823768,-6587.832884,5592.497135
21719.053686,3034.844362,-8068.244768,3217.601092
21719.054019,1702.473667,-8290.306550,995.924147
21719.054352,74.020594,-11991.336260,-1072.533697
21719.054685,-4589.276840,-10436.903782,-4443.353888
21719.055018,-2442.679609,-10955.047942,-4443.353888
21719.055351,-2738.761985,-9252.574275,-4596.572988
21719.055684,-1776.494261,-13101.645173,-1149.143247
21719.056017,-592.164754,-7328.038826,306.438199
21719.056350,1110.308913,-8882.471304,2068.457845
21719.056683,4737.318029,-8956.491898,8503.660028
21719.057016,4071.132681,-9178.553681,4443.353888
21719.057350,2368.659014,-5995.668130,3677.258390
21719.057683,1184.329507,-8068.244768,383.047749
21719.058016,1480.411884,-10140.821405,612.876398
21719.058349,-666.185348,-12805.562797,-2374.896044
21719.058682,-1258.350101,-11251.130318,-2068.457845
21719.059016,-1258.350101,-8660.409521,-3600.648841
21719.059349,0.000000,-9548.656652,-3370.820191
21719.059682,1702.473667,-8882.471304,-689.485948
21719.060016,-74.020594,-11251.130318,-1302.362347
21719.060349,370.102971,-5625.565159,0.000000
21719.060682,2294.638420,-9178.553681,3600.648841
21719.061015,5847.626942,-11547.212695,4826.401637
21719.061349,1184.329507,-4811.338623,1838.629195
21719.061682,1628.453072,-8068.244768,-383.047749
21719.062015,3701.029710,-7105.977043,229.828649
21719.062348,3108.864956,-14211.954086,-76.609550
21719.062682,-370.102971,-7920.203579,-3677.258390
21719.063015,-3256.906145,-10732.986159,-4596.572988
21719.063348,-1184.329507,-11473.192101,-383.047749
21719.063682,0.000000,-7179.997637,306.438199
21719.064015,1702.473667,-7105.977043,-1532.190996
21719.064348,592.164754,-8956.491898,2451.505594
21719.064681,1554.432478,-5181.441594,1991.848295
21719.065015,2738.761985,-11325.150913,1685.410096
21719.065348,3775.050304,-10510.924376,2911.162892
21719.065681,0.000000,-9548.656652,3677.258390
21719.066014,4071.132681,-7105.977043,1762.019645
21719.066348,-1184.329507,-9548.656652,-1838.629195
21719.066681,-4737.318029,-7476.080014,0.000000
21719.067014,-1850.514855,-8290.306550,-3140.991542
21719.067348,-3997.112087,-9548.656652,-1838.629195
21719.067681,-2442.679609,-9770.718434,-1762.019645
21719.068014,-3404.947333,-9548.656652,-612.876398
21719.068347,-666.185348,-8882.471304,2068.457845
21719.068681,-1628.453072,-7105.977043,76.609550
21719.069014,1184.329507,-9622.677246,1991.848295
21719.069347,1924.535449,-8512.368333,3907.087040
21719.069680,0.000000,-9548.656652,2757.943793
21719.070014,-74.020594,-10362.883188,1149.143247
21719.070347,-74.020594,-10214.842000,-1225.752797
21719.070680,0.000000,-8364.327145,1225.752797
21719.071014,888.247130,-8142.265362,-76.609550
21719.071347,-2220.617826,-9844.739029,-4290.134789
21719.071680,-2738.761985,-8956.491898,-4366.744339
21719.072013,-1776.494261,-11399.171507,-766.095498
21719.072347,-592.164754,-6587.832884,0.000000
21719.072680,3182.885551,-9474.636058,4213.525239
21719.073013,1924.535449,-10362.883188,4826.401637
21719.073346,-1628.453072,-8364.327145,3677.258390
21719.073680,2886.803174,-3552.988522,2374.896044
21719.074013,1110.308913,-10658.965565,-689.485948
21719.074346,4219.173869,-10066.800811,612.876398
21719.074680,-74.020594,-13101.645173,459.657299
21719.075013,-962.267725,-9178.553681,-2298.286494
21719.075346,148.041188,-7772.162391,-1378.971896
21719.075679,-2146.597232,-7698.141797,-3830.477490
21719.076013,1850.514855,-13027.624579,842.705048
21719.076346,-3108.864956,-6587.832884,612.876398
21719.076679,1184.329507,-8734.430116,2987.772442
21719.077012,2590.720797,-7105.977043,2068.457845
21719.077346,2886.803174,-10510.924376,6052.154434
21719.077679,3775.050304,-3627.009116,2145.067394
21719.078012,3478.967927,-9252.574275,2681.334243
21719.078346,1628.453072,-9770.718434,-919.314598
21719.078679,-2072.576638,-11917.315666,-3064.381992
21719.079012,-2442.679609,-10658.965565,-5439.278036
21719.079345,-1628.453072,-12435.459826,-919.314598
21719.079679,1702.473667,-11103.089130,-76.609550
21719.080012,1554.432478,-8438.347739,612.876398
21719.080345,0.000000,-4811.338623,1225.752797
21719.080678,2072.576638,-8290.306550,3600.648841
21719.081012,4441.235652,-7179.997637,4673.182538
21719.081345,4145.153275,-11029.068536,4519.963438
21719.081678,4663.297435,-8290.306550,-76.609550
21719.082012,-1406.391290,-9548.656652,0.000000
21719.082345,4663.297435,-8290.306550,-2834.553343
21719.082678,-2368.659014,-12879.583391,-3753.867940
21719.083011,-4145.153275,-7179.997637,-3064.381992
21719.083345,-4737.318029,-10436.903782,-4596.572988
21719.083678,-2812.782580,-9326.594869,-229.828649
21719.084011,-1998.556043,-11177.109724,536.266849
21719.084344,-2294.638420,-7179.997637,2374.896044
21719.084678,1998.556043,-8290.306550,4519.963438
21719.085011,-2220.617826,-5403.503377,2451.505594
21719.085344,2886.803174,-7994.224174,2757.943793
21719.085678,592.164754,-8290.306550,2604.724693
21719.086011,888.247130,-9770.718434,919.314598
21719.086344,1406.391290,-9474.636058,-229.828649
21719.086677,-1702.473667,-12509.480420,-2451.505594
21719.087011,-4145.153275,-8364.327145,-2145.067394
21719.087344,-74.020594,-11251.130318,-2068.457845
21719.087677,-2960.823768,-8956.491898,-2451.505594
21719.088010,-1184.329507,-10881.027347,1608.800546
21719.088344,-1332.370696,-8956.491898,3677.258390
21719.088677,2812.782580,-3997.112087,4596.572988
21719.089010,4219.173869,-6069.688724,6511.811733
21719.089344,2294.638420,-9474.636058,4826.401637
21719.089677,0.000000,-3627.009116,306.438199
21719.090010,-1258.350101,-9474.636058,-76.609550
21719.090343,2294.638420,-8882.471304,-4979.620737
21719.090677,-2960.823768,-14878.139434,-2145.067394
21719.091010,-74.020594,-13619.789333,-76.609550
21719.091343,0.000000,-9918.759623,-2528.115143
21719.091676,-1480.411884,-9992.780217,-1455.581446
21719.092010,1406.391290,-10658.965565,-842.705048
21719.092343,-1184.329507,-7476.080014,1072.533697
21719.092676,0.000000,-4811.338623,2451.505594
21719.093010,3182.885551,-8882.471304,2987.772442
21719.093343,1776.494261,-7179.997637,1225.752797
21719.093676,4663.297435,-8290.306550,4826.401637
21719.094009,2294.638420,-6069.688724,-1838.629195
21719.094343,3775.050304,-8586.388927,-76.609550
21719.094676,-666.185348,-10584.944971,-2604.724693
21719.095009,-1554.432478,-12731.542202,-3753.867940
21719.095342,-2368.659014,-10214.842000,-3064.381992
21719.095676,-2220.617826,-13619.789333,-76.609550
21719.096009,3478.967927,-9178.553681,1149.143247
21719.096342,-1776.494261,-7179.997637,2757.943793
21719.096676,5847.626942,-8290.306550,2374.896044
21719.097009,2886.803174,-7476.080014,2757.943793
21719.097342,2738.761985,-10955.047942,2374.896044
21719.097675,4811.338623,-8142.265362,2604.724693
21719.098009,1628.453072,-10510.924376,1608.800546
21719.098342,2368.659014,-9326.594869,1225.752797
21719.098675,222.061783,-9178.553681,-2528.115143
21719.099008,-666.185348,-13619.789333,-1991.848295
21719.099342,-2886.803174,-7476.080014,-3600.648841
21719.099675,-2146.597232,-10658.965565,-1915.238745
21719.100008,-1924.535449,-9474.636058,-689.485948
21719.100342,-2368.659014,-9548.656652,2451.505594
21719.100675,0.000000,-7105.977043,6052.154434
21719.101008,1110.308913,-5921.647536,1455.581446
21719.101341,2886.803174,-9474.636058,1762.019645
21719.101675,1998.556043,-10658.965565,2987.772442
21719.102008,666.185348,-7698.141797,1762.019645
21719.102341,1702.473667,-8512.368333,0.000000
21719.102674,0.000000,-12065.356855,-995.924147
21719.103008,-74.020594,-13693.809927,-76.609550
21719.103341,-5921.647536,-7179.997637,0.000000
21719.103674,-1258.350101,-11843.295072,-3140.991542
21719.104008,-2072.576638,-7179.997637,-2757.943793
21719.104341,-2960.823768,-9548.656652,306.438199
21719.104674,740.205942,-3923.091493,3677.258390
21719.105007,2220.617826,-6143.709319,3600.648841
21719.105341,2072.576638,-8956.491898,4213.525239
21719.105674,2072.576638,-8142.265362,3907.087040
21719.106007,-3552.988522,-7179.997637,-1072.533697
21719.106340,-74.020594,-10362.883188,-1302.362347
21719.106674,-1850.514855,-9326.594869,-6665.030833
21719.107007,296.082377,-14137.933492,-76.609550
21719.107340,-74.020594,-10658.965565,-1302.362347
21719.107674,-2368.659014,-10140.821405,-1838.629195
21719.108007,-2368.659014,-10732.986159,-689.485948
21719.108340,-666.185348,-11695.253884,1225.752797
21719.108673,3701.029710,-3775.050304,3447.429741
21719.109007,4737.318029,-6587.832884,4903.011187
21719.109340,7031.956449,-8290.306550,4213.525239
21719.109673,296.082377,-7179.997637,3064.381992
21719.110006,0.000000,-8364.327145,4519.963438
21719.110340,1110.308913,-6513.812290,-1302.362347
21719.110673,-1776.494261,-12139.377449,-4979.620737
21719.111006,-1258.350101,-14211.954086,-2528.115143
21719.111340,-4811.338623,-9474.636058,-6588.421283
21719.111673,-2294.638420,-9844.739029,-4213.525239
21719.112006,-1258.350101,-9474.636058,-1302.362347
21719.112339,2886.803174,-7179.997637,0.000000
21719.112673,740.205942,-6735.874072,3217.601092
21719.113006,7031.956449,-9474.636058,6052.154434
21719.113339,1480.411884,-4811.338623,2451.505594
21719.113672,7031.956449,-10658.965565,5822.325785
21719.114006,5551.544565,-6809.894666,4213.525239
21719.114339,2886.803174,-6809.894666,-995.924147
21719.114672,1850.514855,-10732.986159,-2374.896044
21719.115006,-1850.514855,-15100.201217,-4366.744339
21719.115339,-1184.329507,-12509.480420,-3524.039291
21719.115672,-1554.432478,-11103.089130,-689.485948
21719.116005,-592.164754,-8142.265362,842.705048
21719.116339,1184.329507,-7772.162391,3830.477490
21719.116672,2294.638420,-8290.306550,2374.896044
21719.117005,370.102971,-3627.009116,0.000000
21719.117338,-3552.988522,-8660.409521,3217.601092
21719.117672,1998.556043,-12435.459826,842.705048
21719.118005,0.000000,-6587.832884,153.219100
21719.118338,222.061783,-7994.224174,-76.609550
21719.118672,1184.329507,-7328.038826,-2221.676944
21719.119005,-740.205942,-13175.665768,-1378.971896
21719.119338,-74.020594,-10066.800811,-689.485948
21719.119671,-3182.885551,-13323.706956,-1915.238745
21719.120005,-3034.844362,-9104.533087,-3677.258390
21719.120338,0.000000,-10140.821405,0.000000
21719.120671,3552.988522,-7402.059420,7277.907231
21719.121004,4441.235652,-5847.626942,5515.887586
21719.121338,2886.803174,-6143.709319,1378.971896
21719.121671,666.185348,-12879.583391,2068.457845
21719.122004,-1258.350101,-8364.327145,-306.438199
21719.122338,-2220.617826,-7920.203579,-3983.696590
21719.122671,-1628.453072,-11251.130318,-2528.115143
21719.123004,-4737.318029,-9548.656652,-1838.629195
21719.123337,-4219.173869,-11843.295072,-76.609550
21719.123671,-74.020594,-9474.636058,-76.609550
21719.124004,-2738.761985,-8586.388927,842.705048
21719.124337,814.226536,-8660.409521,2145.067394
21719.124670,-370.102971,-7846.182985,4443.353888
21719.125004,1258.350101,-5699.585753,2298.286494
21719.125337,296.082377,-8364.327145,3677.258390
21719.125670,7031.956449,-8586.388927,6971.469032
21719.126004,2368.659014,-8142.265362,3064.381992
21719.126337,2960.823768,-8882.471304,1762.019645
21719.126670,-1850.514855,-10658.965565,-6205.373534
21719.127003,-5921.647536,-12065.356855,-8580.269578
21719.127337,-4737.318029,-13101.645173,-2221.676944
21719.127670,-4293.194464,-8438.347739,-3830.477490
21719.128003,-740.205942,-5329.482782,-2221.676944
21719.128336,-74.020594,-11843.295072,2374.896044
21719.128670,1702.473667,-5403.503377,2451.505594
21719.129003,2886.803174,-8290.306550,4519.963438
21719.129336,2590.720797,-6217.729913,842.705048
21719.129670,2960.823768,-7920.203579,2987.772442
21719.130003,3034.844362,-11029.068536,3753.867940
21719.130336,3108.864956,-7920.203579,1532.190996
21719.130669,370.102971,-10288.862594,-2145.067394
21719.131003,2146.597232,-12361.439231,-2221.676944
21719.131336,1110.308913,-13323.706956,-76.609550
21719.131669,0.000000,-10732.986159,-1225.752797
21719.132002,-74.020594,-10955.047942,-1532.190996
21719.132336,740.205942,-10658.965565,1455.581446
21719.132669,3034.844362,-7328.038826,3294.210641
21719.133002,5033.400406,-4737.318029,8810.098227
21719.133336,2590.720797,-2368.659014,1838.629195
21719.133669,1184.329507,-3627.009116,3677.258390
21719.134002,2886.803174,-11843.295072,-76.609550
21719.134335,222.061783,-8438.347739,-2911.162892
21719.134669,-2368.659014,-11917.315666,-2528.115143
21719.135002,-666.185348,-12435.459826,-4519.963438
21719.135335,-962.267725,-13619.789333,-2298.286494
21719.135668,-1258.350101,-8364.327145,-2374.896044
21719.136002,-74.020594,-9474.636058,-1302.362347
21719.136335,0.000000,-7179.997637,0.000000
21719.136668,6143.709319,-10658.965565,8733.488677
21719.137002,4071.132681,-8882.471304,7277.907231
21719.137335,3182.885551,-3627.009116,4443.353888
21719.137668,2146.597232,-11547.212695,2221.676944
21719.138001,2960.823768,-10288.862594,4673.182538
21719.138335,-2146.597232,-7772.162391,-459.657299
21719.138668,-2812.782580,-9252.574275,-3983.696590
21719.139001,-5625.565159,-10140.821405,-7354.516781
21719.139334,-8882.471304,-11917.315666,-1838.629195
21719.139668,-2442.679609,-9178.553681,-2528.115143
21719.140001,-3627.009116,-9474.636058,-1302.362347
21719.140334,-3552.988522,-8956.491898,2374.896044
21719.140668,814.226536,-6883.915261,3983.696590
21719.141001,2072.576638,-5181.441594,5132.839837
21719.141334,2294.638420,-5921.647536,3447.429741
21719.141667,2146.597232,-9400.615463,2987.772442
21719.142001,3478.967927,-11695.253884,3140.991542
21719.142334,1332.370696,-9474.636058,-76.609550
21719.142667,1110.308913,-12731.542202,-3140.991542
21719.143000,-2368.659014,-10732.986159,-4903.011187
21719.143334,0.000000,-14285.974681,1838.629195
21719.143667,-74.020594,-9474.636058,1762.019645
21719.144000,-2368.659014,-7772.162391,1838.629195
21719.144334,-3108.864956,-4145.153275,383.047749
21719.144667,-1628.453072,-7624.121203,459.657299
21719.145000,-2960.823768,-5995.668130,1838.629195
21719.145333,1110.308913,-4811.338623,306.438199
21719.145667,888.247130,-10658.965565,3830.477490
21719.146000,4071.132681,-10658.965565,-76.609550
21719.146333,222.061783,-5477.523971,-3983.696590
21719.146666,1110.308913,-13619.789333,-76.609550
21719.147000,-592.164754,-10214.842000,-3370.820191
21719.147333,-962.267725,-15100.201217,-3064.381992
21719.147666,1998.556043,-10214.842000,0.000000
21719.148000,2516.700203,-7772.162391,3370.820191
21719.148333,2738.761985,-5995.668130,1838.629195
21719.148666,5921.647536,-10066.800811,5975.544884
21719.148999,4737.318029,-4589.276840,4060.306139
21719.149333,2886.803174,-9696.697840,2451.505594
21719.149666,3256.906145,-5699.585753,229.828649
21719.149999,3478.967927,-14211.954086,-76.609550
21719.150332,-2368.659014,-7179.997637,0.000000
21719.150666,3182.885551,-7550.100608,-153.219100
21719.150999,-74.020594,-12435.459826,-4290.134789
21719.151332,1184.329507,-11917.315666,-2451.505594
21719.151666,-3404.947333,-11621.233289,-1455.581446
21719.151999,-74.020594,-8734.430116,-2834.553343
21719.152332,-1628.453072,-7254.018232,0.000000
21719.152665,1184.329507,-10140.821405,3064.381992
21719.152999,3182.885551,-3034.844362,1838.629195
21719.153332,0.000000,-7772.162391,6741.640382
21719.153665,4071.132681,-8290.306550,-995.924147
21719.153998,-74.020594,-11843.295072,76.609550
21719.154332,148.041188,-10658.965565,1608.800546
21719.154665,0.000000,-7624.121203,-1838.629195
21719.154998,-1628.453072,-10955.047942,-1608.800546
21719.155332,148.041188,-11325.150913,0.000000
21719.155665,-1554.432478,-10658.965565,1762.019645
21719.155998,-2590.720797,-5107.421000,-2451.505594
21719.156331,-3256.906145,-9770.718434,0.000000
21719.156665,-74.020594,-11251.130318,-76.609550
21719.156998,-3552.988522,-5403.503377,2451.505594
21719.157331,-74.020594,-7698.141797,1455.581446
21719.157664,-1036.288319,-7994.224174,1455.581446
21719.157998,740.205942,-8660.409521,2451.505594
21719.158331,0.000000,-8808.450710,919.314598
21719.158664,-222.061783,-8882.471304,-689.485948
21719.158998,-5625.565159,-7772.162391,-1838.629195
21719.159331,-2220.617826,-13027.624579,-689.485948
21719.159664,-2442.679609,-9474.636058,-2834.553343
21719.159997,-4737.318029,-5995.668130,0.000000
21719.160331,-666.185348,-8290.306550,-2528.115143
21719.160664,2368.659014,-8956.491898,2451.505594
21719.160997,518.144159,-9326.594869,2451.505594
21719.161330,3478.967927,-7698.141797,1915.238745
21719.161663,1702.473667,-11843.295072,2987.772442
21719.161997,4145.153275,-11029.068536,4443.353888
21719.162330,3478.967927,-8290.306550,4826.401637
21719.162663,370.102971,-7476.080014,-689.485948
21719.162996,0.000000,-9252.574275,-995.924147
21719.163329,-1776.494261,-12139.377449,-1302.362347
21719.163662,-1258.350101,-8364.327145,-3064.381992
21719.163996,-2368.659014,-8068.244768,-3677.258390
21719.164329,-2442.679609,-11843.295072,-76.609550
21719.164662,222.061783,-3627.009116,-3677.258390
21719.164995,296.082377,-9548.656652,1685.410096
21719.165328,3108.864956,-9326.594869,2451.505594
21719.165661,2442.679609,-7476.080014,995.924147
21719.165994,3478.967927,-12879.583391,2987.772442
21719.166328,2664.741391,-11029.068536,2834.553343
21719.166661,4663.297435,-4811.338623,-2451.505594
21719.166994,2368.659014,-11325.150913,1225.752797
21719.167327,4737.318029,-9326.594869,689.485948
21719.167660,-74.020594,-13027.624579,-689.485948
21719.167993,592.164754,-9770.718434,229.828649
21719.168327,-1776.494261,-7476.080014,-1532.190996
21719.168660,148.041188,-9474.636058,-76.609550
21719.168993,1776.494261,-8956.491898,2681.334243
21719.169326,4737.318029,-8142.265362,4213.525239
21719.169659,592.164754,-7772.162391,2451.505594
21719.169992,3701.029710,-10066.800811,4826.401637
21719.170325,1406.391290,-8438.347739,1225.752797
21719.170659,-3404.947333,-5403.503377,0.000000
21719.170992,-666.185348,-9474.636058,-6818.249932
21719.171325,-1776.494261,-11621.233289,-1991.848295
21719.171658,-3404.947333,-12657.521608,-1149.143247
21719.171991,-1110.308913,-7550.100608,-1608.800546
21719.172324,-2738.761985,-9474.636058,-76.609550
21719.172658,0.000000,-7772.162391,1225.752797
21719.172991,3478.967927,-11843.295072,7277.907231
21719.173324,962.267725,-4811.338623,2451.505594
21719.173657,1480.411884,-6587.832884,2757.943793
21719.173990,-74.020594,-8956.491898,1378.971896
21719.174323,2516.700203,-10288.862594,3753.867940
21719.174656,-1702.473667,-6883.915261,0.000000
21719.174990,222.061783,-10436.903782,-995.924147
21719.175323,-4367.215058,-9844.739029,-6128.763984
21719.175656,-5329.482782,-15544.324782,-383.047749
21719.175989,-4811.338623,-8882.471304,-3753.867940
21719.176322,-4219.173869,-5995.668130,-4903.011187
21719.176655,0.000000,-7179.997637,2451.505594
21719.176989,1850.514855,-8364.327145,4443.353888
21719.177322,2220.617826,-5625.565159,4213.525239
21719.177655,592.164754,-8290.306550,2987.772442
21719.177988,2368.659014,-9918.759623,2145.067394
21719.178321,3478.967927,-8808.450710,2451.505594
21719.178654,1702.473667,-9918.759623,229.828649
21719.178987,1998.556043,-9622.677246,-76.609550
21719.179321,-1702.473667,-10732.986159,-2681.334243
21719.179654,3108.864956,-13619.789333,2068.457845
21719.179987,-370.102971,-6513.812290,-2911.162892
21719.180320,-2220.617826,-9844.739029,-2451.505594
21719.180653,-592.164754,-8882.471304,-76.609550
21719.180986,-2146.597232,-11399.171507,459.657299
21719.181319,0.000000,-4811.338623,3677.258390
21719.181653,296.082377,-6809.894666,2757.943793
21719.181986,4367.215058,-3849.070898,0.000000
21719.182319,2738.761985,-13693.809927,3064.381992
21719.182652,4071.132681,-4737.318029,-689.485948
21719.182985,1110.308913,-10732.986159,-4290.134789
21719.183318,-2368.659014,-11103.089130,-3753.867940
21719.183652,4071.132681,-14211.954086,-1915.238745
21719.183985,-2738.761985,-12879.583391,-1302.362347
21719.184318,2294.638420,-7846.182985,-76.609550
21719.184651,-3034.844362,-9548.656652,-1378.971896
21719.184984,4737.318029,-9178.553681,6205.373534
21719.185317,3627.009116,-3404.947333,5822.325785
21719.185650,3552.988522,-6587.832884,3677.258390
21719.185984,4663.297435,-8216.285956,0.000000
21719.186317,5255.462188,-13619.789333,4213.525239
21719.186650,296.082377,-8956.491898,3064.381992
21719.186983,0.000000,-5699.585753,-919.314598
21719.187316,-3627.009116,-9030.512492,-7431.126331
21719.187649,-1184.329507,-10732.986159,-3753.867940
21719.187983,-3330.926739,-10807.006753,-3370.820191
21719.188316,-3478.967927,-10214.842000,-3753.867940
21719.188649,1776.494261,-9918.759623,2451.505594
21719.188982,-2368.659014,-9548.656652,3370.820191
21719.189315,9104.533087,-7105.977043,9729.412825
21719.189648,1998.556043,-6365.771101,2604.724693
21719.189981,6069.688724,-7994.224174,4903.011187
21719.190315,3034.844362,-11251.130318,2451.505594
21719.190648,1702.473667,-8364.327145,-612.876398
21719.190981,-296.082377,-11399.171507,-1915.238745
21719.191314,-4515.256246,-9400.615463,-4060.306139
21719.191647,-74.020594,-12435.459826,-3447.429741
21719.191980,-6809.894666,-14137.933492,-76.609550
21719.192314,-1406.391290,-5107.421000,-4136.915689
21719.192647,-6143.709319,-5403.503377,-3677.258390
21719.192980,2220.617826,-9474.636058,4213.525239
21719.193313,962.267725,-4737.318029,3677.258390
21719.193646,-444.123565,-9030.512492,3370.820191
21719.193979,1702.473667,-7105.977043,1991.848295
21719.194312,0.000000,-11621.233289,2987.772442
21719.194646,-74.020594,-9474.636058,-76.609550
21719.194979,148.041188,-8808.450710,-689.485948
21719.195312,-3775.050304,-10807.006753,-4060.306139
21719.195645,370.102971,-11621.233289,-2374.896044
21719.195978,-1184.329507,-11843.295072,76.609550
21719.196311,-74.020594,-8290.306550,-76.609550
21719.196645,-2368.659014,-8660.409521,0.000000
21719.196978,2294.638420,-12435.459826,3600.648841
21719.197311,518.144159,-7179.997637,5209.449386
21719.197644,1776.494261,-1850.514855,4903.011187
21719.197977,4663.297435,-7105.977043,3140.991542
21719.198310,2368.659014,-9548.656652,2757.943793
21719.198643,-444.123565,-11029.068536,1762.019645
21719.198977,-3849.070898,-8216.285956,-4519.963438
21719.199310,-5107.421000,-8364.327145,-9422.974625
21719.199643,-4145.153275,-16580.613101,-2834.553343
21719.199976,-1258.350101,-11251.130318,-1915.238745
21719.200309,-1554.432478,-4811.338623,-2451.505594
21719.200642,-740.205942,-12139.377449,1991.848295
21719.200976,4071.132681,-4219.173869,2451.505594
21719.201309,4515.256246,-9400.615463,7277.907231
21719.201642,6439.791695,-6069.688724,5209.449386
21719.201975,3182.885551,-8438.347739,2451.505594
21719.202308,2368.659014,-9548.656652,306.438199
21719.202641,5403.503377,-12435.459826,3600.648841
21719.202974,0.000000,-7179.997637,-3064.381992
21719.203308,-1258.350101,-7772.162391,-4290.134789
21719.203641,0.000000,-10955.047942,-1608.800546
21719.203974,1184.329507,-11325.150913,-459.657299
21719.204307,444.123565,-10288.862594,-459.657299
21719.204640,444.123565,-7994.224174,-383.047749
21719.204973,2590.720797,-8956.491898,2451.505594
21719.205307,2590.720797,-12287.418637,7890.783629
21719.205640,4071.132681,-7105.977043,2374.896044
21719.205973,-1776.494261,-5995.668130,0.000000
21719.206306,6439.791695,-8290.306550,3600.648841
21719.206639,3478.967927,-13027.624579,2068.457845
21719.206972,1184.329507,-6587.832884,919.314598
21719.207305,-2294.638420,-10362.883188,-3983.696590
21719.207639,-2220.617826,-11473.192101,-5439.278036
21719.207972,-1406.391290,-13027.624579,-1762.019645
21719.208305,-1554.432478,-8882.471304,-689.485948
21719.208638,-148.041188,-7476.080014,-2298.286494
21719.208971,-740.205942,-11843.295072,2374.896044
21719.209304,3849.070898,-8512.368333,4366.744339
21719.209638,1406.391290,-3034.844362,1838.629195
21719.209971,1184.329507,-6587.832884,2757.943793
21719.210304,2886.803174,-10658.965565,2068.457845
21719.210637,0.000000,-9622.677246,689.485948
21719.210970,-2368.659014,-7772.162391,-1685.410096
21719.211303,-4219.173869,-10658.965565,-3370.820191
21719.211636,-3478.967927,-8734.430116,-3447.429741
21719.211970,-3330.926739,-12657.521608,-229.828649
21719.212303,-3552.988522,-8068.244768,-1072.533697
21719.212636,-4737.318029,-7476.080014,0.000000
21719.212969,-1258.350101,-7031.956449,0.000000
21719.213302,4663.297435,-13027.624579,6052.154434
21719.213635,1406.391290,-5995.668130,6435.202183
21719.213969,0.000000,-3627.009116,3064.381992
21719.214302,1184.329507,-7179.997637,2834.553343
21719.214635,592.164754,-9844.739029,383.047749
21719.214968,518.144159,-10658.965565,-459.657299
21719.215301,-2812.782580,-11251.130318,-3294.210641
21719.215634,-2442.679609,-11843.295072,-6818.249932
21719.215967,-5921.647536,-12509.480420,-2451.505594
21719.216301,-2442.679609,-9474.636058,-3140.991542
21719.216634,-1036.288319,-5995.668130,-3064.381992
21719.216967,1776.494261,-10510.924376,2451.505594
21719.217300,7624.121203,-11251.130318,7277.907231
21719.217633,3849.070898,-6809.894666,7277.907231
21719.217966,4367.215058,-4885.359217,2221.676944
21719.218300,2812.782580,-10436.903782,995.924147
21719.218633,3997.112087,-11399.171507,1685.410096
21719.218966,2368.659014,-9104.533087,2374.896044
21719.219299,-2368.659014,-8956.491898,-6128.763984
21719.219632,-2368.659014,-7772.162391,-3370.820191
21719.219965,-370.102971,-13027.624579,-2528.115143
21719.220298,370.102971,-6365.771101,-995.924147
21719.220632,1110.308913,-10066.800811,689.485948
21719.220965,1776.494261,-8068.244768,2374.896044
21719.221298,3997.112087,-8438.347739,5362.668486
21719.221631,1036.288319,-8216.285956,4596.572988
21719.221964,4663.297435,-6513.812290,2374.896044
21719.222297,-2368.659014,-9548.656652,1225.752797
21719.222630,4663.297435,-11547.212695,2987.772442
21719.222964,1702.473667,-7994.224174,-2145.067394
21719.223297,-2368.659014,-8808.450710,-3677.258390
21719.223630,-666.185348,-9178.553681,-4979.620737
21719.223963,-2960.823768,-14508.036463,-1608.800546
21719.224296,-814.226536,-7772.162391,-1532.190996
21719.224629,-2442.679609,-7846.182985,-1762.019645
21719.224963,-74.020594,-9474.636058,-536.266849
21719.225296,3997.112087,-9992.780217,5439.278036
21719.225629,2738.761985,-6883.915261,5515.887586
21719.225962,2960.823768,-5921.647536,3600.648841
21719.226295,0.000000,-9548.656652,1225.752797
21719.226628,1036.288319,-13619.789333,995.924147
21719.226961,0.000000,-4885.359217,-3447.429741
21719.227295,-3256.906145,-10140.821405,-2068.457845
21719.227628,-2442.679609,-9474.636058,-4060.306139
21719.227961,-3034.844362,-10214.842000,-3370.820191
21719.228294,-1554.432478,-10362.883188,-1608.800546
21719.228627,-2886.803174,-9622.677246,-1455.581446
21719.228960,-2146.597232,-7846.182985,-1915.238745
21719.229294,1776.494261,-11103.089130,3907.087040
21719.229627,2886.803174,-9474.636058,5439.278036
21719.229960,1776.494261,-3627.009116,3677.258390
21719.230293,0.000000,-7179.997637,4290.134789
21719.230626,5847.626942,-7698.141797,-76.609550
21719.230959,-2368.659014,-10140.821405,2451.505594
21719.231292,-222.061783,-9104.533087,-995.924147
21719.231626,-370.102971,-9844.739029,-2221.676944
21719.231959,-1850.514855,-11029.068536,383.047749
21719.232292,-370.102971,-8142.265362,-1302.362347
21719.232625,-74.020594,-9474.636058,-76.609550
21719.232958,-3182.885551,-6587.832884,-2451.505594
21719.233291,-592.164754,-12213.398043,1225.752797
21719.233625,370.102971,-10066.800811,4213.525239
21719.233958,1702.473667,-7994.224174,1149.143247
21719.234291,2516.700203,-8068.244768,1225.752797
21719.234624,3627.009116,-7920.203579,2757.943793
21719.234957,3997.112087,-8734.430116,3064.381992
21719.235290,740.205942,-4811.338623,-2451.505594
21719.235623,-74.020594,-11843.295072,-4443.353888
21719.235957,0.000000,-10140.821405,-1225.752797
21719.236290,1480.411884,-12583.501014,-76.609550
21719.236623,-74.020594,-11251.130318,-1915.238745
21719.236956,0.000000,-7402.059420,-766.095498
21719.237289,1184.329507,-10955.047942,2604.724693
21719.237622,5403.503377,-6735.874072,3447.429741
21719.237956,444.123565,-7698.141797,1149.143247
21719.238289,2960.823768,-8660.409521,1685.410096
21719.238622,0.000000,-7179.997637,1225.752797
21719.238955,4663.297435,-13027.624579,2374.896044
21719.239288,1998.556043,-8068.244768,0.000000
21719.239621,-1776.494261,-9326.594869,-995.924147
21719.239954,-962.267725,-10362.883188,-2221.676944
21719.240288,-2664.741391,-9400.615463,-842.705048
21719.240621,-2738.761985,-7402.059420,-3524.039291
21719.240954,-2886.803174,-9252.574275,-919.314598
21719.241287,148.041188,-9400.615463,1532.190996
21719.241620,0.000000,-9844.739029,4290.134789
21719.241953,1406.391290,-5625.565159,3753.867940
21719.242287,148.041188,-8142.265362,1685.410096
21719.242620,1036.288319,-7550.100608,2374.896044
21719.242953,1184.329507,-9844.739029,2451.505594
21719.243286,0.000000,-4811.338623,-3677.258390
21719.243619,-74.020594,-13027.624579,-1302.362347
21719.243952,-2886.803174,-8364.327145,-2145.067394
21719.244285,-1258.350101,-12139.377449,-1608.800546
21719.244619,-2664.741391,-11843.295072,-76.609550
21719.244952,-3034.844362,-8734.430116,-2298.286494
21719.245285,-1776.494261,-10214.842000,-306.438199
21719.245618,2664.741391,-8364.327145,4060.306139
21719.245951,3330.926739,-8290.306550,6665.030833
21719.246284,1480.411884,-3923.091493,4903.011187
21719.246618,4145.153275,-8512.368333,6665.030833
21719.246951,-74.020594,-10732.986159,153.219100
21719.247284,-1776.494261,-7476.080014,-1838.629195
21719.247617,-4811.338623,-13027.624579,-4979.620737
21719.247950,-3775.050304,-10214.842000,-4826.401637
21719.248283,0.000000,-9178.553681,-1532.190996
21719.248616,0.000000,-10510.924376,-689.485948
21719.248950,1702.473667,-9474.636058,842.705048
21719.249283,0.000000,-7772.162391,4136.915689
21719.249616,4663.297435,-10658.965565,6052.154434
21719.249949,1998.556043,-5181.441594,306.438199
21719.250282,1184.329507,-9252.574275,3064.381992
21719.250615,2738.761985,-7920.203579,1838.629195
21719.250949,962.267725,-12213.398043,1378.971896
21719.251282,1184.329507,-4219.173869,-1532.190996
21719.251615,-1332.370696,-9770.718434,-2374.896044
21719.251948,-2368.659014,-10140.821405,-4903.011187
21719.252281,0.000000,-11473.192101,842.705048
21719.252614,-4811.338623,-12287.418637,-4213.525239
21719.252947,0.000000,-5995.668130,-3677.258390
21719.253281,2368.659014,-10066.800811,6281.983084
21719.253614,5847.626942,-7179.997637,5515.887586
21719.253947,7920.203579,-2812.782580,6971.469032
21719.254280,2960.823768,-7328.038826,1455.581446
21719.254613,5181.441594,-8882.471304,-229.828649
21719.254946,1776.494261,-13693.809927,-2451.505594
21719.255280,2590.720797,-13027.624579,-2757.943793
21719.255613,-2516.700203,-14211.954086,-1608.800546
21719.255946,1258.350101,-8290.306550,-3524.039291
21719.256279,-74.020594,-13619.789333,-76.609550
21719.256612,1110.308913,-6661.853478,0.000000
21719.256945,-1184.329507,-4811.338623,1532.190996
21719.257278,1184.329507,-8586.388927,4213.525239
21719.257612,2294.638420,-10436.903782,5209.449386
21719.257947,-74.020594,-6661.853478,4596.572988
21719.258280,1702.473667,-7105.977043,2068.457845
21719.258614,-962.267725,-8438.347739,919.314598
21719.258947,1036.288319,-10881.027347,306.438199
21719.259280,-3330.926739,-9326.594869,0.000000
21719.259613,-4293.194464,-9474.636058,-7737.564530
21719.259946,-4737.318029,-12065.356855,-2068.457845
21719.260280,-74.020594,-11843.295072,1149.143247
21719.260613,2294.638420,-7105.977043,842.705048
21719.260946,-1406.391290,-8586.388927,2681.334243
21719.261279,-4145.153275,-7179.997637,1838.629195
21719.261612,518.144159,-12879.583391,3217.601092
21719.261946,2812.782580,-6661.853478,3830.477490
21719.262279,1776.494261,-6883.915261,3064.381992
21719.262612,-74.020594,-8290.306550,-536.266849
21719.262945,4515.256246,-11547.212695,2374.896044
21719.263279,-2146.597232,-10066.800811,-2374.896044
21719.263612,-1184.329507,-7328.038826,-3677.258390
21719.263945,-4737.318029,-9844.739029,-5362.668486
21719.264278,-3552.988522,-13619.789333,-2298.286494
21719.264611,-3478.967927,-10732.986159,-1838.629195
21719.264945,-3701.029710,-8586.388927,-459.657299
21719.265278,3478.967927,-7994.224174,-689.485948
21719.265611,3034.844362,-9548.656652,6128.763984
21719.265944,7031.956449,-8290.306550,6052.154434
21719.266277,2294.638420,-3330.926739,612.876398
21719.266611,2072.576638,-10658.965565,2374.896044
21719.266944,4071.132681,-10955.047942,1762.019645
21719.267277,888.247130,-12065.356855,3217.601092
21719.267610,1406.391290,-5625.565159,-2757.943793
21719.267943,-3923.091493,-10436.903782,-3983.696590
21719.268277,-1258.350101,-9918.759623,-3370.820191
21719.268610,0.000000,-10732.986159,1608.800546
21719.268943,-1850.514855,-10066.800811,-3064.381992
21719.269276,1184.329507,-5995.668130,-2145.067394
21719.269609,0.000000,-11621.233289,4826.401637
21719.269943,7031.956449,-8290.306550,5439.278036
21719.270276,2368.659014,-6587.832884,4826.401637
21719.270609,4885.359217,-6957.935855,3600.648841
21719.270942,4367.215058,-7105.977043,2834.553343
21719.271275,2368.659014,-10288.862594,1072.533697
21719.271609,0.000000,-9474.636058,-995.924147
21719.271942,-2516.700203,-11325.150913,-5286.058936
21719.272275,1406.391290,-12435.459826,-2757.943793
21719.272608,222.061783,-14952.160028,-1838.629195
21719.272942,1110.308913,-10510.924376,-1302.362347
21719.273275,0.000000,-6735.874072,459.657299
21719.273608,592.164754,-10732.986159,5439.278036
21719.273941,3775.050304,-7698.141797,4826.401637
21719.274274,0.000000,-5995.668130,3677.258390
21719.274608,4367.215058,-5921.647536,3600.648841
21719.274941,148.041188,-7105.977043,1532.190996
21719.275274,296.082377,-9474.636058,1685.410096
21719.275607,-3478.967927,-5921.647536,-3753.867940
21719.275940,-8290.306550,-11325.150913,-8580.269578
21719.276274,-4737.318029,-11917.315666,-3064.381992
21719.276607,-2442.679609,-12139.377449,-3217.601092
21719.276940,-1258.350101,-6809.894666,-3064.381992
21719.277273,-2072.576638,-8956.491898,1838.629195
21719.277606,2294.638420,-9178.553681,919.314598
21719.277940,5033.400406,-9696.697840,7354.516781
21719.278273,2812.782580,-7550.100608,5439.278036
21719.278606,2072.576638,-8882.471304,3294.210641
21719.278939,1184.329507,-8290.306550,1838.629195
21719.279272,592.164754,-11917.315666,6665.030833
21719.279606,-1258.350101,-3034.844362,-3370.820191
21719.279939,-2368.659014,-9178.553681,-2451.505594
21719.280272,-3330.926739,-11251.130318,-2834.553343
21719.280605,-4737.318029,-11325.150913,-1532.190996
21719.280938,-4219.173869,-7846.182985,-2987.772442
21719.281272,-3182.885551,-8068.244768,-2145.067394
21719.281605,814.226536,-7402.059420,-2298.286494
21719.281938,4663.297435,-14211.954086,8503.660028
21719.282271,4959.379811,-5329.482782,6665.030833
21719.282605,4663.297435,-5995.668130,2451.505594
21719.282938,3552.988522,-8882.471304,3907.087040
21719.283271,1998.556043,-11547.212695,-689.485948
21719.283604,962.267725,-10140.821405,-76.609550
21719.283937,-2368.659014,-9548.656652,-5286.058936
21719.284271,-962.267725,-10066.800811,-4366.744339
21719.284604,740.205942,-12879.583391,995.924147
21719.284937,0.000000,-5699.585753,-2451.505594
21719.285270,1110.308913,-9474.636058,-2757.943793
21719.285603,2368.659014,-7772.162391,612.876398
21719.285937,4885.359217,-13249.686362,7124.688131
21719.286270,3478.967927,-5699.585753,3370.820191
21719.286603,3182.885551,-8438.347739,2987.772442
21719.286936,3034.844362,-7772.162391,3064.381992
21719.287269,2664.741391,-8068.244768,2757.943793
21719.287603,592.164754,-9844.739029,-919.314598
21719.287936,-2072.576638,-6587.832884,-3983.696590
21719.288269,-1850.514855,-9178.553681,-6052.154434
21719.288602,814.226536,-13175.665768,-1991.848295
21719.288935,0.000000,-11399.171507,-919.314598
21719.289269,-1480.411884,-12435.459826,306.438199
21719.289602,1850.514855,-5921.647536,1762.019645
21719.289935,3478.967927,-13619.789333,4826.401637
21719.290268,2368.659014,-3034.844362,3064.381992
21719.290601,1184.329507,-6883.915261,1225.752797
21719.290935,3552.988522,-7402.059420,1302.362347
21719.291268,0.000000,-11325.150913,2451.505594
21719.291601,-2812.782580,-7772.162391,-1455.581446
21719.291934,-5551.544565,-8660.409521,-5209.449386
21719.292268,-7328.038826,-10658.965565,-6435.202183
21719.292601,-2368.659014,-10140.821405,-3064.381992
21719.292934,-3034.844362,-10658.965565,0.000000
21719.293267,-74.020594,-4737.318029,-1072.533697
21719.293600,-2368.659014,-8956.491898,4136.915689
21719.293934,4663.297435,-11843.295072,7277.907231
21719.294267,3256.906145,-6291.750507,5362.668486
21719.294600,1406.391290,-9474.636058,3217.601092
21719.294933,1776.494261,-8808.450710,76.609550
21719.295266,-296.082377,-11251.130318,0.000000
21719.295600,962.267725,-10214.842000,-76.609550
21719.295933,-2442.679609,-7179.997637,-4903.011187
21719.296266,-3404.947333,-10140.821405,-4903.011187
21719.296599,-2368.659014,-14211.954086,-76.609550
21719.296932,-4959.379811,-7179.997637,-2145.067394
21719.297266,-1998.556043,-7105.977043,-689.485948
21719.297599,1332.370696,-6661.853478,2451.505594
21719.297932,3478.967927,-8660.409521,3140.991542
21719.298265,5107.421000,-8660.409521,9193.145976
21719.298598,2886.803174,-5921.647536,2374.896044
21719.298932,1850.514855,-5403.503377,0.000000
21719.299265,-74.020594,-15100.201217,-76.609550
21719.299598,-962.267725,-7698.141797,-4979.620737
21719.299931,-5921.647536,-7772.162391,-4903.011187
21719.300264,-370.102971,-10362.883188,-5592.497135
21719.300598,0.000000,-11917.315666,-76.609550
21719.300931,-518.144159,-7328.038826,1225.752797
21719.301264,1258.350101,-6217.729913,-76.609550
21719.301597,1110.308913,-10362.883188,2374.896044
21719.301930,4589.276840,-9770.718434,4519.963438
21719.302264,2664.741391,-10510.924376,4826.401637
21719.302597,3701.029710,-5847.626942,1225.752797
21719.302930,1776.494261,-8512.368333,612.876398
21719.303263,6439.791695,-10362.883188,3600.648841
21719.303597,3330.926739,-6069.688724,0.000000
21719.303930,-3552.988522,-9548.656652,-2451.505594
21719.304263,-74.020594,-11251.130318,-5439.278036
21719.304596,-3849.070898,-13101.645173,-5362.668486
21719.304929,3775.050304,-12287.418637,-76.609550
21719.305263,-1702.473667,-9030.512492,689.485948
21719.305596,2368.659014,-6439.791695,2374.896044
21719.305929,5255.462188,-8882.471304,9116.536426
21719.306262,3330.926739,-11695.253884,7277.907231
21719.306595,888.247130,-3627.009116,306.438199
21719.306929,666.185348,-9178.553681,4826.401637
21719.307262,3478.967927,-10362.883188,842.705048
21719.307595,-296.082377,-10732.986159,1225.752797
21719.307928,-2442.679609,-6587.832884,-4290.134789
21719.308261,-3330.926739,-10066.800811,-6205.373534
21719.308595,-2738.761985,-12731.542202,-2604.724693
21719.308928,-3627.009116,-11399.171507,-3217.601092
21719.309261,-3256.906145,-10658.965565,-76.609550
21719.309594,-2664.741391,-4811.338623,612.876398
21719.309927,2368.659014,-9770.718434,5745.716235
21719.310261,4071.132681,-9474.636058,7737.564530
21719.310594,2294.638420,-5329.482782,2987.772442
21719.310927,1184.329507,-7920.203579,1838.629195
21719.311260,1406.391290,-7698.141797,0.000000
21719.311593,-1332.370696,-13841.851115,0.000000
21719.311927,-3552.988522,-7772.162391,-3370.820191
21719.312260,-1554.432478,-9474.636058,-5898.935335
21719.312593,-3552.988522,-11473.192101,-3064.381992
21719.312926,-2072.576638,-12731.542202,-76.609550
21719.313260,-3627.009116,-8882.471304,-689.485948
21719.313593,-2960.823768,-5403.503377,0.000000
21719.313926,1628.453072,-8586.388927,4366.744339
21719.314259,3330.926739,-8882.471304,6971.469032
21719.314592,2960.823768,-4737.318029,4213.525239
21719.314926,2886.803174,-9178.553681,4213.525239
21719.315259,1110.308913,-5995.668130,0.000000
21719.315592,2294.638420,-14211.954086,1149.143247
21719.315925,-1554.432478,-7402.059420,-4979.620737
21719.316258,-2368.659014,-10732.986159,-6128.763984
21719.316592,-3552.988522,-11325.150913,-1991.848295
21719.316925,-1110.308913,-10436.903782,919.314598
21719.317258,-3256.906145,-8364.327145,-306.438199
21719.317591,1628.453072,-6735.874072,2145.067394
21719.317924,4071.132681,-6513.812290,5439.278036
21719.318258,5625.565159,-9104.533087,6281.983084
21719.318591,3330.926739,-6513.812290,5439.278036
21719.318924,1110.308913,-6809.894666,-1915.238745
21719.319257,1036.288319,-11843.295072,0.000000
21719.319590,1776.494261,-11769.274478,-612.876398
21719.319924,-1110.308913,-11325.150913,-4903.011187
21719.320257,-2368.659014,-9548.656652,-612.876398
21719.320590,1702.473667,-9474.636058,-3753.867940
21719.320923,1776.494261,-10658.965565,1225.752797
21719.321256,2368.659014,-6587.832884,4519.963438
21719.321590,518.144159,-8660.409521,459.657299
21719.321923,5699.585753,-7624.121203,2987.772442
21719.322256,2590.720797,-11547.212695,3294.210641
21719.322589,3478.967927,-7698.141797,1149.143247
21719.322923,-74.020594,-7328.038826,0.000000
21719.323256,2812.782580,-9474.636058,1225.752797
21719.323589,4663.297435,-11251.130318,-1302.362347
21719.323922,-962.267725,-9400.615463,-919.314598
21719.324255,-74.020594,-8290.306550,-6511.811733
21719.324589,-3552.988522,-13101.645173,-2221.676944
21719.324922,1702.473667,-8808.450710,-2298.286494
21719.325255,-2516.700203,-11843.295072,0.000000
21719.325588,222.061783,-7772.162391,842.705048
21719.325921,-1776.494261,-5995.668130,1225.752797
21719.326255,4071.132681,-11843.295072,5439.278036
21719.326588,1258.350101,-2442.679609,1302.362347
21719.326921,-2368.659014,-9548.656652,3600.648841
21719.327254,1110.308913,-6217.729913,0.000000
21719.327587,-2294.638420,-11177.109724,689.485948
21719.327921,-3034.844362,-10214.842000,0.000000
21719.328254,-2738.761985,-5625.565159,-2987.772442
21719.328587,-3256.906145,-9548.656652,-2451.505594
21719.328920,0.000000,-9770.718434,2068.457845
21719.329253,-3034.844362,-11251.130318,-1302.362347
21719.329587,-4441.235652,-5995.668130,-2757.943793
21719.329920,-3552.988522,-10288.862594,2911.162892
21719.330253,2294.638420,-10066.800811,2221.676944
21719.330586,888.247130,-8586.388927,5132.839837
21719.330919,888.247130,-6883.915261,2757.943793
21719.331253,1184.329507,-6291.750507,2374.896044
21719.331586,1776.494261,-8956.491898,2451.505594
21719.331919,1184.329507,-9844.739029,1608.800546
21719.332252,-1332.370696,-8512.368333,-5132.839837
21719.332586,-2590.720797,-11769.274478,-3140.991542
21719.332919,814.226536,-11547.212695,-76.609550
21719.333252,-370.102971,-9474.636058,1149.143247
21719.333585,0.000000,-6291.750507,612.876398
21719.333918,-74.020594,-10658.965565,1762.019645
21719.334252,1554.432478,-11843.295072,2987.772442
21719.334585,1702.473667,-7105.977043,-76.609550
21719.334918,222.061783,-8586.388927,1149.143247
21719.335251,888.247130,-9252.574275,766.095498
21719.335584,3552.988522,-8512.368333,1685.410096
21719.335918,1702.473667,-10881.027347,229.828649
21719.336251,2886.803174,-7698.141797,-1302.362347
21719.336584,0.000000,-8364.327145,-76.609550
21719.336917,2886.803174,-13915.871710,-2145.067394
21719.337250,1184.329507,-9548.656652,0.000000
21719.337584,-2072.576638,-8808.450710,-1455.581446
21719.337917,4663.297435,-7105.977043,766.095498
21719.338250,3552.988522,-8956.491898,3983.696590
21719.338583,4959.379811,-10066.800811,5975.544884
21719.338916,2516.700203,-6291.750507,2757.943793
21719.339250,518.144159,-9474.636058,-1608.800546
21719.339583,2146.597232,-13323.706956,2374.896044
21719.339916,2294.638420,-11251.130318,-2221.676944
21719.340249,-2960.823768,-9548.656652,612.876398
21719.340582,-2368.659014,-6883.915261,-1072.533697
21719.340916,-1332.370696,-7772.162391,-1532.190996
21719.341249,-1258.350101,-8734.430116,-76.609550
21719.341582,-1628.453072,-6069.688724,-2145.067394
21719.341915,0.000000,-8068.244768,306.438199
21719.342249,0.000000,-10140.821405,0.000000
21719.342582,4515.256246,-11251.130318,3600.648841
21719.342915,-518.144159,-9474.636058,2068.457845
21719.343248,0.000000,-7179.997637,612.876398
21719.343581,2294.638420,-11843.295072,1762.019645
21719.343915,148.041188,-11621.233289,1608.800546
21719.344248,-962.267725,-6883.915261,-1838.629195
21719.344581,-2368.659014,-10066.800811,-2528.115143
21719.344914,-814.226536,-10066.800811,-766.095498
21719.345247,-3552.988522,-11325.150913,2451.505594
21719.345581,-74.020594,-5921.647536,-689.485948
21719.345914,-4589.276840,-8364.327145,0.000000
21719.346247,1184.329507,-10436.903782,6052.154434
21719.346580,-74.020594,-9474.636058,3600.648841
21719.346913,-1184.329507,-7179.997637,3600.648841
21719.347247,592.164754,-6809.894666,1838.629195
21719.347580,0.000000,-7994.224174,536.266849
21719.347913,-444.123565,-11843.295072,1532.190996
21719.348246,-4441.235652,-7772.162391,-2451.505594
21719.348579,-2590.720797,-9918.759623,-3677.258390
21719.348913,-1036.288319,-9030.512492,-2145.067394
21719.349246,1110.308913,-10658.965565,383.047749
21719.349579,-74.020594,-6809.894666,229.828649
21719.349912,296.082377,-9548.656652,919.314598
21719.350245,3478.967927,-11843.295072,3600.648841
21719.350579,2886.803174,-11991.336260,4903.011187
21719.350912,1776.494261,-5255.462188,4596.572988
21719.351245,4663.297435,-7105.977043,4826.401637
21719.351578,1480.411884,-9474.636058,1378.971896
21719.351912,3627.009116,-9326.594869,1762.019645
21719.352245,-3997.112087,-8808.450710,-3217.601092
21719.352578,-1776.494261,-6291.750507,-7967.393179
21719.352911,-6513.812290,-11917.315666,-3677.258390
21719.353244,-74.020594,-12435.459826,-2834.553343
21719.353578,-1110.308913,-8290.306550,-2528.115143
21719.353911,0.000000,-8364.327145,0.000000
21719.354244,4145.153275,-7624.121203,4519.963438
21719.354577,4219.173869,-6365.771101,7660.954980
21719.354910,5995.668130,-5255.462188,4443.353888
21719.355244,4811.338623,-9844.739029,3217.601092
21719.355577,6217.729913,-9400.615463,3064.381992
21719.355910,592.164754,-11325.150913,995.924147
21719.356243,1110.308913,-7179.997637,-5822.325785
21719.356576,-2960.823768,-12287.418637,-5592.497135
21719.356910,-74.020594,-13027.624579,-3140.991542
21719.357243,148.041188,-11917.315666,-3677.258390
21719.357576,-74.020594,-12879.583391,-76.609550
21719.357909,-1184.329507,-7624.121203,4979.620737
21719.358242,3182.885551,-4293.194464,3217.601092
21719.358576,2886.803174,-11547.212695,8503.660028
21719.358909,2368.659014,-4145.153275,4826.401637
21719.359242,0.000000,-5921.647536,-842.705048
21719.359575,-3552.988522,-8364.327145,612.876398
21719.359908,2590.720797,-11251.130318,-76.609550
21719.360242,-2442.679609,-12435.459826,-1302.362347
21719.360575,-1702.473667,-7772.162391,-5515.887586
21719.360908,-4737.318029,-11843.295072,-4366.744339
21719.361241,-1776.494261,-12139.377449,-1991.848295
21719.361574,-2368.659014,-7772.162391,612.876398
21719.361907,-74.020594,-9326.594869,2987.772442
21719.362241,2590.720797,-5995.668130,3064.381992
21719.362574,2368.659014,-9992.780217,6435.202183
21719.362907,4663.297435,-5921.647536,2987.772442
21719.363240,1702.473667,-9474.636058,2834.553343
21719.363573,-4441.235652,-8364.327145,612.876398
21719.363906,-1258.350101,-11843.295072,-2528.115143
21719.364239,-5181.441594,-10881.027347,-3064.381992
21719.364573,-7105.977043,-7476.080014,-6435.202183
21719.364906,-3034.844362,-11251.130318,-4443.353888
21719.365239,-74.020594,-9326.594869,76.609550
21719.365572,-2368.659014,-9844.739029,536.266849
21719.365905,1258.350101,-6069.688724,2757.943793
21719.366238,148.041188,-6587.832884,2451.505594
21719.366571,6143.709319,-9474.636058,9422.974625
21719.366905,4663.297435,-7105.977043,4213.525239
21719.367238,1480.411884,-5995.668130,2681.334243
21719.367571,3478.967927,-11695.253884,1685.410096
21719.367904,-444.123565,-8956.491898,-2298.286494
21719.368237,296.082377,-12435.459826,-2451.505594
21719.368570,-2738.761985,-9326.594869,-3753.867940
21719.368903,-1850.514855,-9474.636058,-5439.278036
21719.369236,-1776.494261,-11917.315666,-1838.629195
21719.369570,2294.638420,-11843.295072,2987.772442
21719.369903,2368.659014,-2442.679609,0.000000
21719.370236,2664.741391,-9548.656652,6588.421283
21719.370569,3478.967927,-9474.636058,3600.648841
21719.370902,0.000000,-7772.162391,3064.381992
21719.371235,962.267725,-7031.956449,919.314598
21719.371568,296.082377,-9844.739029,-306.438199
21719.371902,2072.576638,-7624.121203,-689.485948
21719.372235,2294.638420,-11547.212695,-1302.362347
21719.372568,2294.638420,-9474.636058,-4979.620737
21719.372901,-2368.659014,-8956.491898,-3677.258390
21719.373234,-2368.659014,-11917.315666,-919.314598
21719.373567,2294.638420,-10658.965565,-76.609550
21719.373900,2516.700203,-10362.883188,1762.019645
21719.374233,5773.606348,-7402.059420,3907.087040
21719.374567,4441.235652,-9474.636058,4673.182538
21719.374900,4885.359217,-8364.327145,4903.011187
21719.375233,0.000000,-6513.812290,229.828649
21719.375566,0.000000,-7772.162391,-3983.696590
21719.375899,0.000000,-11325.150913,-1378.971896
21719.376232,-370.102971,-14211.954086,-2528.115143
21719.376565,-2442.679609,-6587.832884,-4903.011187
21719.376899,-3552.988522,-9178.553681,-1915.238745
21719.377232,-1332.370696,-8438.347739,-766.095498
21719.377565,-2294.638420,-8512.368333,2298.286494
21719.377898,-222.061783,-7402.059420,2374.896044
21719.378231,-814.226536,-5329.482782,536.266849
21719.378564,1184.329507,-8364.327145,3064.381992
21719.378897,1036.288319,-10436.903782,3524.039291
21719.379230,148.041188,-7772.162391,1225.752797
21719.379564,296.082377,-10140.821405,0.000000
21719.379897,1184.329507,-10881.027347,1149.143247
21719.380230,-962.267725,-11325.150913,-3677.258390
21719.380563,-74.020594,-8882.471304,-76.609550
21719.380896,-2146.597232,-11547.212695,-1915.238745
21719.381229,0.000000,-6291.750507,306.438199
21719.381562,-2368.659014,-9992.780217,1149.143247
21719.381896,-1184.329507,-7994.224174,2068.457845
21719.382229,-444.123565,-7624.121203,2987.772442
21719.382562,1258.350101,-8142.265362,2987.772442
21719.382895,0.000000,-8660.409521,3447.429741
21719.383228,-2146.597232,-4811.338623,0.000000
21719.383561,-74.020594,-11843.295072,-1302.362347
21719.383894,-2294.638420,-8290.306550,-2068.457845
21719.384228,2294.638420,-11769.274478,-76.609550
21719.384561,-222.061783,-10362.883188,-229.828649
21719.384894,0.000000,-8364.327145,-689.485948
21719.385227,740.205942,-8216.285956,-229.828649
21719.385560,1850.514855,-9844.739029,1991.848295
21719.385893,3256.906145,-7994.224174,2068.457845
21719.386226,0.000000,-9548.656652,0.000000
21719.386559,2960.823768,-11843.295072,2834.553343
21719.386893,4071.132681,-10658.965565,0.000000
21719.387226,888.247130,-10732.986159,2757.943793
21719.387559,5255.462188,-7105.977043,3600.648841
21719.387892,-370.102971,-8364.327145,-459.657299
21719.388225,814.226536,-9326.594869,-1072.533697
21719.388558,-3404.947333,-8956.491898,-4903.011187
21719.388891,1702.473667,-9474.636058,-2528.115143
21719.389225,-2960.823768,-9844.739029,-76.609550
21719.389558,-74.020594,-10510.924376,-76.609550
21719.389891,-1258.350101,-7328.038826,0.000000
21719.390224,0.000000,-8660.409521,2604.724693
21719.390557,5033.400406,-7772.162391,3983.696590
21719.390890,2294.638420,-11547.212695,4519.963438
21719.391223,5477.523971,-5995.668130,2528.115143
21719.391556,1406.391290,-8586.388927,995.924147
21719.391890,3552.988522,-8364.327145,0.000000
21719.392223,3552.988522,-11251.130318,2374.896044
21719.392556,-74.020594,-7179.997637,-4596.572988
21719.392889,-2590.720797,-9548.656652,-4903.011187
21719.393222,-3552.988522,-14878.139434,-766.095498
21719.393555,-2294.638420,-10732.986159,0.000000
21719.393888,-1554.432478,-8068.244768,459.657299
21719.394222,444.123565,-8734.430116,3217.601092
21719.394555,518.144159,-5995.668130,3830.477490
21719.394888,1110.308913,-5403.503377,2451.505594
21719.395221,1110.308913,-6217.729913,1762.019645
21719.395554,962.267725,-8216.285956,2145.067394
21719.395887,666.185348,-8142.265362,1762.019645
21719.396220,-74.020594,-11251.130318,-76.609550
21719.396554,-1554.432478,-10214.842000,-3907.087040
21719.396887,-3256.906145,-9548.656652,-3677.258390
21719.397220,-74.020594,-12731.542202,-2528.115143
21719.397553,-3552.988522,-10140.821405,-1072.533697
21719.397886,-3552.988522,-9548.656652,-995.924147
21719.398219,1406.391290,-9326.594869,1915.238745
21719.398552,3775.050304,-8068.244768,6435.202183
21719.398885,4367.215058,-7476.080014,6358.592633
21719.399219,2294.638420,-7105.977043,2987.772442
21719.399552,-74.020594,-5847.626942,-1838.629195
21719.399885,-2960.823768,-13249.686362,1455.581446
21719.400218,1110.308913,-11843.295072,-76.609550
21719.400551,-3701.029710,-8956.491898,-4519.963438
21719.400884,-1258.350101,-9474.636058,-1915.238745
21719.401217,-2738.761985,-11843.295072,-3294.210641
21719.401551,-814.226536,-10066.800811,-459.657299
21719.401884,-1036.288319,-9326.594869,995.924147
21719.402217,0.000000,-8364.327145,612.876398
21719.402550,2812.782580,-8956.491898,2451.505594
21719.402883,4589.276840,-10658.965565,5745.716235
21719.403216,5551.544565,-6957.935855,2681.334243
21719.403549,2886.803174,-7179.997637,1838.629195
21719.403882,1776.494261,-10140.821405,1532.190996
21719.404216,-74.020594,-9474.636058,-1915.238745
21719.404549,-740.205942,-9770.718434,-3677.258390
21719.404882,-1702.473667,-10658.965565,-4749.792088
21719.405215,1110.308913,-10658.965565,-1302.362347
21719.405548,1776.494261,-10140.821405,842.705048
21719.405881,814.226536,-11251.130318,-76.609550
21719.406214,0.000000,-7179.997637,4290.134789
21719.406548,5255.462188,-7105.977043,4826.401637
21719.406881,5847.626942,-10658.965565,6971.469032
21719.407214,148.041188,-9844.739029,3294.210641
21719.407547,888.247130,-4367.215058,612.876398
21719.407880,-1702.473667,-9992.780217,-612.876398
21719.408213,296.082377,-7772.162391,-2145.067394
21719.408546,-74.020594,-11547.212695,-1608.800546
21719.408879,-3552.988522,-7772.162391,-3677.258390
21719.409213,-3552.988522,-8364.327145,-4596.572988
21719.409546,-74.020594,-12731.542202,-2528.115143
21719.409879,1998.556043,-10807.006753,2374.896044
21719.410212,2368.659014,-7105.977043,1455.581446
21719.410545,2886.803174,-10584.944971,4366.744339
21719.410878,4367.215058,-7994.224174,4366.744339
21719.411211,3701.029710,-8956.491898,4366.744339
21719.411545,4811.338623,-5847.626942,1762.019645
21719.411878,1332.370696,-11769.274478,842.705048
21719.412211,1406.391290,-8364.327145,0.000000
21719.412544,-2072.576638,-11103.089130,-2604.724693
21719.412877,-3034.844362,-8290.306550,-3294.210641
21719.413210,-3849.070898,-10436.903782,-3447.429741
21719.413543,-1258.350101,-11547.212695,-1915.238745
21719.413877,-4441.235652,-8364.327145,1225.752797
21719.414210,-3552.988522,-7179.997637,1225.752797
21719.414543,0.000000,-7179.997637,2451.505594
21719.414876,2294.638420,-8290.306550,4213.525239
21719.415209,2368.659014,-9696.697840,3753.867940
21719.415542,222.061783,-7772.162391,1532.190996
21719.415875,-2368.659014,-11029.068536,-1838.629195
21719.416208,1702.473667,-11843.295072,-3140.991542
21719.416542,-3256.906145,-11843.295072,-2528.115143
21719.416875,0.000000,-5995.668130,-612.876398
21719.417208,-222.061783,-9474.636058,-689.485948
21719.417541,0.000000,-8364.327145,1225.752797
21719.417874,-888.247130,-10214.842000,1838.629195
21719.418207,-1036.288319,-7698.141797,-689.485948
21719.418540,1332.370696,-9178.553681,2451.505594
21719.418874,2294.638420,-10658.965565,4673.182538
21719.419207,5847.626942,-9474.636058,2068.457845
21719.419540,0.000000,-8808.450710,3600.648841
21719.419873,4071.132681,-9474.636058,-76.609550
21719.420206,-814.226536,-9548.656652,-2451.505594
21719.420539,740.205942,-12435.459826,-689.485948
21719.420872,-3997.112087,-10955.047942,-2528.115143
21719.421205,-1998.556043,-7031.956449,-3447.429741
21719.421539,-1332.370696,-11547.212695,-536.266849
21719.421872,518.144159,-9474.636058,842.705048
21719.422205,2368.659014,-3627.009116,2528.115143
21719.422538,296.082377,-5107.421000,3064.381992
21719.422871,7920.203579,-10066.800811,5439.278036
21719.423204,-74.020594,-9548.656652,0.000000
21719.423537,3256.906145,-9474.636058,2068.457845
21719.423871,-1628.453072,-10140.821405,-1532.190996
21719.424204,814.226536,-10066.800811,-2987.772442
21719.424537,-444.123565,-11103.089130,-1149.143247
21719.424870,-2442.679609,-9326.594869,-3753.867940
21719.425203,-2146.597232,-7328.038826,-4366.744339
21719.425536,-1406.391290,-9104.533087,-1685.410096
21719.425869,2072.576638,-9474.636058,3600.648841
21719.426203,1184.329507,-5995.668130,3677.258390
21719.426536,1776.494261,-9844.739029,5132.839837
21719.426869,3330.926739,-9178.553681,2374.896044
21719.427202,0.000000,-9548.656652,1225.752797
21719.427535,4737.318029,-7328.038826,3600.648841
21719.427868,2368.659014,-8660.409521,612.876398
21719.428201,1480.411884,-9844.739029,2145.067394
21719.428534,1036.288319,-10732.986159,-1302.362347
21719.428868,-1850.514855,-8586.388927,-3753.867940
21719.429201,-2442.679609,-11695.253884,-3140.991542
21719.429534,-2368.659014,-7179.997637,-2528.115143
21719.429867,-74.020594,-11843.295072,-919.314598
21719.430200,-2368.659014,-6587.832884,612.876398
21719.430533,592.164754,-5995.668130,3447.429741
21719.430866,2886.803174,-10658.965565,4519.963438
21719.431200,4737.318029,-7476.080014,6665.030833
21719.431533,-592.164754,-9696.697840,1838.629195
21719.431866,2442.679609,-8586.388927,-306.438199
21719.432199,-1332.370696,-11103.089130,-1302.362347
21719.432532,0.000000,-11621.233289,-229.828649
21719.432865,-2368.659014,-5995.668130,-4903.011187
21719.433198,-5921.647536,-10436.903782,-3064.381992
21719.433531,-370.102971,-8882.471304,-2834.553343
21719.433865,-2738.761985,-10140.821405,0.000000
21719.434198,-74.020594,-9178.553681,766.095498
21719.434531,1776.494261,-6809.894666,3907.087040
21719.434864,1628.453072,-9252.574275,4826.401637
21719.435197,3034.844362,-6661.853478,4826.401637
21719.435530,1702.473667,-11843.295072,2374.896044
21719.435863,0.000000,-7772.162391,1685.410096
21719.436197,0.000000,-10436.903782,2374.896044
21719.436530,-74.020594,-9770.718434,-2604.724693
21719.436863,-4145.153275,-8364.327145,-3370.820191
21719.437196,-1554.432478,-7698.141797,-4673.182538
21719.437529,-1184.329507,-10584.944971,-1302.362347
21719.437862,-2442.679609,-10807.006753,0.000000
21719.438195,-2442.679609,-8512.368333,-1225.752797
21719.438528,-370.102971,-6143.709319,383.047749
21719.438862,2664.741391,-8660.409521,6281.983084
21719.439195,5699.585753,-9326.594869,8503.660028
21719.439528,2220.617826,-5403.503377,3983.696590
21719.439861,1184.329507,-7179.997637,2451.505594
21719.440194,-74.020594,-10510.924376,-2221.676944
21719.440527,-740.205942,-10362.883188,-2911.162892
21719.440860,-2146.597232,-10066.800811,-2528.115143
21719.441194,-2886.803174,-7772.162391,-4903.011187
21719.441527,-666.185348,-8882.471304,-3983.696590
21719.441860,-666.185348,-9622.677246,-842.705048
21719.442193,444.123565,-8364.327145,1838.629195
21719.442526,814.226536,-7994.224174,1685.410096
21719.442859,4663.297435,-9474.636058,4519.963438
21719.443192,3478.967927,-12435.459826,2451.505594
21719.443526,3552.988522,-8068.244768,4903.011187
21719.443859,4663.297435,-9474.636058,2374.896044
21719.444192,4145.153275,-6587.832884,4903.011187
21719.444525,592.164754,-6291.750507,3677.258390
21719.444858,-666.185348,-7846.182985,-4443.353888
21719.445191,-814.226536,-9474.636058,-6665.030833
21719.445524,-1702.473667,-15692.365970,-4673.182538
21719.445857,2886.803174,-12435.459826,1149.143247
21719.446191,-74.020594,-11843.295072,76.609550
21719.446524,2368.659014,-9178.553681,3600.648841
21719.446857,2294.638420,-9474.636058,1762.019645
21719.447190,2664.741391,-6291.750507,3677.258390
21719.447523,3478.967927,-9400.615463,4826.401637
21719.447856,-1480.411884,-7772.162391,2145.067394
21719.448189,-1332.370696,-9326.594869,-1149.143247
21719.448523,-1110.308913,-9474.636058,842.705048
21719.448856,-2960.823768,-6883.915261,-1838.629195
21719.449189,-2442.679609,-4811.338623,-7201.297681
21719.449522,-2368.659014,-11325.150913,-1302.362347
21719.449855,-2738.761985,-9326.594869,-3753.867940
21719.450188,-3627.009116,-10436.903782,-2298.286494
21719.450521,-1036.288319,-5921.647536,-1302.362347
21719.450854,592.164754,-12509.480420,4060.306139
21719.451188,4589.276840,-7920.203579,6128.763984
21719.451521,2368.659014,-10066.800811,4290.134789
21719.451854,1480.411884,-8660.409521,1225.752797
21719.452187,0.000000,-8660.409521,0.000000
21719.452520,-74.020594,-12139.377449,-76.609550
21719.452853,814.226536,-8364.327145,-1838.629195
21719.453186,-5921.647536,-10140.821405,-4903.011187
21719.453520,-1776.494261,-7179.997637,-3677.258390
21719.453853,-3330.926739,-9474.636058,-1915.238745
21719.454186,222.061783,-9252.574275,919.314598
21719.454519,-296.082377,-7179.997637,1072.533697
21719.454852,2294.638420,-9474.636058,3600.648841
21719.455185,-1776.494261,-11917.315666,4826.401637
21719.455518,814.226536,-6069.688724,919.314598
21719.455851,0.000000,-7476.080014,3677.258390
21719.456185,5847.626942,-9178.553681,2987.772442
21719.456518,1332.370696,-9844.739029,612.876398
21719.456851,1110.308913,-8882.471304,-1302.362347
21719.457184,-2738.761985,-8290.306550,-4443.353888
21719.457517,-3627.009116,-9770.718434,-5286.058936
21719.457850,1110.308913,-9474.636058,-689.485948
21719.458183,-2960.823768,-11177.109724,-689.485948
21719.458517,592.164754,-6587.832884,-153.219100
21719.458850,222.061783,-8660.409521,1072.533697
21719.459183,4885.359217,-9696.697840,3677.258390
21719.459516,6439.791695,-8882.471304,4826.401637
21719.459849,2368.659014,-9696.697840,4443.353888
21719.460182,4071.132681,-9474.636058,-76.609550
21719.460515,1184.329507,-9548.656652,1991.848295
21719.460849,0.000000,-9548.656652,0.000000
21719.461182,3478.967927,-7105.977043,1149.143247
21719.461515,-518.144159,-6513.812290,-1378.971896
21719.461848,1628.453072,-8142.265362,-2298.286494
21719.462181,-1628.453072,-10288.862594,229.828649
21719.462515,-666.185348,-7994.224174,-4826.401637
21719.462848,3849.070898,-12805.562797,3294.210641
21719.463181,0.000000,-13101.645173,7967.393179
21719.463514,4663.297435,-8734.430116,1915.238745
