#time,accel_x,accel_y,accel_z
21649.666542,5995.668130,-9474.636058,-76.609550
21649.666875,8290.306550,-9104.533087,2911.162892
21649.667209,9474.636058,-9696.697840,3830.477490
21649.667542,10955.047942,-8956.491898,4749.792088
21649.667875,10658.965565,-9548.656652,4290.134789
21649.668209,9548.656652,-7772.162391,2451.505594
21649.668542,10584.944971,-9474.636058,-1302.362347
21649.668875,7476.080014,-8068.244768,-3064.381992
21649.669209,5033.400406,-8364.327145,-2451.505594
21649.669542,7105.977043,-9548.656652,-3677.258390
21649.669876,7772.162391,-10066.800811,-1915.238745
21649.670209,8734.430116,-9918.759623,0.000000
21649.670542,9104.533087,-10362.883188,2145.067394
21649.670876,8808.450710,-11843.295072,2987.772442
21649.671209,4737.318029,-11029.068536,3064.381992
21649.671543,5847.626942,-11843.295072,2374.896044
21649.671876,3552.988522,-7179.997637,3677.258390
21649.672209,7920.203579,-7698.141797,5515.887586
21649.672543,7624.121203,-7105.977043,3907.087040
21649.672876,5255.462188,-5847.626942,459.657299
21649.673209,5773.606348,-6883.915261,-459.657299
21649.673543,6809.894666,-6217.729913,-2374.896044
21649.673876,4885.359217,-5995.668130,-4290.134789
21649.674210,9400.615463,-11843.295072,-3753.867940
21649.674543,7105.977043,-9548.656652,-3370.820191
21649.674876,7105.977043,-10732.986159,0.000000
21649.675210,12953.603985,-11843.295072,-689.485948
21649.675543,11177.109724,-11695.253884,2451.505594
21649.675877,9622.677246,-11103.089130,1762.019645
21649.676210,9474.636058,-9474.636058,2374.896044
21649.676543,9474.636058,-8068.244768,2757.943793
21649.676877,9474.636058,-4811.338623,2451.505594
21649.677210,11177.109724,-6809.894666,3294.210641
21649.677543,10214.842000,-6587.832884,2068.457845
21649.677877,7179.997637,-8068.244768,-612.876398
21649.678210,5551.544565,-9622.677246,-2681.334243
21649.678544,4367.215058,-10288.862594,-3064.381992
21649.678877,4145.153275,-10732.986159,-1838.629195
21649.679210,8216.285956,-11843.295072,-76.609550
21649.679544,7402.059420,-7476.080014,1838.629195
21649.679877,9474.636058,-8956.491898,4903.011187
21649.680211,12361.439231,-6069.688724,2451.505594
21649.680544,10732.986159,-7476.080014,1149.143247
21649.680877,9918.759623,-8216.285956,-383.047749
21649.681211,9252.574275,-7476.080014,-2757.943793
21649.681544,7698.141797,-8364.327145,-4903.011187
21649.681877,8586.388927,-13027.624579,-3140.991542
21649.682211,8216.285956,-14211.954086,-2528.115143
21649.682544,7920.203579,-11029.068536,1225.752797
21649.682878,12953.603985,-11843.295072,7277.907231
21649.683211,12139.377449,-5403.503377,5822.325785
21649.683544,15840.407159,-5181.441594,6358.592633
21649.683878,15100.201217,-5477.523971,5362.668486
21649.684211,13989.892304,-4663.297435,1532.190996
21649.684545,12139.377449,-9548.656652,-919.314598
21649.684878,10288.862594,-14211.954086,-4979.620737
21649.685211,3108.864956,-11917.315666,-9039.926876
21649.685545,1480.411884,-9548.656652,-7354.516781
21649.685878,7402.059420,-12583.501014,-3753.867940
21649.686211,9770.718434,-9548.656652,689.485948
21649.686545,15322.262999,-6439.791695,6052.154434
21649.686878,16210.510130,-6957.935855,9116.536426
21649.687212,15248.242405,-8882.471304,8120.612279
21649.687545,15026.180623,-9178.553681,5745.716235
21649.687878,14137.933492,-9474.636058,3600.648841
21649.688212,13249.686362,-5107.421000,612.876398
21649.688545,12731.542202,-8438.347739,-2451.505594
21649.688879,9992.780217,-8882.471304,-5592.497135
21649.689212,3552.988522,-12509.480420,-6052.154434
21649.689545,888.247130,-11769.274478,-5669.106685
21649.689879,3330.926739,-11399.171507,-4290.134789
21649.690212,6365.771101,-9326.594869,-919.314598
21649.690545,11769.274478,-8882.471304,6052.154434
21649.690879,14508.036463,-3034.844362,7507.735880
21649.691212,12509.480420,-9104.533087,7354.516781
21649.691546,11399.171507,-8734.430116,4596.572988
21649.691879,8290.306550,-7772.162391,2451.505594
21649.692212,8808.450710,-7476.080014,0.000000
21649.692546,8586.388927,-11251.130318,-1915.238745
21649.692879,1110.308913,-11843.295072,-7431.126331
21649.693213,518.144159,-11621.233289,-6588.421283
21649.693546,888.247130,-8660.409521,-3064.381992
21649.693879,3256.906145,-9252.574275,-383.047749
21649.694213,5403.503377,-8290.306550,2451.505594
21649.694546,4367.215058,-8438.347739,1685.410096
21649.694879,4737.318029,-9918.759623,5515.887586
21649.695213,7031.956449,-7920.203579,6128.763984
21649.695546,9400.615463,-8882.471304,5439.278036
21649.695880,7031.956449,-5995.668130,4903.011187
21649.696213,2368.659014,-8956.491898,2834.553343
21649.696546,-3404.947333,-9400.615463,-6741.640382
21649.696880,-4071.132681,-13619.789333,-7431.126331
21649.697213,-2664.741391,-10214.842000,-5056.230287
21649.697547,2886.803174,-5921.647536,-1149.143247
21649.697880,3923.091493,-7105.977043,2374.896044
21649.698213,0.000000,-7179.997637,612.876398
21649.698547,3478.967927,-11843.295072,-689.485948
21649.698880,6587.832884,-7476.080014,3064.381992
21649.699213,12361.439231,-9326.594869,7277.907231
21649.699547,12361.439231,-9474.636058,6052.154434
21649.699880,7031.956449,-10066.800811,2681.334243
21649.700214,4219.173869,-12879.583391,1149.143247
21649.700547,4219.173869,-7624.121203,-2068.457845
21649.700880,5329.482782,-11399.171507,153.219100
21649.701214,3034.844362,-9474.636058,-689.485948
21649.701547,-1850.514855,-8660.409521,-3983.696590
21649.701881,-2960.823768,-7476.080014,-1225.752797
21649.702214,4071.132681,-8290.306550,-1302.362347
21649.702547,3997.112087,-5995.668130,3064.381992
21649.702881,5255.462188,-4737.318029,1302.362347
21649.703214,3108.864956,-11547.212695,766.095498
21649.703547,1258.350101,-12287.418637,1608.800546
21649.703881,5921.647536,-9400.615463,3140.991542
21649.704214,3478.967927,-9474.636058,4213.525239
21649.704548,1776.494261,-6587.832884,612.876398
21649.704881,1480.411884,-11843.295072,0.000000
21649.705214,1406.391290,-10658.965565,-2528.115143
21649.705548,-888.247130,-7179.997637,-4749.792088
21649.705881,-2442.679609,-9696.697840,-3983.696590
21649.706215,-592.164754,-10955.047942,-2298.286494
21649.706548,1406.391290,-9178.553681,1072.533697
21649.706881,4515.256246,-7624.121203,4290.134789
21649.707215,6439.791695,-7698.141797,3907.087040
21649.707548,3552.988522,-9696.697840,4519.963438
21649.707881,2812.782580,-9400.615463,2451.505594
21649.708215,-74.020594,-9474.636058,2221.676944
21649.708548,1184.329507,-5995.668130,0.000000
21649.708882,-1184.329507,-13027.624579,842.705048
21649.709215,-1184.329507,-7698.141797,-4366.744339
21649.709548,-4145.153275,-11325.150913,-536.266849
21649.709882,-4811.338623,-8586.388927,-5286.058936
21649.710215,-4219.173869,-7476.080014,-4290.134789
21649.710549,-1406.391290,-9918.759623,0.000000
21649.710882,592.164754,-9104.533087,3600.648841
21649.711215,1628.453072,-4811.338623,3830.477490
21649.711549,2516.700203,-9992.780217,4826.401637
21649.711882,6735.874072,-9474.636058,4826.401637
21649.712215,740.205942,-8364.327145,3677.258390
21649.712549,2294.638420,-12435.459826,4826.401637
21649.712882,-2442.679609,-7179.997637,-4826.401637
21649.713216,-5921.647536,-11917.315666,-1532.190996
21649.713549,-2960.823768,-8660.409521,-3064.381992
21649.713882,-1776.494261,-9178.553681,-2068.457845
21649.714216,-4515.256246,-9474.636058,-2911.162892
21649.714549,-2442.679609,-8290.306550,-2528.115143
21649.714883,1702.473667,-9474.636058,-76.609550
21649.715216,2072.576638,-5403.503377,5209.449386
21649.715549,5033.400406,-6217.729913,4060.306139
21649.715883,3478.967927,-10658.965565,2681.334243
21649.716216,4663.297435,-9178.553681,2374.896044
21649.716549,4071.132681,-11843.295072,1225.752797
21649.716883,3108.864956,-9844.739029,1149.143247
21649.717216,-2294.638420,-11917.315666,-3677.258390
21649.717550,-4145.153275,-8660.409521,-4903.011187
21649.717883,1702.473667,-10066.800811,-3983.696590
21649.718216,-4145.153275,-8364.327145,0.000000
21649.718550,1702.473667,-8290.306550,-76.609550
21649.718883,-148.041188,-10362.883188,1149.143247
21649.719217,1924.535449,-5403.503377,1608.800546
21649.719550,3923.091493,-8808.450710,6358.592633
21649.719883,2368.659014,-4959.379811,2068.457845
21649.720217,370.102971,-11695.253884,1302.362347
21649.720550,1924.535449,-9474.636058,2451.505594
21649.720883,0.000000,-8364.327145,1225.752797
21649.721217,-1332.370696,-8882.471304,-76.609550
21649.721550,-1258.350101,-11251.130318,-4060.306139
21649.721884,-3849.070898,-9548.656652,-3677.258390
21649.722217,-2368.659014,-9844.739029,-1915.238745
21649.722550,-888.247130,-8216.285956,-766.095498
21649.722884,-1480.411884,-9992.780217,1225.752797
21649.723217,2590.720797,-7920.203579,2604.724693
21649.723551,4589.276840,-10288.862594,5209.449386
21649.723884,4737.318029,-6661.853478,5822.325785
21649.724217,1406.391290,-8216.285956,3524.039291
21649.724551,962.267725,-8660.409521,612.876398
21649.724884,0.000000,-11473.192101,-229.828649
21649.725217,-3552.988522,-9400.615463,0.000000
21649.725551,-4515.256246,-5403.503377,-6971.469032
21649.725884,-4737.318029,-12139.377449,-1302.362347
21649.726218,-1258.350101,-11251.130318,-3140.991542
21649.726551,-370.102971,-9474.636058,-76.609550
21649.726884,1036.288319,-7920.203579,3600.648841
21649.727218,518.144159,-8660.409521,1608.800546
21649.727551,1110.308913,-9178.553681,2145.067394
21649.727885,1628.453072,-8956.491898,2681.334243
21649.728218,3330.926739,-8290.306550,2374.896044
21649.728552,0.000000,-7179.997637,1838.629195
21649.728885,0.000000,-7179.997637,0.000000
21649.729219,1406.391290,-12731.542202,-76.609550
21649.729552,-3552.988522,-4811.338623,0.000000
21649.729886,-814.226536,-10658.965565,-3140.991542
21649.730219,-2442.679609,-11547.212695,-1302.362347
21649.730552,-370.102971,-10066.800811,-2145.067394
21649.730886,-1628.453072,-9992.780217,2911.162892
21649.731219,1110.308913,-7550.100608,-1608.800546
21649.731553,0.000000,-7772.162391,3983.696590
21649.731886,4219.173869,-8882.471304,7277.907231
21649.732220,7031.956449,-2960.823768,3677.258390
21649.732553,2368.659014,-8290.306550,3600.648841
21649.732887,-74.020594,-9252.574275,-3064.381992
21649.733220,-296.082377,-10140.821405,-3907.087040
21649.733554,0.000000,-12287.418637,-1915.238745
21649.733887,444.123565,-9030.512492,-2987.772442
21649.734220,-4663.297435,-10732.986159,-3677.258390
21649.734554,0.000000,-9548.656652,-76.609550
21649.734887,4663.297435,-11843.295072,2068.457845
21649.735221,4663.297435,-5921.647536,2374.896044
21649.735554,3552.988522,-7772.162391,6128.763984
21649.735888,3330.926739,-11769.274478,3524.039291
21649.736221,7031.956449,-7476.080014,3447.429741
21649.736555,3404.947333,-9178.553681,4826.401637
21649.736888,1184.329507,-7105.977043,-1225.752797
21649.737222,-2368.659014,-8660.409521,-4903.011187
21649.737555,-1554.432478,-12287.418637,-3983.696590
21649.737889,-148.041188,-8142.265362,-1915.238745
21649.738222,-3330.926739,-9178.553681,-3370.820191
21649.738555,-1258.350101,-14211.954086,-76.609550
21649.738889,-74.020594,-7920.203579,0.000000
21649.739222,1480.411884,-9548.656652,6818.249932
21649.739556,4663.297435,-8290.306550,3600.648841
21649.739889,1998.556043,-8956.491898,612.876398
21649.740223,3034.844362,-11621.233289,5822.325785
21649.740556,2590.720797,-8216.285956,2298.286494
21649.740890,592.164754,-7328.038826,919.314598
21649.741223,-4885.359217,-10288.862594,-1455.581446
21649.741557,-3108.864956,-9030.512492,-4903.011187
21649.741890,-2960.823768,-10140.821405,-2528.115143
21649.742223,-7105.977043,-9844.739029,-76.609550
21649.742557,-4811.338623,-4737.318029,-3140.991542
21649.742890,-2738.761985,-11695.253884,689.485948
21649.743224,4071.132681,-7698.141797,5439.278036
21649.743557,2516.700203,-7476.080014,6741.640382
21649.743891,1332.370696,-7254.018232,2604.724693
21649.744224,-1258.350101,-11769.274478,766.095498
21649.744558,-1776.494261,-10140.821405,0.000000
21649.744891,2294.638420,-8586.388927,536.266849
21649.745225,-3552.988522,-7179.997637,-2068.457845
21649.745558,-666.185348,-11843.295072,-3677.258390
21649.745891,-4145.153275,-7772.162391,-3064.381992
21649.746225,-2072.576638,-8956.491898,-919.314598
21649.746558,592.164754,-6143.709319,919.314598
21649.746892,-1850.514855,-12287.418637,995.924147
21649.747225,4219.173869,-7105.977043,2451.505594
21649.747559,2294.638420,-11843.295072,3600.648841
21649.747892,518.144159,-4811.338623,0.000000
21649.748226,2294.638420,-11251.130318,1762.019645
21649.748559,4071.132681,-7105.977043,0.000000
21649.748893,1184.329507,-13101.645173,2681.334243
21649.749226,6439.791695,-4737.318029,1762.019645
21649.749559,74.020594,-10288.862594,-2834.553343
21649.749893,1110.308913,-10362.883188,-766.095498
21649.750226,1406.391290,-11621.233289,-2987.772442
21649.750560,1406.391290,-9474.636058,-612.876398
21649.750893,1184.329507,-11325.150913,3600.648841
21649.751227,-74.020594,-9474.636058,-919.314598
21649.751560,2368.659014,-7179.997637,2451.505594
21649.751894,4663.297435,-11843.295072,3600.648841
21649.752227,9400.615463,-4737.318029,3907.087040
21649.752561,2368.659014,-10584.944971,4213.525239
21649.752894,2294.638420,-9918.759623,995.924147
21649.753227,-1258.350101,-9474.636058,-2834.553343
21649.753561,-2368.659014,-10214.842000,-2604.724693
21649.753894,-3552.988522,-9622.677246,-3370.820191
21649.754228,-1554.432478,-9844.739029,-3677.258390
21649.754561,-814.226536,-11843.295072,-919.314598
21649.754895,-222.061783,-7994.224174,459.657299
21649.755228,518.144159,-8290.306550,229.828649
21649.755562,0.000000,-10140.821405,5822.325785
21649.755895,4663.297435,-11251.130318,6052.154434
21649.756229,1850.514855,-5403.503377,3064.381992
21649.756562,1332.370696,-7624.121203,2068.457845
21649.756895,3478.967927,-9474.636058,-1302.362347
21649.757229,-1628.453072,-13989.892304,1225.752797
21649.757562,-1184.329507,-7476.080014,-995.924147
21649.757896,-6809.894666,-11843.295072,-3830.477490
21649.758229,-5921.647536,-7179.997637,-3677.258390
21649.758563,-5773.606348,-9548.656652,-919.314598
21649.758896,-1258.350101,-6661.853478,766.095498
21649.759230,-370.102971,-3182.885551,2451.505594
21649.759563,-2664.741391,-8290.306550,2374.896044
21649.759897,1702.473667,-6365.771101,306.438199
21649.760230,444.123565,-10214.842000,3600.648841
21649.760563,1406.391290,-7550.100608,2298.286494
21649.760897,-1628.453072,-9548.656652,1225.752797
21649.761230,-2960.823768,-9844.739029,-1685.410096
21649.761564,-3552.988522,-10732.986159,-76.609550
21649.761897,-2442.679609,-8216.285956,-4596.572988
21649.762231,0.000000,-9548.656652,-3677.258390
21649.762564,-1628.453072,-12435.459826,-76.609550
21649.762898,0.000000,-9548.656652,1532.190996
21649.763231,592.164754,-8364.327145,3524.039291
21649.763565,4145.153275,-4219.173869,1225.752797
21649.763898,4441.235652,-10881.027347,5439.278036
21649.764232,6439.791695,-7105.977043,4826.401637
21649.764565,5847.626942,-10658.965565,4826.401637
21649.764898,518.144159,-5551.544565,-1838.629195
21649.765232,0.000000,-11399.171507,-1302.362347
21649.765565,-74.020594,-11547.212695,-3140.991542
21649.765899,1110.308913,-13323.706956,-3140.991542
21649.766232,-1184.329507,-8438.347739,-2451.505594
21649.766566,-1554.432478,-9474.636058,-2451.505594
21649.766899,1184.329507,-9918.759623,76.609550
21649.767233,3108.864956,-9548.656652,3677.258390
21649.767566,3478.967927,-6069.688724,612.876398
21649.767900,2664.741391,-7772.162391,0.000000
21649.768233,4219.173869,-11843.295072,2987.772442
21649.768566,2960.823768,-6587.832884,1838.629195
21649.768900,4663.297435,-9474.636058,4826.401637
21649.769233,2220.617826,-7920.203579,0.000000
21649.769567,0.000000,-10732.986159,-1915.238745
21649.769900,-1702.473667,-9548.656652,-3140.991542
21649.770234,-2960.823768,-8956.491898,-6128.763984
21649.770567,-3108.864956,-10066.800811,-5209.449386
21649.770901,-3256.906145,-12065.356855,-2528.115143
21649.771234,2516.700203,-8882.471304,2374.896044
21649.771568,3034.844362,-10807.006753,7660.954980
21649.771901,5033.400406,-1628.453072,5592.497135
21649.772234,3478.967927,-11843.295072,4826.401637
21649.772568,1406.391290,-5995.668130,2451.505594
21649.772901,2294.638420,-10658.965565,3600.648841
21649.773235,-444.123565,-7994.224174,-612.876398
21649.773568,-3256.906145,-8660.409521,-3677.258390
21649.773902,-7105.977043,-13693.809927,-5745.716235
21649.774235,-2146.597232,-10881.027347,-1532.190996
21649.774569,-4441.235652,-8142.265362,-2221.676944
21649.774902,-3552.988522,-8956.491898,0.000000
21649.775236,-4811.338623,-8660.409521,-1532.190996
21649.775569,0.000000,-3627.009116,2451.505594
21649.775902,3775.050304,-10658.965565,7890.783629
21649.776236,4663.297435,-4145.153275,2374.896044
21649.776569,1184.329507,-11103.089130,4826.401637
21649.776903,-1554.432478,-7105.977043,-1915.238745
21649.777236,1628.453072,-11473.192101,-1072.533697
21649.777570,-4219.173869,-9844.739029,-4519.963438
21649.777903,-370.102971,-13323.706956,-1915.238745
21649.778237,-2146.597232,-7179.997637,-4903.011187
21649.778570,-3849.070898,-15470.304188,-2451.505594
21649.778904,-74.020594,-6809.894666,-76.609550
21649.779237,-3552.988522,-9548.656652,612.876398
21649.779570,6587.832884,-4737.318029,3600.648841
21649.779904,3775.050304,-12361.439231,7048.078582
21649.780237,5255.462188,-2812.782580,4060.306139
21649.780571,2294.638420,-7772.162391,1838.629195
21649.780904,370.102971,-9474.636058,-1915.238745
21649.781238,1776.494261,-7772.162391,0.000000
21649.781571,-3182.885551,-13767.830521,-842.705048
21649.781905,-74.020594,-11547.212695,-3753.867940
21649.782238,-7105.977043,-9548.656652,-6741.640382
21649.782572,1702.473667,-11547.212695,-1302.362347
21649.782905,2960.823768,-8290.306550,2528.115143
21649.783238,4145.153275,-7105.977043,5286.058936
21649.783572,4071.132681,-8068.244768,4290.134789
21649.783905,2812.782580,-8882.471304,4826.401637
21649.784239,2664.741391,-10214.842000,4060.306139
21649.784572,2220.617826,-5255.462188,306.438199
21649.784906,-592.164754,-11029.068536,-919.314598
21649.785239,0.000000,-8068.244768,-1838.629195
21649.785573,1036.288319,-13027.624579,-1302.362347
21649.785906,-518.144159,-5403.503377,-2451.505594
21649.786240,-3552.988522,-9548.656652,0.000000
21649.786573,-148.041188,-11843.295072,-76.609550
21649.786907,148.041188,-9548.656652,0.000000
21649.787240,296.082377,-8586.388927,1608.800546
21649.787573,3923.091493,-5181.441594,1685.410096
21649.787907,-1036.288319,-10436.903782,1685.410096
21649.788240,5255.462188,-9474.636058,3600.648841
21649.788574,3330.926739,-11843.295072,4826.401637
21649.788907,592.164754,-5995.668130,3830.477490
21649.789241,1406.391290,-11843.295072,-76.609550
21649.789574,-370.102971,-10510.924376,-2528.115143
21649.789908,-666.185348,-11769.274478,-76.609550
21649.790241,-1036.288319,-6217.729913,-2834.553343
21649.790575,-2590.720797,-11695.253884,-2451.505594
21649.790908,-2738.761985,-10288.862594,-2068.457845
21649.791241,-2886.803174,-12065.356855,76.609550
21649.791575,2294.638420,-5921.647536,3600.648841
21649.791908,0.000000,-9548.656652,6971.469032
21649.792242,1702.473667,-7698.141797,1762.019645
21649.792575,1480.411884,-7179.997637,2451.505594
21649.792909,0.000000,-5329.482782,1762.019645
21649.793242,-592.164754,-7476.080014,0.000000
21649.793576,-3849.070898,-11917.315666,-2834.553343
21649.793909,-888.247130,-10584.944971,-2528.115143
21649.794243,-2960.823768,-10732.986159,-1225.752797
21649.794576,-74.020594,-8882.471304,-3600.648841
21649.794909,-2960.823768,-11325.150913,0.000000
21649.795243,0.000000,-10288.862594,2068.457845
21649.795576,1998.556043,-8956.491898,3524.039291
21649.795910,0.000000,-5403.503377,2757.943793
21649.796243,740.205942,-10066.800811,2834.553343
21649.796577,4145.153275,-7254.018232,5439.278036
21649.796910,5033.400406,-7994.224174,5286.058936
21649.797244,3478.967927,-8290.306550,2987.772442
21649.797577,-1776.494261,-6291.750507,-3677.258390
21649.797911,-1258.350101,-13619.789333,-4979.620737
21649.798244,-222.061783,-11843.295072,-3753.867940
21649.798577,-2368.659014,-9548.656652,-2451.505594
21649.798911,-4145.153275,-10732.986159,-2145.067394
21649.799244,592.164754,-9622.677246,-689.485948
21649.799578,3034.844362,-9696.697840,3294.210641
21649.799911,5699.585753,-7105.977043,6971.469032
21649.800245,5255.462188,-4737.318029,4826.401637
21649.800578,2738.761985,-11325.150913,3983.696590
21649.800912,7624.121203,-6513.812290,2834.553343
21649.801245,2442.679609,-13471.748144,3140.991542
21649.801579,0.000000,-5995.668130,-4136.915689
21649.801912,-3034.844362,-13915.871710,-5592.497135
21649.802245,-6513.812290,-10436.903782,-5822.325785
21649.802579,2294.638420,-13619.789333,-76.609550
21649.802912,-5921.647536,-4811.338623,-2451.505594
21649.803246,0.000000,-11325.150913,1225.752797
21649.803579,-74.020594,-8882.471304,2068.457845
21649.803913,5625.565159,-8808.450710,7124.688131
21649.804246,3034.844362,-6809.894666,5515.887586
21649.804580,3182.885551,-7550.100608,3294.210641
21649.804913,-1776.494261,-8364.327145,-766.095498
21649.805247,0.000000,-9548.656652,306.438199
21649.805580,1702.473667,-8290.306550,-2681.334243
21649.805913,-2886.803174,-8660.409521,-3677.258390
21649.806247,-2960.823768,-11029.068536,-1608.800546
21649.806580,-2442.679609,-9326.594869,-2834.553343
21649.806914,-2072.576638,-10436.903782,-2221.676944
21649.807247,-1554.432478,-6809.894666,-2374.896044
21649.807581,518.144159,-10955.047942,1762.019645
21649.807914,2960.823768,-8956.491898,3677.258390
21649.808248,3552.988522,-9844.739029,10342.289223
21649.808581,2294.638420,-5921.647536,2528.115143
21649.808915,592.164754,-7179.997637,0.000000
21649.809248,0.000000,-10955.047942,1762.019645
21649.809581,-1554.432478,-9844.739029,-2451.505594
21649.809915,-2442.679609,-7698.141797,-1915.238745
21649.810248,-5699.585753,-10510.924376,-5286.058936
21649.810582,-2812.782580,-10510.924376,-3140.991542
21649.810915,-1554.432478,-11251.130318,-76.609550
21649.811249,148.041188,-8290.306550,2374.896044
21649.811582,1110.308913,-7105.977043,842.705048
21649.811916,-2368.659014,-9548.656652,2451.505594
21649.812249,4441.235652,-9474.636058,4826.401637
21649.812583,5625.565159,-7031.956449,5515.887586
21649.812916,1554.432478,-6883.915261,1225.752797
21649.813250,1924.535449,-9400.615463,459.657299
21649.813583,-74.020594,-12065.356855,-919.314598
21649.813916,-740.205942,-8364.327145,-3064.381992
21649.814250,-74.020594,-8586.388927,-3907.087040
21649.814583,-3552.988522,-9548.656652,-4290.134789
21649.814917,0.000000,-10436.903782,-229.828649
21649.815250,-666.185348,-9696.697840,0.000000
21649.815584,2738.761985,-6143.709319,4673.182538
21649.815917,814.226536,-7846.182985,1915.238745
21649.816251,3330.926739,-9030.512492,3907.087040
21649.816584,2812.782580,-9252.574275,4136.915689
21649.816918,74.020594,-4811.338623,1378.971896
21649.817251,1406.391290,-6217.729913,383.047749
21649.817584,-666.185348,-12139.377449,-1302.362347
21649.817918,3330.926739,-9474.636058,-2068.457845
21649.818251,-3923.091493,-14878.139434,-1608.800546
21649.818585,-2590.720797,-4737.318029,-7431.126331
21649.818918,-4219.173869,-18949.272115,-1302.362347
21649.819252,-370.102971,-5995.668130,-3677.258390
21649.819585,4145.153275,-10881.027347,4903.011187
21649.819919,3849.070898,-4737.318029,3983.696590
21649.820252,4737.318029,-9548.656652,6741.640382
21649.820586,2294.638420,-6883.915261,4903.011187
21649.820919,5847.626942,-9474.636058,6511.811733
21649.821252,74.020594,-4737.318029,-76.609550
21649.821586,-3552.988522,-11325.150913,-4290.134789
21649.821919,-3627.009116,-9474.636058,-6511.811733
21649.822253,-3775.050304,-9548.656652,-4903.011187
21649.822586,-2368.659014,-7698.141797,-2528.115143
21649.822920,-666.185348,-11843.295072,-76.609550
21649.823253,-2960.823768,-8660.409521,-383.047749
21649.823587,1110.308913,-8660.409521,2987.772442
21649.823920,4071.132681,-5329.482782,2681.334243
21649.824254,2664.741391,-7624.121203,3294.210641
21649.824587,4737.318029,-10955.047942,4826.401637
21649.824920,4663.297435,-8364.327145,1225.752797
21649.825254,4885.359217,-11251.130318,6128.763984
21649.825587,4663.297435,-8882.471304,-383.047749
21649.825921,-3701.029710,-9548.656652,-4903.011187
21649.826254,-74.020594,-11843.295072,-3753.867940
21649.826588,-2368.659014,-11695.253884,-1455.581446
21649.826921,-1554.432478,-7031.956449,-2911.162892
21649.827254,-2886.803174,-10214.842000,-1149.143247
21649.827587,-1258.350101,-8882.471304,-76.609550
21649.827920,1406.391290,-6587.832884,4903.011187
21649.828254,2368.659014,-5921.647536,4826.401637
21649.828587,2886.803174,-8882.471304,1149.143247
21649.828920,0.000000,-7179.997637,0.000000
21649.829253,3478.967927,-12435.459826,3907.087040
21649.829586,296.082377,-6735.874072,-76.609550
21649.829920,-3478.967927,-11695.253884,-4443.353888
21649.830253,-3330.926739,-10807.006753,-4136.915689
21649.830586,-4811.338623,-11843.295072,-3907.087040
21649.830919,-2368.659014,-8438.347739,306.438199
21649.831252,-1258.350101,-6883.915261,-1072.533697
21649.831585,-962.267725,-10140.821405,2298.286494
21649.831919,2368.659014,-5403.503377,6128.763984
21649.832252,1776.494261,-10658.965565,5439.278036
21649.832585,2590.720797,-3923.091493,1302.362347
21649.832918,-4441.235652,-8364.327145,1225.752797
21649.833251,-74.020594,-9474.636058,-76.609550
21649.833585,0.000000,-9548.656652,0.000000
21649.833918,-814.226536,-8142.265362,-2068.457845
21649.834251,-962.267725,-9474.636058,-2374.896044
21649.834584,-370.102971,-9992.780217,-2221.676944
21649.834917,1702.473667,-14211.954086,2987.772442
21649.835251,-962.267725,-9178.553681,-76.609550
21649.835584,-2886.803174,-8364.327145,-2451.505594
21649.835917,1110.308913,-10584.944971,1225.752797
21649.836250,4367.215058,-10658.965565,5439.278036
21649.836583,3849.070898,-7550.100608,3983.696590
21649.836916,4367.215058,-6513.812290,2834.553343
21649.837250,962.267725,-9178.553681,2374.896044
21649.837583,962.267725,-10510.924376,536.266849
21649.837916,-1776.494261,-7328.038826,-1225.752797
21649.838249,-444.123565,-8734.430116,-3447.429741
21649.838582,-5921.647536,-11325.150913,-1225.752797
21649.838916,1702.473667,-9474.636058,-1608.800546
21649.839249,-1554.432478,-14211.954086,-689.485948
21649.839582,518.144159,-6513.812290,-689.485948
21649.839915,1998.556043,-10362.883188,1608.800546
21649.840248,1406.391290,-6513.812290,2451.505594
21649.840581,4663.297435,-11177.109724,5439.278036
21649.840915,1184.329507,-2442.679609,2451.505594
21649.841248,4071.132681,-11843.295072,1455.581446
21649.841581,2368.659014,-7550.100608,3370.820191
21649.841914,-74.020594,-13619.789333,-1608.800546
21649.842247,-2664.741391,-7179.997637,-2451.505594
21649.842581,-5921.647536,-8956.491898,-4903.011187
21649.842914,-2960.823768,-12879.583391,-3447.429741
21649.843247,0.000000,-10288.862594,76.609550
21649.843580,2072.576638,-7994.224174,4749.792088
21649.843913,4367.215058,-6809.894666,6665.030833
21649.844246,1702.473667,-2738.761985,1225.752797
21649.844580,3478.967927,-13619.789333,1762.019645
21649.844913,4145.153275,-4885.359217,-383.047749
21649.845246,0.000000,-10732.986159,2757.943793
21649.845579,0.000000,-9548.656652,-1685.410096
21649.845912,2368.659014,-10436.903782,-1532.190996
21649.846246,-1554.432478,-14730.098246,-459.657299
21649.846579,1998.556043,-6217.729913,-2068.457845
21649.846912,-3627.009116,-14804.118840,-1302.362347
21649.847245,-2886.803174,-7476.080014,-2451.505594
21649.847578,-814.226536,-9622.677246,995.924147
21649.847911,1702.473667,-6069.688724,5209.449386
21649.848245,1998.556043,-5847.626942,2681.334243
21649.848578,1480.411884,-9474.636058,5209.449386
21649.848911,3182.885551,-7179.997637,2145.067394
21649.849244,-3552.988522,-7179.997637,2451.505594
21649.849577,-74.020594,-8290.306550,-3447.429741
21649.849911,-7105.977043,-13175.665768,-4596.572988
21649.850244,-1184.329507,-10732.986159,-1149.143247
21649.850577,-3330.926739,-11621.233289,-612.876398
21649.850910,1332.370696,-6883.915261,-1378.971896
21649.851243,-3330.926739,-11029.068536,-766.095498
21649.851577,2294.638420,-10658.965565,2374.896044
21649.851910,2590.720797,-6291.750507,3064.381992
21649.852243,1184.329507,-8068.244768,4903.011187
21649.852576,3775.050304,-8882.471304,1762.019645
21649.852909,-370.102971,-8660.409521,153.219100
21649.853242,5255.462188,-9474.636058,2987.772442
21649.853576,0.000000,-7179.997637,995.924147
21649.853909,518.144159,-6883.915261,-3064.381992
21649.854242,-3997.112087,-13767.830521,-3753.867940
21649.854575,-2812.782580,-9844.739029,-3217.601092
21649.854908,-5551.544565,-7772.162391,-2451.505594
21649.855242,-2516.700203,-9474.636058,-1608.800546
21649.855575,3478.967927,-10658.965565,-76.609550
21649.855908,888.247130,-10140.821405,4903.011187
21649.856241,8216.285956,-5625.565159,4596.572988
21649.856574,1184.329507,-8364.327145,2068.457845
21649.856907,1850.514855,-9548.656652,1378.971896
21649.857241,3997.112087,-7772.162391,2451.505594
21649.857574,2368.659014,-11029.068536,4903.011187
21649.857907,3552.988522,-5625.565159,2374.896044
21649.858240,-2738.761985,-11547.212695,-5592.497135
21649.858573,-2368.659014,-9548.656652,-3370.820191
21649.858907,-4145.153275,-11917.315666,-76.609550
21649.859240,-1850.514855,-6809.894666,-5822.325785
21649.859573,-2886.803174,-10881.027347,-2528.115143
21649.859906,-2220.617826,-9844.739029,-612.876398
21649.860239,3627.009116,-7105.977043,3294.210641
21649.860572,1184.329507,-7476.080014,4903.011187
21649.860906,3997.112087,-5477.523971,3677.258390
21649.861239,2368.659014,-8808.450710,5056.230287
21649.861572,4663.297435,-7179.997637,2298.286494
21649.861905,4663.297435,-8290.306550,-76.609550
21649.862238,0.000000,-8290.306550,-4060.306139
21649.862572,-3552.988522,-14582.057057,-4290.134789
21649.862905,2294.638420,-11843.295072,-3753.867940
21649.863238,-1850.514855,-15248.242405,-2451.505594
21649.863571,-74.020594,-8290.306550,-1608.800546
21649.863904,-444.123565,-9992.780217,-766.095498
21649.864237,3404.947333,-9252.574275,2451.505594
21649.864571,5995.668130,-10658.965565,10495.508323
21649.864904,5773.606348,-1702.473667,9346.365076
21649.865237,4663.297435,-7624.121203,6052.154434
21649.865570,-3552.988522,-7179.997637,5669.106685
21649.865903,-74.020594,-8882.471304,-3907.087040
21649.866237,-5329.482782,-9548.656652,-4749.792088
21649.866570,-6439.791695,-8956.491898,-8733.488677
21649.866903,-5551.544565,-10881.027347,-8503.660028
21649.867236,-6439.791695,-13619.789333,-3217.601092
21649.867569,-74.020594,-7476.080014,-995.924147
21649.867903,-962.267725,-9474.636058,2374.896044
21649.868236,2294.638420,-7105.977043,2528.115143
21649.868569,5107.421000,-9474.636058,8503.660028
21649.868902,5847.626942,-7698.141797,5745.716235
21649.869235,3552.988522,-4515.256246,4903.011187
21649.869568,0.000000,-11399.171507,2451.505594
21649.869902,2516.700203,-7772.162391,-1225.752797
21649.870235,-2738.761985,-13989.892304,-2221.676944
21649.870568,-2960.823768,-7772.162391,-5132.839837
21649.870901,-5107.421000,-12583.501014,-4673.182538
21649.871234,-4737.318029,-8364.327145,-4903.011187
21649.871568,-74.020594,-11843.295072,-76.609550
21649.871901,-962.267725,-8290.306550,2987.772442
21649.872234,0.000000,-5995.668130,5056.230287
21649.872567,2294.638420,-6513.812290,4213.525239
21649.872900,3552.988522,-10066.800811,4443.353888
21649.873233,3849.070898,-7105.977043,4519.963438
21649.873567,1776.494261,-7105.977043,229.828649
21649.873900,-592.164754,-12583.501014,-2604.724693
21649.874233,-74.020594,-12583.501014,-2528.115143
21649.874566,-74.020594,-13915.871710,-5592.497135
21649.874899,-2368.659014,-7179.997637,-1838.629195
21649.875233,-148.041188,-13471.748144,-76.609550
21649.875566,3478.967927,-9474.636058,1149.143247
21649.875899,4145.153275,-9622.677246,8120.612279
21649.876232,3627.009116,-3330.926739,4213.525239
21649.876565,5477.523971,-6439.791695,4213.525239
21649.876898,1332.370696,-10140.821405,2298.286494
21649.877232,3849.070898,-8512.368333,3524.039291
21649.877565,-2146.597232,-7550.100608,-1838.629195
21649.877898,-962.267725,-9992.780217,-4749.792088
21649.878231,-2590.720797,-10807.006753,-4596.572988
21649.878564,-2146.597232,-12213.398043,-2757.943793
21649.878898,0.000000,-6883.915261,1225.752797
21649.879231,-666.185348,-9474.636058,-689.485948
21649.879564,1110.308913,-7031.956449,-2451.505594
21649.879897,1776.494261,-10881.027347,4136.915689
21649.880230,5847.626942,-9474.636058,5439.278036
21649.880563,2368.659014,-5181.441594,2374.896044
21649.880897,2960.823768,-10510.924376,2374.896044
21649.881230,3478.967927,-9474.636058,-76.609550
21649.881563,2368.659014,-13101.645173,3677.258390
21649.881896,0.000000,-4811.338623,1838.629195
21649.882229,-1258.350101,-13027.624579,-3140.991542
21649.882563,-1702.473667,-8882.471304,-3753.867940
21649.882896,-3552.988522,-9696.697840,306.438199
21649.883229,-2368.659014,-5107.421000,-2451.505594
21649.883562,-2960.823768,-7179.997637,-995.924147
21649.883895,-3404.947333,-10955.047942,-1378.971896
21649.884228,222.061783,-9252.574275,3983.696590
21649.884562,-74.020594,-5921.647536,4213.525239
21649.884895,0.000000,-5995.668130,2374.896044
21649.885228,1702.473667,-7179.997637,612.876398
21649.885561,2368.659014,-8586.388927,3600.648841
21649.885894,2146.597232,-11843.295072,-76.609550
21649.886228,-2368.659014,-9548.656652,-3677.258390
21649.886561,-1998.556043,-13027.624579,-3447.429741
21649.886894,-1480.411884,-11843.295072,0.000000
21649.887227,2590.720797,-9252.574275,2145.067394
21649.887560,-4441.235652,-6883.915261,-2834.553343
21649.887894,-592.164754,-11103.089130,-76.609550
21649.888227,-1776.494261,-6587.832884,0.000000
21649.888560,2368.659014,-8364.327145,7277.907231
21649.888893,962.267725,-5329.482782,2681.334243
21649.889226,-2072.576638,-8142.265362,1608.800546
21649.889559,-1258.350101,-7920.203579,612.876398
21649.889893,2812.782580,-7105.977043,0.000000
21649.890226,3627.009116,-8956.491898,153.219100
21649.890559,-3552.988522,-11917.315666,-2451.505594
21649.890892,-74.020594,-11547.212695,-6052.154434
21649.891225,-3552.988522,-13989.892304,-995.924147
21649.891559,3478.967927,-11843.295072,-76.609550
21649.891892,592.164754,-7328.038826,612.876398
21649.892225,1258.350101,-9918.759623,2068.457845
21649.892558,4885.359217,-7476.080014,2451.505594
21649.892891,3775.050304,-9326.594869,6358.592633
21649.893224,7031.956449,-3775.050304,4826.401637
21649.893558,2368.659014,-8660.409521,6128.763984
21649.893891,4071.132681,-9474.636058,-1149.143247
21649.894224,-444.123565,-11103.089130,-1685.410096
21649.894557,-2516.700203,-8290.306550,-4673.182538
21649.894890,-3849.070898,-11325.150913,-6128.763984
21649.895224,-4737.318029,-10732.986159,-4903.011187
21649.895557,-74.020594,-11843.295072,-383.047749
21649.895890,-1554.432478,-4811.338623,0.000000
21649.896223,1480.411884,-8290.306550,3600.648841
21649.896556,4071.132681,-7698.141797,3294.210641
21649.896889,2516.700203,-9548.656652,3677.258390
21649.897223,5773.606348,-6439.791695,5822.325785
21649.897556,1480.411884,-8956.491898,1225.752797
21649.897889,2738.761985,-9252.574275,612.876398
21649.898222,962.267725,-12361.439231,1378.971896
21649.898555,1110.308913,-10658.965565,-3753.867940
21649.898889,-3404.947333,-10732.986159,-4903.011187
21649.899222,-2960.823768,-13175.665768,-1915.238745
21649.899555,-666.185348,-10436.903782,-1685.410096
21649.899888,0.000000,-10140.821405,3294.210641
21649.900221,148.041188,-8068.244768,3677.258390
21649.900554,0.000000,-6587.832884,4213.525239
21649.900888,2220.617826,-7698.141797,3907.087040
21649.901221,4071.132681,-9474.636058,6665.030833
21649.901554,2294.638420,-2960.823768,-1149.143247
21649.901887,-1776.494261,-9252.574275,536.266849
21649.902220,-74.020594,-13027.624579,-2528.115143
21649.902554,-2146.597232,-11547.212695,-4749.792088
21649.902887,-1850.514855,-10658.965565,-2834.553343
21649.903220,-2886.803174,-11029.068536,-4673.182538
21649.903553,-4441.235652,-11029.068536,-3524.039291
21649.903886,74.020594,-11251.130318,766.095498
21649.904220,2664.741391,-4515.256246,5132.839837
21649.904553,3552.988522,-5403.503377,4903.011187
21649.904886,5403.503377,-10658.965565,7277.907231
21649.905219,3256.906145,-5995.668130,3983.696590
21649.905552,1184.329507,-7179.997637,4903.011187
21649.905885,1998.556043,-6809.894666,-1915.238745
21649.906219,-3997.112087,-13101.645173,-3830.477490
21649.906552,-3552.988522,-9548.656652,-5822.325785
21649.906885,-4145.153275,-12213.398043,-3064.381992
21649.907218,-2368.659014,-6291.750507,-3370.820191
21649.907551,-3552.988522,-10140.821405,-1838.629195
21649.907885,-1258.350101,-10066.800811,689.485948
21649.908218,-666.185348,-9696.697840,3983.696590
21649.908551,1924.535449,-5107.421000,4903.011187
21649.908884,2294.638420,-7105.977043,5745.716235
21649.909217,1110.308913,-6439.791695,-1225.752797
21649.909550,5625.565159,-10140.821405,4903.011187
21649.909884,2664.741391,-9474.636058,3600.648841
21649.910217,1776.494261,-8364.327145,-1838.629195
21649.910550,-1776.494261,-11843.295072,-2987.772442
21649.910883,-1110.308913,-14211.954086,-4519.963438
21649.911216,444.123565,-10436.903782,-1762.019645
21649.911550,-1998.556043,-11843.295072,-3140.991542
21649.911883,0.000000,-7772.162391,-995.924147
21649.912216,1702.473667,-9252.574275,306.438199
21649.912549,5921.647536,-7772.162391,11414.822920
21649.912882,5847.626942,-3552.988522,7277.907231
21649.913215,3478.967927,-9400.615463,4213.525239
21649.913549,1628.453072,-7105.977043,995.924147
21649.913882,592.164754,-11029.068536,919.314598
21649.914215,814.226536,-7105.977043,-1608.800546
21649.914548,-5773.606348,-12435.459826,-5286.058936
21649.914881,-666.185348,-11251.130318,-3447.429741
21649.915215,-3256.906145,-11325.150913,0.000000
21649.915548,-1184.329507,-7994.224174,-2834.553343
21649.915881,-1554.432478,-9252.574275,-4826.401637
21649.916214,0.000000,-9548.656652,2451.505594
21649.916547,6735.874072,-7550.100608,5439.278036
21649.916880,6069.688724,-7254.018232,9039.926876
21649.917214,2738.761985,-7254.018232,4060.306139
21649.917547,2738.761985,-7624.121203,2451.505594
21649.917880,2738.761985,-8290.306550,-76.609550
21649.918213,2664.741391,-11621.233289,3600.648841
21649.918546,-666.185348,-10362.883188,-1302.362347
21649.918880,-3627.009116,-10955.047942,-5515.887586
21649.919213,-2368.659014,-11621.233289,-3983.696590
21649.919546,-2886.803174,-13249.686362,612.876398
21649.919879,-1258.350101,-5921.647536,76.609550
21649.920212,-3849.070898,-9548.656652,-1225.752797
21649.920546,-2072.576638,-8660.409521,2068.457845
21649.920879,0.000000,-4811.338623,2451.505594
21649.921212,3701.029710,-7105.977043,7277.907231
21649.921545,3034.844362,-4367.215058,2451.505594
21649.921878,0.000000,-9548.656652,2451.505594
21649.922211,0.000000,-11325.150913,306.438199
21649.922545,-2146.597232,-9696.697840,-3064.381992
21649.922878,-4589.276840,-11473.192101,-6358.592633
21649.923211,-1998.556043,-12213.398043,-3140.991542
21649.923544,-962.267725,-10955.047942,-1685.410096
21649.923877,0.000000,-7179.997637,612.876398
21649.924211,370.102971,-7698.141797,1608.800546
21649.924544,3182.885551,-7105.977043,4826.401637
21649.924877,2590.720797,-7476.080014,5209.449386
21649.925210,2886.803174,-10658.965565,6665.030833
21649.925543,444.123565,-1850.514855,0.000000
21649.925876,-3997.112087,-11621.233289,-76.609550
21649.926210,3478.967927,-6217.729913,-4903.011187
21649.926543,-2072.576638,-14285.974681,459.657299
21649.926876,-1036.288319,-8512.368333,-383.047749
21649.927209,-3701.029710,-9030.512492,-4596.572988
21649.927542,-2960.823768,-12805.562797,-2145.067394
21649.927876,1332.370696,-10214.842000,1149.143247
21649.928209,1184.329507,-6143.709319,2681.334243
21649.928542,4071.132681,-4219.173869,1225.752797
21649.928875,3478.967927,-10362.883188,2987.772442
21649.929208,2368.659014,-7994.224174,2987.772442
21649.929541,2960.823768,-5995.668130,5286.058936
21649.929875,3478.967927,-9474.636058,1149.143247
21649.930208,0.000000,-9844.739029,-1072.533697
21649.930541,-2146.597232,-12509.480420,-3677.258390
21649.930874,-2368.659014,-11177.109724,-1378.971896
21649.931207,-3552.988522,-7476.080014,-2451.505594
21649.931541,-2590.720797,-10288.862594,-4903.011187
21649.931874,-74.020594,-10658.965565,-76.609550
21649.932207,1406.391290,-7994.224174,2145.067394
21649.932540,2886.803174,-666.185348,612.876398
21649.932873,296.082377,-7772.162391,919.314598
21649.933206,4071.132681,-9474.636058,2374.896044
21649.933540,4293.194464,-11695.253884,2451.505594
21649.933873,2294.638420,-10510.924376,1532.190996
21649.934206,1998.556043,-11547.212695,-1455.581446
21649.934539,-2368.659014,-12509.480420,-1685.410096
21649.934872,2294.638420,-13027.624579,-2528.115143
21649.935206,-666.185348,-9252.574275,0.000000
21649.935539,0.000000,-8512.368333,1532.190996
21649.935872,-1554.432478,-9474.636058,612.876398
21649.936205,0.000000,-7994.224174,-612.876398
21649.936538,2072.576638,-7846.182985,4519.963438
21649.936872,444.123565,-5477.523971,2987.772442
21649.937205,518.144159,-8882.471304,383.047749
21649.937538,2072.576638,-11251.130318,2987.772442
21649.937871,0.000000,-8364.327145,1225.752797
21649.938204,0.000000,-4811.338623,0.000000
21649.938537,-74.020594,-12435.459826,-3753.867940
21649.938871,814.226536,-11473.192101,-2451.505594
21649.939204,-2146.597232,-14508.036463,-766.095498
21649.939537,0.000000,-7179.997637,-2145.067394
21649.939870,-4959.379811,-11103.089130,-3140.991542
21649.940203,370.102971,-6513.812290,-689.485948
21649.940537,3478.967927,-10066.800811,5132.839837
21649.940870,4885.359217,-4663.297435,5209.449386
21649.941203,3775.050304,-7105.977043,3677.258390
21649.941536,1110.308913,-9548.656652,3064.381992
21649.941869,3478.967927,-8586.388927,1149.143247
21649.942202,-1480.411884,-11843.295072,4826.401637
21649.942536,-74.020594,-6365.771101,-6818.249932
21649.942869,-5921.647536,-15100.201217,-2834.553343
21649.943202,-2368.659014,-10436.903782,-4596.572988
21649.943535,-814.226536,-12139.377449,-1378.971896
21649.943869,-1184.329507,-5995.668130,153.219100
21649.944202,222.061783,-9400.615463,76.609550
21649.944535,888.247130,-9178.553681,3907.087040
21649.944869,1776.494261,-6587.832884,1838.629195
21649.945202,4367.215058,-7105.977043,3600.648841
21649.945535,2886.803174,-9474.636058,2374.896044
21649.945868,0.000000,-8364.327145,3064.381992
21649.946202,4367.215058,-11843.295072,2987.772442
21649.946535,-1184.329507,-8364.327145,0.000000
21649.946868,-74.020594,-13619.789333,-4060.306139
21649.947202,-3552.988522,-11399.171507,-4749.792088
21649.947535,-1406.391290,-12657.521608,-3370.820191
21649.947868,-3256.906145,-7179.997637,-919.314598
21649.948202,2294.638420,-9474.636058,-76.609550
21649.948535,-1776.494261,-7179.997637,3677.258390
21649.948868,7031.956449,-8882.471304,8197.221829
21649.949201,3775.050304,-6291.750507,6128.763984
21649.949535,2664.741391,-5255.462188,3600.648841
21649.949868,370.102971,-9918.759623,-842.705048
21649.950201,888.247130,-10584.944971,-1225.752797
21649.950535,148.041188,-12287.418637,-1455.581446
21649.950868,-74.020594,-9178.553681,-3753.867940
21649.951201,-5255.462188,-11399.171507,-8733.488677
21649.951535,-2368.659014,-11621.233289,-2528.115143
21649.951868,-74.020594,-11843.295072,-76.609550
21649.952201,1702.473667,-4219.173869,0.000000
21649.952534,2368.659014,-8956.491898,6665.030833
21649.952868,2368.659014,-5773.606348,5209.449386
21649.953201,5033.400406,-7402.059420,6894.859482
21649.953534,3478.967927,-6513.812290,5132.839837
21649.953868,2886.803174,-8290.306550,842.705048
21649.954201,-1924.535449,-10732.986159,-1225.752797
21649.954534,-740.205942,-10955.047942,-3217.601092
21649.954868,-1702.473667,-11177.109724,-3140.991542
21649.955201,-4145.153275,-8364.327145,-4903.011187
21649.955534,-2960.823768,-11325.150913,-1838.629195
21649.955868,-74.020594,-13027.624579,-1915.238745
21649.956201,-518.144159,-9178.553681,1149.143247
21649.956534,0.000000,-6143.709319,3677.258390
21649.956867,592.164754,-5551.544565,3217.601092
21649.957201,2516.700203,-5403.503377,3983.696590
21649.957534,3404.947333,-9326.594869,6205.373534
21649.957867,3701.029710,-2812.782580,1991.848295
21649.958201,1184.329507,-11843.295072,2145.067394
21649.958534,-666.185348,-8438.347739,-2528.115143
21649.958867,-666.185348,-13619.789333,-3753.867940
21649.959201,-5329.482782,-8956.491898,-3677.258390
21649.959534,-4737.318029,-7772.162391,-5515.887586
21649.959867,-4737.318029,-11991.336260,-2451.505594
21649.960200,2516.700203,-7624.121203,229.828649
21649.960534,1110.308913,-11621.233289,5132.839837
21649.960867,888.247130,-5107.421000,3830.477490
21649.961200,2886.803174,-7105.977043,2987.772442
21649.961534,2368.659014,-8956.491898,5209.449386
21649.961867,4737.318029,-4811.338623,1838.629195
21649.962200,0.000000,-6291.750507,2451.505594
21649.962534,-74.020594,-11843.295072,-3753.867940
21649.962867,-666.185348,-11103.089130,-4060.306139
21649.963200,-1258.350101,-15100.201217,-1302.362347
21649.963534,0.000000,-7179.997637,-766.095498
21649.963867,-1924.535449,-11695.253884,-995.924147
21649.964200,-2294.638420,-8364.327145,-2374.896044
21649.964533,3182.885551,-13027.624579,2987.772442
21649.964867,148.041188,-3923.091493,4903.011187
21649.965200,1184.329507,-5403.503377,5209.449386
21649.965533,2886.803174,-9178.553681,3294.210641
21649.965867,2368.659014,-5995.668130,2757.943793
21649.966200,1702.473667,-7698.141797,1532.190996
21649.966533,2442.679609,-5699.585753,-1838.629195
21649.966867,-2590.720797,-12139.377449,-4749.792088
21649.967200,-370.102971,-14211.954086,-2528.115143
21649.967533,-1258.350101,-9770.718434,-4366.744339
21649.967866,-4737.318029,-10732.986159,-1455.581446
21649.968200,-1554.432478,-10955.047942,-3907.087040
21649.968533,1998.556043,-7772.162391,0.000000
21649.968866,2368.659014,-6587.832884,6741.640382
21649.969200,6439.791695,-1258.350101,3983.696590
21649.969533,1480.411884,-11769.274478,5669.106685
21649.969866,3923.091493,-6365.771101,2987.772442
21649.970200,3330.926739,-11695.253884,4519.963438
21649.970533,1110.308913,-7105.977043,-1455.581446
21649.970866,-3182.885551,-10066.800811,-4213.525239
21649.971199,-5773.606348,-12139.377449,-5056.230287
21649.971533,-2664.741391,-12361.439231,-2834.553343
21649.971866,-3552.988522,-8956.491898,-1225.752797
21649.972199,-1850.514855,-8882.471304,-1608.800546
21649.972533,-1776.494261,-5995.668130,0.000000
21649.972866,2368.659014,-9548.656652,3983.696590
21649.973199,4515.256246,-10658.965565,5286.058936
21649.973533,0.000000,-6587.832884,3064.381992
21649.973866,2368.659014,-7698.141797,2757.943793
21649.974199,1776.494261,-9474.636058,2911.162892
21649.974533,2590.720797,-7846.182985,2528.115143
21649.974866,-74.020594,-8290.306550,-1915.238745
21649.975199,-1258.350101,-12731.542202,-3140.991542
21649.975532,-2368.659014,-9548.656652,-2298.286494
21649.975866,-5921.647536,-11917.315666,306.438199
21649.976199,-1258.350101,-5773.606348,-2298.286494
21649.976532,-3552.988522,-11029.068536,-766.095498
21649.976866,1850.514855,-6809.894666,76.609550
21649.977199,3775.050304,-11251.130318,6358.592633
21649.977532,2368.659014,-6439.791695,3294.210641
21649.977866,2220.617826,-7105.977043,3447.429741
21649.978199,-962.267725,-11029.068536,-2451.505594
21649.978532,2072.576638,-11547.212695,2374.896044
21649.978865,-666.185348,-7920.203579,0.000000
21649.979199,-1776.494261,-4219.173869,-4903.011187
21649.979532,-74.020594,-13915.871710,-76.609550
21649.979865,740.205942,-8734.430116,-1225.752797
21649.980199,-740.205942,-12139.377449,1302.362347
21649.980532,-740.205942,-7402.059420,-1225.752797
21649.980865,0.000000,-9548.656652,0.000000
21649.981199,814.226536,-8364.327145,1532.190996
21649.981532,7994.224174,-10362.883188,7277.907231
21649.981865,3478.967927,-5995.668130,766.095498
21649.982198,1776.494261,-10732.986159,1225.752797
21649.982532,888.247130,-8364.327145,766.095498
21649.982865,2072.576638,-11325.150913,842.705048
21649.983198,444.123565,-7105.977043,-383.047749
21649.983532,-3330.926739,-8734.430116,-5056.230287
21649.983865,-2442.679609,-12435.459826,-3294.210641
21649.984198,-3552.988522,-9844.739029,995.924147
21649.984532,1110.308913,-8142.265362,1685.410096
21649.984865,-1258.350101,-2442.679609,0.000000
21649.985198,1110.308913,-7105.977043,1149.143247
21649.985532,1184.329507,-10436.903782,-3140.991542
21649.985865,4441.235652,-10436.903782,4519.963438
21649.986198,3404.947333,-7031.956449,-76.609550
21649.986531,3923.091493,-12213.398043,2221.676944
21649.986865,1998.556043,-11843.295072,-76.609550
21649.987198,518.144159,-12361.439231,-919.314598
21649.987531,-2368.659014,-9548.656652,-2068.457845
21649.987865,-1628.453072,-9548.656652,-4290.134789
21649.988198,-1924.535449,-11103.089130,0.000000
21649.988531,2886.803174,-10066.800811,7124.688131
21649.988865,0.000000,-2442.679609,2451.505594
21649.989198,0.000000,-7550.100608,4826.401637
21649.989531,2294.638420,-5403.503377,0.000000
21649.989864,888.247130,-9548.656652,4443.353888
21649.990198,2294.638420,-7698.141797,-995.924147
21649.990531,-4441.235652,-12731.542202,-3447.429741
21649.990864,-5773.606348,-11325.150913,-4290.134789
21649.991198,-2072.576638,-12361.439231,-4136.915689
21649.991531,-74.020594,-9474.636058,1762.019645
21649.991864,0.000000,-5995.668130,459.657299
21649.992198,-74.020594,-9474.636058,-76.609550
21649.992531,518.144159,-8364.327145,1378.971896
21649.992864,0.000000,-7476.080014,4903.011187
21649.993198,2886.803174,-3997.112087,2451.505594
21649.993531,1184.329507,-8660.409521,-76.609550
21649.993864,1924.535449,-10436.903782,1225.752797
21649.994197,592.164754,-10510.924376,2757.943793
21649.994531,592.164754,-7179.997637,0.000000
21649.994864,-3256.906145,-12435.459826,-76.609550
21649.995197,-2738.761985,-12139.377449,-4979.620737
21649.995531,-3034.844362,-11695.253884,-3370.820191
21649.995864,-666.185348,-7105.977043,-76.609550
21649.996197,-3256.906145,-6587.832884,-2451.505594
21649.996531,-592.164754,-8882.471304,1378.971896
21649.996864,2294.638420,-8142.265362,4290.134789
21649.997197,2738.761985,-6809.894666,4443.353888
21649.997530,2960.823768,-5699.585753,2451.505594
21649.997864,2294.638420,-14211.954086,-76.609550
21649.998197,1628.453072,-9548.656652,1838.629195
21649.998530,3404.947333,-10362.883188,4826.401637
21649.998864,2294.638420,-10658.965565,-1302.362347
21649.999197,-1332.370696,-10140.821405,-4290.134789
21649.999530,-1554.432478,-13841.851115,-2221.676944
21649.999864,-814.226536,-10362.883188,-1608.800546
21650.000197,-1332.370696,-6957.935855,-2298.286494
21650.000530,0.000000,-7772.162391,0.000000
21650.000863,1258.350101,-6217.729913,1455.581446
21650.001197,4145.153275,-10140.821405,5975.544884
21650.001530,2368.659014,-4071.132681,3983.696590
21650.001863,-74.020594,-9474.636058,-689.485948
21650.002197,0.000000,-6587.832884,1225.752797
21650.002530,2146.597232,-11843.295072,2374.896044
21650.002863,1480.411884,-4811.338623,-6741.640382
21650.003197,-1480.411884,-12287.418637,-1608.800546
21650.003530,-666.185348,-11843.295072,-3140.991542
21650.003863,222.061783,-10732.986159,-1991.848295
21650.004197,-222.061783,-11547.212695,919.314598
21650.004530,814.226536,-7179.997637,-766.095498
21650.004863,-3552.988522,-8364.327145,1225.752797
21650.005196,7031.956449,-8290.306550,2451.505594
21650.005530,5847.626942,-10658.965565,7890.783629
21650.005863,3108.864956,-2442.679609,3983.696590
21650.006196,0.000000,-8364.327145,3217.601092
21650.006530,-1924.535449,-8364.327145,-1072.533697
21650.006863,0.000000,-11177.109724,-689.485948
21650.007196,-3478.967927,-10066.800811,-3677.258390
21650.007530,-4737.318029,-12657.521608,-4903.011187
21650.007863,-3034.844362,-10658.965565,-842.705048
21650.008196,-3627.009116,-9696.697840,-1838.629195
21650.008529,-74.020594,-8290.306550,-76.609550
21650.008863,-2590.720797,-7772.162391,306.438199
21650.009196,1480.411884,-7105.977043,3983.696590
21650.009529,3849.070898,-9474.636058,6128.763984
21650.009863,3404.947333,-7994.224174,6205.373534
21650.010196,2590.720797,-5181.441594,2298.286494
21650.010529,0.000000,-9844.739029,306.438199
21650.010863,2294.638420,-11547.212695,-1915.238745
21650.011196,-4145.153275,-12509.480420,919.314598
21650.011529,-1110.308913,-5107.421000,-6128.763984
21650.011863,-6365.771101,-11325.150913,-4749.792088
21650.012196,-2146.597232,-13619.789333,-2528.115143
21650.012529,-1850.514855,-9474.636058,-76.609550
21650.012862,1702.473667,-4737.318029,3294.210641
21650.013196,3923.091493,-6217.729913,3830.477490
21650.013529,1406.391290,-6513.812290,4519.963438
21650.013862,4293.194464,-8586.388927,6894.859482
21650.014196,2294.638420,-6809.894666,3600.648841
21650.014529,1258.350101,-5995.668130,0.000000
21650.014862,-1258.350101,-13619.789333,-1838.629195
21650.015196,1702.473667,-14211.954086,-3753.867940
21650.015529,-1850.514855,-11103.089130,-4366.744339
21650.015862,-2442.679609,-11843.295072,-3753.867940
21650.016195,-1184.329507,-10140.821405,-3370.820191
21650.016529,-1628.453072,-13027.624579,2681.334243
21650.016862,5255.462188,-5921.647536,4826.401637
21650.017195,4515.256246,-4737.318029,5439.278036
21650.017529,4737.318029,-5995.668130,4519.963438
21650.017862,5403.503377,-8438.347739,4749.792088
21650.018195,4071.132681,-11103.089130,5209.449386
21650.018529,888.247130,-4219.173869,-2451.505594
21650.018862,-2664.741391,-14211.954086,-3140.991542
21650.019195,-1850.514855,-11843.295072,-6818.249932
21650.019528,-4737.318029,-13101.645173,-1072.533697
21650.019862,-148.041188,-7994.224174,-2604.724693
21650.020195,-74.020594,-11251.130318,-1608.800546
21650.020528,-2072.576638,-8438.347739,766.095498
21650.020862,3404.947333,-8364.327145,4673.182538
21650.021195,1480.411884,-5255.462188,5669.106685
21650.021528,2368.659014,-5107.421000,2451.505594
21650.021862,2368.659014,-10658.965565,4213.525239
21650.022195,2812.782580,-7476.080014,0.000000
21650.022528,0.000000,-11029.068536,3677.258390
21650.022862,962.267725,-8586.388927,-1302.362347
21650.023195,-4219.173869,-10732.986159,-4903.011187
21650.023528,-2146.597232,-11251.130318,-4213.525239
21650.023861,-1702.473667,-11843.295072,-2374.896044
21650.024195,-962.267725,-8290.306550,-1378.971896
21650.024528,-74.020594,-10066.800811,-383.047749
21650.024861,4071.132681,-14211.954086,2374.896044
21650.025195,2368.659014,-7772.162391,9806.022374
21650.025528,4663.297435,-4737.318029,7277.907231
21650.025861,2294.638420,-9474.636058,2374.896044
21650.026195,1480.411884,-6883.915261,2145.067394
21650.026528,444.123565,-11621.233289,1378.971896
21650.026861,-370.102971,-7105.977043,919.314598
21650.027194,-5033.400406,-10288.862594,-5745.716235
21650.027528,-4885.359217,-10807.006753,-4673.182538
21650.027861,-666.185348,-10066.800811,-2068.457845
21650.028194,-3552.988522,-7772.162391,-1838.629195
21650.028528,-1776.494261,-9474.636058,-76.609550
21650.028861,-2442.679609,-8882.471304,-1302.362347
21650.029194,1850.514855,-8882.471304,2834.553343
21650.029528,3701.029710,-8808.450710,7354.516781
21650.029861,2664.741391,-4663.297435,2145.067394
21650.030194,2146.597232,-9474.636058,2221.676944
21650.030527,2368.659014,-9548.656652,1838.629195
21650.030861,814.226536,-10732.986159,612.876398
21650.031194,1554.432478,-9178.553681,-229.828649
21650.031527,1110.308913,-13027.624579,-2834.553343
21650.031861,-2442.679609,-8808.450710,-3983.696590
21650.032194,-814.226536,-13027.624579,-383.047749
21650.032527,-3108.864956,-9326.594869,-689.485948
21650.032861,-2146.597232,-8734.430116,-76.609550
21650.033194,1258.350101,-5329.482782,2911.162892
21650.033527,0.000000,-13989.892304,7354.516781
21650.033861,3108.864956,-1850.514855,3830.477490
21650.034194,1702.473667,-6291.750507,3753.867940
21650.034527,2590.720797,-6957.935855,-76.609550
21650.034860,3849.070898,-12435.459826,2298.286494
21650.035194,-3256.906145,-11325.150913,-2451.505594
21650.035527,-1850.514855,-8290.306550,-7431.126331
21650.035860,-7105.977043,-13397.727550,-4290.134789
21650.036194,2294.638420,-11251.130318,-3753.867940
21650.036527,2294.638420,-10658.965565,2374.896044
21650.036860,1776.494261,-6587.832884,2374.896044
21650.037194,1036.288319,-7994.224174,1685.410096
21650.037527,1998.556043,-9844.739029,1608.800546
21650.037860,4737.318029,-9696.697840,6894.859482
21650.038193,6883.915261,-4441.235652,6052.154434
21650.038527,1480.411884,-7179.997637,306.438199
21650.038860,0.000000,-5995.668130,0.000000
21650.039193,1110.308913,-11843.295072,-2834.553343
21650.039527,-2516.700203,-8438.347739,-4673.182538
21650.039860,-2368.659014,-11843.295072,-3217.601092
21650.040193,-3478.967927,-11177.109724,-3907.087040
21650.040527,-2146.597232,-9548.656652,-229.828649
21650.040860,1332.370696,-5699.585753,-459.657299
21650.041193,2294.638420,-9178.553681,3294.210641
21650.041527,1184.329507,-4811.338623,4903.011187
21650.041860,4959.379811,-9474.636058,4826.401637
21650.042193,5255.462188,-11103.089130,4826.401637
21650.042526,2368.659014,-5995.668130,2451.505594
21650.042860,2294.638420,-10658.965565,0.000000
21650.043193,2146.597232,-10362.883188,-2221.676944
21650.043525,-666.185348,-14508.036463,-689.485948
21650.043858,-3330.926739,-7772.162391,-3753.867940
21650.044192,-4441.235652,-9548.656652,-7354.516781
21650.044525,-6513.812290,-11029.068536,-919.314598
21650.044858,1406.391290,-11843.295072,3294.210641
21650.045191,296.082377,-1850.514855,2451.505594
21650.045524,2368.659014,-5403.503377,6128.763984
21650.045858,1702.473667,-7328.038826,1685.410096
21650.046191,2368.659014,-7920.203579,2987.772442
21650.046524,-2072.576638,-9548.656652,306.438199
21650.046857,-2516.700203,-9474.636058,-3294.210641
21650.047190,-5329.482782,-10732.986159,-5745.716235
21650.047524,-1036.288319,-13323.706956,-1532.190996
21650.047857,-74.020594,-10066.800811,-76.609550
21650.048190,-2146.597232,-8808.450710,-2298.286494
21650.048523,-74.020594,-11251.130318,995.924147
21650.048857,-74.020594,-9474.636058,995.924147
21650.049190,4071.132681,-10658.965565,7277.907231
21650.049523,-74.020594,-6513.812290,2374.896044
21650.049856,0.000000,-5403.503377,2451.505594
21650.050189,2960.823768,-8956.491898,6665.030833
21650.050523,5847.626942,-7402.059420,2145.067394
21650.050856,2590.720797,-7994.224174,1608.800546
21650.051189,-2516.700203,-8956.491898,-5745.716235
21650.051522,-3627.009116,-11621.233289,-6894.859482
21650.051855,-2220.617826,-14285.974681,-4519.963438
21650.052189,0.000000,-8660.409521,1455.581446
21650.052522,-1850.514855,-8586.388927,-2528.115143
21650.052855,-1258.350101,-7994.224174,-2604.724693
21650.053188,2812.782580,-7994.224174,3217.601092
21650.053521,6069.688724,-5255.462188,8273.831378
21650.053855,5847.626942,-5329.482782,5669.106685
21650.054188,592.164754,-12731.542202,1608.800546
21650.054521,1184.329507,-8660.409521,0.000000
21650.054854,1702.473667,-11473.192101,2757.943793
21650.055188,6439.791695,-5921.647536,-76.609550
21650.055521,-74.020594,-12509.480420,-3524.039291
21650.055854,-2960.823768,-11917.315666,-5515.887586
21650.056187,-888.247130,-12213.398043,0.000000
21650.056520,-4737.318029,-7476.080014,-3600.648841
21650.056854,-814.226536,-8290.306550,-2528.115143
21650.057187,-1258.350101,-9474.636058,1608.800546
21650.057520,4663.297435,-9178.553681,6665.030833
21650.057853,296.082377,-2738.761985,3677.258390
21650.058186,3478.967927,-7994.224174,1149.143247
21650.058520,2886.803174,-7031.956449,306.438199
21650.058853,1184.329507,-11029.068536,2451.505594
21650.059186,2886.803174,-12435.459826,-76.609550
21650.059519,-4293.194464,-10510.924376,-6205.373534
21650.059852,-3256.906145,-11621.233289,-4903.011187
21650.060186,-592.164754,-12213.398043,-1302.362347
21650.060519,1184.329507,-9918.759623,3217.601092
21650.060852,296.082377,-5107.421000,3524.039291
21650.061185,-74.020594,-7550.100608,-1838.629195
21650.061519,3701.029710,-8808.450710,4290.134789
21650.061852,3478.967927,-11843.295072,2374.896044
21650.062185,5255.462188,-4737.318029,3294.210641
21650.062518,1776.494261,-12139.377449,4826.401637
21650.062851,3256.906145,-7476.080014,1685.410096
21650.063185,740.205942,-11621.233289,1532.190996
21650.063518,-2072.576638,-9474.636058,-3524.039291
21650.063851,-2960.823768,-9992.780217,-2528.115143
21650.064184,-6365.771101,-12213.398043,-3753.867940
21650.064517,518.144159,-9992.780217,766.095498
21650.064851,-4589.276840,-7772.162391,919.314598
21650.065184,1702.473667,-2368.659014,-842.705048
21650.065517,888.247130,-9252.574275,6052.154434
21650.065850,6883.915261,-9474.636058,4826.401637
21650.066184,1628.453072,-7772.162391,3983.696590
21650.066517,0.000000,-7105.977043,842.705048
21650.066850,1702.473667,-10658.965565,-1302.362347
21650.067183,2738.761985,-11547.212695,919.314598
21650.067516,2664.741391,-10510.924376,766.095498
21650.067850,-2960.823768,-9474.636058,-2757.943793
21650.068183,-4737.318029,-10140.821405,-4903.011187
21650.068516,-4737.318029,-10732.986159,-1532.190996
21650.068849,-1850.514855,-11473.192101,306.438199
21650.069182,2294.638420,-740.205942,0.000000
21650.069516,-1036.288319,-9548.656652,4290.134789
21650.069849,2886.803174,-2886.803174,919.314598
21650.070182,4145.153275,-10214.842000,6665.030833
21650.070515,1850.514855,-6661.853478,4060.306139
21650.070848,1628.453072,-6735.874072,-1455.581446
21650.071182,-4145.153275,-14285.974681,-2451.505594
21650.071515,1184.329507,-12805.562797,-76.609550
21650.071848,-3627.009116,-11547.212695,-2451.505594
21650.072181,-1184.329507,-5995.668130,-7354.516781
21650.072515,-3552.988522,-13101.645173,-919.314598
21650.072848,0.000000,-10140.821405,612.876398
21650.073181,3108.864956,-8586.388927,4673.182538
21650.073514,2368.659014,-5403.503377,3983.696590
21650.073847,2886.803174,-5921.647536,2834.553343
21650.074181,4663.297435,-7698.141797,4826.401637
21650.074514,6661.853478,-11103.089130,7277.907231
21650.074847,2294.638420,-2738.761985,0.000000
21650.075180,-3404.947333,-11695.253884,-3524.039291
21650.075513,-666.185348,-13027.624579,-4979.620737
21650.075847,-1850.514855,-15396.283594,-1915.238745
21650.076180,-3997.112087,-9030.512492,-3600.648841
21650.076513,-1184.329507,-5995.668130,-2911.162892
21650.076846,-3627.009116,-11621.233289,-1608.800546
21650.077180,3108.864956,-7179.997637,3677.258390
21650.077513,4367.215058,-4737.318029,5592.497135
21650.077846,3849.070898,-6291.750507,4903.011187
21650.078179,6439.791695,-8882.471304,4213.525239
21650.078512,2368.659014,-8364.327145,2451.505594
21650.078846,6439.791695,-10584.944971,4826.401637
21650.079179,1998.556043,-7920.203579,-1532.190996
21650.079512,-1998.556043,-11473.192101,-6128.763984
21650.079845,-222.061783,-11991.336260,-4903.011187
21650.080178,-2960.823768,-13101.645173,-2451.505594
21650.080512,-444.123565,-7179.997637,-3677.258390
21650.080845,-1776.494261,-10436.903782,-2757.943793
21650.081178,2516.700203,-10066.800811,3600.648841
21650.081511,5477.523971,-8512.368333,10342.289223
21650.081844,1776.494261,-1258.350101,5975.544884
21650.082178,3478.967927,-8290.306550,2374.896044
21650.082511,-2516.700203,-7772.162391,0.000000
21650.082844,1554.432478,-11843.295072,2987.772442
21650.083177,-74.020594,-9474.636058,-76.609550
21650.083511,-8290.306550,-11325.150913,-6435.202183
21650.083844,-5995.668130,-11103.089130,-6894.859482
21650.084177,-2738.761985,-12731.542202,-1608.800546
21650.084510,0.000000,-8512.368333,842.705048
21650.084843,-1776.494261,-8364.327145,1225.752797
21650.085177,-74.020594,-8734.430116,0.000000
21650.085510,2294.638420,-5403.503377,2757.943793
21650.085843,1184.329507,-11695.253884,6971.469032
21650.086176,2886.803174,-4145.153275,1149.143247
21650.086509,-888.247130,-10584.944971,1149.143247
21650.086843,1924.535449,-9696.697840,-612.876398
21650.087176,-222.061783,-11547.212695,383.047749
21650.087509,-1258.350101,-8586.388927,-2374.896044
21650.087842,-962.267725,-10658.965565,-1302.362347
21650.088175,-3034.844362,-9548.656652,-4903.011187
21650.088509,0.000000,-12361.439231,0.000000
21650.088842,-2516.700203,-9474.636058,-76.609550
21650.089175,-3997.112087,-5995.668130,-2451.505594
21650.089508,-1850.514855,-8290.306550,2221.676944
21650.089842,4663.297435,-5255.462188,5439.278036
21650.090175,3849.070898,-7550.100608,5515.887586
21650.090508,5255.462188,-6291.750507,3294.210641
21650.090841,-1258.350101,-11843.295072,-689.485948
21650.091174,0.000000,-7179.997637,0.000000
21650.091508,-888.247130,-15100.201217,-76.609550
21650.091841,-1406.391290,-9474.636058,-5592.497135
21650.092174,0.000000,-5403.503377,-2451.505594
21650.092507,-74.020594,-13027.624579,-2834.553343
21650.092840,3552.988522,-9400.615463,3983.696590
21650.093174,-370.102971,-6661.853478,3753.867940
21650.093507,3478.967927,-8290.306550,3600.648841
21650.093840,3182.885551,-7105.977043,3600.648841
21650.094173,592.164754,-11621.233289,2911.162892
21650.094507,5255.462188,-4145.153275,1762.019645
21650.094840,-2368.659014,-10140.821405,-2604.724693
21650.095173,4737.318029,-8956.491898,0.000000
21650.095506,2294.638420,-14211.954086,-76.609550
21650.095839,1480.411884,-6735.874072,-4136.915689
21650.096173,592.164754,-12213.398043,-2528.115143
21650.096506,-1850.514855,-12139.377449,-5286.058936
21650.096839,3552.988522,-10732.986159,0.000000
21650.097172,1776.494261,-11029.068536,4826.401637
21650.097505,3923.091493,-6587.832884,2221.676944
21650.097839,1184.329507,-7328.038826,3064.381992
21650.098172,5847.626942,-9474.636058,2374.896044
21650.098505,6513.812290,-9474.636058,6052.154434
21650.098838,0.000000,-7179.997637,4290.134789
21650.099171,518.144159,-10658.965565,-76.609550
21650.099505,-2442.679609,-10288.862594,-4596.572988
21650.099838,-1406.391290,-11843.295072,-1915.238745
21650.100171,-4663.297435,-8364.327145,-3064.381992
21650.100504,-5477.523971,-8734.430116,-5132.839837
21650.100838,-5995.668130,-12435.459826,-4060.306139
21650.101171,-4737.318029,-9548.656652,1225.752797
21650.101504,2886.803174,-3552.988522,2987.772442
21650.101837,296.082377,-7920.203579,6665.030833
21650.102170,2294.638420,-5329.482782,1225.752797
21650.102504,1184.329507,-13027.624579,4826.401637
21650.102837,1480.411884,-4811.338623,2757.943793
21650.103170,-2516.700203,-9844.739029,-1991.848295
21650.103503,-3108.864956,-11695.253884,-4060.306139
21650.103836,-1332.370696,-12287.418637,-2451.505594
21650.104170,-3849.070898,-13989.892304,-689.485948
21650.104503,1702.473667,-7105.977043,-76.609550
21650.104836,-7105.977043,-10140.821405,689.485948
21650.105169,2294.638420,-9474.636058,2987.772442
21650.105503,-962.267725,-7254.018232,3064.381992
21650.105836,296.082377,-7179.997637,6205.373534
21650.106169,-962.267725,-4071.132681,612.876398
21650.106502,-222.061783,-5921.647536,1685.410096
21650.106835,1110.308913,-8142.265362,919.314598
21650.107169,1628.453072,-8586.388927,536.266849
21650.107502,-1628.453072,-11177.109724,-5745.716235
21650.107835,-4145.153275,-13101.645173,-3140.991542
21650.108168,-74.020594,-14211.954086,-1608.800546
21650.108501,-74.020594,-8290.306550,-4366.744339
21650.108835,0.000000,-9844.739029,612.876398
21650.109168,518.144159,-8216.285956,0.000000
21650.109501,5403.503377,-8512.368333,4673.182538
21650.109834,5551.544565,-8586.388927,6894.859482
21650.110167,5403.503377,-5699.585753,4596.572988
21650.110501,3330.926739,-8512.368333,4903.011187
21650.110834,2960.823768,-8364.327145,3677.258390
21650.111167,4737.318029,-8808.450710,2451.505594
21650.111500,-3627.009116,-9474.636058,-5592.497135
21650.111834,-1258.350101,-8882.471304,-8044.002729
21650.112167,-5921.647536,-11917.315666,-3524.039291
21650.112500,-74.020594,-10658.965565,-689.485948
21650.112833,-74.020594,-6365.771101,-1608.800546
21650.113166,-1776.494261,-8364.327145,0.000000
21650.113500,6883.915261,-8882.471304,2374.896044
21650.113833,3701.029710,-9548.656652,4979.620737
21650.114166,6291.750507,-6587.832884,4903.011187
21650.114499,1702.473667,-9548.656652,306.438199
21650.114832,3552.988522,-9548.656652,1225.752797
21650.115166,1184.329507,-9844.739029,2451.505594
21650.115499,5847.626942,-12435.459826,2374.896044
21650.115832,1184.329507,-5403.503377,-3677.258390
21650.116165,-2368.659014,-12361.439231,-1149.143247
21650.116498,888.247130,-7772.162391,-2374.896044
21650.116832,-2664.741391,-10955.047942,383.047749
21650.117165,-2368.659014,-8734.430116,-1225.752797
21650.117498,-4515.256246,-7920.203579,1225.752797
21650.117831,-74.020594,-7994.224174,2068.457845
21650.118165,-1184.329507,-7772.162391,6281.983084
21650.118498,-1258.350101,-4145.153275,0.000000
21650.118831,-1776.494261,-7179.997637,1225.752797
21650.119164,-1258.350101,-11843.295072,-1302.362347
21650.119497,0.000000,-12213.398043,0.000000
21650.119831,-3034.844362,-8734.430116,-2221.676944
21650.120164,-4589.276840,-9696.697840,-3677.258390
21650.120497,-3034.844362,-10066.800811,-2681.334243
21650.120830,-1850.514855,-12435.459826,-383.047749
21650.121163,1184.329507,-7550.100608,3907.087040
21650.121497,-1554.432478,-6513.812290,842.705048
21650.121830,0.000000,-7772.162391,4290.134789
21650.122163,3478.967927,-9474.636058,4826.401637
21650.122496,2886.803174,-8882.471304,4826.401637
21650.122830,1036.288319,-7476.080014,383.047749
21650.123163,-2590.720797,-10807.006753,-1149.143247
21650.123496,-1184.329507,-8586.388927,-2757.943793
21650.123829,-2368.659014,-8660.409521,-1225.752797
21650.124162,-74.020594,-7105.977043,-3753.867940
21650.124496,-4737.318029,-9844.739029,-2374.896044
21650.124829,-5921.647536,-10140.821405,0.000000
21650.125162,-2442.679609,-10658.965565,-689.485948
21650.125495,518.144159,-4441.235652,2221.676944
21650.125828,2886.803174,-5921.647536,1302.362347
21650.126162,3701.029710,-10066.800811,2987.772442
21650.126495,5625.565159,-10584.944971,4443.353888
21650.126828,2368.659014,-7772.162391,2451.505594
21650.127161,4663.297435,-9474.636058,-995.924147
21650.127494,2294.638420,-13545.768739,-1072.533697
21650.127828,1258.350101,-10881.027347,-2451.505594
21650.128161,1850.514855,-11843.295072,-689.485948
21650.128494,0.000000,-8956.491898,-3064.381992
21650.128827,2072.576638,-10658.965565,4213.525239
21650.129161,1110.308913,-6513.812290,1225.752797
21650.129494,4737.318029,-5403.503377,7277.907231
21650.129827,3775.050304,-4737.318029,4519.963438
21650.130160,222.061783,-7254.018232,1378.971896
21650.130493,1924.535449,-5995.668130,0.000000
21650.130827,740.205942,-13027.624579,1149.143247
21650.131160,2442.679609,-6217.729913,-76.609550
21650.131493,-2960.823768,-10436.903782,-2451.505594
21650.131826,-74.020594,-9474.636058,-7431.126331
21650.132159,-2368.659014,-12509.480420,-5975.544884
21650.132493,0.000000,-11917.315666,-689.485948
21650.132826,2294.638420,-9178.553681,-842.705048
21650.133159,0.000000,-10881.027347,2604.724693
21650.133492,5403.503377,-8956.491898,5286.058936
21650.133826,5255.462188,-6069.688724,6971.469032
21650.134159,5329.482782,-6883.915261,4826.401637
21650.134492,3330.926739,-10658.965565,3907.087040
21650.134825,4071.132681,-10658.965565,-76.609550
21650.135158,0.000000,-10140.821405,3294.210641
21650.135492,-74.020594,-9474.636058,-1302.362347
21650.135825,-4219.173869,-9474.636058,-6588.421283
21650.136158,-3404.947333,-14211.954086,-1915.238745
21650.136491,-2368.659014,-10881.027347,919.314598
21650.136824,-5847.626942,-7476.080014,-1225.752797
21650.137158,-5699.585753,-7698.141797,-2911.162892
21650.137491,-3701.029710,-6217.729913,-995.924147
21650.137824,888.247130,-5995.668130,1838.629195
21650.138157,2664.741391,-5255.462188,8733.488677
21650.138490,-74.020594,-8734.430116,2068.457845
21650.138824,2146.597232,-6587.832884,0.000000
21650.139157,-296.082377,-13619.789333,2374.896044
21650.139490,1480.411884,-7476.080014,-1378.971896
21650.139823,-2960.823768,-9548.656652,-4290.134789
21650.140157,-2664.741391,-11843.295072,-4903.011187
21650.140490,-962.267725,-11843.295072,-1302.362347
21650.140823,-2072.576638,-9474.636058,2068.457845
21650.141156,592.164754,-4885.359217,459.657299
21650.141489,-148.041188,-8586.388927,2374.896044
21650.141823,2368.659014,-7624.121203,5822.325785
21650.142156,3775.050304,-9474.636058,6971.469032
21650.142489,-74.020594,-5625.565159,0.000000
21650.142822,-2072.576638,-5995.668130,0.000000
21650.143155,0.000000,-8364.327145,-76.609550
21650.143489,3478.967927,-12731.542202,536.266849
21650.143822,-74.020594,-10288.862594,-2221.676944
21650.144155,-2812.782580,-11991.336260,-4290.134789
21650.144488,-296.082377,-12287.418637,-2528.115143
21650.144821,2886.803174,-11251.130318,-76.609550
21650.145155,0.000000,-8364.327145,2451.505594
21650.145488,1702.473667,-3627.009116,0.000000
21650.145821,2960.823768,-10066.800811,3294.210641
21650.146154,4293.194464,-11547.212695,6052.154434
21650.146487,7031.956449,-4737.318029,8503.660028
21650.146820,5255.462188,-7698.141797,3524.039291
21650.147154,3849.070898,-6735.874072,1685.410096
21650.147487,-888.247130,-11251.130318,-1915.238745
21650.147820,-2368.659014,-11917.315666,-383.047749
21650.148153,-3552.988522,-7328.038826,-4749.792088
21650.148486,-4737.318029,-10732.986159,-8273.831378
21650.148819,-3552.988522,-9844.739029,-919.314598
21650.149153,1110.308913,-8882.471304,-76.609550
21650.149486,518.144159,-4219.173869,0.000000
21650.149819,2368.659014,-5699.585753,2145.067394
21650.150152,5477.523971,-9400.615463,3294.210641
21650.150485,5773.606348,-9696.697840,5592.497135
21650.150819,3775.050304,-9696.697840,3370.820191
21650.151152,4663.297435,-8290.306550,-76.609550
21650.151485,3552.988522,-11473.192101,2374.896044
21650.151818,5847.626942,-14211.954086,1149.143247
21650.152151,814.226536,-9326.594869,-2374.896044
21650.152484,-3552.988522,-10436.903782,-3064.381992
21650.152818,-3923.091493,-10140.821405,-3677.258390
21650.153151,-1258.350101,-10881.027347,-995.924147
21650.153484,1036.288319,-10807.006753,4826.401637
21650.153817,-1998.556043,-5033.400406,3983.696590
21650.154150,-4145.153275,-5995.668130,0.000000
21650.154484,-74.020594,-9474.636058,1762.019645
21650.154817,814.226536,-5995.668130,2451.505594
21650.155150,-3552.988522,-5995.668130,1532.190996
21650.155483,-1554.432478,-10362.883188,-995.924147
21650.155816,-4737.318029,-11917.315666,-6128.763984
21650.156149,-1554.432478,-12139.377449,76.609550
21650.156483,-3997.112087,-8512.368333,-1991.848295
21650.156816,-1702.473667,-8068.244768,-3370.820191
21650.157149,-4515.256246,-10732.986159,-1838.629195
21650.157482,888.247130,-10584.944971,1915.238745
21650.157815,2368.659014,-5551.544565,5975.544884
21650.158148,3034.844362,-6291.750507,4060.306139
21650.158482,3478.967927,-10658.965565,4826.401637
21650.158815,2294.638420,-7920.203579,2451.505594
21650.159148,1184.329507,-9548.656652,4290.134789
21650.159481,-2442.679609,-9474.636058,-2528.115143
21650.159814,-4515.256246,-9548.656652,-3677.258390
21650.160148,-4737.318029,-9548.656652,-2757.943793
21650.160481,-1850.514855,-9548.656652,-919.314598
21650.160814,-2294.638420,-7920.203579,-2374.896044
21650.161147,-3701.029710,-9474.636058,-2298.286494
21650.161480,-1850.514855,-8882.471304,-1302.362347
21650.161813,-74.020594,-7772.162391,612.876398
21650.162147,4219.173869,-6513.812290,4826.401637
21650.162480,4071.132681,-10658.965565,4519.963438
21650.162813,4515.256246,-8068.244768,1838.629195
21650.163146,5847.626942,-11251.130318,6052.154434
21650.163479,4885.359217,-6439.791695,2604.724693
21650.163813,3552.988522,-7105.977043,-1838.629195
21650.164146,-1554.432478,-13841.851115,-4060.306139
21650.164479,-2072.576638,-11917.315666,-3677.258390
21650.164812,-2738.761985,-9548.656652,-4903.011187
21650.165145,-74.020594,-13619.789333,-3753.867940
21650.165478,2294.638420,-7179.997637,1991.848295
21650.165812,2960.823768,-6143.709319,5209.449386
21650.166145,8290.306550,-1258.350101,8580.269578
21650.166478,3849.070898,-4737.318029,4213.525239
21650.166811,3627.009116,-9548.656652,459.657299
21650.167144,2590.720797,-10658.965565,306.438199
21650.167478,1998.556043,-14063.912898,-229.828649
21650.167811,0.000000,-8364.327145,-3064.381992
21650.168144,-2442.679609,-14211.954086,-4979.620737
21650.168477,2294.638420,-8068.244768,-6511.811733
21650.168810,0.000000,-13693.809927,0.000000
21650.169143,3701.029710,-8290.306550,1532.190996
21650.169477,-148.041188,-8068.244768,-229.828649
21650.169810,2516.700203,-9992.780217,5056.230287
21650.170143,4145.153275,-6291.750507,5439.278036
21650.170476,1998.556043,-6661.853478,4136.915689
21650.170809,5033.400406,-9474.636058,4826.401637
21650.171142,-3627.009116,-8956.491898,-2298.286494
21650.171476,-4737.318029,-9548.656652,0.000000
21650.171809,-74.020594,-9474.636058,-4979.620737
21650.172142,-2072.576638,-12435.459826,-4903.011187
21650.172475,-962.267725,-7476.080014,-612.876398
21650.172808,-1554.432478,-11621.233289,-153.219100
21650.173142,-4737.318029,-10436.903782,612.876398
21650.173475,-5107.421000,-6217.729913,-3830.477490
21650.173808,-4959.379811,-11843.295072,-76.609550
21650.174141,0.000000,-5551.544565,3370.820191
21650.174474,74.020594,-9474.636058,5745.716235
21650.174807,1702.473667,-4959.379811,5056.230287
21650.175141,-74.020594,-5921.647536,1762.019645
21650.175474,0.000000,-9548.656652,1225.752797
21650.175807,3478.967927,-13027.624579,-76.609550
21650.176140,-5625.565159,-9548.656652,-2451.505594
21650.176473,-8290.306550,-11325.150913,-7048.078582
21650.176807,-6587.832884,-11843.295072,-5132.839837
21650.177140,-1628.453072,-10362.883188,2068.457845
21650.177473,2368.659014,-3330.926739,4443.353888
21650.177806,3108.864956,-7402.059420,3600.648841
21650.178139,814.226536,-5403.503377,1838.629195
21650.178472,592.164754,-11251.130318,4213.525239
21650.178806,2294.638420,-11251.130318,1149.143247
21650.179139,0.000000,-5995.668130,0.000000
21650.179472,-74.020594,-14211.954086,-76.609550
21650.179805,2072.576638,-7179.997637,-2451.505594
21650.180138,-222.061783,-11103.089130,-995.924147
21650.180471,814.226536,-9326.594869,-2374.896044
21650.180805,148.041188,-8512.368333,-995.924147
21650.181138,0.000000,-10436.903782,306.438199
21650.181471,5921.647536,-11251.130318,4826.401637
21650.181804,666.185348,-9548.656652,3064.381992
21650.182137,2368.659014,-5995.668130,4903.011187
21650.182471,4071.132681,-10510.924376,2987.772442
21650.182804,5921.647536,-9548.656652,4903.011187
21650.183137,6143.709319,-6735.874072,5362.668486
21650.183470,2294.638420,-7105.977043,229.828649
21650.183803,2812.782580,-8364.327145,-2834.553343
21650.184136,-370.102971,-14804.118840,-3140.991542
21650.184470,1702.473667,-11843.295072,-3753.867940
21650.184803,-3552.988522,-8956.491898,-3370.820191
21650.185136,-592.164754,-12435.459826,-1302.362347
21650.185469,-74.020594,-7105.977043,-4979.620737
21650.185802,1480.411884,-10732.986159,5362.668486
21650.186136,5995.668130,-5033.400406,5209.449386
21650.186469,4071.132681,-7624.121203,4826.401637
21650.186802,4589.276840,-8364.327145,4443.353888
21650.187135,4663.297435,-9474.636058,6052.154434
21650.187468,814.226536,-7920.203579,459.657299
21650.187801,-2072.576638,-11843.295072,-2221.676944
21650.188135,-3997.112087,-10066.800811,-4290.134789
21650.188468,-5921.647536,-9548.656652,-4903.011187
21650.188801,-4145.153275,-7179.997637,-1532.190996
21650.189134,-2442.679609,-10066.800811,-3753.867940
21650.189467,-5329.482782,-9548.656652,0.000000
21650.189801,-2368.659014,-10140.821405,4596.572988
21650.190134,-2368.659014,-6513.812290,3830.477490
21650.190467,-1184.329507,-4219.173869,3370.820191
21650.190800,-3552.988522,-9400.615463,1149.143247
21650.191133,1184.329507,-7179.997637,2221.676944
21650.191466,-1480.411884,-10658.965565,4903.011187
21650.191800,-74.020594,-5699.585753,-459.657299
21650.192133,-1850.514855,-10658.965565,-3447.429741
21650.192466,-4737.318029,-10436.903782,-2451.505594
21650.192799,-1776.494261,-10436.903782,-76.609550
21650.193132,-4737.318029,-9548.656652,-1838.629195
21650.193465,-2368.659014,-9992.780217,-2528.115143
21650.193799,-1184.329507,-8956.491898,2451.505594
21650.194132,4589.276840,-9178.553681,6665.030833
21650.194465,4515.256246,-4737.318029,4826.401637
21650.194798,-2368.659014,-9548.656652,1838.629195
21650.195131,222.061783,-6809.894666,-2221.676944
21650.195465,0.000000,-10732.986159,3830.477490
21650.195798,962.267725,-9474.636058,229.828649
21650.196131,-74.020594,-5921.647536,-3447.429741
21650.196464,-1554.432478,-12435.459826,-4673.182538
21650.196797,296.082377,-10436.903782,-229.828649
21650.197130,444.123565,-7846.182985,-689.485948
21650.197464,-962.267725,-9474.636058,-1072.533697
21650.197797,1480.411884,-10436.903782,2068.457845
21650.198130,2368.659014,-8364.327145,2451.505594
21650.198463,2960.823768,-8364.327145,7890.783629
21650.198796,4663.297435,-6957.935855,1302.362347
21650.199130,2516.700203,-7179.997637,306.438199
21650.199463,4367.215058,-12435.459826,2221.676944
21650.199796,7328.038826,-8142.265362,3907.087040
21650.200129,2886.803174,-5921.647536,0.000000
21650.200462,148.041188,-10584.944971,-3983.696590
21650.200795,1110.308913,-10658.965565,-3753.867940
21650.201129,-3552.988522,-13101.645173,0.000000
21650.201462,1702.473667,-8290.306550,-76.609550
21650.201795,-1258.350101,-7846.182985,-4290.134789
21650.202128,0.000000,-7179.997637,0.000000
21650.202461,4663.297435,-9178.553681,2834.553343
21650.202794,4737.318029,-7105.977043,2834.553343
21650.203128,3552.988522,-6883.915261,2221.676944
21650.203461,962.267725,-10510.924376,1072.533697
21650.203794,4367.215058,-11103.089130,-1302.362347
21650.204127,-518.144159,-12953.603985,306.438199
21650.204460,0.000000,-7105.977043,-3983.696590
21650.204794,-3330.926739,-11473.192101,-2604.724693
21650.205127,-1184.329507,-9252.574275,-1225.752797
21650.205460,-666.185348,-11251.130318,1149.143247
21650.205793,-2368.659014,-4811.338623,-1149.143247
21650.206126,592.164754,-7179.997637,3600.648841
21650.206459,2294.638420,-12287.418637,3524.039291
21650.206793,2738.761985,-7772.162391,6741.640382
21650.207126,-74.020594,-7254.018232,2987.772442
21650.207459,-2590.720797,-8142.265362,-1762.019645
21650.207792,-4367.215058,-9844.739029,-2221.676944
21650.208125,-2886.803174,-11843.295072,-1378.971896
21650.208459,-1554.432478,-8290.306550,-2528.115143
21650.208792,-7105.977043,-8364.327145,-2451.505594
21650.209125,-7105.977043,-8956.491898,-1378.971896
21650.209458,-3034.844362,-8586.388927,-612.876398
21650.209791,-3552.988522,-9548.656652,3064.381992
21650.210124,148.041188,-6143.709319,1762.019645
21650.210458,2220.617826,-7624.121203,3600.648841
21650.210791,740.205942,-9252.574275,2451.505594
21650.211124,4663.297435,-10066.800811,5439.278036
21650.211457,4367.215058,-7105.977043,-76.609550
21650.211790,0.000000,-10732.986159,2987.772442
21650.212124,2146.597232,-11843.295072,-76.609550
21650.212457,-74.020594,-14211.954086,-2528.115143
21650.212790,-4219.173869,-10510.924376,-3294.210641
21650.213123,-3849.070898,-7772.162391,-4060.306139
21650.213456,-2220.617826,-7772.162391,-1532.190996
21650.213789,1554.432478,-10658.965565,1762.019645
21650.214123,4145.153275,-2590.720797,4903.011187
21650.214456,-1258.350101,-8660.409521,0.000000
21650.214789,2368.659014,-7772.162391,3907.087040
21650.215122,3478.967927,-8290.306550,766.095498
21650.215455,2368.659014,-11621.233289,2451.505594
21650.215788,2516.700203,-4219.173869,536.266849
21650.216122,-1258.350101,-12287.418637,-5132.839837
21650.216455,2368.659014,-13915.871710,536.266849
21650.216788,222.061783,-8290.306550,1915.238745
21650.217121,4663.297435,-7698.141797,1149.143247
21650.217454,0.000000,-7772.162391,2451.505594
21650.217788,2294.638420,-10362.883188,-1302.362347
21650.218121,4663.297435,-8290.306550,1762.019645
21650.218454,0.000000,-7772.162391,2987.772442
21650.218787,2590.720797,-6439.791695,-1608.800546
21650.219120,1628.453072,-10362.883188,3447.429741
21650.219453,4145.153275,-8438.347739,2834.553343
21650.219787,3404.947333,-6365.771101,-842.705048
21650.220120,814.226536,-11251.130318,-3753.867940
21650.220453,0.000000,-12657.521608,-3447.429741
21650.220786,-740.205942,-13323.706956,-842.705048
21650.221119,592.164754,-10140.821405,0.000000
21650.221453,-1480.411884,-7402.059420,-3447.429741
21650.221786,0.000000,-11325.150913,1225.752797
21650.222119,3330.926739,-7179.997637,1225.752797
21650.222452,5403.503377,-9474.636058,9116.536426
21650.222785,1110.308913,-4145.153275,1532.190996
21650.223118,-962.267725,-7994.224174,1149.143247
21650.223452,2664.741391,-11695.253884,1608.800546
21650.223785,1332.370696,-13915.871710,3907.087040
21650.224118,-1850.514855,-7105.977043,-1455.581446
21650.224451,-5699.585753,-8808.450710,-6741.640382
21650.224784,-5403.503377,-13619.789333,-3140.991542
21650.225117,-6513.812290,-8364.327145,-2145.067394
21650.225451,-7105.977043,-6587.832884,-1225.752797
21650.225784,-3627.009116,-9474.636058,-2221.676944
21650.226117,-4145.153275,-5995.668130,1225.752797
21650.226450,3182.885551,-9326.594869,7737.564530
21650.226783,2146.597232,-3034.844362,5132.839837
21650.227117,814.226536,-7402.059420,1072.533697
21650.227450,1110.308913,-9770.718434,842.705048
21650.227783,1702.473667,-10214.842000,842.705048
21650.228116,0.000000,-9548.656652,1991.848295
21650.228449,-370.102971,-8882.471304,-2528.115143
21650.228782,-74.020594,-13619.789333,-4366.744339
21650.229116,518.144159,-12361.439231,383.047749
21650.229449,-1480.411884,-10140.821405,0.000000
21650.229782,-592.164754,-7031.956449,-383.047749
21650.230115,-666.185348,-8290.306550,459.657299
21650.230448,3849.070898,-8142.265362,5362.668486
21650.230782,2664.741391,-5403.503377,6128.763984
21650.231115,2960.823768,-6587.832884,6052.154434
21650.231448,3182.885551,-7105.977043,-306.438199
21650.231781,0.000000,-8364.327145,-3064.381992
21650.232114,2368.659014,-12805.562797,2451.505594
21650.232447,-2146.597232,-9252.574275,-3677.258390
21650.232781,-2812.782580,-9770.718434,-5975.544884
21650.233114,296.082377,-11251.130318,-3140.991542
21650.233447,1110.308913,-12583.501014,1762.019645
21650.233780,0.000000,-7179.997637,612.876398
21650.234113,2072.576638,-7772.162391,766.095498
21650.234447,1406.391290,-10807.006753,4826.401637
21650.234780,7550.100608,-3997.112087,4826.401637
21650.235113,7031.956449,-11843.295072,8350.440928
21650.235446,6439.791695,-4737.318029,1991.848295
21650.235779,-2960.823768,-9548.656652,-919.314598
21650.236112,-666.185348,-15396.283594,-4060.306139
21650.236446,-1628.453072,-7179.997637,-4903.011187
21650.236779,-3775.050304,-11769.274478,-3447.429741
21650.237112,-1702.473667,-9696.697840,-3217.601092
21650.237445,-3923.091493,-9770.718434,-3370.820191
21650.237778,-1258.350101,-11769.274478,1302.362347
21650.238111,0.000000,-3923.091493,4136.915689
21650.238445,2294.638420,-5773.606348,536.266849
21650.238778,2960.823768,-10362.883188,4826.401637
21650.239111,2294.638420,-9548.656652,3370.820191
21650.239444,3034.844362,-3034.844362,1838.629195
21650.239777,962.267725,-9474.636058,1762.019645
21650.240111,1184.329507,-7179.997637,-1225.752797
21650.240444,-962.267725,-11769.274478,-2911.162892
21650.240777,-296.082377,-11695.253884,-3830.477490
21650.241110,-4441.235652,-12065.356855,-3524.039291
21650.241443,-3034.844362,-9326.594869,-6052.154434
21650.241776,0.000000,-14285.974681,4826.401637
21650.242110,2294.638420,-5329.482782,2374.896044
21650.242443,74.020594,-4811.338623,3064.381992
21650.242776,592.164754,-4219.173869,4596.572988
21650.243109,3034.844362,-9474.636058,3294.210641
21650.243442,2294.638420,-10658.965565,5056.230287
21650.243776,814.226536,-6957.935855,459.657299
21650.244109,-1850.514855,-9474.636058,-2528.115143
21650.244442,-4737.318029,-9548.656652,-4290.134789
21650.244775,1110.308913,-10658.965565,-3294.210641
21650.245108,-370.102971,-7772.162391,-1532.190996
21650.245441,-2960.823768,-9844.739029,-2834.553343
21650.245775,-74.020594,-13027.624579,-689.485948
21650.246108,1924.535449,-11769.274478,3907.087040
21650.246441,6143.709319,-4441.235652,6741.640382
21650.246774,2368.659014,-7179.997637,4519.963438
21650.247107,1184.329507,-8586.388927,1302.362347
21650.247440,2368.659014,-13397.727550,4519.963438
21650.247773,2294.638420,-8734.430116,0.000000
21650.248106,2664.741391,-5995.668130,0.000000
21650.248440,-2664.741391,-11843.295072,-2528.115143
21650.248773,-74.020594,-11251.130318,-1915.238745
21650.249106,-2442.679609,-15248.242405,-76.609550
21650.249439,-1184.329507,-6513.812290,-2528.115143
21650.249772,-2886.803174,-9548.656652,-995.924147
21650.250105,1406.391290,-10214.842000,459.657299
21650.250438,4737.318029,-10066.800811,6052.154434
21650.250771,2368.659014,-7328.038826,4979.620737
21650.251104,3330.926739,-6069.688724,2757.943793
21650.251437,1110.308913,-10807.006753,1991.848295
21650.251771,4515.256246,-7698.141797,2681.334243
21650.252104,592.164754,-8364.327145,1302.362347
21650.252437,-2442.679609,-13027.624579,-3753.867940
21650.252770,-7105.977043,-10140.821405,-4903.011187
21650.253103,-1702.473667,-11843.295072,-1455.581446
21650.253436,-74.020594,-7698.141797,536.266849
21650.253769,-2738.761985,-7179.997637,-612.876398
21650.254102,74.020594,-7920.203579,1455.581446
21650.254435,-2368.659014,-11769.274478,2451.505594
21650.254768,3552.988522,-6587.832884,3983.696590
21650.255101,0.000000,-9252.574275,6665.030833
21650.255435,2886.803174,-6069.688724,1072.533697
21650.255768,1998.556043,-7179.997637,612.876398
21650.256101,0.000000,-9326.594869,995.924147
21650.256434,-2442.679609,-7846.182985,-4903.011187
21650.256767,-3701.029710,-8882.471304,-5209.449386
21650.257100,-1850.514855,-12213.398043,-2604.724693
21650.257433,-2072.576638,-11251.130318,306.438199
21650.257766,2516.700203,-3775.050304,1225.752797
21650.258099,-666.185348,-13619.789333,-76.609550
21650.258432,2294.638420,-5995.668130,0.000000
21650.258766,3034.844362,-14063.912898,5515.887586
21650.259099,5847.626942,-10658.965565,3600.648841
21650.259432,2960.823768,-6587.832884,2757.943793
21650.259765,1998.556043,-11547.212695,1455.581446
21650.260098,6439.791695,-9104.533087,2374.896044
21650.260431,1776.494261,-10288.862594,2145.067394
21650.260764,1702.473667,-7105.977043,-3753.867940
21650.261097,-1258.350101,-12435.459826,-2528.115143
21650.261430,-3330.926739,-9548.656652,-6128.763984
21650.261763,296.082377,-11547.212695,-76.609550
21650.262097,-666.185348,-11843.295072,1149.143247
21650.262430,2886.803174,-6513.812290,2987.772442
21650.262763,592.164754,-9400.615463,4290.134789
21650.263096,2220.617826,-6809.894666,3524.039291
21650.263429,-1258.350101,-6365.771101,306.438199
21650.263762,-1776.494261,-5403.503377,-1838.629195
21650.264095,-370.102971,-10214.842000,-3370.820191
21650.264428,-814.226536,-12509.480420,1225.752797
21650.264761,296.082377,-8290.306550,-76.609550
21650.265094,-4145.153275,-7476.080014,-3370.820191
21650.265427,-74.020594,-11695.253884,-1608.800546
21650.265761,-2294.638420,-12879.583391,536.266849
21650.266094,0.000000,-10214.842000,1455.581446
21650.266427,-962.267725,-6957.935855,383.047749
21650.266760,0.000000,-8068.244768,3064.381992
21650.267093,5255.462188,-7994.224174,5515.887586
21650.267426,5551.544565,-6513.812290,7584.345430
21650.267759,3034.844362,-6365.771101,995.924147
21650.268092,-740.205942,-9622.677246,-919.314598
21650.268425,-2368.659014,-9548.656652,-4443.353888
21650.268758,-74.020594,-14211.954086,-3140.991542
21650.269092,-3627.009116,-8438.347739,-4903.011187
21650.269425,-4441.235652,-12287.418637,-4596.572988
21650.269758,-1628.453072,-11177.109724,-1225.752797
21650.270091,0.000000,-8364.327145,2451.505594
21650.270424,1554.432478,-6291.750507,5286.058936
21650.270757,1924.535449,-4811.338623,3447.429741
21650.271090,444.123565,-10362.883188,3830.477490
21650.271423,4737.318029,-7179.997637,2757.943793
21650.271756,2294.638420,-9104.533087,612.876398
21650.272089,0.000000,-7179.997637,3064.381992
21650.272423,-74.020594,-11843.295072,-3140.991542
21650.272756,-74.020594,-11251.130318,-4366.744339
21650.273089,-1776.494261,-12287.418637,-229.828649
21650.273422,-1406.391290,-7105.977043,-3524.039291
21650.273755,-4293.194464,-11251.130318,-1915.238745
21650.274088,-2220.617826,-9104.533087,-1149.143247
21650.274421,1110.308913,-10362.883188,4826.401637
21650.274754,0.000000,-74.020594,3064.381992
21650.275087,888.247130,-9474.636058,4213.525239
21650.275420,4071.132681,-9474.636058,-76.609550
21650.275753,1184.329507,-7772.162391,4903.011187
21650.276087,2886.803174,-6513.812290,-76.609550
21650.276420,1332.370696,-9104.533087,-2221.676944
21650.276753,-1924.535449,-11843.295072,-4903.011187
21650.277086,814.226536,-13397.727550,-2221.676944
21650.277419,1110.308913,-10658.965565,-689.485948
21650.277752,-2960.823768,-7179.997637,0.000000
21650.278085,-74.020594,-10658.965565,-689.485948
21650.278418,6439.791695,-9474.636058,2374.896044
21650.278751,2368.659014,-9548.656652,4903.011187
21650.279084,6439.791695,-6513.812290,6971.469032
21650.279418,2368.659014,-9104.533087,4826.401637
21650.279751,2664.741391,-10362.883188,3370.820191
21650.280084,0.000000,-8808.450710,689.485948
21650.280417,-1850.514855,-6513.812290,-3140.991542
21650.280750,-5551.544565,-9622.677246,-6665.030833
21650.281083,-3627.009116,-11103.089130,-5592.497135
21650.281416,-3182.885551,-12657.521608,612.876398
21650.281749,-2960.823768,-6291.750507,-612.876398
21650.282082,-74.020594,-9474.636058,-76.609550
21650.282415,-1924.535449,-7772.162391,0.000000
21650.282748,2368.659014,-8660.409521,7660.954980
21650.283082,2294.638420,-7994.224174,3907.087040
21650.283415,592.164754,-5403.503377,-2451.505594
21650.283748,2294.638420,-11547.212695,1302.362347
21650.284081,2368.659014,-10732.986159,3524.039291
21650.284414,2664.741391,-9178.553681,1455.581446
21650.284747,-1258.350101,-9474.636058,-2528.115143
21650.285080,-3552.988522,-14211.954086,-4979.620737
21650.285413,-4737.318029,-11325.150913,-919.314598
21650.285746,-74.020594,-10066.800811,1838.629195
21650.286079,814.226536,-8290.306550,-1302.362347
21650.286413,-666.185348,-8586.388927,2604.724693
21650.286746,1702.473667,-9326.594869,4519.963438
21650.287079,2442.679609,-7698.141797,5592.497135
21650.287412,1850.514855,-4071.132681,3370.820191
21650.287745,-1184.329507,-6587.832884,0.000000
21650.288078,518.144159,-10362.883188,-76.609550
21650.288411,-3256.906145,-9548.656652,1838.629195
21650.288744,-888.247130,-9474.636058,-2528.115143
21650.289077,-3404.947333,-11251.130318,-3907.087040
21650.289410,-814.226536,-10955.047942,-3600.648841
21650.289744,74.020594,-12213.398043,612.876398
21650.290077,2294.638420,-6957.935855,3524.039291
21650.290410,3775.050304,-6957.935855,3294.210641
21650.290743,2368.659014,-9252.574275,5209.449386
21650.291076,4071.132681,-6513.812290,1762.019645
21650.291409,2664.741391,-10214.842000,4903.011187
21650.291742,3478.967927,-7994.224174,1149.143247
21650.292075,-3552.988522,-8364.327145,-2451.505594
21650.292408,-1184.329507,-10732.986159,-3370.820191
21650.292741,-1776.494261,-10214.842000,-1762.019645
21650.293074,-1702.473667,-9696.697840,-5745.716235
21650.293408,-962.267725,-9474.636058,-2528.115143
21650.293741,-2442.679609,-13027.624579,-1915.238745
21650.294074,0.000000,-8364.327145,0.000000
21650.294407,4071.132681,-10658.965565,3600.648841
21650.294740,2146.597232,-5477.523971,1762.019645
21650.295073,3849.070898,-5403.503377,7354.516781
21650.295406,5329.482782,-7772.162391,5132.839837
21650.295739,3849.070898,-6957.935855,3140.991542
21650.296072,1406.391290,-10066.800811,-229.828649
21650.296405,-222.061783,-11917.315666,-2681.334243
21650.296739,-74.020594,-13323.706956,-3140.991542
21650.297072,-3108.864956,-12213.398043,-1838.629195
21650.297405,-3034.844362,-9770.718434,-4290.134789
21650.297738,-2220.617826,-10584.944971,-1608.800546
21650.298071,148.041188,-10362.883188,1762.019645
21650.298404,3182.885551,-9474.636058,9116.536426
21650.298737,592.164754,-1258.350101,2451.505594
21650.299070,3478.967927,-10066.800811,6665.030833
21650.299403,1998.556043,-6661.853478,1532.190996
21650.299736,1184.329507,-9252.574275,3677.258390
21650.300070,0.000000,-8364.327145,2374.896044
21650.300403,-4145.153275,-8364.327145,-5975.544884
21650.300736,-4293.194464,-13175.665768,-5592.497135
21650.301069,-2738.761985,-13397.727550,-1762.019645
21650.301402,-1554.432478,-6513.812290,-1915.238745
21650.301735,-814.226536,-7179.997637,0.000000
21650.302068,-370.102971,-9474.636058,1225.752797
21650.302401,4367.215058,-10658.965565,4826.401637
21650.302734,2294.638420,-6513.812290,4290.134789
21650.303067,3701.029710,-6809.894666,2987.772442
21650.303400,-592.164754,-10732.986159,383.047749
21650.303734,3256.906145,-10214.842000,2145.067394
21650.304067,0.000000,-10658.965565,1072.533697
21650.304400,0.000000,-4219.173869,-3064.381992
21650.304733,-5921.647536,-9548.656652,-3064.381992
21650.305066,-666.185348,-10658.965565,-4673.182538
21650.305399,-2442.679609,-11843.295072,-689.485948
21650.305732,-2368.659014,-5403.503377,-3064.381992
21650.306065,-1258.350101,-12583.501014,-2374.896044
21650.306398,2146.597232,-8586.388927,2757.943793
21650.306731,5033.400406,-7476.080014,5439.278036
21650.307065,4367.215058,-6217.729913,4673.182538
21650.307398,4145.153275,-8956.491898,1838.629195
21650.307731,2516.700203,-13619.789333,3600.648841
21650.308064,4663.297435,-11251.130318,1455.581446
21650.308397,296.082377,-6883.915261,-919.314598
21650.308730,-2368.659014,-10732.986159,-689.485948
21650.309063,-74.020594,-9474.636058,-5515.887586
21650.309396,-2072.576638,-12139.377449,612.876398
21650.309729,518.144159,-5921.647536,995.924147
21650.310062,-444.123565,-6365.771101,536.266849
21650.310396,-1184.329507,-10288.862594,919.314598
21650.310729,1110.308913,-9030.512492,1991.848295
21650.311062,740.205942,-8660.409521,3677.258390
21650.311395,740.205942,-5403.503377,0.000000
21650.311728,-666.185348,-10658.965565,-1302.362347
21650.312061,0.000000,-8364.327145,-1072.533697
21650.312394,0.000000,-8956.491898,1838.629195
21650.312727,1110.308913,-8586.388927,-1915.238745
21650.313060,-74.020594,-8808.450710,-2374.896044
21650.313393,-74.020594,-10362.883188,-1608.800546
21650.313726,3478.967927,-12731.542202,842.705048
21650.314060,-1628.453072,-10066.800811,459.657299
21650.314393,-592.164754,-8956.491898,-2374.896044
21650.314726,-296.082377,-10362.883188,2298.286494
21650.315059,4071.132681,-9474.636058,6052.154434
21650.315392,592.164754,-4811.338623,6435.202183
21650.315725,4071.132681,-7698.141797,2374.896044
21650.316058,-2368.659014,-7179.997637,0.000000
21650.316391,0.000000,-7772.162391,0.000000
21650.316724,1110.308913,-11473.192101,-1532.190996
21650.317057,-2220.617826,-10140.821405,-1762.019645
21650.317391,-4515.256246,-10362.883188,-4290.134789
21650.317724,-2516.700203,-10436.903782,-1915.238745
21650.318057,-4367.215058,-8882.471304,-3447.429741
21650.318390,-74.020594,-7105.977043,-76.609550
21650.318723,2294.638420,-8290.306550,3294.210641
21650.319056,592.164754,-6291.750507,4903.011187
21650.319389,3256.906145,-11695.253884,6281.983084
21650.319722,1776.494261,-4811.338623,3064.381992
21650.320055,1628.453072,-7328.038826,842.705048
21650.320388,1776.494261,-9548.656652,536.266849
21650.320722,1702.473667,-12139.377449,-536.266849
21650.321055,-4145.153275,-8364.327145,-6128.763984
21650.321388,-370.102971,-11843.295072,-4979.620737
21650.321721,-1258.350101,-13027.624579,-2528.115143
21650.322054,-1628.453072,-9548.656652,-2451.505594
21650.322387,814.226536,-9474.636058,5439.278036
21650.322720,0.000000,-5107.421000,2374.896044
21650.323053,0.000000,-8142.265362,2604.724693
21650.323386,3627.009116,-7105.977043,3677.258390
21650.323719,2664.741391,-9178.553681,4213.525239
21650.324052,2368.659014,-5995.668130,2757.943793
21650.324386,-74.020594,-9474.636058,-5132.839837
21650.324719,0.000000,-14285.974681,-612.876398
21650.325052,1702.473667,-13915.871710,-689.485948
21650.325385,-1258.350101,-9474.636058,-4979.620737
21650.325718,-2368.659014,-11473.192101,-3294.210641
21650.326051,444.123565,-10658.965565,-2604.724693
21650.326384,1480.411884,-12435.459826,6052.154434
21650.326717,4145.153275,-2738.761985,4903.011187
21650.327050,4737.318029,-6883.915261,6588.421283
21650.327383,3627.009116,-8068.244768,4290.134789
21650.327717,3552.988522,-9400.615463,4290.134789
21650.328050,1406.391290,-6143.709319,1532.190996
21650.328383,-2960.823768,-8068.244768,-4826.401637
21650.328716,-5625.565159,-12213.398043,-4443.353888
21650.329049,-2442.679609,-13027.624579,-3753.867940
21650.329382,-3627.009116,-9548.656652,-3370.820191
21650.329715,0.000000,-5625.565159,-842.705048
21650.330048,-666.185348,-8882.471304,-383.047749
21650.330381,370.102971,-9696.697840,1685.410096
21650.330714,3701.029710,-9104.533087,6511.811733
21650.331048,4219.173869,-5033.400406,2987.772442
21650.331381,1776.494261,-8068.244768,2451.505594
21650.331714,0.000000,-9548.656652,2757.943793
21650.332047,4663.297435,-10066.800811,1149.143247
21650.332380,0.000000,-5995.668130,0.000000
21650.332713,1184.329507,-9474.636058,-1915.238745
21650.333046,-3701.029710,-9844.739029,-4290.134789
21650.333379,-2072.576638,-12879.583391,-1608.800546
21650.333712,-2146.597232,-7624.121203,-612.876398
21650.334045,-2220.617826,-8512.368333,-2987.772442
21650.334378,-74.020594,-11843.295072,-76.609550
21650.334712,0.000000,-10732.986159,7890.783629
21650.335045,4663.297435,-5181.441594,2987.772442
21650.335378,0.000000,-5107.421000,3064.381992
21650.335711,592.164754,-8956.491898,3600.648841
21650.336044,888.247130,-10881.027347,2451.505594
21650.336377,1702.473667,-8586.388927,1762.019645
21650.336710,-1924.535449,-9622.677246,-1072.533697
21650.337043,-4589.276840,-9548.656652,-3600.648841
21650.337376,-3627.009116,-9474.636058,-4673.182538
21650.337709,-296.082377,-12435.459826,-76.609550
21650.338043,148.041188,-7105.977043,-383.047749
21650.338376,-2960.823768,-7772.162391,612.876398
21650.338709,2812.782580,-9474.636058,3600.648841
21650.339042,3182.885551,-10658.965565,1762.019645
21650.339375,2960.823768,-6365.771101,3217.601092
21650.339708,592.164754,-8734.430116,612.876398
21650.340041,0.000000,-10732.986159,1302.362347
21650.340374,0.000000,-9548.656652,306.438199
21650.340707,-74.020594,-7105.977043,-1302.362347
21650.341040,0.000000,-5995.668130,-1225.752797
21650.341374,-1184.329507,-10288.862594,1455.581446
21650.341707,-74.020594,-10658.965565,-3140.991542
21650.342040,-2146.597232,-11843.295072,-995.924147
21650.342373,-1406.391290,-5995.668130,-4136.915689
21650.342706,-1110.308913,-13323.706956,-842.705048
21650.343039,4663.297435,-8142.265362,5975.544884
21650.343372,1480.411884,-6587.832884,3064.381992
21650.343705,5255.462188,-7328.038826,1762.019645
21650.344038,2516.700203,-10658.965565,2374.896044
21650.344371,2812.782580,-10436.903782,4060.306139
21650.344704,5255.462188,-8142.265362,4826.401637
21650.345038,0.000000,-5403.503377,0.000000
21650.345371,-1406.391290,-11251.130318,-2834.553343
21650.345704,-2442.679609,-7920.203579,-4903.011187
21650.346037,-2368.659014,-11843.295072,-689.485948
21650.346370,-1850.514855,-10658.965565,-689.485948
21650.346703,-2368.659014,-7476.080014,-2451.505594
21650.347036,-1480.411884,-9770.718434,1149.143247
21650.347369,1850.514855,-8882.471304,2911.162892
21650.347702,3182.885551,-8438.347739,3524.039291
21650.348035,2960.823768,-5995.668130,4903.011187
21650.348369,4663.297435,-9474.636058,2987.772442
21650.348702,1776.494261,-7179.997637,0.000000
21650.349035,1184.329507,-10584.944971,-76.609550
21650.349368,-2368.659014,-10288.862594,-1302.362347
21650.349701,-74.020594,-11103.089130,-4673.182538
21650.350034,-2368.659014,-12509.480420,-919.314598
21650.350367,0.000000,-12879.583391,1685.410096
21650.350700,-1110.308913,-6809.894666,-766.095498
21650.351033,-74.020594,-10658.965565,3294.210641
21650.351366,3478.967927,-6809.894666,995.924147
21650.351699,2664.741391,-9696.697840,7277.907231
21650.352033,4663.297435,-7105.977043,4213.525239
21650.352366,0.000000,-5995.668130,-1225.752797
21650.352699,1702.473667,-14804.118840,-1302.362347
21650.353032,-2072.576638,-12583.501014,-766.095498
21650.353365,-1332.370696,-10658.965565,-1532.190996
21650.353698,-3627.009116,-8586.388927,-4366.744339
21650.354031,-4515.256246,-10658.965565,-4213.525239
21650.354364,-4441.235652,-7772.162391,-2451.505594
21650.354697,0.000000,-7031.956449,4826.401637
21650.355030,1702.473667,-5255.462188,2374.896044
21650.355364,2590.720797,-4811.338623,3064.381992
21650.355697,3478.967927,-10658.965565,4826.401637
21650.356030,3997.112087,-8808.450710,3907.087040
21650.356363,1480.411884,-6809.894666,-842.705048
21650.356696,-814.226536,-13397.727550,-2911.162892
21650.357029,-370.102971,-9474.636058,-3753.867940
21650.357362,-2960.823768,-12213.398043,-2298.286494
21650.357695,-2516.700203,-8808.450710,-1991.848295
21650.358028,-740.205942,-5699.585753,-536.266849
21650.358361,0.000000,-11769.274478,3064.381992
21650.358694,5551.544565,-7105.977043,6665.030833
21650.359028,1702.473667,-6809.894666,3064.381992
21650.359361,-1184.329507,-4811.338623,0.000000
21650.359694,296.082377,-10066.800811,1455.581446
21650.360027,1776.494261,-11473.192101,612.876398
21650.360360,3552.988522,-8882.471304,2068.457845
21650.360693,-592.164754,-7920.203579,-2987.772442
21650.361026,-2294.638420,-11843.295072,-4903.011187
21650.361359,-222.061783,-11843.295072,-3140.991542
21650.361692,0.000000,-11917.315666,1302.362347
21650.362025,2294.638420,-7105.977043,0.000000
21650.362359,-1184.329507,-7179.997637,919.314598
21650.362692,2368.659014,-8586.388927,4060.306139
21650.363025,5847.626942,-9178.553681,6511.811733
21650.363358,2590.720797,-6957.935855,3600.648841
21650.363691,2072.576638,-8438.347739,76.609550
21650.364024,-2368.659014,-14137.933492,-536.266849
21650.364357,814.226536,-9770.718434,-153.219100
21650.364690,-74.020594,-11251.130318,1762.019645
21650.365023,0.000000,-5699.585753,-3677.258390
21650.365356,-2442.679609,-12435.459826,-4060.306139
21650.365689,-2220.617826,-8364.327145,0.000000
21650.366023,0.000000,-6143.709319,0.000000
21650.366356,-370.102971,-7105.977043,-1608.800546
21650.366689,0.000000,-10288.862594,-229.828649
21650.367022,2368.659014,-9992.780217,2757.943793
21650.367355,3404.947333,-10881.027347,5209.449386
21650.367688,4071.132681,-7105.977043,1762.019645
21650.368021,0.000000,-12805.562797,2068.457845
21650.368354,2294.638420,-11843.295072,2374.896044
21650.368687,1110.308913,-8956.491898,306.438199
21650.369020,0.000000,-7179.997637,0.000000
21650.369354,-962.267725,-7179.997637,-2145.067394
21650.369687,-2368.659014,-9844.739029,-2145.067394
21650.370020,3330.926739,-9918.759623,995.924147
21650.370353,-592.164754,-9548.656652,612.876398
21650.370686,-3182.885551,-7772.162391,0.000000
21650.371019,-2368.659014,-11843.295072,-76.609550
21650.371352,-370.102971,-8660.409521,1532.190996
21650.371685,370.102971,-3627.009116,2451.505594
21650.372018,4145.153275,-5403.503377,5209.449386
21650.372351,-1850.514855,-7179.997637,612.876398
21650.372684,814.226536,-8586.388927,0.000000
21650.373018,-740.205942,-10658.965565,766.095498
21650.373351,-1998.556043,-7402.059420,-4366.744339
21650.373684,-4219.173869,-10732.986159,-5515.887586
21650.374017,-962.267725,-11843.295072,-3140.991542
21650.374350,888.247130,-11325.150913,1225.752797
21650.374683,814.226536,-5995.668130,842.705048
21650.375016,2590.720797,-11251.130318,4519.963438
21650.375349,3182.885551,-6291.750507,2757.943793
21650.375682,2664.741391,-10140.821405,4903.011187
21650.376015,2886.803174,-9474.636058,4213.525239
21650.376349,222.061783,-6513.812290,-1072.533697
21650.376682,0.000000,-7476.080014,0.000000
21650.377015,1702.473667,-10510.924376,306.438199
21650.377348,-1480.411884,-7994.224174,-1532.190996
21650.377681,-2960.823768,-8364.327145,-4749.792088
21650.378014,-3627.009116,-12435.459826,-3753.867940
21650.378347,-666.185348,-9844.739029,-3677.258390
21650.378680,296.082377,-10510.924376,4519.963438
21650.379013,4071.132681,-9474.636058,4826.401637
21650.379346,2294.638420,-6143.709319,612.876398
21650.379680,3478.967927,-11695.253884,6052.154434
21650.380013,4219.173869,-7476.080014,4826.401637
21650.380346,1628.453072,-7179.997637,1685.410096
21650.380679,2220.617826,-9326.594869,-459.657299
21650.381012,0.000000,-10140.821405,-3370.820191
21650.381345,-1406.391290,-11177.109724,-4903.011187
21650.381678,2294.638420,-9474.636058,-2528.115143
21650.382011,-3182.885551,-11325.150913,-3983.696590
21650.382344,-2220.617826,-9548.656652,0.000000
21650.382677,-2812.782580,-7624.121203,536.266849
21650.383010,1184.329507,-5625.565159,3830.477490
21650.383344,3775.050304,-5329.482782,3677.258390
21650.383677,1702.473667,-7994.224174,2681.334243
21650.384010,4737.318029,-9474.636058,3983.696590
21650.384343,0.000000,-8364.327145,1225.752797
21650.384676,2294.638420,-11843.295072,-2528.115143
21650.385009,-3034.844362,-13101.645173,-3983.696590
21650.385342,-1776.494261,-10140.821405,-4290.134789
21650.385675,0.000000,-10214.842000,-2451.505594
21650.386008,518.144159,-8216.285956,-383.047749
21650.386341,-1036.288319,-10658.965565,1149.143247
21650.386675,-1554.432478,-6439.791695,0.000000
21650.387008,1702.473667,-11843.295072,4213.525239
21650.387341,1776.494261,-7994.224174,7277.907231
21650.387674,1702.473667,-6291.750507,1532.190996
21650.388007,-2368.659014,-8364.327145,3983.696590
21650.388340,2886.803174,-6809.894666,0.000000
21650.388673,-1480.411884,-7846.182985,-2451.505594
21650.389006,2294.638420,-8882.471304,-2221.676944
21650.389339,-2590.720797,-13323.706956,-4979.620737
21650.389672,-740.205942,-13027.624579,-153.219100
21650.390005,-74.020594,-7698.141797,-842.705048
21650.390339,-1184.329507,-9770.718434,-153.219100
21650.390672,-740.205942,-8216.285956,1838.629195
21650.391005,888.247130,-6143.709319,2604.724693
21650.391338,4145.153275,-7031.956449,6052.154434
21650.391671,3478.967927,-7105.977043,4519.963438
21650.392004,0.000000,-8956.491898,0.000000
21650.392337,2294.638420,-12731.542202,2987.772442
21650.392670,740.205942,-7476.080014,306.438199
21650.393003,-2960.823768,-8660.409521,-1225.752797
21650.393336,-1258.350101,-9474.636058,-4979.620737
21650.393670,-4219.173869,-13175.665768,-4366.744339
21650.394003,-1036.288319,-9252.574275,-1685.410096
21650.394336,-1184.329507,-8068.244768,-459.657299
21650.394669,-888.247130,-6735.874072,0.000000
21650.395002,1628.453072,-9178.553681,3600.648841
21650.395335,2812.782580,-9474.636058,3600.648841
21650.395668,592.164754,-7179.997637,6588.421283
21650.396001,2960.823768,-8808.450710,1149.143247
21650.396334,2146.597232,-10436.903782,0.000000
21650.396667,1554.432478,-11251.130318,-995.924147
21650.397000,1776.494261,-8808.450710,-459.657299
21650.397334,-740.205942,-7476.080014,-3524.039291
21650.397667,-2960.823768,-11917.315666,-2451.505594
21650.398000,2886.803174,-11843.295072,-689.485948
21650.398333,-2368.659014,-11325.150913,0.000000
21650.398666,0.000000,-5403.503377,2451.505594
21650.398999,-1258.350101,-9918.759623,-1455.581446
21650.399332,1776.494261,-8660.409521,6128.763984
21650.399665,1998.556043,-9178.553681,5439.278036
21650.399998,0.000000,-5107.421000,2681.334243
21650.400331,0.000000,-8068.244768,1838.629195
21650.400665,-74.020594,-8290.306550,-76.609550
21650.400998,814.226536,-7920.203579,-2834.553343
21650.401331,-2368.659014,-8364.327145,0.000000
21650.401664,-1554.432478,-10658.965565,-6205.373534
21650.401997,-666.185348,-9548.656652,-7354.516781
21650.402330,-1776.494261,-16210.510130,-76.609550
21650.402663,1850.514855,-5551.544565,306.438199
21650.402996,1110.308913,-9474.636058,995.924147
21650.403329,3330.926739,-8882.471304,3600.648841
21650.403662,4071.132681,-9474.636058,4826.401637
21650.403995,2368.659014,-7179.997637,6128.763984
21650.404329,1332.370696,-6809.894666,3294.210641
21650.404662,-666.185348,-8586.388927,-689.485948
21650.404995,0.000000,-10140.821405,919.314598
21650.405328,-1776.494261,-10584.944971,-76.609550
21650.405661,-666.185348,-7698.141797,-3140.991542
21650.405994,-6513.812290,-11325.150913,-4903.011187
21650.406327,-444.123565,-11251.130318,-2221.676944
21650.406660,-2220.617826,-14063.912898,4213.525239
21650.406993,1998.556043,-4219.173869,1225.752797
21650.407326,370.102971,-7994.224174,1455.581446
21650.407660,518.144159,-8956.491898,2451.505594
21650.407993,3775.050304,-7994.224174,5132.839837
21650.408326,1628.453072,-7698.141797,3600.648841
21650.408659,7624.121203,-9474.636058,4826.401637
21650.408992,-3552.988522,-9548.656652,612.876398
21650.409325,1850.514855,-8290.306550,-3064.381992
21650.409658,-1184.329507,-11621.233289,-1225.752797
21650.409991,-3256.906145,-9548.656652,-4596.572988
21650.410324,-1554.432478,-11547.212695,-3140.991542
21650.410657,-3404.947333,-11769.274478,-1991.848295
21650.410990,592.164754,-8364.327145,-306.438199
21650.411324,0.000000,-8068.244768,2451.505594
21650.411657,4071.132681,-6513.812290,3294.210641
21650.411990,3478.967927,-3627.009116,2451.505594
21650.412323,2220.617826,-13027.624579,5745.716235
21650.412656,1702.473667,-4737.318029,-689.485948
21650.412989,-4367.215058,-9844.739029,-2451.505594
21650.413322,2146.597232,-7994.224174,-2528.115143
21650.413655,-592.164754,-11547.212695,-1225.752797
21650.413988,-74.020594,-7994.224174,-2068.457845
21650.414321,-2368.659014,-10140.821405,-3064.381992
21650.414655,-2368.659014,-11695.253884,-76.609550
21650.414988,1702.473667,-10658.965565,-689.485948
21650.415321,518.144159,-7772.162391,3677.258390
21650.415654,4367.215058,-7994.224174,4826.401637
21650.415987,-2220.617826,-9548.656652,766.095498
21650.416320,4811.338623,-8290.306550,2298.286494
21650.416653,1406.391290,-9030.512492,995.924147
21650.416986,2812.782580,-8290.306550,2221.676944
21650.417319,1184.329507,-8660.409521,1532.190996
21650.417652,-74.020594,-13027.624579,-2528.115143
21650.417985,-3256.906145,-7179.997637,-2451.505594
21650.418319,-2516.700203,-9030.512492,-612.876398
21650.418652,-74.020594,-11843.295072,-1302.362347
21650.418985,-2368.659014,-6587.832884,766.095498
21650.419318,1924.535449,-9178.553681,2451.505594
21650.419651,1702.473667,-8142.265362,3447.429741
21650.419984,3034.844362,-6883.915261,1532.190996
21650.420317,1776.494261,-13545.768739,612.876398
21650.420650,4959.379811,-9326.594869,3677.258390
21650.420983,1480.411884,-8290.306550,1072.533697
21650.421316,1628.453072,-9548.656652,0.000000
21650.421650,-370.102971,-10066.800811,-2681.334243
21650.421983,-814.226536,-7476.080014,-3677.258390
21650.422316,1850.514855,-8882.471304,2374.896044
21650.422649,-1258.350101,-5921.647536,-2221.676944
21650.422982,-4145.153275,-9548.656652,0.000000
21650.423315,-74.020594,-9474.636058,1149.143247
21650.423648,1998.556043,-10436.903782,2911.162892
21650.423981,666.185348,-7624.121203,4979.620737
21650.424314,-74.020594,-9474.636058,919.314598
21650.424647,-3552.988522,-9548.656652,0.000000
21650.424980,-74.020594,-6513.812290,-2451.505594
21650.425314,1036.288319,-9474.636058,-689.485948
21650.425647,-1332.370696,-7772.162391,-2451.505594
21650.425980,-4145.153275,-10288.862594,-1685.410096
21650.426313,0.000000,-7179.997637,0.000000
21650.426646,-888.247130,-8364.327145,1302.362347
21650.426979,-2368.659014,-9548.656652,-2757.943793
21650.427312,0.000000,-12509.480420,1685.410096
21650.427645,4663.297435,-11251.130318,5745.716235
21650.427978,2368.659014,-5107.421000,2757.943793
21650.428311,2886.803174,-11251.130318,2374.896044
21650.428645,0.000000,-9548.656652,1225.752797
21650.428978,2886.803174,-10362.883188,3600.648841
21650.429311,3997.112087,-7994.224174,1225.752797
21650.429644,-1406.391290,-8438.347739,-2987.772442
21650.429977,-5995.668130,-11547.212695,-3907.087040
21650.430310,-3108.864956,-8956.491898,-3370.820191
21650.430643,-1850.514855,-8290.306550,-1608.800546
21650.430976,-2368.659014,-7772.162391,-919.314598
21650.431309,-74.020594,-8068.244768,0.000000
21650.431642,-2368.659014,-7772.162391,1838.629195
21650.431975,4515.256246,-10658.965565,4213.525239
21650.432309,1702.473667,-7105.977043,536.266849
21650.432642,3775.050304,-11103.089130,2911.162892
21650.432975,3478.967927,-8882.471304,3983.696590
21650.433308,4219.173869,-8586.388927,995.924147
21650.433641,1480.411884,-11177.109724,383.047749
21650.433974,3478.967927,-8882.471304,-76.609550
21650.434307,-2960.823768,-11917.315666,-2451.505594
21650.434640,1776.494261,-8660.409521,0.000000
21650.434973,-814.226536,-12435.459826,-76.609550
21650.435306,-3627.009116,-8290.306550,-2528.115143
21650.435640,1406.391290,-9474.636058,1149.143247
21650.435973,-2072.576638,-10140.821405,3294.210641
21650.436306,7328.038826,-3849.070898,6588.421283
21650.436639,1776.494261,-3775.050304,4290.134789
21650.436972,5477.523971,-9474.636058,-383.047749
21650.437305,2072.576638,-11029.068536,229.828649
21650.437638,-962.267725,-14804.118840,-2528.115143
21650.437971,1850.514855,-7476.080014,-4903.011187
21650.438304,-5921.647536,-14285.974681,-5822.325785
21650.438637,4145.153275,-12435.459826,-383.047749
21650.438970,0.000000,-8882.471304,1762.019645
21650.439304,2960.823768,-7179.997637,5286.058936
21650.439637,4071.132681,-6809.894666,4519.963438
21650.439970,1702.473667,-9474.636058,4290.134789
21650.440303,5033.400406,-7328.038826,3524.039291
21650.440636,2442.679609,-9918.759623,3294.210641
21650.440969,0.000000,-10436.903782,0.000000
21650.441302,-3552.988522,-9104.533087,-1225.752797
21650.441635,-2590.720797,-13027.624579,-2528.115143
21650.441968,-5921.647536,-7179.997637,-3524.039291
21650.442301,-7105.977043,-7476.080014,-3677.258390
21650.442635,-3701.029710,-11843.295072,-2068.457845
21650.442968,-4219.173869,-7179.997637,-3677.258390
21650.443301,-74.020594,-8290.306550,2681.334243
21650.443634,1184.329507,-5847.626942,5362.668486
21650.443967,-370.102971,-8512.368333,3217.601092
21650.444300,3997.112087,-8882.471304,3370.820191
21650.444633,1184.329507,-11029.068536,4903.011187
21650.444966,4071.132681,-7105.977043,-842.705048
21650.445299,0.000000,-8956.491898,-1838.629195
21650.445632,-1776.494261,-13693.809927,-689.485948
21650.445965,-444.123565,-10436.903782,-4903.011187
21650.446299,-2442.679609,-11547.212695,-1302.362347
21650.446632,-1332.370696,-8586.388927,-1991.848295
21650.446965,-4811.338623,-9400.615463,-1302.362347
21650.447298,2886.803174,-6513.812290,2374.896044
21650.447631,2960.823768,-7402.059420,7277.907231
21650.447964,1332.370696,-4811.338623,3064.381992
21650.448297,592.164754,-7772.162391,4443.353888
21650.448630,-74.020594,-11251.130318,-995.924147
21650.448963,2294.638420,-10658.965565,842.705048
21650.449296,-1776.494261,-8364.327145,-1991.848295
21650.449629,-518.144159,-11103.089130,-3370.820191
21650.449962,-740.205942,-10288.862594,-2221.676944
21650.450295,-4145.153275,-7772.162391,0.000000
21650.450628,2886.803174,-5921.647536,-76.609550
21650.450961,-74.020594,-9474.636058,842.705048
21650.451294,296.082377,-6291.750507,-1225.752797
21650.451627,2960.823768,-14878.139434,7277.907231
21650.451960,6439.791695,-6217.729913,5132.839837
21650.452293,1184.329507,-9548.656652,3217.601092
21650.452626,4811.338623,-9622.677246,3600.648841
21650.452959,666.185348,-9548.656652,-1302.362347
21650.453292,592.164754,-8364.327145,-612.876398
21650.453625,-74.020594,-7772.162391,-3983.696590
21650.453958,-4145.153275,-10214.842000,-5669.106685
21650.454291,-1702.473667,-9844.739029,-2145.067394
21650.454625,0.000000,-7402.059420,689.485948
21650.454958,0.000000,-5995.668130,0.000000
21650.455291,-666.185348,-10658.965565,-1302.362347
21650.455624,0.000000,-7179.997637,306.438199
21650.455957,2812.782580,-11547.212695,4673.182538
21650.456290,5847.626942,-9474.636058,4826.401637
21650.456623,1480.411884,-9548.656652,3677.258390
21650.456956,3775.050304,-8956.491898,3600.648841
21650.457289,4441.235652,-7698.141797,3600.648841
21650.457622,74.020594,-7254.018232,-383.047749
21650.457955,-666.185348,-9696.697840,-5439.278036
21650.458288,-1554.432478,-13027.624579,-6281.983084
21650.458621,-1776.494261,-13101.645173,-3677.258390
21650.458954,888.247130,-8808.450710,3600.648841
