#time,accel_x,accel_y,accel_z
22436.278431,4367.215058,-8956.491898,-3064.381992
22436.278765,3478.967927,-10510.924376,-3753.867940
22436.279099,4293.194464,-10584.944971,-3983.696590
22436.279433,3775.050304,-11029.068536,-3140.991542
22436.279766,3701.029710,-8512.368333,-3217.601092
22436.280100,9400.615463,-11251.130318,1762.019645
22436.280434,11177.109724,-7698.141797,3677.258390
22436.280767,10066.800811,-7179.997637,6128.763984
22436.281101,15914.427753,-9474.636058,7277.907231
22436.281435,11843.295072,-6883.915261,4443.353888
22436.281769,11695.253884,-7624.121203,2068.457845
22436.282102,10807.006753,-9030.512492,-76.609550
22436.282436,6809.894666,-11029.068536,-2681.334243
22436.282770,2960.823768,-12509.480420,-4903.011187
22436.283104,2294.638420,-12435.459826,-7431.126331
22436.283437,-1332.370696,-13027.624579,-5286.058936
22436.283771,-2368.659014,-9548.656652,-1532.190996
22436.284105,4663.297435,-7698.141797,2221.676944
22436.284438,9326.594869,-5847.626942,9422.974625
22436.284772,10362.883188,-3923.091493,10878.556072
22436.285106,11843.295072,-5107.421000,8810.098227
22436.285440,12657.521608,-5477.523971,5439.278036
22436.285773,12953.603985,-7698.141797,2374.896044
22436.286107,10584.944971,-6957.935855,-4826.401637
22436.286441,5921.647536,-11029.068536,-6281.983084
22436.286774,5033.400406,-13693.809927,-7431.126331
22436.287108,5255.462188,-12731.542202,-8963.317327
22436.287442,5921.647536,-14804.118840,-5745.716235
22436.287776,5403.503377,-12953.603985,-2681.334243
22436.288109,7105.977043,-11547.212695,1762.019645
22436.288443,11843.295072,-9474.636058,7277.907231
22436.288777,16506.592507,-6809.894666,12793.794817
22436.289110,16136.489536,-3330.926739,12257.527968
22436.289444,15396.283594,-4811.338623,9422.974625
22436.289778,14063.912898,-7402.059420,6052.154434
22436.290112,7105.977043,-7179.997637,0.000000
22436.290445,2664.741391,-10436.903782,-5209.449386
22436.290779,1702.473667,-11843.295072,-9882.631924
22436.291113,-74.020594,-11843.295072,-9882.631924
22436.291447,1480.411884,-10732.986159,-5209.449386
22436.291780,5477.523971,-8956.491898,-2528.115143
22436.292114,9030.512492,-9474.636058,2374.896044
22436.292448,12657.521608,-7920.203579,5975.544884
22436.292781,14804.118840,-6143.709319,6358.592633
22436.293115,15322.262999,-7994.224174,6971.469032
22436.293449,13027.624579,-8364.327145,6052.154434
22436.293783,11177.109724,-6957.935855,-1378.971896
22436.294116,8586.388927,-9548.656652,0.000000
22436.294450,7772.162391,-13027.624579,-2528.115143
22436.294784,5921.647536,-11029.068536,-2451.505594
22436.295117,8216.285956,-10658.965565,-842.705048
22436.295451,10214.842000,-7254.018232,76.609550
22436.295785,11843.295072,-7031.956449,1378.971896
22436.296119,15618.345376,-6513.812290,2374.896044
22436.296452,15618.345376,-10362.883188,4826.401637
22436.296786,9474.636058,-8364.327145,2451.505594
22436.297120,9992.780217,-12657.521608,-1302.362347
22436.297453,9400.615463,-13915.871710,-1915.238745
22436.297787,9992.780217,-9474.636058,-689.485948
22436.298121,11621.233289,-8142.265362,1455.581446
22436.298455,11103.089130,-7179.997637,995.924147
22436.298788,11103.089130,-6661.853478,1608.800546
22436.299122,9474.636058,-8364.327145,1838.629195
22436.299456,11769.274478,-8882.471304,-76.609550
22436.299790,8586.388927,-8364.327145,0.000000
22436.300123,12139.377449,-10362.883188,1149.143247
22436.300457,11769.274478,-7994.224174,0.000000
22436.300791,10658.965565,-7179.997637,-1838.629195
22436.301124,11843.295072,-10732.986159,-1608.800546
22436.301458,11399.171507,-12287.418637,459.657299
22436.301792,9770.718434,-12583.501014,383.047749
22436.302126,9400.615463,-11843.295072,2374.896044
22436.302459,7846.182985,-5995.668130,612.876398
22436.302793,10214.842000,-7105.977043,4213.525239
22436.303127,8808.450710,-5921.647536,1149.143247
22436.303460,7698.141797,-7179.997637,2911.162892
22436.303794,6513.812290,-9548.656652,1225.752797
22436.304128,10066.800811,-4959.379811,-306.438199
22436.304462,10807.006753,-9992.780217,536.266849
22436.304795,9992.780217,-7846.182985,-1762.019645
22436.305129,9400.615463,-10658.965565,-4060.306139
22436.305463,5921.647536,-12509.480420,-2145.067394
22436.305796,11547.212695,-9548.656652,153.219100
22436.306130,11103.089130,-10066.800811,2298.286494
22436.306464,12657.521608,-10362.883188,2987.772442
22436.306798,9104.533087,-9474.636058,1762.019645
22436.307131,7476.080014,-10288.862594,1225.752797
22436.307465,8290.306550,-6587.832884,3983.696590
22436.307799,11177.109724,-8290.306550,1149.143247
22436.308133,10658.965565,-4515.256246,766.095498
22436.308466,4885.359217,-10881.027347,842.705048
22436.308800,6735.874072,-9104.533087,-2757.943793
22436.309134,8290.306550,-9252.574275,-1149.143247
22436.309467,11177.109724,-7254.018232,766.095498
22436.309801,12657.521608,-7105.977043,1149.143247
22436.310135,8216.285956,-7179.997637,0.000000
22436.310469,12509.480420,-11843.295072,3600.648841
22436.310802,12953.603985,-10362.883188,-1302.362347
22436.311136,10732.986159,-9844.739029,0.000000
22436.311470,11473.192101,-10658.965565,-995.924147
22436.311803,7031.956449,-11843.295072,-995.924147
22436.312137,11103.089130,-7402.059420,0.000000
22436.312471,9622.677246,-10955.047942,3064.381992
22436.312805,13027.624579,-2442.679609,3217.601092
22436.313138,9104.533087,-5403.503377,3064.381992
22436.313472,13249.686362,-10658.965565,3907.087040
22436.313806,11769.274478,-9474.636058,2068.457845
22436.314139,7105.977043,-7179.997637,1532.190996
22436.314473,9844.739029,-6143.709319,-3370.820191
22436.314807,5847.626942,-9622.677246,-4673.182538
22436.315141,6069.688724,-11029.068536,-3983.696590
22436.315474,7920.203579,-8808.450710,-2757.943793
22436.315808,11325.150913,-11843.295072,1072.533697
22436.316142,7698.141797,-11473.192101,2145.067394
22436.316476,11769.274478,-10658.965565,2374.896044
22436.316809,9474.636058,-5995.668130,3064.381992
22436.317143,14804.118840,-7179.997637,6818.249932
22436.317477,13027.624579,-7772.162391,4136.915689
22436.317810,15914.427753,-8734.430116,1685.410096
22436.318144,10584.944971,-11843.295072,2451.505594
22436.318478,10436.903782,-7772.162391,0.000000
22436.318812,6143.709319,-12139.377449,-1302.362347
22436.319145,9400.615463,-9474.636058,-3753.867940
22436.319479,3627.009116,-10658.965565,-2528.115143
22436.319813,3627.009116,-3182.885551,-4290.134789
22436.320146,8216.285956,-12435.459826,-76.609550
22436.320480,7105.977043,-8364.327145,2757.943793
22436.320814,9844.739029,-9918.759623,5209.449386
22436.321148,8068.244768,-6217.729913,4213.525239
22436.321481,5773.606348,-15174.221811,3217.601092
22436.321815,9992.780217,0.000000,0.000000
22436.322149,6439.791695,-15100.201217,3830.477490
22436.322482,12213.398043,1924.535449,-612.876398
22436.322816,1554.432478,-18061.024985,459.657299
22436.323150,1776.494261,-8216.285956,-5132.839837
22436.323484,4663.297435,-10658.965565,-76.609550
22436.323817,-2368.659014,-7772.162391,-1915.238745
22436.324151,7624.121203,-5921.647536,-7431.126331
22436.324485,-2072.576638,-15026.180623,-1685.410096
22436.324819,9474.636058,-7179.997637,4903.011187
22436.325152,8290.306550,-7550.100608,5822.325785
22436.325486,9104.533087,-10955.047942,8197.221829
22436.325820,7698.141797,-3849.070898,3064.381992
22436.326153,3552.988522,-11621.233289,3370.820191
22436.326487,6217.729913,-4811.338623,-3983.696590
22436.326821,-74.020594,-11843.295072,-4979.620737
22436.327155,2294.638420,-11547.212695,-5286.058936
22436.327488,0.000000,-5995.668130,-1225.752797
22436.327822,2886.803174,-12435.459826,-2528.115143
22436.328156,3552.988522,-8364.327145,459.657299
22436.328489,2664.741391,-10732.986159,306.438199
22436.328823,6217.729913,-7698.141797,766.095498
22436.329157,8586.388927,-9474.636058,6818.249932
22436.329491,8290.306550,-6957.935855,5669.106685
22436.329824,13545.768739,-8882.471304,536.266849
22436.330158,1480.411884,-14878.139434,5209.449386
22436.330492,7698.141797,-6291.750507,612.876398
22436.330825,-1258.350101,-11473.192101,-766.095498
22436.331159,1998.556043,-6809.894666,-4979.620737
22436.331493,1036.288319,-8216.285956,-2834.553343
22436.331827,-666.185348,-7920.203579,-1225.752797
22436.332160,0.000000,-9844.739029,-1762.019645
22436.332494,-4811.338623,-14211.954086,-76.609550
22436.332828,-370.102971,-4885.359217,-2068.457845
22436.333162,1184.329507,-9474.636058,5286.058936
22436.333495,9400.615463,-8882.471304,8503.660028
22436.333829,2368.659014,-4811.338623,3677.258390
22436.334163,8216.285956,-3552.988522,4519.963438
22436.334496,-370.102971,-10732.986159,-1149.143247
22436.334830,3701.029710,-8364.327145,-2068.457845
22436.335164,-3256.906145,-12805.562797,-7967.393179
22436.335498,-2442.679609,-13027.624579,-6511.811733
22436.335831,-2220.617826,-14137.933492,-3447.429741
22436.336165,148.041188,-8216.285956,-2298.286494
22436.336499,7105.977043,-9548.656652,2604.724693
22436.336832,0.000000,-8068.244768,5515.887586
22436.337166,7105.977043,-6291.750507,6588.421283
22436.337500,-74.020594,-10658.965565,4290.134789
22436.337834,3552.988522,-5995.668130,3677.258390
22436.338167,2738.761985,-8290.306550,3907.087040
22436.338501,0.000000,-8364.327145,0.000000
22436.338835,1702.473667,-4737.318029,-2528.115143
22436.339168,-3108.864956,-11991.336260,-2528.115143
22436.339502,-370.102971,-8290.306550,-3753.867940
22436.339836,-1850.514855,-13027.624579,-1302.362347
22436.340170,-1332.370696,-10362.883188,-4366.744339
22436.340503,-1850.514855,-11917.315666,-2451.505594
22436.340837,0.000000,-9844.739029,5515.887586
22436.341171,2294.638420,-7105.977043,2374.896044
22436.341505,1924.535449,-9178.553681,6128.763984
22436.341838,1702.473667,-9252.574275,3294.210641
22436.342172,4737.318029,-4663.297435,5975.544884
22436.342506,370.102971,-7179.997637,3830.477490
22436.342839,0.000000,-6661.853478,153.219100
22436.343173,-5403.503377,-9474.636058,-3907.087040
22436.343507,-4737.318029,-9548.656652,-3064.381992
22436.343841,-444.123565,-10066.800811,-1915.238745
22436.344174,-2442.679609,-10658.965565,-3447.429741
22436.344508,-2442.679609,-11843.295072,-1302.362347
22436.344842,-3552.988522,-8364.327145,-2451.505594
22436.345175,1554.432478,-12139.377449,3983.696590
22436.345509,2886.803174,-5107.421000,3983.696590
22436.345843,5329.482782,-5995.668130,3983.696590
22436.346177,-1258.350101,-10362.883188,1685.410096
22436.346510,2664.741391,-5773.606348,3064.381992
22436.346844,-74.020594,-12435.459826,-2068.457845
22436.347178,1332.370696,-9548.656652,0.000000
22436.347511,-4145.153275,-9844.739029,-3677.258390
22436.347845,-1036.288319,-9178.553681,-2068.457845
22436.348179,-3108.864956,-8882.471304,-2451.505594
22436.348513,-1850.514855,-11325.150913,459.657299
22436.348846,-74.020594,-13619.789333,5439.278036
22436.349180,296.082377,-3627.009116,3677.258390
22436.349514,7031.956449,-7105.977043,2987.772442
22436.349848,1776.494261,-5107.421000,2451.505594
22436.350181,1184.329507,-8364.327145,4826.401637
22436.350515,-1776.494261,-9992.780217,-919.314598
22436.350849,2664.741391,-10288.862594,-842.705048
22436.351182,-6587.832884,-11547.212695,-5898.935335
22436.351516,-1924.535449,-8660.409521,-3600.648841
22436.351850,-3923.091493,-8290.306550,-4979.620737
22436.352183,0.000000,-10140.821405,-1072.533697
22436.352517,4589.276840,-9844.739029,7890.783629
22436.352850,5995.668130,-8586.388927,7201.297681
22436.353184,7624.121203,-7624.121203,7124.688131
22436.353517,-74.020594,-10658.965565,1762.019645
22436.353851,444.123565,-8660.409521,-1838.629195
22436.354184,0.000000,-9548.656652,5439.278036
22436.354518,4071.132681,-9178.553681,0.000000
22436.354851,888.247130,-5403.503377,766.095498
22436.355185,-4737.318029,-14211.954086,-1302.362347
22436.355518,-1776.494261,-6883.915261,-4596.572988
22436.355852,-1258.350101,-11843.295072,1149.143247
22436.356185,-2368.659014,-6291.750507,-2451.505594
22436.356519,-222.061783,-5995.668130,-4060.306139
22436.356852,-3849.070898,-11325.150913,1225.752797
22436.357186,5551.544565,-5921.647536,2374.896044
22436.357519,3478.967927,-11695.253884,2604.724693
22436.357853,3552.988522,-7772.162391,1225.752797
22436.358186,4071.132681,-14211.954086,-2221.676944
22436.358520,1258.350101,-10362.883188,4136.915689
22436.358853,6439.791695,-7994.224174,842.705048
22436.359187,-814.226536,-11473.192101,3140.991542
22436.359520,888.247130,-5403.503377,0.000000
22436.359854,-5921.647536,-10732.986159,995.924147
22436.360187,-1258.350101,-10658.965565,-2604.724693
22436.360521,-6735.874072,-8364.327145,-5669.106685
22436.360854,-7105.977043,-8364.327145,-1685.410096
22436.361188,-1776.494261,-4811.338623,2604.724693
22436.361521,1110.308913,-5773.606348,4519.963438
22436.361855,2146.597232,-6143.709319,3524.039291
22436.362188,1184.329507,-9696.697840,3907.087040
22436.362522,3478.967927,-7698.141797,-383.047749
22436.362855,-2368.659014,-17616.901420,3907.087040
22436.363189,2294.638420,-2220.617826,-1455.581446
22436.363522,-4145.153275,-11917.315666,-2451.505594
22436.363856,0.000000,-11917.315666,-459.657299
22436.364189,-2442.679609,-13323.706956,-2221.676944
22436.364523,-3552.988522,-11769.274478,-2068.457845
22436.364856,0.000000,-8068.244768,1225.752797
22436.365190,-814.226536,-6365.771101,229.828649
22436.365523,1184.329507,-5995.668130,4903.011187
22436.365857,-74.020594,-8882.471304,2911.162892
22436.366190,2368.659014,-5995.668130,2451.505594
22436.366524,2960.823768,-5995.668130,6358.592633
22436.366857,4663.297435,-7698.141797,1762.019645
22436.367191,2294.638420,-9400.615463,2681.334243
22436.367524,-4737.318029,-11769.274478,-4596.572988
22436.367858,-2146.597232,-11399.171507,-7354.516781
22436.368191,-3627.009116,-14063.912898,-2834.553343
22436.368525,-3849.070898,-8364.327145,-4596.572988
22436.368858,-1258.350101,-7994.224174,-1225.752797
22436.369192,-888.247130,-10584.944971,-4060.306139
22436.369525,2886.803174,-9252.574275,6358.592633
22436.369859,4737.318029,-4219.173869,4673.182538
22436.370192,7105.977043,-7254.018232,8350.440928
22436.370526,4663.297435,-9474.636058,6052.154434
22436.370859,1776.494261,-6587.832884,0.000000
22436.371193,-814.226536,-14211.954086,-76.609550
22436.371526,444.123565,-9474.636058,-5822.325785
22436.371860,-4737.318029,-11917.315666,-3064.381992
22436.372193,-1850.514855,-7846.182985,-4366.744339
22436.372527,-3478.967927,-11029.068536,-2451.505594
22436.372860,-3997.112087,-9326.594869,-1608.800546
22436.373194,3552.988522,-11325.150913,3983.696590
22436.373527,3478.967927,-4071.132681,3677.258390
22436.373861,2738.761985,-6291.750507,2451.505594
22436.374194,2738.761985,-7105.977043,4826.401637
22436.374528,2886.803174,-8290.306550,-76.609550
22436.374861,2072.576638,-9918.759623,-229.828649
22436.375195,0.000000,-11843.295072,-3294.210641
22436.375528,-5699.585753,-12287.418637,-3370.820191
22436.375862,-1184.329507,-6883.915261,-5439.278036
22436.376195,-74.020594,-14804.118840,-76.609550
22436.376529,-1924.535449,-5403.503377,0.000000
22436.376862,-2516.700203,-12805.562797,612.876398
22436.377196,6439.791695,-5625.565159,4213.525239
22436.377529,0.000000,-8364.327145,1225.752797
22436.377863,5255.462188,-6365.771101,4826.401637
22436.378196,1850.514855,-8068.244768,3294.210641
22436.378530,-74.020594,-7698.141797,0.000000
22436.378863,1924.535449,-10732.986159,1532.190996
22436.379197,1406.391290,-4885.359217,842.705048
22436.379530,-3552.988522,-7179.997637,-1838.629195
22436.379864,-3923.091493,-13027.624579,-6205.373534
22436.380197,-3256.906145,-8808.450710,-7814.174080
22436.380531,-8290.306550,-13101.645173,-5822.325785
22436.380864,3478.967927,-7105.977043,459.657299
22436.381198,-1702.473667,-12583.501014,3907.087040
22436.381531,5477.523971,-6661.853478,6894.859482
22436.381865,5329.482782,-5329.482782,7737.564530
22436.382198,3627.009116,-6217.729913,5439.278036
22436.382532,7105.977043,-5477.523971,5745.716235
22436.382865,-3478.967927,-11029.068536,1378.971896
22436.383199,0.000000,-7772.162391,-5439.278036
22436.383532,-3552.988522,-12953.603985,-2987.772442
22436.383866,-74.020594,-8290.306550,-5592.497135
22436.384199,-4737.318029,-11917.315666,-3370.820191
22436.384533,-666.185348,-11843.295072,-1302.362347
22436.384866,-5995.668130,-11917.315666,-4903.011187
22436.385200,-2072.576638,-11769.274478,1838.629195
22436.385533,2368.659014,-4737.318029,2987.772442
22436.385867,-370.102971,-11251.130318,5975.544884
22436.386200,5477.523971,74.020594,6971.469032
22436.386534,2886.803174,-7994.224174,1762.019645
22436.386867,3552.988522,-11843.295072,6052.154434
22436.387201,2368.659014,-5403.503377,-76.609550
22436.387534,-666.185348,-15840.407159,-1915.238745
22436.387868,-2442.679609,-6883.915261,-7354.516781
22436.388201,-1850.514855,-13027.624579,-5592.497135
22436.388535,-6365.771101,-15026.180623,-4903.011187
22436.388868,-1702.473667,-9548.656652,-3677.258390
22436.389202,-2738.761985,-13027.624579,383.047749
22436.389535,3849.070898,-7179.997637,7354.516781
22436.389869,4663.297435,-5329.482782,8197.221829
22436.390202,0.000000,-5403.503377,7890.783629
22436.390536,5255.462188,-5921.647536,2374.896044
22436.390869,0.000000,-4811.338623,1225.752797
22436.391203,1184.329507,-5107.421000,-2451.505594
22436.391536,-1924.535449,-11843.295072,-2221.676944
22436.391870,-2960.823768,-12139.377449,-2681.334243
22436.392203,-1332.370696,-11547.212695,-3677.258390
22436.392537,4071.132681,-11843.295072,-76.609550
22436.392870,-2960.823768,-10732.986159,-2451.505594
22436.393204,1998.556043,-8882.471304,-1455.581446
22436.393537,-74.020594,-8290.306550,0.000000
22436.393871,2072.576638,-11695.253884,4213.525239
22436.394204,8216.285956,-4737.318029,6511.811733
22436.394538,2664.741391,-11251.130318,6358.592633
22436.394871,1184.329507,-4811.338623,1685.410096
22436.395205,-3552.988522,-10658.965565,-1685.410096
22436.395538,-3256.906145,-9622.677246,-2987.772442
22436.395872,-2368.659014,-10140.821405,-76.609550
22436.396205,2590.720797,-3627.009116,-4903.011187
22436.396539,-1776.494261,-15766.386565,2451.505594
22436.396872,0.000000,-6217.729913,2681.334243
22436.397206,-74.020594,-14211.954086,-1915.238745
22436.397539,4737.318029,-11399.171507,5669.106685
22436.397873,3775.050304,-7994.224174,689.485948
22436.398206,1258.350101,-9104.533087,2145.067394
22436.398540,666.185348,-7846.182985,-459.657299
22436.398873,-2368.659014,-10881.027347,-3140.991542
22436.399207,-1998.556043,-11473.192101,919.314598
22436.399540,-1184.329507,-8216.285956,-2298.286494
22436.399874,-2368.659014,-13619.789333,842.705048
22436.400207,-3182.885551,-3404.947333,-1608.800546
22436.400541,0.000000,-7105.977043,4519.963438
22436.400874,3478.967927,-6513.812290,2374.896044
22436.401208,3478.967927,-9548.656652,1532.190996
22436.401541,888.247130,-10510.924376,2068.457845
22436.401875,4367.215058,-8882.471304,-689.485948
22436.402208,0.000000,-13989.892304,-1762.019645
22436.402542,2738.761985,-11843.295072,-1685.410096
22436.402875,1258.350101,-12361.439231,3524.039291
22436.403209,2368.659014,-6587.832884,0.000000
22436.403542,4663.297435,-13027.624579,2374.896044
22436.403876,-5329.482782,-7772.162391,0.000000
22436.404209,-1184.329507,-7179.997637,0.000000
22436.404543,-3997.112087,-9474.636058,1762.019645
22436.404876,-4071.132681,-7772.162391,-3064.381992
22436.405210,-592.164754,-4737.318029,1685.410096
22436.405543,-74.020594,-6809.894666,1149.143247
22436.405877,2146.597232,-7698.141797,2298.286494
22436.406210,-370.102971,-10066.800811,-76.609550
22436.406544,7031.956449,-9474.636058,2374.896044
22436.406877,0.000000,-11917.315666,3064.381992
22436.407211,4071.132681,-11843.295072,4826.401637
22436.407544,1702.473667,-7994.224174,-5362.668486
22436.407878,-2442.679609,-17098.757260,-1915.238745
22436.408211,888.247130,-8808.450710,-689.485948
22436.408545,-4959.379811,-12805.562797,-4749.792088
22436.408878,518.144159,-7105.977043,842.705048
22436.409212,-5921.647536,-7179.997637,-4903.011187
22436.409545,4071.132681,-6143.709319,2451.505594
22436.409879,2368.659014,-4219.173869,9116.536426
22436.410212,4663.297435,-6513.812290,3370.820191
22436.410546,5329.482782,-7179.997637,4903.011187
22436.410879,1332.370696,-8734.430116,1762.019645
22436.411213,3923.091493,-8364.327145,1225.752797
22436.411546,444.123565,-9622.677246,-4596.572988
22436.411880,0.000000,-14285.974681,-5515.887586
22436.412213,-7179.997637,-15396.283594,-9269.755526
22436.412547,0.000000,-11917.315666,-3064.381992
22436.412880,-4811.338623,-12435.459826,-2528.115143
22436.413214,2516.700203,-7476.080014,612.876398
22436.413547,2812.782580,-6809.894666,7737.564530
22436.413881,6217.729913,-4219.173869,4443.353888
22436.414214,5847.626942,-4737.318029,6665.030833
22436.414548,3552.988522,-5847.626942,7967.393179
22436.414881,6217.729913,-5551.544565,2757.943793
22436.415215,-1850.514855,-14211.954086,-76.609550
22436.415548,-1036.288319,-7772.162391,-6281.983084
22436.415882,-3923.091493,-15026.180623,-4826.401637
22436.416215,-2294.638420,-10807.006753,-6052.154434
22436.416549,-4589.276840,-12065.356855,-5745.716235
22436.416882,-1258.350101,-11547.212695,-383.047749
22436.417216,-1628.453072,-9844.739029,2451.505594
22436.417549,1702.473667,-9474.636058,4826.401637
22436.417883,1332.370696,1110.308913,3677.258390
22436.418216,0.000000,-9548.656652,3064.381992
22436.418550,8290.306550,-8290.306550,7277.907231
22436.418883,4811.338623,-8364.327145,4596.572988
22436.419217,5107.421000,-8882.471304,229.828649
22436.419550,0.000000,-9622.677246,76.609550
22436.419884,-2442.679609,-11843.295072,-7124.688131
22436.420217,-3849.070898,-13101.645173,-3677.258390
22436.420551,-1850.514855,-10658.965565,-2528.115143
22436.420884,-74.020594,-13027.624579,-2528.115143
22436.421218,-1258.350101,-7772.162391,766.095498
22436.421551,3182.885551,-7105.977043,4519.963438
22436.421885,592.164754,-5107.421000,6205.373534
22436.422218,2664.741391,-5699.585753,5745.716235
22436.422552,370.102971,-8216.285956,3600.648841
22436.422885,592.164754,-2442.679609,-1838.629195
22436.423219,-4737.318029,-9548.656652,612.876398
22436.423552,-1258.350101,-8290.306550,-6665.030833
22436.423886,-2072.576638,-12213.398043,-6741.640382
22436.424219,1110.308913,-15988.448347,-1302.362347
22436.424553,-2812.782580,-10732.986159,-6128.763984
22436.424886,-74.020594,-11103.089130,-383.047749
22436.425220,-2442.679609,-11177.109724,-1991.848295
22436.425553,2590.720797,-10066.800811,5362.668486
22436.425887,8660.409521,-6513.812290,11568.042020
22436.426220,8290.306550,-4441.235652,13406.671215
22436.426554,7031.956449,-3256.906145,5132.839837
22436.426887,-2368.659014,-8956.491898,306.438199
22436.427221,1184.329507,-8660.409521,612.876398
22436.427554,-2368.659014,-11917.315666,-1915.238745
22436.427888,-3775.050304,-12065.356855,-7201.297681
22436.428221,-7328.038826,-11695.253884,-5669.106685
22436.428555,-7105.977043,-11991.336260,-6281.983084
22436.428888,-4515.256246,-7920.203579,-2757.943793
22436.429222,-74.020594,-9474.636058,-383.047749
22436.429555,2664.741391,-10732.986159,0.000000
22436.429889,4145.153275,-11473.192101,10648.727422
22436.430222,5255.462188,-5847.626942,6205.373534
22436.430556,6513.812290,-5403.503377,8350.440928
22436.430889,7328.038826,-5255.462188,6741.640382
22436.431223,4589.276840,-7328.038826,995.924147
22436.431556,4367.215058,-9474.636058,689.485948
22436.431890,-2590.720797,-10732.986159,-5515.887586
22436.432223,-5699.585753,-15988.448347,-7584.345430
22436.432557,-2738.761985,-9030.512492,-5515.887586
22436.432890,-3701.029710,-15692.365970,-3140.991542
22436.433224,-1110.308913,-6513.812290,-459.657299
22436.433558,-2516.700203,-10362.883188,2068.457845
22436.433891,-148.041188,-7254.018232,6665.030833
22436.434225,2886.803174,-5033.400406,4979.620737
22436.434558,0.000000,-3627.009116,6511.811733
22436.434892,2960.823768,-4071.132681,1838.629195
22436.435225,0.000000,-7476.080014,1838.629195
22436.435559,3997.112087,-7698.141797,-2604.724693
22436.435892,-1110.308913,-15396.283594,-2604.724693
22436.436226,2220.617826,-10807.006753,-1072.533697
22436.436559,-1776.494261,-12509.480420,-4903.011187
22436.436893,1702.473667,-11843.295072,-3140.991542
22436.437226,-1554.432478,-10066.800811,-5515.887586
22436.437560,-4145.153275,-13101.645173,-1072.533697
22436.437893,4663.297435,-7698.141797,4826.401637
22436.438227,592.164754,-7105.977043,4826.401637
22436.438560,5033.400406,-5995.668130,6281.983084
22436.438894,2664.741391,-6883.915261,8044.002729
22436.439227,666.185348,-6587.832884,3524.039291
22436.439561,814.226536,-7105.977043,2374.896044
22436.439894,-2442.679609,-7920.203579,-4903.011187
22436.440228,-888.247130,-10584.944971,-5822.325785
22436.440561,-3256.906145,-15988.448347,-383.047749
22436.440895,-1924.535449,-8660.409521,-6128.763984
22436.441228,-2368.659014,-14804.118840,-76.609550
22436.441562,592.164754,-9548.656652,153.219100
22436.441895,3849.070898,-7772.162391,4136.915689
22436.442229,370.102971,-8290.306550,2681.334243
22436.442562,4071.132681,-8290.306550,1455.581446
22436.442896,0.000000,-5403.503377,6435.202183
22436.443229,4737.318029,-8216.285956,4213.525239
22436.443563,6439.791695,-5921.647536,2374.896044
22436.443896,-3256.906145,-9548.656652,-2451.505594
22436.444230,-2146.597232,-10362.883188,-4366.744339
22436.444563,-5773.606348,-10881.027347,-5975.544884
22436.444897,-2590.720797,-11843.295072,-4213.525239
22436.445230,-666.185348,-9030.512492,-1455.581446
22436.445564,-1850.514855,-8290.306550,842.705048
22436.445897,-740.205942,-8364.327145,1838.629195
22436.446231,-222.061783,-8142.265362,1915.238745
22436.446564,3478.967927,-8734.430116,3830.477490
22436.446898,2664.741391,-8956.491898,4290.134789
22436.447231,4663.297435,-8882.471304,1149.143247
22436.447565,0.000000,-5995.668130,2145.067394
22436.447898,-74.020594,-13619.789333,2374.896044
22436.448232,962.267725,-4589.276840,-3983.696590
22436.448565,-74.020594,-10066.800811,-6205.373534
22436.448899,0.000000,-13249.686362,-3064.381992
22436.449232,-4515.256246,-11769.274478,-4290.134789
22436.449566,-4811.338623,-12287.418637,-4443.353888
22436.449899,-1776.494261,-9696.697840,1838.629195
22436.450233,6735.874072,-5625.565159,5515.887586
22436.450566,7031.956449,-9474.636058,9422.974625
22436.450900,4737.318029,-2738.761985,6281.983084
22436.451233,0.000000,-7328.038826,3677.258390
22436.451567,-2072.576638,-9844.739029,306.438199
22436.451900,3997.112087,-9326.594869,1149.143247
22436.452234,-3330.926739,-11177.109724,-2911.162892
22436.452567,-1628.453072,-10140.821405,-5286.058936
22436.452901,-3330.926739,-10066.800811,-5286.058936
22436.453234,-7105.977043,-12213.398043,-5515.887586
22436.453568,-74.020594,-10658.965565,1149.143247
22436.453901,-2146.597232,-7476.080014,3064.381992
22436.454235,2368.659014,-5329.482782,3677.258390
22436.454568,3478.967927,-7105.977043,4826.401637
22436.454902,3256.906145,-8068.244768,2374.896044
22436.455235,3997.112087,-9622.677246,8120.612279
22436.455568,-370.102971,-5699.585753,0.000000
22436.455902,2368.659014,-10955.047942,2145.067394
22436.456235,-2664.741391,-11621.233289,-689.485948
22436.456568,0.000000,-7772.162391,-2451.505594
22436.456902,-3034.844362,-10732.986159,-3447.429741
22436.457235,2294.638420,-11103.089130,-76.609550
22436.457568,-1406.391290,-9548.656652,-3064.381992
22436.457902,-2368.659014,-7179.997637,4903.011187
22436.458235,-370.102971,-10066.800811,-76.609550
22436.458568,-2294.638420,-6291.750507,1378.971896
22436.458902,4367.215058,-4737.318029,-3753.867940
22436.459235,-2368.659014,-11029.068536,0.000000
22436.459568,4737.318029,-7031.956449,4826.401637
22436.459902,518.144159,-8808.450710,-2911.162892
22436.460235,-4145.153275,-10732.986159,1225.752797
22436.460568,0.000000,-6291.750507,-3983.696590
22436.460902,370.102971,-15470.304188,2451.505594
22436.461235,1628.453072,-6809.894666,-76.609550
22436.461569,-222.061783,-12657.521608,76.609550
22436.461902,-962.267725,-8586.388927,2681.334243
22436.462235,5107.421000,-5403.503377,2145.067394
22436.462569,4071.132681,-6365.771101,4213.525239
22436.462902,2368.659014,-7550.100608,1302.362347
22436.463235,1998.556043,-9474.636058,1455.581446
22436.463569,1628.453072,-11547.212695,-1608.800546
22436.463902,-74.020594,-16580.613101,0.000000
22436.464235,-4737.318029,-6587.832884,0.000000
22436.464569,-5995.668130,-11843.295072,-3753.867940
22436.464902,-1850.514855,-5921.647536,-2374.896044
22436.465235,-4737.318029,-9548.656652,-1685.410096
22436.465569,1776.494261,-6957.935855,3830.477490
22436.465902,888.247130,-5699.585753,3983.696590
22436.466235,4219.173869,-9326.594869,5592.497135
22436.466569,2294.638420,-7105.977043,4826.401637
22436.466902,1110.308913,-5995.668130,-1838.629195
22436.467235,2960.823768,-11843.295072,1149.143247
22436.467569,3182.885551,-11843.295072,-76.609550
22436.467902,592.164754,-12213.398043,766.095498
22436.468235,-74.020594,-8290.306550,-1608.800546
22436.468569,-4737.318029,-14878.139434,-3983.696590
22436.468902,-4737.318029,-11103.089130,-383.047749
22436.469235,-2886.803174,-4737.318029,-5592.497135
22436.469569,-8290.306550,-12509.480420,-5822.325785
22436.469902,-1258.350101,-5107.421000,4903.011187
22436.470236,4071.132681,-4145.153275,1762.019645
22436.470569,5921.647536,-5107.421000,10418.898773
22436.470902,3552.988522,-3034.844362,6128.763984
22436.471236,6661.853478,-10288.862594,3140.991542
22436.471569,1924.535449,-11029.068536,3600.648841
22436.471902,-1258.350101,-12953.603985,-8656.879127
22436.472236,-4589.276840,-16580.613101,-6281.983084
22436.472569,-3034.844362,-15100.201217,-6205.373534
22436.472902,-3552.988522,-10732.986159,-2145.067394
22436.473236,-2442.679609,-11843.295072,-1302.362347
22436.473569,-1184.329507,-6069.688724,919.314598
22436.473902,-592.164754,-8142.265362,5975.544884
22436.474236,5847.626942,-4737.318029,7814.174080
22436.474569,3923.091493,-7179.997637,9806.022374
22436.474902,3552.988522,-740.205942,7354.516781
22436.475236,2886.803174,-6513.812290,2604.724693
22436.475569,0.000000,-6587.832884,-2911.162892
22436.475902,1998.556043,-12435.459826,-6818.249932
22436.476236,-4145.153275,-14285.974681,-4903.011187
22436.476569,0.000000,-10732.986159,-4903.011187
22436.476902,-3034.844362,-18357.107362,-3753.867940
22436.477236,-1258.350101,-12435.459826,-4366.744339
22436.477569,-1850.514855,-10658.965565,-1608.800546
22436.477903,2072.576638,-8364.327145,4443.353888
22436.478236,8882.471304,-4589.276840,9729.412825
22436.478569,2960.823768,-3923.091493,9806.022374
22436.478903,5477.523971,-1776.494261,4213.525239
22436.479236,74.020594,-10658.965565,5439.278036
22436.479569,2738.761985,-3849.070898,1225.752797
22436.479903,2146.597232,-6365.771101,-4366.744339
22436.480236,-5181.441594,-15248.242405,-5745.716235
22436.480569,-222.061783,-9474.636058,-8656.879127
22436.480903,-7476.080014,-18949.272115,-7814.174080
22436.481236,0.000000,-11917.315666,-76.609550
22436.481569,2072.576638,-12435.459826,2681.334243
22436.481903,2294.638420,-9696.697840,3677.258390
22436.482236,5403.503377,-740.205942,3447.429741
22436.482569,2294.638420,-8882.471304,6894.859482
22436.482903,666.185348,-5921.647536,4060.306139
22436.483236,1776.494261,-5107.421000,3677.258390
22436.483569,4071.132681,-9474.636058,2221.676944
22436.483903,1184.329507,-7179.997637,0.000000
22436.484236,-1480.411884,-11843.295072,-1302.362347
22436.484569,-8660.409521,-14211.954086,-9882.631924
22436.484903,-4737.318029,-10140.821405,-6741.640382
22436.485236,-4219.173869,-14211.954086,-4060.306139
22436.485569,-1184.329507,-10584.944971,1685.410096
22436.485903,-3108.864956,-6513.812290,2451.505594
22436.486236,-1258.350101,-11251.130318,1762.019645
22436.486570,9400.615463,-4145.153275,3294.210641
22436.486903,4737.318029,-8068.244768,11338.213370
22436.487236,9400.615463,-8882.471304,8503.660028
22436.487570,2294.638420,-4811.338623,2451.505594
22436.487903,-3034.844362,-11843.295072,-5286.058936
22436.488236,888.247130,-12065.356855,-3447.429741
22436.488570,-2368.659014,-11843.295072,-3140.991542
22436.488903,148.041188,-12953.603985,-3217.601092
22436.489236,-4219.173869,-10658.965565,-1915.238745
22436.489570,-4737.318029,-7772.162391,-6128.763984
22436.489903,-3552.988522,-10140.821405,4826.401637
22436.490236,1110.308913,-3404.947333,2068.457845
22436.490570,3182.885551,-4219.173869,0.000000
22436.490903,3775.050304,-8290.306550,6052.154434
22436.491236,5181.441594,-3256.906145,1072.533697
22436.491570,1480.411884,-12139.377449,4366.744339
22436.491903,6439.791695,-4737.318029,-76.609550
22436.492236,4515.256246,-13397.727550,-1149.143247
22436.492570,2368.659014,-12287.418637,-2451.505594
22436.492903,0.000000,-12953.603985,-3983.696590
22436.493236,-2590.720797,-15692.365970,-4366.744339
22436.493570,0.000000,-10066.800811,1225.752797
22436.493903,-74.020594,-10658.965565,2374.896044
22436.494236,518.144159,-5995.668130,612.876398
22436.494570,1924.535449,-6587.832884,4903.011187
22436.494903,-1924.535449,-5477.523971,2374.896044
22436.495237,1332.370696,-5921.647536,4903.011187
22436.495570,2072.576638,-7105.977043,4213.525239
22436.495903,2368.659014,-5995.668130,2528.115143
22436.496237,814.226536,-8586.388927,-459.657299
22436.496570,-4959.379811,-13323.706956,-7431.126331
22436.496903,-2960.823768,-10140.821405,-6052.154434
22436.497237,-3627.009116,-15026.180623,-6128.763984
22436.497570,1776.494261,-9918.759623,-459.657299
22436.497903,-74.020594,-16284.530724,2374.896044
22436.498237,3478.967927,-4737.318029,2681.334243
22436.498570,1702.473667,-8882.471304,4826.401637
22436.498903,3404.947333,-6069.688724,6205.373534
22436.499237,3701.029710,-6513.812290,5132.839837
22436.499570,2146.597232,-8882.471304,5286.058936
22436.499903,4663.297435,-5921.647536,4826.401637
22436.500237,-3552.988522,-12361.439231,2451.505594
22436.500570,1110.308913,-7698.141797,-4060.306139
22436.500903,-6513.812290,-11917.315666,-5515.887586
22436.501237,-2368.659014,-9548.656652,-1225.752797
22436.501570,-4811.338623,-7105.977043,-4596.572988
22436.501903,-7254.018232,-13619.789333,-6358.592633
22436.502237,-1480.411884,-6883.915261,689.485948
22436.502570,814.226536,-10214.842000,2528.115143
22436.502904,9474.636058,-4811.338623,7584.345430
22436.503237,4737.318029,-8290.306550,6052.154434
22436.503570,4663.297435,-10658.965565,1149.143247
22436.503904,592.164754,-7476.080014,7048.078582
22436.504237,6143.709319,-11251.130318,2374.896044
22436.504570,592.164754,-11325.150913,1225.752797
22436.504904,-2960.823768,-9992.780217,-4443.353888
22436.505237,-2220.617826,-10140.821405,-5439.278036
22436.505570,-5847.626942,-11029.068536,-3064.381992
22436.505904,-1776.494261,-9548.656652,-1225.752797
22436.506237,-1850.514855,-11843.295072,-76.609550
22436.506570,-740.205942,-6291.750507,1838.629195
22436.506904,0.000000,-4811.338623,4290.134789
22436.507237,4663.297435,-9474.636058,6052.154434
22436.507570,2368.659014,-8068.244768,7354.516781
22436.507904,2960.823768,-3849.070898,2145.067394
22436.508237,1850.514855,-11547.212695,-1149.143247
22436.508570,1998.556043,-11177.109724,-1149.143247
22436.508904,-2368.659014,-14285.974681,-4290.134789
22436.509237,888.247130,-12287.418637,-2374.896044
22436.509570,-2146.597232,-11991.336260,-3294.210641
22436.509904,-1332.370696,-10658.965565,-3294.210641
22436.510237,1110.308913,-8882.471304,2681.334243
22436.510570,0.000000,-8364.327145,4903.011187
22436.510904,3775.050304,-5773.606348,7277.907231
22436.511237,-74.020594,-7105.977043,2681.334243
22436.511571,4737.318029,-4219.173869,5822.325785
22436.511904,2294.638420,-8882.471304,6971.469032
22436.512237,3849.070898,-5551.544565,536.266849
22436.512571,-2442.679609,-12435.459826,-2604.724693
22436.512904,-2368.659014,-9622.677246,-7048.078582
22436.513237,-3849.070898,-13101.645173,-6741.640382
22436.513571,-7105.977043,-9548.656652,-3677.258390
22436.513904,-666.185348,-10658.965565,-5898.935335
22436.514237,-1258.350101,-12435.459826,-1302.362347
22436.514571,2368.659014,-7179.997637,2451.505594
22436.514904,2960.823768,-7772.162391,2911.162892
22436.515237,4293.194464,-9326.594869,8733.488677
22436.515571,6143.709319,-5477.523971,5286.058936
22436.515904,5477.523971,-8882.471304,7584.345430
22436.516237,3478.967927,-7105.977043,3600.648841
22436.516571,-1480.411884,-8364.327145,-153.219100
22436.516904,-6291.750507,-12435.459826,-7277.907231
22436.517237,-4145.153275,-9548.656652,-4443.353888
22436.517571,-4737.318029,-12213.398043,-689.485948
22436.517904,-1332.370696,-7402.059420,-1225.752797
22436.518237,1850.514855,-8290.306550,536.266849
22436.518571,888.247130,-7179.997637,2298.286494
22436.518904,4367.215058,-8290.306550,4826.401637
22436.519237,-1702.473667,-8142.265362,-229.828649
22436.519571,5181.441594,-10658.965565,-76.609550
22436.519904,-2368.659014,-14878.139434,0.000000
22436.520238,3552.988522,-9548.656652,1762.019645
22436.520571,-2442.679609,-13027.624579,-2068.457845
22436.520904,-962.267725,-7031.956449,-1915.238745
22436.521238,-2368.659014,-9252.574275,-1072.533697
22436.521571,0.000000,-7846.182985,2374.896044
22436.521904,1702.473667,-5921.647536,995.924147
22436.522238,-2960.823768,-10140.821405,3064.381992
22436.522571,2886.803174,-4145.153275,0.000000
22436.522904,592.164754,-8882.471304,4213.525239
22436.523238,5847.626942,-9474.636058,3600.648841
22436.523571,1480.411884,-7179.997637,1225.752797
22436.523904,0.000000,-12731.542202,766.095498
22436.524238,-1850.514855,-7179.997637,-4290.134789
22436.524571,-2294.638420,-13027.624579,-7584.345430
22436.524904,-3034.844362,-11251.130318,-4596.572988
22436.525238,-3552.988522,-13101.645173,-1838.629195
22436.525571,-666.185348,-8956.491898,919.314598
22436.525904,-74.020594,-7328.038826,2604.724693
22436.526238,148.041188,-6661.853478,2604.724693
22436.526571,4959.379811,-962.267725,6971.469032
22436.526904,3552.988522,-4811.338623,6128.763984
22436.527238,7031.956449,-8290.306550,6052.154434
22436.527571,0.000000,-5995.668130,0.000000
22436.527904,962.267725,-11843.295072,-2528.115143
22436.528238,-5107.421000,-14211.954086,-5592.497135
22436.528571,-1776.494261,-10732.986159,-5362.668486
22436.528905,-1258.350101,-13767.830521,-3907.087040
22436.529238,-148.041188,-9918.759623,-1915.238745
22436.529571,-2146.597232,-11621.233289,-459.657299
22436.529905,-2442.679609,-11251.130318,2374.896044
22436.530238,1702.473667,-3108.864956,383.047749
22436.530571,1184.329507,-7476.080014,6128.763984
22436.530905,7624.121203,-5773.606348,9729.412825
22436.531238,1628.453072,-3923.091493,2451.505594
22436.531571,2220.617826,-13027.624579,1762.019645
22436.531905,2960.823768,-6439.791695,1608.800546
22436.532238,2294.638420,-10658.965565,-1455.581446
22436.532571,-740.205942,-15100.201217,-1302.362347
22436.532905,-3923.091493,-10066.800811,-8350.440928
22436.533238,-4811.338623,-15470.304188,-11644.651570
22436.533571,-2072.576638,-10732.986159,2145.067394
22436.533905,3478.967927,-9474.636058,3600.648841
22436.534238,-962.267725,-6291.750507,3753.867940
22436.534571,5255.462188,-2072.576638,5286.058936
22436.534905,814.226536,-6365.771101,4826.401637
22436.535238,3404.947333,-5033.400406,5362.668486
22436.535571,1036.288319,-5107.421000,612.876398
22436.535905,3701.029710,-7772.162391,1532.190996
22436.536238,1332.370696,-12213.398043,2451.505594
22436.536572,3478.967927,-11843.295072,-3753.867940
22436.536905,-7994.224174,-14878.139434,-12870.404366
22436.537238,-3997.112087,-14285.974681,-2604.724693
22436.537572,-74.020594,-9474.636058,-2834.553343
22436.537905,296.082377,-11991.336260,5209.449386
22436.538238,0.000000,-5551.544565,5132.839837
22436.538572,-4885.359217,-7031.956449,1532.190996
22436.538905,2960.823768,-4811.338623,6435.202183
22436.539238,6217.729913,-518.144159,6818.249932
22436.539572,1036.288319,-8142.265362,4903.011187
22436.539905,74.020594,-3108.864956,-1225.752797
22436.540238,-3627.009116,-13619.789333,-3753.867940
22436.540572,-3404.947333,-13619.789333,-4826.401637
22436.540905,-2368.659014,-9548.656652,-1225.752797
22436.541238,-1258.350101,-14211.954086,-3140.991542
22436.541572,1110.308913,-12435.459826,-2987.772442
22436.541905,-74.020594,-10658.965565,-995.924147
22436.542238,-74.020594,-14211.954086,1149.143247
22436.542572,3849.070898,-5921.647536,6052.154434
22436.542905,-666.185348,-9326.594869,1685.410096
22436.543238,5625.565159,-3997.112087,5669.106685
22436.543572,2294.638420,-7402.059420,4826.401637
22436.543905,0.000000,-7772.162391,5975.544884
22436.544238,2294.638420,-7105.977043,1762.019645
22436.544572,0.000000,-8290.306550,-1838.629195
22436.544905,0.000000,-9548.656652,-919.314598
22436.545239,-2738.761985,-9104.533087,-1991.848295
22436.545572,-3775.050304,-10732.986159,-2834.553343
22436.545905,-2442.679609,-7698.141797,-6205.373534
22436.546239,444.123565,-12879.583391,-383.047749
22436.546572,-370.102971,-7105.977043,536.266849
22436.546905,4515.256246,-8882.471304,3600.648841
22436.547239,2294.638420,-7031.956449,-1838.629195
22436.547572,2960.823768,-12509.480420,4826.401637
22436.547905,5699.585753,-8882.471304,6128.763984
22436.548239,1184.329507,-10140.821405,1838.629195
22436.548572,-1110.308913,-11917.315666,-2145.067394
22436.548905,-1406.391290,-9252.574275,689.485948
22436.549239,2220.617826,-6883.915261,2145.067394
22436.549572,3552.988522,-4219.173869,2451.505594
22436.549905,-1258.350101,-10658.965565,-2221.676944
22436.550239,-370.102971,-5921.647536,-3753.867940
22436.550572,-5921.647536,-10732.986159,0.000000
22436.550905,-74.020594,-10658.965565,-2834.553343
22436.551239,-1184.329507,-11399.171507,2221.676944
22436.551572,-2368.659014,-9844.739029,-1685.410096
22436.551905,1850.514855,-8068.244768,1838.629195
22436.552239,814.226536,-8216.285956,842.705048
22436.552572,8216.285956,-10658.965565,2374.896044
22436.552905,-1258.350101,-11251.130318,-3677.258390
22436.553239,1184.329507,-11325.150913,1302.362347
22436.553572,3849.070898,-12065.356855,4826.401637
22436.553906,-666.185348,-10658.965565,0.000000
22436.554239,888.247130,-5625.565159,-689.485948
22436.554572,-3552.988522,-10584.944971,-536.266849
22436.554906,3552.988522,-6439.791695,3140.991542
22436.555238,444.123565,-8216.285956,4366.744339
22436.555571,3478.967927,-9474.636058,4213.525239
22436.555905,-2220.617826,-9474.636058,3294.210641
22436.556238,1480.411884,-4145.153275,-995.924147
22436.556571,1036.288319,-11547.212695,-76.609550
22436.556904,0.000000,-8068.244768,-1838.629195
22436.557237,-4145.153275,-10732.986159,-4979.620737
22436.557570,-4219.173869,-11251.130318,-5132.839837
22436.557904,-2590.720797,-10140.821405,-6128.763984
22436.558237,-1184.329507,-10436.903782,1991.848295
22436.558570,2294.638420,-7179.997637,2145.067394
22436.558903,7031.956449,-5921.647536,2374.896044
22436.559236,740.205942,-11029.068536,6741.640382
22436.559569,5773.606348,-5921.647536,6741.640382
22436.559903,4515.256246,-8290.306550,7277.907231
22436.560236,1110.308913,-11251.130318,4826.401637
22436.560569,0.000000,-7179.997637,0.000000
22436.560902,-666.185348,-10066.800811,-76.609550
22436.561235,-2442.679609,-9474.636058,-8044.002729
22436.561569,-5329.482782,-12805.562797,-6741.640382
22436.561902,-3701.029710,-9992.780217,-5592.497135
22436.562235,-2294.638420,-10362.883188,-3524.039291
22436.562568,-2738.761985,-9918.759623,1149.143247
22436.562901,-962.267725,-5921.647536,536.266849
22436.563234,1036.288319,-10362.883188,3600.648841
22436.563568,4737.318029,-3627.009116,6741.640382
22436.563901,5847.626942,-12435.459826,4826.401637
22436.564234,5921.647536,-6291.750507,2451.505594
22436.564567,2886.803174,-11843.295072,3600.648841
22436.564900,-2664.741391,-12361.439231,-5515.887586
22436.565234,1702.473667,-11621.233289,-612.876398
22436.565567,-1924.535449,-10436.903782,-2068.457845
22436.565900,592.164754,-6587.832884,-1685.410096
22436.566233,-3627.009116,-9474.636058,-2681.334243
22436.566566,-1184.329507,-10584.944971,0.000000
22436.566899,-1036.288319,-7105.977043,6665.030833
22436.567233,3849.070898,-1850.514855,919.314598
22436.567566,-4145.153275,-9548.656652,-1838.629195
22436.567899,2368.659014,-4219.173869,919.314598
22436.568232,-2294.638420,-14359.995275,-536.266849
22436.568565,3775.050304,-9030.512492,766.095498
22436.568898,-666.185348,-13471.748144,-76.609550
22436.569232,-1776.494261,-4811.338623,-2451.505594
22436.569565,4663.297435,-10658.965565,-76.609550
22436.569898,2294.638420,-11843.295072,-689.485948
22436.570231,592.164754,-9548.656652,0.000000
22436.570564,0.000000,-8364.327145,4903.011187
22436.570898,3627.009116,-9326.594869,2911.162892
22436.571231,1776.494261,-6587.832884,4903.011187
22436.571564,2886.803174,-6735.874072,1915.238745
22436.571897,-3478.967927,-9474.636058,-2528.115143
22436.572230,-1480.411884,-8364.327145,306.438199
22436.572563,-4885.359217,-10288.862594,-3907.087040
22436.572897,-3701.029710,-10584.944971,-1608.800546
22436.573230,-4811.338623,-7105.977043,-4903.011187
22436.573563,-4811.338623,-14211.954086,-76.609550
22436.573896,0.000000,-3923.091493,3370.820191
22436.574229,3330.926739,-9474.636058,3600.648841
22436.574563,4663.297435,-4811.338623,0.000000
22436.574896,2368.659014,-10658.965565,2987.772442
22436.575229,2220.617826,-13323.706956,2834.553343
22436.575562,4441.235652,-7550.100608,766.095498
22436.575895,3108.864956,-14582.057057,1149.143247
22436.576228,2812.782580,-9326.594869,842.705048
22436.576562,2294.638420,-9548.656652,689.485948
22436.576895,-3256.906145,-12509.480420,-1532.190996
22436.577228,1110.308913,-7994.224174,-1302.362347
22436.577561,-4811.338623,-7179.997637,-1838.629195
22436.577894,0.000000,-3923.091493,2221.676944
22436.578227,-370.102971,-6217.729913,-2374.896044
22436.578561,-2368.659014,-7772.162391,1302.362347
22436.578894,0.000000,-2886.803174,0.000000
22436.579227,444.123565,-10510.924376,1149.143247
22436.579560,2960.823768,-7476.080014,612.876398
22436.579893,0.000000,-9548.656652,2757.943793
22436.580227,4663.297435,-11843.295072,229.828649
22436.580560,0.000000,-9548.656652,-4903.011187
22436.580893,1628.453072,-12509.480420,-1225.752797
22436.581226,888.247130,-10436.903782,-2451.505594
22436.581559,3404.947333,-11473.192101,842.705048
22436.581892,-1184.329507,-9548.656652,2757.943793
22436.582226,-1332.370696,-7698.141797,1072.533697
22436.582559,-1850.514855,-7994.224174,2987.772442
22436.582892,-1184.329507,-5477.523971,4826.401637
22436.583225,2294.638420,-2590.720797,2451.505594
22436.583558,296.082377,-5181.441594,4826.401637
22436.583892,-1776.494261,-8290.306550,-383.047749
22436.584225,1184.329507,-7179.997637,2528.115143
22436.584558,740.205942,-11621.233289,-1225.752797
22436.584891,3182.885551,-10955.047942,-1532.190996
22436.585224,-3552.988522,-12879.583391,-4519.963438
22436.585557,-2960.823768,-13693.809927,-7967.393179
22436.585891,-2442.679609,-11843.295072,-4366.744339
22436.586224,-2368.659014,-8956.491898,-4903.011187
22436.586557,296.082377,-14804.118840,2374.896044
22436.586890,2294.638420,-4811.338623,3983.696590
22436.587223,3256.906145,-8956.491898,9729.412825
22436.587557,1776.494261,-2294.638420,7354.516781
22436.587890,1036.288319,-6217.729913,1378.971896
22436.588223,1332.370696,-9178.553681,3600.648841
22436.588556,1480.411884,-4811.338623,1225.752797
22436.588889,-2738.761985,-11917.315666,-1991.848295
22436.589222,-3330.926739,-11399.171507,-4213.525239
22436.589556,-3849.070898,-13323.706956,-4903.011187
22436.589889,-2442.679609,-9474.636058,-2604.724693
22436.590222,-1110.308913,-8290.306550,-2528.115143
22436.590555,-1258.350101,-15248.242405,-76.609550
22436.590888,-1258.350101,-6587.832884,-1685.410096
22436.591221,-740.205942,-8290.306550,4903.011187
22436.591555,4811.338623,-5329.482782,5515.887586
22436.591888,2960.823768,-5403.503377,7354.516781
22436.592221,4663.297435,-7105.977043,7660.954980
22436.592554,4071.132681,-6513.812290,383.047749
22436.592887,3182.885551,-12139.377449,766.095498
22436.593221,1776.494261,-9252.574275,0.000000
22436.593554,-74.020594,-12139.377449,-5515.887586
22436.593887,-814.226536,-9548.656652,-3370.820191
22436.594220,-3627.009116,-14804.118840,-6205.373534
22436.594553,-74.020594,-9178.553681,-3294.210641
22436.594886,-518.144159,-10066.800811,-76.609550
22436.595220,888.247130,-8512.368333,1532.190996
22436.595553,962.267725,-7550.100608,4136.915689
22436.595886,222.061783,-6513.812290,4213.525239
22436.596219,4663.297435,-8882.471304,4519.963438
22436.596552,4663.297435,-3627.009116,2451.505594
22436.596886,2664.741391,-10658.965565,2451.505594
22436.597219,4663.297435,-7105.977043,-3753.867940
22436.597552,-4737.318029,-11917.315666,-6128.763984
22436.597885,-74.020594,-14804.118840,-7124.688131
22436.598218,-4441.235652,-16210.510130,1915.238745
22436.598551,0.000000,-5107.421000,-3447.429741
22436.598885,-518.144159,-16580.613101,1149.143247
22436.599218,1998.556043,-2368.659014,5439.278036
22436.599551,0.000000,-5995.668130,3677.258390
22436.599884,4515.256246,-7105.977043,6358.592633
22436.600217,4959.379811,-5181.441594,1685.410096
22436.600550,-3552.988522,-9548.656652,1225.752797
22436.600884,3478.967927,-6513.812290,-76.609550
22436.601217,-6217.729913,-10732.986159,-6741.640382
22436.601550,-1036.288319,-12953.603985,-3907.087040
22436.601883,-4145.153275,-12509.480420,-1149.143247
22436.602216,-2738.761985,-10066.800811,-4366.744339
22436.602550,-5107.421000,-9844.739029,-995.924147
22436.602883,-962.267725,-6513.812290,2757.943793
22436.603216,2886.803174,-5403.503377,2451.505594
22436.603549,4441.235652,-9326.594869,7584.345430
22436.603882,3478.967927,-13027.624579,1762.019645
22436.604215,888.247130,-7179.997637,7354.516781
22436.604549,4737.318029,-8660.409521,5898.935335
22436.604882,3182.885551,-8142.265362,0.000000
22436.605215,296.082377,-8068.244768,0.000000
22436.605548,-1924.535449,-8734.430116,-6128.763984
22436.605881,-2368.659014,-12213.398043,-2834.553343
22436.606215,-5107.421000,-13101.645173,-4290.134789
22436.606548,-3034.844362,-8882.471304,-3753.867940
22436.606881,-5625.565159,-11251.130318,-1302.362347
22436.607214,0.000000,-4219.173869,3983.696590
22436.607547,1480.411884,-7105.977043,7660.954980
22436.607880,6735.874072,-5773.606348,6358.592633
22436.608214,5551.544565,-5921.647536,2374.896044
22436.608547,3775.050304,-13027.624579,2068.457845
22436.608880,5995.668130,-9474.636058,6588.421283
22436.609213,518.144159,-11325.150913,-2451.505594
22436.609546,-4737.318029,-13101.645173,-4136.915689
22436.609880,-2442.679609,-9178.553681,-10035.851024
22436.610213,-1184.329507,-14878.139434,-2528.115143
22436.610546,-74.020594,-9474.636058,-689.485948
22436.610879,-1850.514855,-11843.295072,-1302.362347
22436.611212,-2960.823768,-4811.338623,0.000000
22436.611545,666.185348,-8290.306550,4519.963438
22436.611879,2812.782580,-8660.409521,4979.620737
22436.612212,6661.853478,-4145.153275,8427.050478
22436.612545,962.267725,-9474.636058,4826.401637
22436.612878,2294.638420,-3923.091493,-1838.629195
22436.613211,1702.473667,-12435.459826,3600.648841
22436.613544,1702.473667,-8882.471304,-2528.115143
22436.613878,4737.318029,-5403.503377,-1608.800546
22436.614211,-3256.906145,-17616.901420,-1608.800546
22436.614544,0.000000,-11029.068536,-5898.935335
22436.614877,-2146.597232,-12213.398043,-4749.792088
22436.615210,148.041188,-15544.324782,3447.429741
22436.615544,4367.215058,-4441.235652,3447.429741
22436.615877,592.164754,-8660.409521,8733.488677
22436.616210,3330.926739,-4219.173869,3677.258390
22436.616543,-888.247130,-5107.421000,6128.763984
22436.616876,-74.020594,-7994.224174,1762.019645
22436.617209,-74.020594,-8290.306550,-153.219100
22436.617543,-518.144159,-9104.533087,-229.828649
22436.617876,-2368.659014,-9474.636058,-1915.238745
22436.618209,-1406.391290,-8290.306550,-2298.286494
22436.618542,-5847.626942,-11769.274478,-6358.592633
22436.618875,-592.164754,-13471.748144,-995.924147
22436.619209,-666.185348,-9400.615463,536.266849
22436.619542,5255.462188,-8438.347739,689.485948
22436.619875,2590.720797,-14730.098246,7124.688131
22436.620208,4071.132681,-2960.823768,4519.963438
22436.620541,4737.318029,-9844.739029,3600.648841
22436.620874,3478.967927,-10658.965565,7277.907231
22436.621208,-3330.926739,-8364.327145,-3677.258390
22436.621541,-3256.906145,-10658.965565,-842.705048
22436.621874,-4811.338623,-11843.295072,-3753.867940
22436.622207,-4811.338623,-11769.274478,-3753.867940
22436.622540,-1036.288319,-4367.215058,2145.067394
22436.622873,-2442.679609,-7179.997637,-1225.752797
22436.623207,2960.823768,-2442.679609,2451.505594
22436.623540,-3552.988522,-10732.986159,5592.497135
22436.623873,3478.967927,-6809.894666,-76.609550
22436.624206,518.144159,-5995.668130,0.000000
22436.624539,2664.741391,-11917.315666,-536.266849
22436.624873,7031.956449,-8068.244768,2451.505594
22436.625206,222.061783,-9474.636058,-3217.601092
22436.625539,888.247130,-12287.418637,-3294.210641
22436.625872,-5995.668130,-14137.933492,-4519.963438
22436.626205,4071.132681,-9474.636058,-2757.943793
22436.626538,-1258.350101,-16580.613101,9729.412825
22436.626872,3182.885551,-3627.009116,4903.011187
22436.627205,1480.411884,-3330.926739,8580.269578
22436.627538,2960.823768,-7994.224174,8197.221829
22436.627871,4737.318029,-2146.597232,4290.134789
22436.628204,-74.020594,-8438.347739,919.314598
22436.628538,1776.494261,-10807.006753,-2757.943793
22436.628871,-4663.297435,-14137.933492,-3524.039291
22436.629204,-3330.926739,-13323.706956,-5898.935335
22436.629537,-1850.514855,-10658.965565,-7431.126331
22436.629870,-4145.153275,-11917.315666,-4596.572988
22436.630203,1776.494261,-9030.512492,1149.143247
22436.630537,1702.473667,-11843.295072,3294.210641
22436.630870,2294.638420,-4737.318029,3294.210641
22436.631203,-814.226536,-10510.924376,6358.592633
22436.631536,5403.503377,-1850.514855,6511.811733
22436.631869,4959.379811,-11769.274478,7660.954980
22436.632203,6809.894666,-5403.503377,4290.134789
22436.632536,518.144159,-11325.150913,1838.629195
22436.632869,-3256.906145,-7994.224174,-4979.620737
22436.633202,-74.020594,-13027.624579,-7124.688131
22436.633535,-7550.100608,-15766.386565,-6741.640382
22436.633868,2738.761985,-9326.594869,-689.485948
22436.634202,-7698.141797,-12509.480420,-1608.800546
22436.634535,-1480.411884,-7402.059420,-1149.143247
22436.634868,-6661.853478,-8438.347739,1991.848295
22436.635201,2960.823768,-4515.256246,6741.640382
22436.635534,7179.997637,-1554.432478,9346.365076
22436.635867,222.061783,-8364.327145,2911.162892
22436.636201,1998.556043,-9326.594869,-995.924147
22436.636534,-1406.391290,-10881.027347,-2145.067394
22436.636867,1776.494261,-10732.986159,-4596.572988
22436.637200,1702.473667,-16580.613101,-76.609550
22436.637533,-2368.659014,-11917.315666,-3677.258390
22436.637867,-74.020594,-11843.295072,-76.609550
22436.638200,1702.473667,-11843.295072,3294.210641
22436.638533,2516.700203,-4811.338623,2681.334243
22436.638866,-74.020594,-9548.656652,5439.278036
22436.639199,-1850.514855,-2590.720797,536.266849
22436.639532,-1628.453072,-7402.059420,1225.752797
22436.639866,2294.638420,-8882.471304,3907.087040
22436.640199,-1184.329507,-5107.421000,0.000000
22436.640532,592.164754,-9548.656652,3294.210641
22436.640865,2886.803174,-8882.471304,-2221.676944
22436.641198,-4367.215058,-8364.327145,-7354.516781
22436.641532,-74.020594,-13915.871710,-3753.867940
22436.641865,-1702.473667,-11029.068536,-2911.162892
22436.642198,592.164754,-13027.624579,-536.266849
22436.642531,2294.638420,-13323.706956,4979.620737
22436.642864,2294.638420,-5181.441594,2834.553343
22436.643197,0.000000,-9844.739029,4903.011187
22436.643531,5847.626942,-1776.494261,4826.401637
22436.643864,4663.297435,-7994.224174,766.095498
22436.644197,3552.988522,-9252.574275,5056.230287
22436.644530,1702.473667,-8438.347739,-1991.848295
22436.644863,-1406.391290,-11251.130318,-2987.772442
22436.645196,740.205942,-9770.718434,-1532.190996
22436.645530,1628.453072,-10510.924376,-1302.362347
22436.645863,0.000000,-7772.162391,-3677.258390
22436.646196,-3552.988522,-9548.656652,-76.609550
22436.646529,-2442.679609,-7698.141797,-5286.058936
22436.646862,-5921.647536,-10732.986159,-4903.011187
22436.647196,-592.164754,-10066.800811,4749.792088
22436.647529,-1258.350101,-9548.656652,1225.752797
22436.647862,3182.885551,-6513.812290,6052.154434
22436.648195,666.185348,-5995.668130,3677.258390
22436.648528,4071.132681,-8290.306550,2987.772442
22436.648861,3849.070898,-7476.080014,2451.505594
22436.649195,3330.926739,-10881.027347,4749.792088
22436.649528,4219.173869,-7105.977043,1072.533697
22436.649861,-2960.823768,-8734.430116,-1685.410096
22436.650194,-5403.503377,-16284.530724,-5592.497135
22436.650527,-2442.679609,-9918.759623,-6128.763984
22436.650861,-6513.812290,-12509.480420,-2911.162892
22436.651194,-74.020594,-10658.965565,-689.485948
22436.651527,-2738.761985,-3627.009116,0.000000
22436.651860,-1850.514855,-9474.636058,-76.609550
22436.652193,1554.432478,-6291.750507,3064.381992
22436.652526,962.267725,-9844.739029,3524.039291
22436.652860,5181.441594,-7698.141797,7354.516781
22436.653193,0.000000,-3923.091493,1532.190996
22436.653526,5107.421000,-10732.986159,-4903.011187
22436.653859,666.185348,-16580.613101,2987.772442
22436.654192,4367.215058,-3775.050304,-1685.410096
22436.654526,1628.453072,-10140.821405,-3677.258390
22436.654859,-3552.988522,-11547.212695,-2987.772442
22436.655192,-5329.482782,-11917.315666,-6281.983084
22436.655525,-5107.421000,-13027.624579,-919.314598
22436.655858,1184.329507,-6809.894666,1455.581446
22436.656191,2368.659014,-7476.080014,6128.763984
22436.656524,4367.215058,-3034.844362,5515.887586
22436.656857,8808.450710,-3552.988522,6665.030833
22436.657190,-1258.350101,-8438.347739,919.314598
22436.657523,3552.988522,-7179.997637,612.876398
22436.657856,-1184.329507,-10658.965565,-612.876398
22436.658189,1258.350101,-12287.418637,-2528.115143
22436.658522,-888.247130,-11547.212695,-2604.724693
22436.658855,-7105.977043,-10436.903782,-7354.516781
22436.659188,1110.308913,-10362.883188,-5592.497135
22436.659521,0.000000,-10732.986159,1225.752797
22436.659854,2368.659014,-13397.727550,6128.763984
22436.660187,4663.297435,-6513.812290,6818.249932
22436.660520,2960.823768,-7179.997637,1225.752797
22436.660853,7031.956449,-5625.565159,7890.783629
22436.661186,5255.462188,-5921.647536,5286.058936
22436.661519,4441.235652,-7846.182985,3140.991542
22436.661852,-5921.647536,-10140.821405,-3447.429741
22436.662185,-7846.182985,-11695.253884,-12257.527968
22436.662518,-3627.009116,-14211.954086,-3753.867940
22436.662851,-6957.935855,-9548.656652,-4290.134789
22436.663184,-1628.453072,-11547.212695,-1225.752797
22436.663517,-1258.350101,-10658.965565,-76.609550
22436.663850,2294.638420,-6217.729913,3140.991542
22436.664183,7328.038826,-7698.141797,5439.278036
22436.664516,5625.565159,-10066.800811,12487.356617
22436.664849,4589.276840,-4811.338623,5515.887586
22436.665182,3108.864956,-8142.265362,4060.306139
22436.665515,2886.803174,-9474.636058,-2528.115143
22436.665848,-2738.761985,-13249.686362,-4979.620737
22436.666181,-3849.070898,-11399.171507,-3140.991542
22436.666514,-5107.421000,-10140.821405,-7814.174080
22436.666847,-5329.482782,-11917.315666,-3677.258390
22436.667180,-2442.679609,-8882.471304,-689.485948
22436.667513,-1258.350101,-7105.977043,536.266849
22436.667846,0.000000,-4811.338623,5669.106685
22436.668179,4219.173869,-8290.306550,8503.660028
22436.668512,4663.297435,-5403.503377,5209.449386
22436.668845,5181.441594,-4293.194464,5669.106685
22436.669178,296.082377,-11547.212695,1072.533697
22436.669511,2294.638420,-7772.162391,-3677.258390
22436.669844,-3552.988522,-12213.398043,-4979.620737
22436.670177,-1554.432478,-14211.954086,-7431.126331
22436.670510,-3552.988522,-10732.986159,-4290.134789
22436.670843,-5625.565159,-13101.645173,-3370.820191
22436.671176,2294.638420,-10955.047942,-995.924147
22436.671509,0.000000,-8364.327145,9193.145976
22436.671842,7994.224174,-1406.391290,8656.879127
22436.672175,5403.503377,-5847.626942,9499.584175
22436.672508,2664.741391,-7846.182985,6971.469032
22436.672841,2294.638420,-5921.647536,995.924147
22436.673174,1406.391290,-9178.553681,-76.609550
22436.673507,0.000000,-8660.409521,-612.876398
22436.673840,-3627.009116,-13027.624579,-4979.620737
22436.674173,-5403.503377,-10732.986159,-9806.022374
22436.674506,-3330.926739,-14063.912898,-6205.373534
22436.674839,-3775.050304,-12509.480420,-5745.716235
22436.675172,962.267725,-7920.203579,919.314598
22436.675505,888.247130,-8660.409521,3370.820191
22436.675838,5329.482782,-1850.514855,3370.820191
22436.676171,3775.050304,-11325.150913,7354.516781
22436.676504,3552.988522,-8364.327145,7890.783629
22436.676837,6439.791695,-8586.388927,3600.648841
22436.677170,1776.494261,-7179.997637,0.000000
22436.677503,1480.411884,-8956.491898,-3294.210641
22436.677836,-1258.350101,-9474.636058,-3447.429741
22436.678169,-3108.864956,-13027.624579,-5822.325785
22436.678502,-2664.741391,-11695.253884,-3064.381992
22436.678835,1702.473667,-9474.636058,-76.609550
22436.679168,-4737.318029,-9548.656652,919.314598
22436.679501,-74.020594,-8290.306550,1149.143247
22436.679834,-74.020594,-6809.894666,0.000000
22436.680167,2368.659014,-8660.409521,3983.696590
22436.680500,5329.482782,-4367.215058,3140.991542
22436.680833,-888.247130,-11177.109724,1762.019645
22436.681166,1480.411884,-6883.915261,-919.314598
22436.681499,-1184.329507,-13249.686362,0.000000
22436.681832,2294.638420,-10658.965565,-1302.362347
22436.682165,-1480.411884,-10436.903782,-612.876398
22436.682498,-2738.761985,-9030.512492,1225.752797
22436.682831,-666.185348,-7105.977043,612.876398
22436.683164,-740.205942,-8808.450710,4979.620737
22436.683497,3775.050304,-8142.265362,4596.572988
22436.683830,2368.659014,-1258.350101,0.000000
22436.684163,592.164754,-11029.068536,4826.401637
22436.684496,962.267725,-7179.997637,-2757.943793
22436.684829,-1776.494261,-9992.780217,-2451.505594
22436.685162,-5329.482782,-14878.139434,-4290.134789
22436.685495,-2442.679609,-8586.388927,-6971.469032
22436.685828,-7105.977043,-16580.613101,-4366.744339
22436.686161,1110.308913,-5847.626942,1225.752797
22436.686494,-666.185348,-6365.771101,-689.485948
22436.686827,0.000000,-9844.739029,4596.572988
22436.687160,5847.626942,-7105.977043,4826.401637
22436.687493,888.247130,-8364.327145,3677.258390
22436.687826,8290.306550,-5107.421000,9346.365076
22436.688159,-74.020594,-9326.594869,0.000000
22436.688492,3627.009116,-10807.006753,229.828649
22436.688825,-666.185348,-11917.315666,-1762.019645
22436.689158,2960.823768,-7698.141797,-4366.744339
22436.689491,-1184.329507,-8660.409521,-3064.381992
22436.689824,-2368.659014,-13989.892304,-383.047749
22436.690157,-2442.679609,-10510.924376,-2528.115143
22436.690490,-3034.844362,-4811.338623,-3370.820191
22436.690823,-1554.432478,-9474.636058,-76.609550
22436.691156,-4737.318029,-9548.656652,1838.629195
22436.691489,1850.514855,-7105.977043,3677.258390
22436.691822,3330.926739,-2146.597232,3907.087040
22436.692155,5551.544565,-7550.100608,6435.202183
22436.692488,4145.153275,-7179.997637,5056.230287
22436.692821,5847.626942,-14211.954086,2374.896044
22436.693154,2590.720797,-10732.986159,-3064.381992
22436.693487,3849.070898,-13397.727550,-3677.258390
22436.693820,1702.473667,-16580.613101,-76.609550
22436.694153,0.000000,-5995.668130,-3524.039291
22436.694486,-444.123565,-11843.295072,-2528.115143
22436.694819,1406.391290,-8734.430116,1225.752797
22436.695152,-666.185348,-5477.523971,-842.705048
22436.695485,-2442.679609,-10362.883188,2145.067394
22436.695818,-3034.844362,-7402.059420,-995.924147
22436.696151,-1628.453072,-6365.771101,1302.362347
22436.696484,-1332.370696,-7031.956449,4826.401637
22436.696818,-370.102971,-3627.009116,0.000000
22436.697151,148.041188,-2442.679609,1225.752797
22436.697484,2220.617826,-10362.883188,2068.457845
22436.697817,4663.297435,-12435.459826,-4366.744339
22436.698150,-2072.576638,-14285.974681,919.314598
22436.698483,-74.020594,-11251.130318,-3447.429741
22436.698816,-3256.906145,-13693.809927,-3064.381992
22436.699149,-1702.473667,-11843.295072,-612.876398
22436.699482,-3404.947333,-9474.636058,-1072.533697
22436.699815,1776.494261,-4219.173869,2451.505594
22436.700148,2294.638420,-9400.615463,2451.505594
22436.700481,5255.462188,-7105.977043,4826.401637
22436.700814,814.226536,-6217.729913,5362.668486
22436.701147,-2960.823768,-3034.844362,3677.258390
22436.701480,-1776.494261,-10066.800811,-2757.943793
22436.701813,-2368.659014,-9474.636058,-842.705048
22436.702146,-2442.679609,-9400.615463,-5362.668486
22436.702479,-3330.926739,-9548.656652,-6128.763984
22436.702812,-370.102971,-11843.295072,-2834.553343
22436.703145,-3256.906145,-10732.986159,-2757.943793
22436.703478,0.000000,-6809.894666,1149.143247
22436.703811,-4145.153275,-9548.656652,0.000000
22436.704144,4219.173869,-13323.706956,4826.401637
22436.704477,2886.803174,-10658.965565,7277.907231
22436.704810,8808.450710,-5551.544565,6665.030833
22436.705143,7105.977043,-5699.585753,7660.954980
22436.705476,3775.050304,-5329.482782,842.705048
22436.705809,2146.597232,-7772.162391,-4213.525239
22436.706142,-1258.350101,-15396.283594,-4979.620737
22436.706475,-2368.659014,-11029.068536,-3677.258390
22436.706808,-3627.009116,-13027.624579,-3753.867940
22436.707141,-2442.679609,-12805.562797,-3524.039291
22436.707474,-2368.659014,-6587.832884,-1225.752797
22436.707807,-1702.473667,-9622.677246,4060.306139
22436.708140,3627.009116,-3256.906145,4826.401637
22436.708473,962.267725,-9104.533087,4519.963438
22436.708806,1776.494261,-4811.338623,1838.629195
22436.709139,4737.318029,-8956.491898,4903.011187
22436.709472,4663.297435,-14211.954086,7890.783629
22436.709805,5699.585753,-3627.009116,-1532.190996
22436.710138,-4737.318029,-14285.974681,-1225.752797
22436.710471,2368.659014,-8956.491898,-5056.230287
22436.710804,-3034.844362,-9252.574275,-5822.325785
22436.711137,-2368.659014,-14582.057057,-4673.182538
22436.711470,-3478.967927,-12213.398043,-3370.820191
22436.711803,-4219.173869,-12583.501014,3294.210641
22436.712136,740.205942,-3627.009116,4903.011187
22436.712469,2590.720797,-5107.421000,7201.297681
22436.712802,2960.823768,-3182.885551,3983.696590
22436.713135,2072.576638,-6439.791695,4443.353888
22436.713468,-74.020594,-8882.471304,-76.609550
22436.713801,-2072.576638,-11473.192101,0.000000
22436.714134,-74.020594,-8290.306550,-689.485948
22436.714467,-1850.514855,-7994.224174,-5822.325785
22436.714800,-2960.823768,-14211.954086,-2681.334243
22436.715133,-74.020594,-10658.965565,-383.047749
22436.715466,-2812.782580,-8956.491898,-2451.505594
22436.715799,-888.247130,-11843.295072,995.924147
22436.716132,2294.638420,-7772.162391,919.314598
22436.716465,0.000000,-13101.645173,3983.696590
22436.716798,4737.318029,-3034.844362,9499.584175
22436.717131,2886.803174,-8882.471304,1149.143247
22436.717464,1480.411884,-4811.338623,2451.505594
22436.717797,0.000000,-7476.080014,842.705048
22436.718130,-3552.988522,-9548.656652,-3064.381992
22436.718463,-4071.132681,-9400.615463,-4826.401637
22436.718796,-4293.194464,-11843.295072,-2681.334243
22436.719129,-3478.967927,-11621.233289,-766.095498
22436.719462,-1258.350101,-3256.906145,-1608.800546
22436.719795,-4145.153275,-11769.274478,-229.828649
22436.720128,1702.473667,-6291.750507,0.000000
22436.720461,4145.153275,-13545.768739,8044.002729
22436.720794,7031.956449,-11843.295072,7277.907231
22436.721127,6735.874072,-8882.471304,6052.154434
22436.721460,1702.473667,-7550.100608,1072.533697
22436.721793,3182.885551,-10066.800811,-153.219100
22436.722126,370.102971,-10362.883188,-1378.971896
22436.722459,-3552.988522,-10732.986159,-3370.820191
22436.722792,-1258.350101,-9474.636058,-4979.620737
22436.723125,-2368.659014,-10140.821405,-2451.505594
22436.723458,0.000000,-10510.924376,2834.553343
22436.723791,4663.297435,-4145.153275,2451.505594
22436.724124,-1702.473667,-3034.844362,3064.381992
22436.724457,2368.659014,-2960.823768,1762.019645
22436.724790,-3182.885551,-15396.283594,-689.485948
22436.725123,6291.750507,-7402.059420,3064.381992
22436.725456,-888.247130,-11325.150913,1838.629195
22436.725789,3182.885551,-3034.844362,-3677.258390
22436.726122,-1184.329507,-14211.954086,-1608.800546
22436.726455,-1258.350101,-12731.542202,-3753.867940
22436.726788,2516.700203,-6587.832884,-4903.011187
22436.727121,-4737.318029,-15470.304188,766.095498
22436.727454,5773.606348,-8660.409521,4443.353888
22436.727787,1184.329507,-10584.944971,6205.373534
22436.728120,7402.059420,-3627.009116,6205.373534
22436.728453,-74.020594,-6957.935855,2374.896044
22436.728786,1036.288319,-7772.162391,153.219100
22436.729119,148.041188,-10140.821405,229.828649
22436.729452,-2368.659014,-12657.521608,-995.924147
22436.729785,-592.164754,-6069.688724,-2145.067394
22436.730118,-8290.306550,-12583.501014,-2911.162892
22436.730451,-1554.432478,-6587.832884,-4903.011187
22436.730784,-4737.318029,-4811.338623,2451.505594
22436.731117,2886.803174,-9474.636058,-76.609550
22436.731450,1776.494261,-3404.947333,0.000000
22436.731783,-4145.153275,-15766.386565,2987.772442
22436.732116,2516.700203,-9770.718434,3753.867940
22436.732449,1406.391290,-8438.347739,3064.381992
22436.732782,8068.244768,-4219.173869,4673.182538
22436.733115,-370.102971,-13915.871710,2987.772442
22436.733448,-222.061783,-7328.038826,-2451.505594
22436.733781,-2590.720797,-15100.201217,-689.485948
22436.734114,-74.020594,-11547.212695,-4366.744339
22436.734447,296.082377,-8364.327145,306.438199
22436.734780,-74.020594,-11843.295072,-1302.362347
22436.735113,518.144159,-7254.018232,536.266849
22436.735446,-4959.379811,-9030.512492,-2298.286494
22436.735779,1998.556043,-5033.400406,383.047749
22436.736112,-2368.659014,-5107.421000,689.485948
22436.736445,1184.329507,-5995.668130,8580.269578
22436.736778,2294.638420,-4441.235652,2987.772442
22436.737111,-1258.350101,-9474.636058,-2528.115143
22436.737444,-2146.597232,-8512.368333,-3524.039291
22436.737777,-222.061783,-10807.006753,-2911.162892
22436.738110,3404.947333,-12731.542202,-842.705048
22436.738443,-3552.988522,-14137.933492,-1685.410096
22436.738776,-74.020594,-8142.265362,-689.485948
22436.739109,-2072.576638,-9252.574275,-1072.533697
22436.739442,6957.935855,-9474.636058,7277.907231
22436.739775,3478.967927,-5033.400406,1838.629195
22436.740108,2368.659014,-6439.791695,4826.401637
22436.740441,2294.638420,-10066.800811,2374.896044
22436.740774,-2442.679609,-11103.089130,-3064.381992
22436.741107,1554.432478,-10955.047942,2068.457845
22436.741440,1184.329507,-7994.224174,-76.609550
22436.741773,-296.082377,-10807.006753,-2604.724693
22436.742106,-1258.350101,-11843.295072,-2451.505594
22436.742439,-3849.070898,-10362.883188,-6358.592633
22436.742772,4071.132681,-13027.624579,-76.609550
22436.743105,-3775.050304,-12065.356855,3064.381992
22436.743438,1184.329507,-7105.977043,2987.772442
22436.743771,-1554.432478,-7994.224174,4290.134789
22436.744104,3404.947333,-444.123565,383.047749
22436.744437,3182.885551,-9548.656652,7277.907231
22436.744770,3775.050304,-7772.162391,4136.915689
22436.745103,5847.626942,-10955.047942,2221.676944
22436.745436,-3108.864956,-12657.521608,-1378.971896
22436.745769,5329.482782,-6365.771101,-3217.601092
22436.746102,-5477.523971,-16580.613101,-3140.991542
22436.746435,962.267725,-10066.800811,-2834.553343
22436.746768,-740.205942,-11843.295072,536.266849
22436.747101,0.000000,-7772.162391,2911.162892
22436.747434,-370.102971,-7105.977043,2374.896044
22436.747768,-3330.926739,-7105.977043,1149.143247
22436.748101,2368.659014,-666.185348,3677.258390
22436.748434,2294.638420,-4885.359217,4290.134789
22436.748767,2294.638420,-7031.956449,612.876398
22436.749100,-74.020594,-15396.283594,-1762.019645
22436.749433,1036.288319,-14434.015869,1608.800546
22436.749766,-148.041188,-7105.977043,-4673.182538
22436.750099,3182.885551,-13027.624579,-76.609550
22436.750432,-666.185348,-10658.965565,-4366.744339
22436.750765,-1036.288319,-5995.668130,-4596.572988
22436.751098,-2072.576638,-13841.851115,2528.115143
22436.751431,-1184.329507,-7476.080014,459.657299
22436.751764,-1258.350101,-9252.574275,3677.258390
22436.752097,1036.288319,-7476.080014,5975.544884
22436.752430,2664.741391,-4367.215058,6358.592633
22436.752763,-1776.494261,-7328.038826,2451.505594
22436.753096,4663.297435,-7105.977043,536.266849
22436.753429,-1628.453072,-7179.997637,-3370.820191
22436.753762,2960.823768,-12361.439231,-76.609550
22436.754095,-74.020594,-14211.954086,-76.609550
22436.754428,-2368.659014,-6809.894666,-6205.373534
22436.754761,-3701.029710,-13841.851115,-5745.716235
22436.755094,740.205942,-10362.883188,-842.705048
22436.755427,2738.761985,-9622.677246,995.924147
22436.755760,4367.215058,-8734.430116,6665.030833
22436.756093,2294.638420,-7402.059420,-1532.190996
22436.756426,-2368.659014,-11029.068536,4903.011187
22436.756759,4071.132681,-9474.636058,6052.154434
22436.757092,3478.967927,-6365.771101,842.705048
22436.757425,5107.421000,-10658.965565,6511.811733
22436.757758,-148.041188,-7550.100608,-842.705048
22436.758091,-740.205942,-8956.491898,-536.266849
22436.758424,-2146.597232,-7254.018232,-4519.963438
22436.758757,2886.803174,-7402.059420,-4366.744339
22436.759090,-3775.050304,-15840.407159,-1991.848295
22436.759423,-962.267725,-10436.903782,-4826.401637
22436.759755,-4367.215058,-15100.201217,-2604.724693
22436.760088,1184.329507,-7476.080014,0.000000
22436.760421,3849.070898,-8734.430116,8503.660028
22436.760754,5255.462188,-6809.894666,8810.098227
22436.761087,7624.121203,-1258.350101,3677.258390
22436.761420,1184.329507,-8438.347739,5898.935335
22436.761753,222.061783,-7105.977043,-1915.238745
22436.762086,-740.205942,-7328.038826,-2528.115143
22436.762419,-1258.350101,-14211.954086,-3753.867940
22436.762752,-2072.576638,-11177.109724,-3447.429741
22436.763085,-4737.318029,-10288.862594,-1072.533697
22436.763418,-5921.647536,-11621.233289,-2681.334243
22436.763751,-3034.844362,-5773.606348,-5669.106685
22436.764084,0.000000,-7179.997637,306.438199
22436.764417,4737.318029,-8512.368333,9422.974625
22436.764750,2368.659014,-6587.832884,3677.258390
22436.765083,2294.638420,-11103.089130,995.924147
22436.765416,1036.288319,-13397.727550,5669.106685
22436.765749,7624.121203,-1850.514855,5209.449386
22436.766082,2294.638420,-9474.636058,536.266849
22436.766415,2368.659014,-9178.553681,1149.143247
22436.766747,-6587.832884,-9548.656652,-8580.269578
22436.767080,-7550.100608,-14656.077652,-5592.497135
22436.767413,592.164754,-8956.491898,-1378.971896
22436.767746,-3627.009116,-11843.295072,-383.047749
22436.768079,1480.411884,-8956.491898,5209.449386
22436.768412,0.000000,-4885.359217,2451.505594
22436.768745,222.061783,-7846.182985,2528.115143
22436.769078,2368.659014,-4811.338623,2757.943793
22436.769411,6439.791695,-8882.471304,5439.278036
22436.769744,888.247130,-10140.821405,3677.258390
22436.770077,4663.297435,-9474.636058,-2528.115143
22436.770410,-5921.647536,-11917.315666,-4903.011187
22436.770743,0.000000,-6587.832884,-6741.640382
22436.771076,296.082377,-11843.295072,-2374.896044
22436.771409,0.000000,-11251.130318,-1991.848295
22436.771742,740.205942,-9918.759623,-4519.963438
22436.772075,-666.185348,-16580.613101,7277.907231
22436.772408,6143.709319,-1258.350101,5515.887586
22436.772741,5847.626942,-8290.306550,7890.783629
22436.773074,2368.659014,-7179.997637,4903.011187
22436.773407,1184.329507,-5477.523971,2987.772442
22436.773740,-740.205942,-8364.327145,-919.314598
22436.774072,592.164754,-7772.162391,-2987.772442
22436.774405,-4737.318029,-13101.645173,-3983.696590
22436.774738,-3923.091493,-10807.006753,-5515.887586
22436.775071,-3627.009116,-11843.295072,-4366.744339
22436.775404,-5773.606348,-9844.739029,-4673.182538
22436.775737,1702.473667,-7254.018232,459.657299
22436.776070,148.041188,-10732.986159,4673.182538
22436.776403,8142.265362,-2368.659014,1378.971896
22436.776736,3775.050304,-14211.954086,9729.412825
22436.777069,5255.462188,-6143.709319,5822.325785
22436.777402,2960.823768,-9548.656652,6128.763984
22436.777735,3478.967927,-9474.636058,1149.143247
22436.778068,-1776.494261,-11325.150913,-1838.629195
22436.778401,-1776.494261,-9770.718434,-3140.991542
22436.778734,-4515.256246,-9844.739029,-3983.696590
22436.779067,-4367.215058,-7994.224174,-5286.058936
22436.779400,-444.123565,-8068.244768,153.219100
22436.779733,-4811.338623,-11547.212695,-1302.362347
22436.780066,1406.391290,-4811.338623,3983.696590
22436.780399,296.082377,-8586.388927,6971.469032
22436.780732,7031.956449,-7105.977043,1149.143247
22436.781064,444.123565,-9548.656652,612.876398
22436.781397,2590.720797,-11843.295072,-995.924147
22436.781730,1332.370696,-11547.212695,306.438199
22436.782063,1110.308913,-10288.862594,-3830.477490
22436.782396,1036.288319,-11843.295072,0.000000
22436.782729,-1776.494261,-7772.162391,1838.629195
22436.783062,0.000000,-5995.668130,0.000000
22436.783395,1702.473667,-8586.388927,2374.896044
22436.783728,666.185348,-3404.947333,-1455.581446
22436.784061,-1776.494261,-7772.162391,2221.676944
22436.784394,1110.308913,-8512.368333,0.000000
22436.784727,222.061783,-10362.883188,-383.047749
22436.785060,-2368.659014,-10658.965565,383.047749
22436.785393,-148.041188,-10066.800811,-2528.115143
22436.785726,-1554.432478,-12435.459826,-383.047749
22436.786059,1480.411884,-8142.265362,4213.525239
22436.786392,2886.803174,-9474.636058,-76.609550
22436.786725,-1776.494261,-7476.080014,0.000000
22436.787058,-1850.514855,-12731.542202,-76.609550
22436.787391,0.000000,-3034.844362,-1225.752797
22436.787724,2072.576638,-11473.192101,1149.143247
22436.788056,2812.782580,-11695.253884,7967.393179
22436.788389,4959.379811,-5403.503377,3447.429741
22436.788722,1036.288319,-11843.295072,2681.334243
22436.789055,5847.626942,-6809.894666,-1302.362347
22436.789388,-2368.659014,-8364.327145,-3677.258390
22436.789721,592.164754,-8956.491898,536.266849
22436.790054,-74.020594,-11547.212695,-3140.991542
22436.790387,-2368.659014,-11917.315666,-766.095498
22436.790720,-666.185348,-8512.368333,-383.047749
22436.791053,-3182.885551,-6143.709319,-2451.505594
22436.791386,0.000000,-7920.203579,0.000000
22436.791719,-2738.761985,-7105.977043,995.924147
22436.792052,-74.020594,-7105.977043,2757.943793
22436.792385,222.061783,-5995.668130,2681.334243
22436.792718,-888.247130,-12509.480420,1378.971896
22436.793051,6291.750507,-4293.194464,1455.581446
22436.793384,2590.720797,-13027.624579,2374.896044
22436.793717,8290.306550,-7624.121203,4213.525239
22436.794050,1998.556043,-12879.583391,-2681.334243
22436.794383,1480.411884,-9548.656652,-4903.011187
22436.794716,0.000000,-14285.974681,3677.258390
22436.795049,0.000000,-5403.503377,-3294.210641
22436.795381,2590.720797,-9474.636058,2068.457845
22436.795714,-6439.791695,-9918.759623,306.438199
22436.796047,-1406.391290,-6439.791695,-1838.629195
22436.796380,-6513.812290,-10140.821405,1225.752797
22436.796713,3182.885551,-6513.812290,1455.581446
22436.797046,1702.473667,-1850.514855,1838.629195
22436.797379,296.082377,-11843.295072,4826.401637
22436.797712,5847.626942,-6513.812290,-76.609550
22436.798045,-4145.153275,-12805.562797,153.219100
22436.798378,2590.720797,-9770.718434,-6205.373534
22436.798711,-5551.544565,-17468.860231,76.609550
22436.799044,5033.400406,-3552.988522,-3907.087040
22436.799377,4367.215058,-12879.583391,1149.143247
22436.799710,-74.020594,-7846.182985,0.000000
22436.800043,-3256.906145,-8364.327145,-6128.763984
22436.800376,-2960.823768,-14508.036463,4826.401637
22436.800709,2886.803174,-6143.709319,1378.971896
22436.801042,-222.061783,-11251.130318,5362.668486
22436.801375,0.000000,-8956.491898,6358.592633
22436.801708,-2368.659014,-6217.729913,-1149.143247
22436.802041,2146.597232,-6513.812290,2221.676944
22436.802373,4663.297435,-4737.318029,995.924147
22436.802706,-5921.647536,-11325.150913,0.000000
22436.803039,-3182.885551,-8290.306550,-3753.867940
22436.803372,-4219.173869,-9474.636058,-7431.126331
22436.803705,-3552.988522,-9548.656652,-2451.505594
22436.804038,2294.638420,-7698.141797,-76.609550
22436.804371,888.247130,-11325.150913,1532.190996
22436.804704,2146.597232,-8734.430116,2374.896044
22436.805037,2590.720797,-10066.800811,1072.533697
22436.805370,1998.556043,-13027.624579,3600.648841
22436.805703,6439.791695,-6217.729913,8197.221829
22436.806036,4515.256246,-7402.059420,6894.859482
22436.806369,3330.926739,-6957.935855,3677.258390
22436.806702,0.000000,-7476.080014,2145.067394
22436.807035,-1850.514855,-8290.306550,-4979.620737
22436.807368,-1554.432478,-7476.080014,-4290.134789
22436.807701,-2368.659014,-12213.398043,-1608.800546
22436.808034,-2738.761985,-10955.047942,-5975.544884
22436.808367,-4145.153275,-11029.068536,-2451.505594
22436.808700,-962.267725,-10510.924376,-2451.505594
22436.809033,444.123565,-10362.883188,1762.019645
22436.809365,5107.421000,-7920.203579,7431.126331
22436.809698,6439.791695,-3552.988522,7277.907231
22436.810031,5255.462188,-11843.295072,3600.648841
22436.810364,0.000000,-11325.150913,2451.505594
22436.810697,2960.823768,-7846.182985,612.876398
22436.811030,2294.638420,-14211.954086,-1302.362347
22436.811363,814.226536,-9474.636058,-2528.115143
22436.811696,-5995.668130,-13101.645173,-7277.907231
22436.812029,-3256.906145,-10140.821405,-2604.724693
22436.812362,-592.164754,-9844.739029,76.609550
22436.812695,0.000000,-7476.080014,3677.258390
22436.813028,6439.791695,-6513.812290,7277.907231
22436.813361,-4145.153275,-7772.162391,6128.763984
22436.813694,2886.803174,-5625.565159,5745.716235
22436.814027,518.144159,-7698.141797,229.828649
22436.814360,1776.494261,-6883.915261,-459.657299
22436.814693,-4589.276840,-9548.656652,-5056.230287
22436.815026,-1924.535449,-10510.924376,-7737.564530
22436.815359,-4071.132681,-13619.789333,-4136.915689
22436.815692,-4737.318029,-10658.965565,-3370.820191
22436.816025,-74.020594,-8956.491898,-4136.915689
22436.816358,3182.885551,-12435.459826,4290.134789
22436.816690,8216.285956,-13619.789333,9729.412825
22436.817023,1480.411884,-4219.173869,10112.460574
22436.817356,5921.647536,-2442.679609,6128.763984
22436.817689,2886.803174,-9474.636058,4826.401637
22436.818022,4367.215058,-8956.491898,1991.848295
22436.818355,-74.020594,-8734.430116,-995.924147
22436.818688,-7179.997637,-11547.212695,-11108.384721
22436.819021,-9474.636058,-11917.315666,-8886.707777
22436.819354,-5995.668130,-11547.212695,-7431.126331
22436.819687,-3552.988522,-4811.338623,-5286.058936
22436.820020,-4737.318029,-9548.656652,3907.087040
22436.820353,-370.102971,-7105.977043,1455.581446
22436.820686,3478.967927,-8808.450710,5056.230287
22436.821019,5551.544565,-10658.965565,8810.098227
22436.821352,8808.450710,-6809.894666,6971.469032
22436.821685,5107.421000,-11843.295072,4826.401637
22436.822018,3552.988522,-9548.656652,2374.896044
22436.822351,1554.432478,-9474.636058,-1915.238745
22436.822684,148.041188,-11843.295072,-2451.505594
22436.823017,-444.123565,-7994.224174,-6588.421283
22436.823350,-2442.679609,-11843.295072,-3140.991542
22436.823682,-2368.659014,-8364.327145,-2221.676944
22436.824015,-888.247130,-8956.491898,4519.963438
22436.824348,-2146.597232,-4811.338623,1225.752797
22436.824681,1184.329507,-5107.421000,1072.533697
22436.825014,2886.803174,-13619.789333,6052.154434
22436.825347,1036.288319,-7105.977043,1225.752797
22436.825680,2368.659014,-10214.842000,2987.772442
22436.826013,1924.535449,-11325.150913,919.314598
22436.826346,0.000000,-8956.491898,-1532.190996
22436.826679,0.000000,-8364.327145,153.219100
22436.827012,-74.020594,-8734.430116,-6128.763984
22436.827345,-2664.741391,-7772.162391,-3677.258390
22436.827678,444.123565,-10658.965565,-1302.362347
22436.828011,1110.308913,-7624.121203,-3677.258390
22436.828344,222.061783,-10955.047942,2834.553343
22436.828677,1998.556043,-8364.327145,6205.373534
22436.829010,6143.709319,-7031.956449,6205.373534
22436.829343,1480.411884,-9770.718434,6128.763984
22436.829676,-1776.494261,-12509.480420,2374.896044
22436.830009,1110.308913,-4441.235652,-2451.505594
22436.830342,-4737.318029,-12805.562797,0.000000
22436.830674,-518.144159,-8882.471304,-2834.553343
22436.831007,-9474.636058,-10732.986159,-1225.752797
22436.831340,-8734.430116,-7698.141797,-3753.867940
22436.831673,-222.061783,-4589.276840,-3753.867940
22436.832006,2072.576638,-6513.812290,-1762.019645
22436.832339,5847.626942,-14804.118840,2374.896044
22436.832672,7031.956449,-8290.306550,7277.907231
22436.833005,1110.308913,-12953.603985,76.609550
22436.833338,0.000000,-11991.336260,4596.572988
22436.833671,2886.803174,-9992.780217,1608.800546
22436.834004,4071.132681,-11251.130318,4213.525239
22436.834337,0.000000,-6291.750507,306.438199
22436.834670,-5329.482782,-9474.636058,-2834.553343
22436.835003,-6513.812290,-8734.430116,-1072.533697
22436.835336,0.000000,1110.308913,1838.629195
22436.835669,-74.020594,-9178.553681,0.000000
22436.836002,2516.700203,-2886.803174,0.000000
22436.836335,-3034.844362,-15988.448347,-3140.991542
22436.836668,0.000000,-9548.656652,-4290.134789
22436.837001,4663.297435,-11251.130318,-76.609550
22436.837334,1110.308913,-16876.695478,612.876398
22436.837667,8438.347739,-7254.018232,4060.306139
22436.837999,-74.020594,-13619.789333,2681.334243
22436.838332,7254.018232,-3923.091493,2451.505594
22436.838665,962.267725,-8956.491898,612.876398
22436.838998,5477.523971,-6957.935855,5515.887586
22436.839331,0.000000,-2886.803174,0.000000
22436.839664,-962.267725,-10955.047942,2145.067394
22436.839997,-2960.823768,-3034.844362,-2987.772442
22436.840330,-3330.926739,-11843.295072,-3753.867940
22436.840663,-2368.659014,-10732.986159,612.876398
22436.840996,-1554.432478,-7105.977043,-3753.867940
22436.841329,-74.020594,-15988.448347,1762.019645
22436.841662,-1776.494261,-7476.080014,1915.238745
22436.841995,-1776.494261,-16506.592507,2451.505594
22436.842328,2368.659014,-962.267725,0.000000
22436.842661,2072.576638,-10881.027347,1225.752797
22436.842994,4737.318029,-11843.295072,3983.696590
22436.843327,1628.453072,5255.462188,-2451.505594
22436.843660,-4737.318029,-16654.633695,0.000000
22436.843993,-3034.844362,-27831.743419,1149.143247
22436.844326,4515.256246,2072.576638,0.000000
22436.844659,10510.924376,8364.327145,-76.609550
22436.844991,1924.535449,-7772.162391,5132.839837
22436.845324,-5255.462188,-17468.860231,1072.533697
22436.845657,-4737.318029,-16358.551318,4826.401637
22436.845990,-666.185348,-13915.871710,2987.772442
22436.846323,-2960.823768,-9548.656652,1838.629195
22436.846656,-74.020594,-3256.906145,-8044.002729
22436.846989,-74.020594,-5329.482782,-10265.679673
22436.847322,-3552.988522,-7179.997637,-3064.381992
22436.847655,1110.308913,-6217.729913,-2834.553343
22436.847988,-370.102971,-13841.851115,6052.154434
22436.848321,-3923.091493,-4959.379811,1378.971896
22436.848654,1406.391290,-4737.318029,4596.572988
22436.848987,1924.535449,-4811.338623,5515.887586
22436.849320,9474.636058,-3034.844362,12257.527968
22436.849653,6735.874072,-8882.471304,6665.030833
22436.849986,2368.659014,-11843.295072,2221.676944
22436.850319,-4145.153275,-16062.468941,0.000000
22436.850652,-4219.173869,-16210.510130,-5975.544884
22436.850985,-3034.844362,-15322.262999,-6281.983084
22436.851318,-1776.494261,-13619.789333,-6205.373534
22436.851651,-1628.453072,-9696.697840,0.000000
22436.851983,-2368.659014,-5107.421000,-6128.763984
22436.852316,-2442.679609,-11695.253884,-383.047749
22436.852649,888.247130,-5033.400406,1762.019645
22436.852982,5107.421000,-7105.977043,3524.039291
22436.853315,2294.638420,-12731.542202,5592.497135
22436.853648,1110.308913,-7105.977043,-2221.676944
22436.853981,-3552.988522,-13693.809927,-4596.572988
22436.854314,10658.965565,-8142.265362,2374.896044
22436.854647,3478.967927,-11843.295072,-1149.143247
22436.854980,4663.297435,-8808.450710,-6128.763984
22436.855313,-4219.173869,-11177.109724,-4366.744339
22436.855646,-8364.327145,-11103.089130,-10878.556072
22436.855979,1998.556043,-7698.141797,-1072.533697
22436.856312,-3923.091493,-10955.047942,2911.162892
22436.856645,6439.791695,-3404.947333,1149.143247
22436.856978,-3256.906145,-11917.315666,10955.165621
22436.857311,5255.462188,-2664.741391,5669.106685
22436.857644,2368.659014,-2590.720797,11338.213370
22436.857977,3330.926739,-10362.883188,3600.648841
22436.858310,3701.029710,-6883.915261,3983.696590
22436.858643,-5255.462188,-15026.180623,-2681.334243
22436.858976,4737.318029,-4441.235652,-1455.581446
22436.859308,-9178.553681,-14285.974681,-2451.505594
22436.859641,5847.626942,-444.123565,-5592.497135
22436.859974,-1776.494261,-11473.192101,3600.648841
22436.860307,5847.626942,-6513.812290,-76.609550
22436.860640,1184.329507,-4811.338623,612.876398
22436.860973,-1776.494261,-12805.562797,3064.381992
22436.861306,3701.029710,-8734.430116,5362.668486
22436.861639,-74.020594,-13767.830521,4826.401637
22436.861972,9474.636058,-9104.533087,7660.954980
22436.862305,518.144159,-9474.636058,5745.716235
22436.862638,888.247130,-7476.080014,-4903.011187
22436.862971,-2442.679609,-10658.965565,-2528.115143
22436.863304,-3627.009116,-10658.965565,-6818.249932
22436.863636,-1480.411884,-5995.668130,-2451.505594
22436.863969,-4515.256246,-13027.624579,-1608.800546
22436.864302,-74.020594,-9474.636058,-4979.620737
22436.864635,-7105.977043,-11621.233289,0.000000
22436.864968,2368.659014,-5699.585753,-76.609550
22436.865301,2368.659014,-12953.603985,689.485948
22436.865634,7031.956449,-16580.613101,3600.648841
22436.865967,4663.297435,-10436.903782,2451.505594
22436.866300,-2368.659014,-11399.171507,1762.019645
22436.866632,4071.132681,-8290.306550,-689.485948
22436.866965,-4367.215058,-8438.347739,-4903.011187
22436.867298,2960.823768,-8290.306550,-383.047749
22436.867631,-3997.112087,-6143.709319,-842.705048
22436.867964,-2590.720797,-5033.400406,-4290.134789
22436.868297,-3108.864956,-6365.771101,0.000000
22436.868630,-74.020594,-9474.636058,4826.401637
22436.868963,5107.421000,-4959.379811,1991.848295
22436.869296,-3108.864956,-13249.686362,2987.772442
22436.869629,666.185348,-8586.388927,-2374.896044
22436.869961,-5921.647536,-13693.809927,-1838.629195
22436.870294,3478.967927,-11251.130318,2987.772442
22436.870627,3478.967927,-6069.688724,0.000000
22436.870960,814.226536,-3627.009116,2451.505594
22436.871293,888.247130,-4959.379811,766.095498
22436.871626,-2442.679609,-8290.306550,-689.485948
22436.871959,3108.864956,-7031.956449,2681.334243
22436.872292,-2072.576638,-12509.480420,1455.581446
22436.872625,2072.576638,-11399.171507,3753.867940
22436.872957,888.247130,-10214.842000,1991.848295
22436.873290,-222.061783,-15174.221811,6665.030833
22436.873623,4737.318029,-2442.679609,6128.763984
22436.873956,2960.823768,-8956.491898,0.000000
22436.874289,3552.988522,-8882.471304,4826.401637
22436.874622,-5181.441594,-8660.409521,-4290.134789
22436.874955,-1554.432478,-9770.718434,-5286.058936
22436.875288,-3478.967927,-11843.295072,-536.266849
22436.875621,-444.123565,-7698.141797,-2451.505594
22436.875954,-3034.844362,-11399.171507,-689.485948
22436.876286,-1480.411884,-5329.482782,-4979.620737
22436.876619,-4737.318029,-9548.656652,-6128.763984
22436.876952,1776.494261,-14211.954086,1762.019645
22436.877285,9400.615463,-13323.706956,8503.660028
22436.877618,3182.885551,-9326.594869,3600.648841
22436.877951,4737.318029,-11991.336260,3217.601092
22436.878284,1406.391290,-5329.482782,-766.095498
22436.878617,1628.453072,-10140.821405,-612.876398
22436.878950,2960.823768,-7476.080014,2451.505594
22436.879282,-1258.350101,-9474.636058,-4366.744339
22436.879615,-5329.482782,-12731.542202,-2145.067394
22436.879948,-2960.823768,-11251.130318,-689.485948
22436.880281,-5403.503377,-7772.162391,-4290.134789
22436.880614,2368.659014,-3627.009116,2451.505594
22436.880947,296.082377,-8364.327145,1762.019645
22436.881280,666.185348,-9548.656652,2298.286494
22436.881613,-2442.679609,-10288.862594,1302.362347
22436.881946,3478.967927,-9474.636058,-1302.362347
22436.882279,518.144159,-9548.656652,3677.258390
22436.882611,2886.803174,-11547.212695,2068.457845
22436.882944,2590.720797,-6957.935855,-1608.800546
22436.883277,-3552.988522,-8364.327145,-2987.772442
22436.883610,-2368.659014,-10732.986159,-2451.505594
22436.883943,2368.659014,-4515.256246,5745.716235
22436.884276,2886.803174,-6735.874072,1455.581446
22436.884609,1850.514855,-6513.812290,3600.648841
22436.884942,-370.102971,-13027.624579,2374.896044
22436.885275,296.082377,-7328.038826,3983.696590
22436.885607,0.000000,-11177.109724,2911.162892
22436.885940,962.267725,-11325.150913,76.609550
22436.886273,-2442.679609,-12139.377449,2451.505594
22436.886606,-2442.679609,-9474.636058,-2528.115143
22436.886939,-1628.453072,-5995.668130,-3677.258390
22436.887272,-5921.647536,-7179.997637,-1838.629195
22436.887605,4071.132681,-7105.977043,-2068.457845
22436.887938,-2442.679609,-10732.986159,1302.362347
22436.888271,-888.247130,-8808.450710,1762.019645
22436.888604,-666.185348,-6587.832884,-2451.505594
22436.888936,3256.906145,-10214.842000,4213.525239
22436.889269,3627.009116,-10955.047942,5439.278036
22436.889602,4885.359217,-7179.997637,1915.238745
22436.889935,-1776.494261,-15766.386565,2451.505594
22436.890268,4663.297435,-9474.636058,-995.924147
22436.890601,1110.308913,-8512.368333,-2145.067394
22436.890934,2368.659014,-8364.327145,995.924147
22436.891267,3478.967927,-7698.141797,-1915.238745
22436.891600,-5033.400406,-10362.883188,-3753.867940
22436.891932,-74.020594,-7179.997637,0.000000
22436.892265,-6069.688724,-8290.306550,-76.609550
22436.892598,2368.659014,-2738.761985,-2451.505594
22436.892931,-5921.647536,-9548.656652,3983.696590
22436.893264,4663.297435,-7402.059420,0.000000
22436.893597,2368.659014,-5403.503377,0.000000
22436.893930,-2220.617826,-13101.645173,1685.410096
22436.894263,1850.514855,-8512.368333,-2451.505594
22436.894596,-148.041188,-16284.530724,2987.772442
22436.894929,6883.915261,-7179.997637,5975.544884
22436.895261,1628.453072,-4441.235652,536.266849
22436.895594,-74.020594,-12731.542202,4826.401637
22436.895927,-1184.329507,-4663.297435,-76.609550
22436.896260,-370.102971,-7402.059420,-2451.505594
22436.896593,740.205942,-8438.347739,2068.457845
22436.896926,-1554.432478,-11251.130318,-3753.867940
22436.897259,-2368.659014,-12805.562797,1149.143247
22436.897592,0.000000,-10955.047942,0.000000
22436.897925,962.267725,-11843.295072,1455.581446
22436.898257,3775.050304,-8586.388927,2604.724693
22436.898590,2664.741391,-8142.265362,1378.971896
22436.898923,2294.638420,-11251.130318,-383.047749
22436.899256,-4737.318029,-9696.697840,2451.505594
22436.899589,-814.226536,-6513.812290,-4366.744339
22436.899922,-1480.411884,-7179.997637,-2451.505594
22436.900255,-740.205942,-10732.986159,842.705048
22436.900588,-888.247130,-7402.059420,-1532.190996
22436.900921,-5033.400406,-13175.665768,0.000000
22436.901253,2664.741391,-7031.956449,1762.019645
22436.901586,-2368.659014,-13249.686362,2528.115143
22436.901919,7846.182985,-6809.894666,3983.696590
22436.902252,3478.967927,-12583.501014,4060.306139
22436.902585,148.041188,-5921.647536,-1685.410096
22436.902918,592.164754,-10436.903782,0.000000
22436.903251,-4071.132681,-8290.306550,-3830.477490
22436.903584,4663.297435,-11843.295072,4213.525239
22436.903917,-3330.926739,-4811.338623,-3064.381992
22436.904250,-2812.782580,-9252.574275,-4290.134789
22436.904582,-6587.832884,-11251.130318,-2987.772442
22436.904915,0.000000,-8956.491898,-1225.752797
22436.905248,1998.556043,-8512.368333,4290.134789
22436.905581,5773.606348,-10436.903782,3524.039291
22436.905914,4811.338623,-9252.574275,3600.648841
22436.906247,5329.482782,-8956.491898,6128.763984
22436.906580,8216.285956,-6809.894666,2221.676944
22436.906913,4515.256246,-5107.421000,3677.258390
22436.907246,0.000000,-12731.542202,-76.609550
22436.907578,-4811.338623,-9474.636058,-5592.497135
22436.907911,-4737.318029,-9844.739029,-3447.429741
22436.908244,-3997.112087,-7031.956449,-3830.477490
22436.908577,-740.205942,-5921.647536,-689.485948
22436.908910,-592.164754,-7550.100608,-229.828649
22436.909243,-74.020594,-11843.295072,2987.772442
22436.909576,0.000000,-6587.832884,2757.943793
22436.909909,2812.782580,-10955.047942,6358.592633
22436.910242,8216.285956,-9474.636058,2068.457845
22436.910575,2664.741391,-10732.986159,2451.505594
22436.910907,4663.297435,-9474.636058,2068.457845
22436.911240,3552.988522,-8364.327145,-2604.724693
22436.911573,-2516.700203,-14137.933492,-3600.648841
22436.911906,-2516.700203,-9992.780217,-5132.839837
22436.912239,-4811.338623,-10066.800811,-3140.991542
22436.912572,-7105.977043,-7179.997637,612.876398
22436.912905,-1554.432478,-11251.130318,1762.019645
22436.913238,-1184.329507,-2590.720797,2604.724693
22436.913571,0.000000,-5403.503377,5515.887586
22436.913903,4071.132681,-5921.647536,6665.030833
22436.914236,0.000000,-8068.244768,1915.238745
22436.914569,592.164754,-7031.956449,-3983.696590
22436.914902,-4219.173869,-15544.324782,-4673.182538
22436.915235,518.144159,-8882.471304,-7124.688131
22436.915568,-3108.864956,-14211.954086,-4443.353888
22436.915901,-1184.329507,-8660.409521,-4596.572988
22436.916234,-1924.535449,-11251.130318,-3524.039291
22436.916567,-296.082377,-8956.491898,-459.657299
22436.916900,2294.638420,-9474.636058,4826.401637
22436.917232,444.123565,-5995.668130,7354.516781
22436.917565,2368.659014,-9548.656652,11644.651570
22436.917898,3923.091493,-5921.647536,8503.660028
22436.918231,2072.576638,-7920.203579,3677.258390
22436.918564,4293.194464,-5403.503377,3600.648841
22436.918897,0.000000,-10214.842000,-1762.019645
22436.919230,-2368.659014,-9548.656652,-6281.983084
22436.919563,-5107.421000,-12435.459826,-9882.631924
22436.919896,-7476.080014,-15396.283594,-8656.879127
22436.920228,-5921.647536,-9548.656652,-2451.505594
22436.920561,-1850.514855,-8882.471304,-76.609550
22436.920894,3478.967927,-7698.141797,1149.143247
22436.921227,2294.638420,-8290.306550,9116.536426
22436.921560,7031.956449,-74.020594,5209.449386
22436.921893,1776.494261,-9992.780217,4826.401637
22436.922226,4663.297435,-10436.903782,5592.497135
22436.922559,2368.659014,-9548.656652,4290.134789
22436.922892,4663.297435,-11251.130318,2987.772442
22436.923225,1184.329507,-11177.109724,-76.609550
22436.923557,-1850.514855,-8734.430116,-7048.078582
22436.923890,-2072.576638,-8660.409521,-7354.516781
22436.924223,592.164754,-7254.018232,-2451.505594
22436.924556,-1258.350101,-10140.821405,-1915.238745
22436.924889,518.144159,-8882.471304,995.924147
22436.925222,-3552.988522,-11473.192101,3370.820191
22436.925555,4071.132681,-5921.647536,4060.306139
22436.925888,1998.556043,-7772.162391,3677.258390
22436.926221,6439.791695,-8882.471304,3600.648841
22436.926553,-74.020594,-11473.192101,0.000000
22436.926886,-1480.411884,-9474.636058,-1915.238745
22436.927219,-74.020594,-11251.130318,-1762.019645
22436.927552,592.164754,-7772.162391,2374.896044
22436.927885,2294.638420,-5625.565159,-1608.800546
22436.928218,1776.494261,-9474.636058,-3753.867940
22436.928551,-2368.659014,-11325.150913,1149.143247
22436.928884,-1184.329507,-8364.327145,3830.477490
22436.929217,1110.308913,-10658.965565,612.876398
22436.929550,3256.906145,-10288.862594,4903.011187
22436.929882,-1850.514855,-13027.624579,-689.485948
22436.930215,-2442.679609,-10510.924376,4060.306139
22436.930548,-7698.141797,-13027.624579,-76.609550
22436.930881,-6069.688724,-9030.512492,1149.143247
22436.931214,-4885.359217,-4515.256246,2911.162892
22436.931547,-7624.121203,-6439.791695,-919.314598
22436.931880,-8290.306550,-5033.400406,2681.334243
22436.932213,-10732.986159,-4885.359217,-4060.306139
22436.932546,-8734.430116,-7476.080014,-3064.381992
22436.932878,-4145.153275,-10140.821405,-1762.019645
22436.933211,-3627.009116,-14211.954086,2068.457845
22436.933544,-5921.647536,-12879.583391,4366.744339
22436.933877,-74.020594,-13027.624579,-76.609550
22436.934210,-7550.100608,-11917.315666,612.876398
22436.934543,-1776.494261,-11029.068536,4213.525239
22436.934876,-1258.350101,-7698.141797,2987.772442
22436.935209,-7550.100608,-7624.121203,-1455.581446
22436.935542,-5477.523971,-7105.977043,-76.609550
22436.935875,-11103.089130,-7624.121203,919.314598
22436.936207,-4737.318029,-2738.761985,0.000000
22436.936540,-9178.553681,-7772.162391,-76.609550
22436.936873,-7179.997637,-7550.100608,-5439.278036
22436.937206,-8364.327145,-11843.295072,-2068.457845
22436.937539,-4737.318029,-5403.503377,-1838.629195
22436.937872,-5403.503377,-11917.315666,-3064.381992
22436.938205,-3182.885551,-15692.365970,4443.353888
22436.938538,-1998.556043,-9474.636058,1149.143247
22436.938871,-4219.173869,-11325.150913,2451.505594
22436.939203,-740.205942,-11695.253884,2757.943793
22436.939536,-2146.597232,-9474.636058,4826.401637
22436.939869,-5107.421000,-7179.997637,3677.258390
22436.940202,-3256.906145,-3182.885551,1225.752797
22436.940535,-7179.997637,-10658.965565,1149.143247
22436.940868,-10658.965565,-7179.997637,306.438199
22436.941201,-9548.656652,-10362.883188,-2604.724693
22436.941534,-11917.315666,-12287.418637,-2068.457845
22436.941867,-8586.388927,-13323.706956,842.705048
22436.942199,-7624.121203,-7402.059420,76.609550
22436.942532,-6587.832884,-10658.965565,1762.019645
22436.942865,-7772.162391,-5403.503377,0.000000
22436.943198,-7698.141797,-8512.368333,2604.724693
22436.943531,-10436.903782,-9474.636058,-3140.991542
22436.943864,-11917.315666,-11547.212695,-1915.238745
22436.944197,-11473.192101,-7698.141797,-76.609550
22436.944530,-8438.347739,-6439.791695,-1455.581446
22436.944863,-9918.759623,-8808.450710,229.828649
22436.945196,-7105.977043,-10732.986159,3064.381992
22436.945528,-7550.100608,-7772.162391,612.876398
22436.945861,-4737.318029,-11843.295072,3983.696590
22436.946194,-3923.091493,-16580.613101,2374.896044
22436.946527,-6809.894666,-10140.821405,3064.381992
22436.946860,-5699.585753,-8882.471304,2374.896044
22436.947193,-9918.759623,-10807.006753,383.047749
22436.947526,-9622.677246,-6587.832884,-2221.676944
22436.947859,-13397.727550,-9252.574275,-2834.553343
22436.948192,-14804.118840,-8364.327145,-1838.629195
22436.948524,-15618.345376,-8660.409521,-4596.572988
22436.948857,-16210.510130,-8586.388927,-2757.943793
22436.949190,-12065.356855,-8216.285956,766.095498
22436.949523,-10510.924376,-6957.935855,1608.800546
22436.949856,-9178.553681,-8364.327145,2451.505594
22436.950189,-5995.668130,-8290.306550,2374.896044
22436.950522,-10362.883188,-9548.656652,3983.696590
22436.950855,-5995.668130,-9474.636058,3370.820191
22436.951188,-7179.997637,-11843.295072,1149.143247
22436.951521,-8290.306550,-8660.409521,-1072.533697
22436.951853,-11177.109724,-12657.521608,-2834.553343
22436.952186,-12509.480420,-10066.800811,-5745.716235
22436.952519,-12361.439231,-10732.986159,-4366.744339
22436.952852,-9844.739029,-11843.295072,-76.609550
22436.953185,-11843.295072,-8364.327145,1838.629195
22436.953518,-11843.295072,-7179.997637,3677.258390
22436.953851,-4811.338623,-8882.471304,6052.154434
22436.954184,-7402.059420,-4811.338623,4903.011187
22436.954517,-4219.173869,-8142.265362,6052.154434
22436.954849,-7550.100608,-7105.977043,1762.019645
22436.955182,-10140.821405,-10807.006753,-842.705048
22436.955515,-11029.068536,-8956.491898,-4290.134789
22436.955848,-11917.315666,-11399.171507,-6205.373534
22436.956181,-17172.777854,-9548.656652,-5515.887586
22436.956514,-12213.398043,-10658.965565,-4290.134789
22436.956847,-10732.986159,-10658.965565,-3140.991542
22436.957180,-7994.224174,-7772.162391,3370.820191
22436.957513,-4811.338623,-6661.853478,4903.011187
22436.957846,-5107.421000,-9696.697840,6741.640382
22436.958178,-5625.565159,-9030.512492,4903.011187
22436.958511,-5921.647536,-9696.697840,4519.963438
22436.958844,-5773.606348,-8956.491898,1838.629195
22436.959177,-5921.647536,-11325.150913,4826.401637
22436.959510,-9548.656652,-11695.253884,-3600.648841
22436.959843,-14211.954086,-8364.327145,-8273.831378
22436.960176,-13323.706956,-10140.821405,-3064.381992
22436.960509,-12213.398043,-6291.750507,-4136.915689
22436.960842,-11621.233289,-7846.182985,536.266849
22436.961174,-13693.809927,-7402.059420,0.000000
22436.961507,-11399.171507,-9030.512492,2374.896044
22436.961840,-8364.327145,-8068.244768,3217.601092
22436.962173,-6735.874072,-9178.553681,5286.058936
22436.962506,-5477.523971,-7846.182985,3753.867940
22436.962839,-8290.306550,-9992.780217,842.705048
22436.963172,-7179.997637,-13027.624579,-689.485948
22436.963505,-7920.203579,-9548.656652,-3064.381992
22436.963838,-9548.656652,-10658.965565,-4443.353888
22436.964171,-13027.624579,-10140.821405,-1915.238745
22436.964504,-11029.068536,-8290.306550,-4673.182538
22436.964837,-10732.986159,-7105.977043,-153.219100
22436.965170,-9474.636058,-5403.503377,4903.011187
22436.965502,-4219.173869,-6809.894666,5439.278036
22436.965835,-5403.503377,-8068.244768,4596.572988
22436.966168,-8290.306550,-9548.656652,1225.752797
22436.966501,-9548.656652,-13545.768739,-3064.381992
22436.966834,-10214.842000,-15396.283594,-2528.115143
22436.967167,-10436.903782,-12361.439231,-1532.190996
22436.967500,-10066.800811,-8364.327145,0.000000
22436.967833,-9178.553681,-4515.256246,-229.828649
22436.968166,-10955.047942,-3627.009116,-612.876398
22436.968499,-11177.109724,-4885.359217,-919.314598
22436.968832,-13175.665768,-8290.306550,-995.924147
22436.969165,-11325.150913,-12435.459826,-76.609550
22436.969498,-12213.398043,-10732.986159,919.314598
22436.969830,-8364.327145,-13027.624579,2374.896044
22436.970163,-7476.080014,-7476.080014,3064.381992
22436.970496,-5181.441594,-8808.450710,3983.696590
22436.970829,-4441.235652,-8290.306550,3140.991542
22436.971162,-5995.668130,-9178.553681,995.924147
22436.971495,-8068.244768,-11473.192101,-1072.533697
22436.971828,-10658.965565,-10436.903782,-3447.429741
22436.972161,-11917.315666,-9474.636058,-4979.620737
22436.972494,-14211.954086,-7772.162391,-3830.477490
22436.972827,-14285.974681,-8216.285956,-4826.401637
22436.973160,-14285.974681,-8364.327145,-4903.011187
22436.973493,-14063.912898,-10140.821405,1838.629195
22436.973825,-10140.821405,-10955.047942,5745.716235
22436.974158,-5403.503377,-7698.141797,8044.002729
22436.974491,-3034.844362,-5625.565159,9652.803275
22436.974824,-518.144159,-3923.091493,7354.516781
22436.975157,0.000000,-4663.297435,3677.258390
22436.975490,-1258.350101,-9474.636058,-383.047749
22436.975823,-8290.306550,-9548.656652,-8580.269578
22436.976156,-10362.883188,-15100.201217,-8350.440928
22436.976489,-8364.327145,-15100.201217,-11108.384721
22436.976822,-9548.656652,-12435.459826,-7354.516781
22436.977155,-5477.523971,-11399.171507,-1608.800546
22436.977488,-2960.823768,-8586.388927,4213.525239
22436.977821,0.000000,-7920.203579,9116.536426
22436.978153,1850.514855,-6587.832884,12257.527968
22436.978486,3775.050304,-7105.977043,10342.289223
22436.978819,1184.329507,-8068.244768,8580.269578
22436.979152,-888.247130,-7994.224174,3907.087040
22436.979485,-2442.679609,-8290.306550,-536.266849
22436.979818,-5773.606348,-8364.327145,-4290.134789
22436.980151,-5551.544565,-12731.542202,-4979.620737
22436.980484,-9474.636058,-9548.656652,-7967.393179
22436.980817,-9474.636058,-10732.986159,-3140.991542
22436.981150,-7328.038826,-10362.883188,-1915.238745
22436.981483,-5403.503377,-7772.162391,2451.505594
22436.981816,-1554.432478,-8882.471304,8656.879127
22436.982149,-962.267725,-8290.306550,10648.727422
22436.982481,-1332.370696,-7624.121203,9959.241474
22436.982814,1998.556043,-10658.965565,10801.946522
22436.983147,1702.473667,-11843.295072,8503.660028
22436.983480,-2072.576638,-8364.327145,6741.640382
22436.983813,-148.041188,-11251.130318,6052.154434
22436.984146,-3627.009116,-8438.347739,1302.362347
22436.984479,-7105.977043,-8364.327145,2451.505594
22436.984812,-5551.544565,-9622.677246,3064.381992
22436.985145,-8290.306550,-9548.656652,6741.640382
22436.985478,-6143.709319,-10584.944971,9806.022374
22436.985811,-4219.173869,-9474.636058,13713.109414
22436.986144,-1258.350101,-8290.306550,14632.424012
22436.986477,-2368.659014,-7772.162391,20837.797546
22436.986809,1258.350101,-9178.553681,21986.940793
22436.987142,1702.473667,-9474.636058,18616.120601
22436.987475,-370.102971,-8882.471304,17083.929605
22436.987808,-3034.844362,-8290.306550,14555.814462
22436.988141,-4811.338623,-8586.388927,12947.013916
22436.988474,-4959.379811,-7402.059420,13253.452115
22436.988807,-5921.647536,-4811.338623,14096.157163
22436.989140,-2738.761985,-3775.050304,15015.471761
22436.989473,1184.329507,-7179.997637,23825.569988
22436.989806,2886.803174,-6513.812290,22599.817191
22436.990139,592.164754,-7179.997637,22063.550342
22436.990472,1480.411884,-7772.162391,20607.968896
22436.990805,2072.576638,-9844.739029,21986.940793
22436.991137,2664.741391,-9696.697840,22063.550342
22436.991470,1406.391290,-7402.059420,21450.673944
22436.991803,-74.020594,-9474.636058,19535.435199
22436.992136,-2368.659014,-4811.338623,18999.168350
22436.992469,1110.308913,-3256.906145,17083.929605
22436.992802,1110.308913,-3182.885551,16241.224558
22436.993135,3108.864956,-4515.256246,19535.435199
22436.993468,592.164754,-3330.926739,16164.615008
22436.993801,3108.864956,-5551.544565,17160.539155
22436.994134,1924.535449,-5995.668130,14172.766713
22436.994467,1776.494261,-9918.759623,13330.061665
22436.994800,2886.803174,-14211.954086,16471.053207
22436.995132,-888.247130,-12435.459826,16777.491406
22436.995465,-1776.494261,-8956.491898,14096.157163
22436.995798,-962.267725,-7254.018232,12870.404366
22436.996131,74.020594,-7031.956449,15475.129060
22436.996464,1702.473667,-4737.318029,15858.176809
22436.996797,-2960.823768,-4811.338623,9806.022374
22436.997130,-2442.679609,-11251.130318,7890.783629
22436.997463,-4811.338623,-8068.244768,6741.640382
22436.997796,-4737.318029,-7179.997637,7967.393179
22436.998129,1998.556043,-9474.636058,9729.412825
22436.998462,1924.535449,-10140.821405,9806.022374
22436.998795,3849.070898,-10955.047942,11414.822920
22436.999128,2442.679609,-10288.862594,9499.584175
22436.999460,518.144159,-10362.883188,8197.221829
22436.999793,-2368.659014,-13249.686362,10955.165621
22437.000126,-74.020594,-11251.130318,12793.794817
22437.000459,-370.102971,-4071.132681,5515.887586
22437.000792,0.000000,-5995.668130,4903.011187
22437.001125,-1850.514855,-6809.894666,1608.800546
22437.001458,-1850.514855,-8512.368333,2374.896044
22437.001791,592.164754,-10140.821405,6894.859482
22437.002124,1998.556043,-9770.718434,7814.174080
22437.002457,2368.659014,-7179.997637,4903.011187
22437.002790,5181.441594,-13027.624579,6052.154434
22437.003123,2664.741391,-11917.315666,5515.887586
22437.003456,0.000000,-8364.327145,9806.022374
22437.003788,1998.556043,-7105.977043,2681.334243
22437.004121,-1628.453072,-6587.832884,1532.190996
22437.004454,-2368.659014,-10066.800811,2068.457845
22437.004787,-2220.617826,-10510.924376,1455.581446
22437.005120,-2368.659014,-11325.150913,3064.381992
22437.005453,-74.020594,-8290.306550,4826.401637
22437.005786,962.267725,-3552.988522,2681.334243
22437.006119,0.000000,-7179.997637,6435.202183
22437.006452,3923.091493,-11473.192101,7277.907231
22437.006785,1998.556043,-8364.327145,1378.971896
22437.007118,1776.494261,-9992.780217,5362.668486
22437.007451,2368.659014,-8956.491898,5515.887586
22437.007784,2516.700203,-9770.718434,4903.011187
22437.008116,0.000000,-7179.997637,2528.115143
22437.008449,-2442.679609,-7994.224174,-1915.238745
22437.008782,-2294.638420,-14434.015869,-1225.752797
22437.009115,-3627.009116,-13545.768739,2528.115143
22437.009448,-3404.947333,-12583.501014,4903.011187
22437.009781,-2368.659014,-4811.338623,5209.449386
22437.010114,0.000000,-7772.162391,9193.145976
22437.010447,3478.967927,-11843.295072,10955.165621
22437.010780,592.164754,-7179.997637,9806.022374
22437.011113,1332.370696,-7476.080014,9806.022374
22437.011446,740.205942,-5403.503377,7660.954980
22437.011779,370.102971,-8956.491898,7814.174080
22437.012112,-1776.494261,-11177.109724,6894.859482
22437.012444,-4737.318029,-7476.080014,5669.106685
22437.012777,-1850.514855,-11547.212695,4826.401637
22437.013110,-592.164754,-9696.697840,8580.269578
22437.013443,444.123565,-11621.233289,11031.775171
22437.013776,1480.411884,-11325.150913,18079.853753
22437.014109,3478.967927,-8882.471304,17696.806004
22437.014442,2294.638420,-10658.965565,18922.558801
22437.014775,3627.009116,-11917.315666,22676.426741
22437.015108,2590.720797,-4811.338623,20454.749797
22437.015441,1924.535449,518.144159,15321.909960
22437.015774,370.102971,-1850.514855,13330.061665
22437.016107,1998.556043,-7105.977043,18922.558801
22437.016439,0.000000,-6883.915261,17160.539155
22437.016772,1036.288319,-6809.894666,17083.929605
22437.017105,-1406.391290,-6883.915261,13483.280765
22437.017438,-2368.659014,-7328.038826,17237.148705
22437.017771,-222.061783,-5773.606348,16624.272307
22437.018104,444.123565,-7772.162391,17083.929605
22437.018437,2368.659014,-10288.862594,20607.968896
22437.018770,1406.391290,-11917.315666,25740.808733
22437.019103,1480.411884,-6291.750507,25204.541884
22437.019436,-74.020594,-3256.906145,19535.435199
22437.019769,814.226536,0.000000,13406.671215
22437.020102,-2368.659014,-2442.679609,13483.280765
22437.020435,-814.226536,-7994.224174,14632.424012
22437.020767,-3404.947333,-4959.379811,9959.241474
22437.021100,-3034.844362,-4737.318029,7737.564530
22437.021433,-2368.659014,-6143.709319,6511.811733
22437.021766,74.020594,-12065.356855,10955.165621
22437.022099,1184.329507,-17838.963202,17160.539155
22437.022432,4663.297435,-13915.871710,15551.738609
22437.022765,1924.535449,-3923.091493,14709.033562
22437.023098,0.000000,-4811.338623,12870.404366
22437.023431,6439.791695,-8882.471304,13406.671215
22437.023764,0.000000,-8068.244768,7967.393179
22437.024097,-3330.926739,-8216.285956,2681.334243
22437.024430,-3923.091493,-7624.121203,1838.629195
22437.024763,592.164754,-11399.171507,7737.564530
22437.025095,0.000000,-1850.514855,7048.078582
22437.025428,-2294.638420,-5921.647536,-1455.581446
22437.025761,0.000000,-16876.695478,6741.640382
22437.026094,592.164754,-13545.768739,10112.460574
22437.026427,1110.308913,-9474.636058,7584.345430
22437.026760,2960.823768,-5995.668130,9193.145976
22437.027093,3775.050304,-5625.565159,3600.648841
22437.027426,5551.544565,-10658.965565,4826.401637
22437.027759,1332.370696,-10140.821405,2757.943793
22437.028092,-74.020594,-16580.613101,2374.896044
22437.028425,2072.576638,-7624.121203,2834.553343
22437.028758,1184.329507,-2442.679609,-2528.115143
22437.029091,-1332.370696,-4367.215058,-7431.126331
22437.029423,-2072.576638,-10140.821405,-7967.393179
22437.029756,-2368.659014,-11917.315666,-4290.134789
22437.030089,1702.473667,-9474.636058,-6205.373534
22437.030422,-1776.494261,-10732.986159,-4903.011187
22437.030755,1184.329507,-13471.748144,-76.609550
22437.031088,0.000000,-5995.668130,-5592.497135
22437.031421,2368.659014,-7920.203579,-6205.373534
22437.031754,1184.329507,-12879.583391,-4443.353888
22437.032087,4145.153275,-8956.491898,-3217.601092
22437.032420,814.226536,-7698.141797,-5132.839837
22437.032753,-4441.235652,-8364.327145,-7737.564530
22437.033086,-1258.350101,-8882.471304,-14325.985813
22437.033418,-4737.318029,-12213.398043,-10265.679673
22437.033751,2960.823768,-11251.130318,-5898.935335
22437.034084,666.185348,-9992.780217,-6128.763984
22437.034417,1406.391290,-9474.636058,-6205.373534
22437.034750,2664.741391,-16580.613101,842.705048
22437.035083,5255.462188,-16580.613101,6818.249932
22437.035416,4071.132681,-3256.906145,-2604.724693
22437.035749,3701.029710,-1480.411884,-7737.564530
22437.036082,0.000000,-5773.606348,-13789.718964
22437.036415,-6513.812290,-13101.645173,-11644.651570
22437.036748,-4219.173869,-16580.613101,-12104.308868
22437.037081,-3923.091493,-12731.542202,-15398.519510
22437.037414,-1924.535449,-11917.315666,-11261.603821
22437.037746,2886.803174,-7402.059420,-5056.230287
22437.038079,3552.988522,-9474.636058,-1378.971896
22437.038412,3552.988522,-12509.480420,3677.258390
22437.038745,3478.967927,-12731.542202,76.609550
22437.039078,0.000000,-12509.480420,3983.696590
22437.039411,1184.329507,-7476.080014,2681.334243
22437.039744,2294.638420,-5329.482782,-2068.457845
22437.040077,518.144159,-3552.988522,-995.924147
22437.040410,-2072.576638,-5551.544565,-3677.258390
22437.040743,-222.061783,-11473.192101,-1302.362347
22437.041076,0.000000,-11547.212695,-612.876398
22437.041409,0.000000,-11917.315666,1838.629195
22437.041742,-666.185348,-12435.459826,612.876398
22437.042074,666.185348,-9104.533087,2834.553343
22437.042407,518.144159,-8068.244768,3294.210641
22437.042740,1998.556043,-6735.874072,2451.505594
22437.043073,1184.329507,-11325.150913,4290.134789
22437.043406,-1554.432478,-9548.656652,3677.258390
22437.043739,0.000000,-7179.997637,7048.078582
22437.044072,1702.473667,-9178.553681,7584.345430
22437.044405,2886.803174,-4293.194464,7967.393179
22437.044738,1776.494261,-2442.679609,7660.954980
22437.045071,518.144159,-5995.668130,4136.915689
22437.045404,-2738.761985,-13027.624579,4519.963438
22437.045737,-3404.947333,-13397.727550,8503.660028
22437.046070,-1258.350101,-11251.130318,9729.412825
22437.046402,0.000000,-3627.009116,6741.640382
22437.046735,2886.803174,-5921.647536,4826.401637
22437.047068,2886.803174,-8882.471304,7660.954980
22437.047401,296.082377,-9252.574275,12180.918418
22437.047734,-74.020594,-10362.883188,8503.660028
22437.048067,-1924.535449,-5699.585753,6358.592633
22437.048400,-814.226536,-7328.038826,5286.058936
22437.048733,3478.967927,-8142.265362,8503.660028
22437.049066,0.000000,-4811.338623,4903.011187
22437.049399,0.000000,-2442.679609,4290.134789
22437.049732,2294.638420,-4441.235652,2068.457845
22437.050065,222.061783,-13915.871710,6511.811733
22437.050398,1480.411884,-15174.221811,12870.404366
22437.050730,-962.267725,-7179.997637,4903.011187
22437.051063,2442.679609,-9474.636058,4136.915689
22437.051396,4145.153275,-7476.080014,8886.707777
22437.051729,2590.720797,-5329.482782,6588.421283
22437.052062,-74.020594,-7105.977043,4673.182538
22437.052395,-1480.411884,-8734.430116,4826.401637
22437.052728,-3627.009116,-12435.459826,-76.609550
22437.053061,-3256.906145,-5403.503377,766.095498
22437.053394,-1258.350101,-7105.977043,-76.609550
22437.053727,-2368.659014,-7179.997637,1225.752797
22437.054060,518.144159,-7994.224174,1378.971896
22437.054393,666.185348,-16284.530724,6205.373534
22437.054725,2294.638420,-11251.130318,4519.963438
22437.055058,3849.070898,-9474.636058,4519.963438
22437.055391,6439.791695,-7105.977043,3294.210641
22437.055724,2368.659014,-666.185348,-4290.134789
22437.056057,-1184.329507,-9030.512492,-3753.867940
22437.056390,-3627.009116,-13027.624579,-8810.098227
22437.056723,-2368.659014,-13101.645173,-3524.039291
22437.057056,-814.226536,-8734.430116,-4136.915689
22437.057389,-2738.761985,-10362.883188,-3217.601092
22437.057722,296.082377,-3627.009116,-4903.011187
22437.058055,-1628.453072,-5773.606348,-7354.516781
22437.058388,4663.297435,-10288.862594,-2298.286494
22437.058721,2220.617826,-15692.365970,2068.457845
22437.059053,1554.432478,-16580.613101,1991.848295
22437.059386,2738.761985,-7031.956449,766.095498
22437.059719,518.144159,-5625.565159,-8656.879127
22437.060052,3478.967927,-10658.965565,-8656.879127
22437.060385,-666.185348,-11029.068536,-9806.022374
22437.060718,-444.123565,-17690.922014,-4290.134789
22437.061051,-1628.453072,-5995.668130,-8580.269578
22437.061384,-4441.235652,-5107.421000,-12870.404366
22437.061717,296.082377,-15248.242405,-5362.668486
22437.062050,1258.350101,-12805.562797,-2451.505594
22437.062383,1332.370696,-6365.771101,-4979.620737
22437.062715,1184.329507,-7179.997637,-7354.516781
22437.063048,6439.791695,-10955.047942,536.266849
22437.063381,2294.638420,-10807.006753,0.000000
22437.063714,-1776.494261,-9992.780217,-4979.620737
22437.064047,-74.020594,-13027.624579,-6205.373534
22437.064380,3108.864956,-8586.388927,-5056.230287
22437.064713,2220.617826,-10658.965565,-76.609550
22437.065046,-2664.741391,-6587.832884,-5745.716235
22437.065379,-3330.926739,-10881.027347,-7431.126331
22437.065712,-1998.556043,-15248.242405,-689.485948
22437.066044,1702.473667,-8142.265362,-1532.190996
22437.066377,-1036.288319,-9548.656652,2451.505594
