#time,accel_x,accel_y,accel_z
19586.819000,0.000000,-8364.327145,-4596.572988
19586.819334,3923.091493,-11251.130318,-5592.497135
19586.819667,2738.761985,-11029.068536,-3907.087040
19586.820001,5033.400406,-9844.739029,-1455.581446
19586.820335,8068.244768,-9696.697840,2834.553343
19586.820668,10288.862594,-8586.388927,3600.648841
19586.821002,9474.636058,-7179.997637,4903.011187
19586.821335,13545.768739,-8882.471304,6052.154434
19586.821669,11769.274478,-7698.141797,1455.581446
19586.822002,10066.800811,-9252.574275,3370.820191
19586.822336,7031.956449,-9178.553681,-3064.381992
19586.822670,4219.173869,-11251.130318,-3600.648841
19586.823003,1850.514855,-10584.944971,-4290.134789
19586.823337,1998.556043,-10955.047942,-3370.820191
19586.823670,592.164754,-9548.656652,-2451.505594
19586.824004,0.000000,-9548.656652,1838.629195
19586.824337,4515.256246,-10658.965565,4826.401637
19586.824671,3923.091493,-9474.636058,3600.648841
19586.825005,592.164754,-8364.327145,5515.887586
19586.825338,1702.473667,-7698.141797,3370.820191
19586.825672,518.144159,-7624.121203,2757.943793
19586.826005,370.102971,-6587.832884,536.266849
19586.826339,-2072.576638,-8142.265362,-1608.800546
19586.826672,-3552.988522,-7179.997637,-4366.744339
19586.827006,-1702.473667,-9326.594869,-3140.991542
19586.827339,-74.020594,-8512.368333,-3294.210641
19586.827673,518.144159,-10066.800811,-2145.067394
19586.828007,4663.297435,-11547.212695,-76.609550
19586.828340,6069.688724,-11251.130318,2068.457845
19586.828674,5847.626942,-8512.368333,2451.505594
19586.829007,4737.318029,-9844.739029,4596.572988
19586.829341,7031.956449,-11251.130318,2681.334243
19586.829674,4145.153275,-10288.862594,2451.505594
19586.830008,3775.050304,-9326.594869,842.705048
19586.830342,1480.411884,-9548.656652,76.609550
19586.830675,592.164754,-8364.327145,-536.266849
19586.831009,-666.185348,-7698.141797,-1302.362347
19586.831342,296.082377,-9474.636058,-76.609550
19586.831676,-2368.659014,-7179.997637,612.876398
19586.832009,3404.947333,-8882.471304,2451.505594
19586.832343,5847.626942,-8882.471304,2374.896044
19586.832676,5847.626942,-8882.471304,2987.772442
19586.833010,3108.864956,-10140.821405,0.000000
19586.833344,1258.350101,-11399.171507,-995.924147
19586.833677,-1332.370696,-11917.315666,-2451.505594
19586.834011,-4145.153275,-10140.821405,-3370.820191
19586.834344,-2442.679609,-12731.542202,-2834.553343
19586.834678,-7105.977043,-9548.656652,0.000000
19586.835011,-1258.350101,-8882.471304,842.705048
19586.835345,0.000000,-4811.338623,612.876398
19586.835679,2368.659014,-5033.400406,5745.716235
19586.836012,5921.647536,-5107.421000,6971.469032
19586.836346,8364.327145,-4811.338623,5975.544884
19586.836679,7920.203579,-7772.162391,3370.820191
19586.837013,8290.306550,-9474.636058,0.000000
19586.837346,7920.203579,-9622.677246,-4903.011187
19586.837680,5773.606348,-13693.809927,-3677.258390
19586.838014,4367.215058,-15396.283594,-6205.373534
19586.838347,-1406.391290,-13693.809927,-7967.393179
19586.838681,-1776.494261,-13101.645173,-4596.572988
19586.839014,222.061783,-10807.006753,-229.828649
19586.839348,4293.194464,-7624.121203,3370.820191
19586.839681,5403.503377,-6513.812290,6358.592633
19586.840015,6439.791695,-5921.647536,6665.030833
19586.840348,2368.659014,-4811.338623,7354.516781
19586.840682,5699.585753,-8290.306550,4826.401637
19586.841016,2368.659014,-7179.997637,229.828649
19586.841349,0.000000,-9548.656652,1072.533697
19586.841683,-3478.967927,-11325.150913,-2911.162892
19586.842016,-5403.503377,-11251.130318,-4673.182538
19586.842350,-5403.503377,-11769.274478,-4213.525239
19586.842683,-3775.050304,-8956.491898,-2298.286494
19586.843017,-3182.885551,-10658.965565,-76.609550
19586.843351,-3256.906145,-7772.162391,1225.752797
19586.843684,-2368.659014,-8438.347739,919.314598
19586.844018,0.000000,-7254.018232,1378.971896
19586.844351,1184.329507,-7476.080014,2681.334243
19586.844685,1554.432478,-9474.636058,3600.648841
19586.845018,-74.020594,-9474.636058,76.609550
19586.845352,0.000000,-9548.656652,3294.210641
19586.845686,2294.638420,-7328.038826,0.000000
19586.846019,740.205942,-7476.080014,2145.067394
19586.846353,0.000000,-10658.965565,1149.143247
19586.846686,-3034.844362,-10214.842000,-2451.505594
19586.847020,-4663.297435,-11325.150913,-3370.820191
19586.847353,-4959.379811,-11473.192101,-3753.867940
19586.847687,-5699.585753,-11547.212695,-3447.429741
19586.848020,-6587.832884,-8364.327145,-3524.039291
19586.848354,-2738.761985,-10658.965565,3600.648841
19586.848688,-74.020594,-4737.318029,3524.039291
19586.849021,3552.988522,-4515.256246,8810.098227
19586.849355,7031.956449,-4737.318029,7124.688131
19586.849688,5329.482782,-5033.400406,5439.278036
19586.850022,4737.318029,-6661.853478,1455.581446
19586.850355,4589.276840,-9030.512492,-2374.896044
19586.850689,888.247130,-10140.821405,-5822.325785
19586.851023,-3849.070898,-11917.315666,-8580.269578
19586.851356,-2442.679609,-16580.613101,-8044.002729
19586.851690,-2442.679609,-16580.613101,-6818.249932
19586.852023,-888.247130,-11695.253884,-2451.505594
19586.852357,3478.967927,-8956.491898,2451.505594
19586.852690,5551.544565,-6957.935855,7890.783629
19586.853024,4811.338623,-6365.771101,9269.755526
19586.853357,5699.585753,-5477.523971,9729.412825
19586.853691,5921.647536,-4811.338623,8580.269578
19586.854025,4515.256246,-6217.729913,7048.078582
19586.854358,2294.638420,-7105.977043,-2528.115143
19586.854692,-4737.318029,-9548.656652,-5515.887586
19586.855025,-5921.647536,-11917.315666,-5592.497135
19586.855359,-1258.350101,-10066.800811,-8197.221829
19586.855692,-1110.308913,-12287.418637,-5439.278036
19586.856026,222.061783,-12435.459826,-3753.867940
19586.856360,2072.576638,-11843.295072,-383.047749
19586.856693,4737.318029,-8808.450710,1532.190996
19586.857027,5921.647536,-8808.450710,4443.353888
19586.857360,5181.441594,-8364.327145,5209.449386
19586.857694,4515.256246,-8882.471304,4979.620737
19586.858027,3330.926739,-8290.306550,3294.210641
19586.858361,1702.473667,-8290.306550,1149.143247
19586.858695,0.000000,-5995.668130,0.000000
19586.859028,-1110.308913,-10362.883188,-76.609550
19586.859362,-2442.679609,-9770.718434,-4903.011187
19586.859695,-4219.173869,-12435.459826,-3753.867940
19586.860029,-3701.029710,-12879.583391,-3140.991542
19586.860362,-4441.235652,-11769.274478,-1455.581446
19586.860696,-5033.400406,-10510.924376,76.609550
19586.861029,-3849.070898,-9400.615463,1915.238745
19586.861363,-74.020594,-7772.162391,7124.688131
19586.861697,0.000000,-3034.844362,8580.269578
19586.862030,2960.823768,-5329.482782,7584.345430
19586.862364,370.102971,-3552.988522,1915.238745
19586.862697,-592.164754,-4811.338623,-842.705048
19586.863031,-370.102971,-6883.915261,-4136.915689
19586.863364,74.020594,-10066.800811,-4826.401637
19586.863698,-3330.926739,-11991.336260,-6665.030833
19586.864032,-3775.050304,-14211.954086,-6511.811733
19586.864365,-1850.514855,-15988.448347,-3447.429741
19586.864699,1184.329507,-13101.645173,612.876398
19586.865032,2664.741391,-10436.903782,5898.935335
19586.865366,3923.091493,-7994.224174,5439.278036
19586.865699,0.000000,-6587.832884,6128.763984
19586.866033,740.205942,-5847.626942,4903.011187
19586.866367,1110.308913,-5773.606348,3217.601092
19586.866700,-74.020594,-5477.523971,919.314598
19586.867034,-2516.700203,-6661.853478,-2451.505594
19586.867367,-3849.070898,-6587.832884,-5515.887586
19586.867701,-2960.823768,-10955.047942,-2834.553343
19586.868034,2294.638420,-11103.089130,-1302.362347
19586.868368,3478.967927,-10362.883188,-1455.581446
19586.868701,4663.297435,-11029.068536,1378.971896
19586.869035,3552.988522,-11473.192101,153.219100
19586.869369,5403.503377,-11547.212695,1149.143247
19586.869702,4885.359217,-10732.986159,1838.629195
19586.870035,3404.947333,-9844.739029,1302.362347
19586.870368,592.164754,-10140.821405,612.876398
19586.870702,1110.308913,-10658.965565,-76.609550
19586.871035,0.000000,-5995.668130,0.000000
19586.871368,592.164754,-4811.338623,2451.505594
19586.871701,3478.967927,-7105.977043,2068.457845
19586.872034,0.000000,-8956.491898,4673.182538
19586.872368,814.226536,-9918.759623,0.000000
19586.872701,0.000000,-9622.677246,689.485948
19586.873034,-888.247130,-10732.986159,76.609550
19586.873367,-3552.988522,-11029.068536,919.314598
19586.873701,-4737.318029,-11029.068536,-383.047749
19586.874034,-3034.844362,-8660.409521,919.314598
19586.874367,-222.061783,-6735.874072,2451.505594
19586.874700,-74.020594,-4737.318029,1608.800546
19586.875034,-740.205942,-4293.194464,306.438199
19586.875367,1702.473667,-6809.894666,-76.609550
19586.875700,814.226536,-5403.503377,-3677.258390
19586.876033,1776.494261,-8956.491898,-995.924147
19586.876367,2294.638420,-13027.624579,-689.485948
19586.876700,-370.102971,-13175.665768,-2298.286494
19586.877033,-592.164754,-13101.645173,-2451.505594
19586.877366,1036.288319,-12805.562797,842.705048
19586.877699,1184.329507,-9548.656652,1838.629195
19586.878033,-370.102971,-7179.997637,1225.752797
19586.878366,-1258.350101,-11843.295072,2068.457845
19586.878699,-3627.009116,-8290.306550,-383.047749
19586.879032,-4441.235652,-6587.832884,2451.505594
19586.879366,-962.267725,-4219.173869,2068.457845
19586.879699,-3108.864956,-6661.853478,1302.362347
19586.880032,-2368.659014,-7254.018232,76.609550
19586.880365,-2368.659014,-8660.409521,842.705048
19586.880699,1776.494261,-7994.224174,2451.505594
19586.881032,1184.329507,-6587.832884,2451.505594
19586.881365,3182.885551,-11843.295072,-76.609550
19586.881698,1998.556043,-9770.718434,-2451.505594
19586.882031,0.000000,-9844.739029,-1225.752797
19586.882365,2072.576638,-11325.150913,-2451.505594
19586.882698,-814.226536,-11547.212695,-3294.210641
19586.883031,-1850.514855,-11251.130318,-2834.553343
19586.883364,-888.247130,-9474.636058,-995.924147
19586.883698,1702.473667,-8290.306550,1149.143247
19586.884031,4145.153275,-6735.874072,5439.278036
19586.884364,4663.297435,-8882.471304,4826.401637
19586.884697,3404.947333,-5995.668130,4903.011187
19586.885031,3478.967927,-9474.636058,4826.401637
19586.885364,2886.803174,-10658.965565,1608.800546
19586.885697,74.020594,-9030.512492,-919.314598
19586.886030,-3034.844362,-11325.150913,-2681.334243
19586.886364,-3775.050304,-11547.212695,-3753.867940
19586.886697,-7105.977043,-9548.656652,-4213.525239
19586.887030,-666.185348,-9474.636058,-1302.362347
19586.887363,-962.267725,-6291.750507,306.438199
19586.887696,0.000000,-5995.668130,2757.943793
19586.888030,3182.885551,-5329.482782,76.609550
19586.888363,4959.379811,-6883.915261,3294.210641
19586.888696,7772.162391,-6661.853478,3217.601092
19586.889029,6069.688724,-8290.306550,2374.896044
19586.889363,2812.782580,-11843.295072,-153.219100
19586.889696,74.020594,-10732.986159,-2757.943793
19586.890029,1406.391290,-13027.624579,-2834.553343
19586.890362,962.267725,-11399.171507,-536.266849
19586.890696,-1628.453072,-11029.068536,-1149.143247
19586.891029,-3256.906145,-10658.965565,-1532.190996
19586.891362,-5107.421000,-8142.265362,-1608.800546
19586.891695,-2886.803174,-9104.533087,3600.648841
19586.892029,-370.102971,-5921.647536,2221.676944
19586.892362,-2368.659014,-6291.750507,5898.935335
19586.892695,592.164754,-6883.915261,6128.763984
19586.893028,814.226536,-4515.256246,2604.724693
19586.893361,2886.803174,-6587.832884,2911.162892
19586.893695,3034.844362,-6217.729913,1455.581446
19586.894028,518.144159,-9252.574275,-1685.410096
19586.894361,-2368.659014,-9548.656652,-4903.011187
19586.894694,-1554.432478,-15396.283594,-7431.126331
19586.895028,-3330.926739,-14211.954086,-6511.811733
19586.895361,-3997.112087,-10732.986159,-6128.763984
19586.895694,-2442.679609,-13619.789333,-1302.362347
19586.896027,-2960.823768,-9844.739029,0.000000
19586.896361,1628.453072,-7920.203579,3907.087040
19586.896694,6513.812290,-4811.338623,8656.879127
19586.897027,6365.771101,-5181.441594,8580.269578
19586.897360,4885.359217,-6957.935855,7277.907231
19586.897693,5847.626942,-9474.636058,3600.648841
19586.898027,0.000000,-7476.080014,153.219100
19586.898360,-2368.659014,-9844.739029,-689.485948
19586.898693,-4219.173869,-12435.459826,-6358.592633
19586.899026,-7698.141797,-13841.851115,-5592.497135
19586.899360,-6957.935855,-11769.274478,-5439.278036
19586.899693,-2442.679609,-10066.800811,-2068.457845
19586.900026,0.000000,-7920.203579,2145.067394
19586.900359,3923.091493,-6513.812290,5745.716235
19586.900693,5107.421000,-3552.988522,3600.648841
19586.901026,5921.647536,-5403.503377,7048.078582
19586.901359,8216.285956,-7698.141797,2987.772442
19586.901692,5255.462188,-4811.338623,0.000000
19586.902026,2368.659014,-10881.027347,-76.609550
19586.902359,0.000000,-11695.253884,-4290.134789
19586.902692,-1702.473667,-12361.439231,-5515.887586
19586.903025,-592.164754,-12435.459826,-3447.429741
19586.903358,-74.020594,-11843.295072,-1302.362347
19586.903692,-2590.720797,-11177.109724,-919.314598
19586.904025,-2886.803174,-11029.068536,306.438199
19586.904358,-740.205942,-9104.533087,3524.039291
19586.904691,592.164754,-4811.338623,6741.640382
19586.905025,592.164754,-4811.338623,7967.393179
19586.905358,2294.638420,-7105.977043,4826.401637
19586.905691,148.041188,-4811.338623,1838.629195
19586.906024,0.000000,-6291.750507,2987.772442
19586.906358,666.185348,-5699.585753,-2528.115143
19586.906691,-2960.823768,-10214.842000,-3753.867940
19586.907024,-4737.318029,-11621.233289,-6971.469032
19586.907357,-4145.153275,-11917.315666,-6971.469032
19586.907691,-2960.823768,-14804.118840,-4290.134789
19586.908024,-3627.009116,-11917.315666,-4290.134789
19586.908357,-74.020594,-11843.295072,-1915.238745
19586.908690,592.164754,-9548.656652,3677.258390
19586.909023,5921.647536,-7772.162391,9729.412825
19586.909357,6069.688724,-3775.050304,7507.735880
19586.909690,7772.162391,-6217.729913,9116.536426
19586.910023,4737.318029,-5699.585753,6205.373534
19586.910356,2294.638420,-6661.853478,995.924147
19586.910690,-1110.308913,-10362.883188,-2528.115143
19586.911023,-5921.647536,-10732.986159,-4903.011187
19586.911356,-7179.997637,-11843.295072,-8656.879127
19586.911689,-9178.553681,-12509.480420,-6741.640382
19586.912023,-6439.791695,-13767.830521,-4290.134789
19586.912356,-370.102971,-11843.295072,2068.457845
19586.912689,3404.947333,-7105.977043,6052.154434
19586.913022,3997.112087,-4811.338623,7660.954980
19586.913355,5033.400406,-4515.256246,6435.202183
19586.913689,6735.874072,-5773.606348,5439.278036
19586.914022,7328.038826,-7772.162391,5439.278036
19586.914355,2664.741391,-6291.750507,0.000000
19586.914688,-2368.659014,-9844.739029,-3677.258390
19586.915022,-1850.514855,-13619.789333,-8656.879127
19586.915355,-4737.318029,-11325.150913,-7354.516781
19586.915688,-74.020594,-11843.295072,-3830.477490
19586.916021,0.000000,-11769.274478,0.000000
19586.916355,370.102971,-11843.295072,2374.896044
19586.916688,1184.329507,-10288.862594,4749.792088
19586.917021,4071.132681,-7994.224174,6052.154434
19586.917354,2368.659014,-5995.668130,8580.269578
19586.917688,4663.297435,-5625.565159,5745.716235
19586.918021,222.061783,-4811.338623,2451.505594
19586.918354,-2368.659014,-4811.338623,0.000000
19586.918687,-666.185348,-7698.141797,-3753.867940
19586.919020,-740.205942,-8438.347739,-3370.820191
19586.919354,-1480.411884,-8660.409521,-4903.011187
19586.919687,-1850.514855,-11251.130318,-5898.935335
19586.920020,-666.185348,-13027.624579,-5745.716235
19586.920353,-148.041188,-14211.954086,-2528.115143
19586.920687,1628.453072,-12139.377449,306.438199
19586.921020,1406.391290,-11769.274478,1532.190996
19586.921353,592.164754,-8364.327145,3064.381992
19586.921686,5255.462188,-8290.306550,5898.935335
19586.922020,4737.318029,-3627.009116,5209.449386
19586.922353,5921.647536,-5773.606348,8810.098227
19586.922686,1554.432478,-5995.668130,1532.190996
19586.923019,-2590.720797,-7179.997637,-1225.752797
19586.923353,-3404.947333,-9252.574275,-3677.258390
19586.923686,-4145.153275,-10881.027347,-3983.696590
19586.924019,-6439.791695,-11769.274478,-4673.182538
19586.924352,-5921.647536,-14211.954086,-2374.896044
19586.924685,-2442.679609,-13027.624579,-76.609550
19586.925019,-2368.659014,-7772.162391,3677.258390
19586.925352,1184.329507,-6587.832884,7737.564530
19586.925685,5847.626942,-5625.565159,6281.983084
19586.926018,2368.659014,-3627.009116,5515.887586
19586.926352,4219.173869,-4811.338623,995.924147
19586.926685,2590.720797,-7105.977043,-1149.143247
19586.927018,1924.535449,-9030.512492,-3753.867940
19586.927351,-1850.514855,-10658.965565,-6205.373534
19586.927685,-1850.514855,-15396.283594,-7737.564530
19586.928018,-4145.153275,-13693.809927,-3447.429741
19586.928351,962.267725,-13027.624579,-76.609550
19586.928684,4663.297435,-10658.965565,2145.067394
19586.929017,4071.132681,-11843.295072,7277.907231
19586.929351,2072.576638,-9770.718434,5669.106685
19586.929684,3627.009116,-8216.285956,6588.421283
19586.930017,1924.535449,-6439.791695,6511.811733
19586.930350,592.164754,-4219.173869,3677.258390
19586.930684,-1554.432478,-6957.935855,-1149.143247
19586.931017,-5921.647536,-7179.997637,-612.876398
19586.931350,-1406.391290,-9474.636058,-3140.991542
19586.931683,-74.020594,-9178.553681,-3140.991542
19586.932017,-1480.411884,-7920.203579,-3140.991542
19586.932350,-74.020594,-11473.192101,-2987.772442
19586.932683,2368.659014,-11621.233289,-459.657299
19586.933016,2812.782580,-11473.192101,459.657299
19586.933350,4293.194464,-12435.459826,2451.505594
19586.933683,0.000000,-9844.739029,2451.505594
19586.934016,2294.638420,-10362.883188,3600.648841
19586.934349,3478.967927,-8142.265362,1455.581446
19586.934682,592.164754,-6143.709319,4290.134789
19586.935016,1776.494261,-4885.359217,2374.896044
19586.935349,296.082377,-7105.977043,1072.533697
19586.935682,-1776.494261,-8068.244768,-1532.190996
19586.936015,-2516.700203,-9622.677246,-2681.334243
19586.936349,-1776.494261,-12139.377449,-1762.019645
19586.936682,-3552.988522,-10732.986159,0.000000
19586.937015,-4367.215058,-11399.171507,-1072.533697
19586.937348,-3108.864956,-11103.089130,0.000000
19586.937682,148.041188,-9474.636058,3447.429741
19586.938015,2072.576638,-6587.832884,4903.011187
19586.938348,2442.679609,-3552.988522,2987.772442
19586.938681,0.000000,-5995.668130,3677.258390
19586.939015,2294.638420,-6513.812290,-76.609550
19586.939348,2294.638420,-6809.894666,-2528.115143
19586.939681,1480.411884,-9548.656652,-2834.553343
19586.940014,-2960.823768,-10732.986159,-5515.887586
19586.940347,-2738.761985,-13545.768739,-5669.106685
19586.940681,-74.020594,-12805.562797,-2221.676944
19586.941014,4367.215058,-11843.295072,4826.401637
19586.941347,1776.494261,-8660.409521,5209.449386
19586.941680,1184.329507,-8364.327145,6435.202183
19586.942014,1702.473667,-8290.306550,3294.210641
19586.942347,0.000000,-5995.668130,3677.258390
19586.942680,-74.020594,-8290.306550,1455.581446
19586.943013,-2664.741391,-6735.874072,-153.219100
19586.943347,-4885.359217,-7624.121203,-2298.286494
19586.943680,-3775.050304,-7846.182985,-3140.991542
19586.944013,-2442.679609,-8586.388927,-2068.457845
19586.944346,0.000000,-7476.080014,1838.629195
19586.944679,4367.215058,-9178.553681,3600.648841
19586.945013,4663.297435,-10658.965565,-76.609550
19586.945346,3552.988522,-10510.924376,766.095498
19586.945679,4219.173869,-10881.027347,-383.047749
19586.946012,2590.720797,-11547.212695,0.000000
19586.946346,888.247130,-11843.295072,-766.095498
19586.946679,-1628.453072,-11621.233289,-2451.505594
19586.947012,-1998.556043,-9548.656652,-2451.505594
19586.947345,0.000000,-7772.162391,4519.963438
19586.947679,3478.967927,-5329.482782,919.314598
19586.948012,296.082377,-5995.668130,0.000000
19586.948345,2368.659014,-9918.759623,4749.792088
19586.948678,2294.638420,-7328.038826,1532.190996
19586.949012,2220.617826,-9474.636058,2834.553343
19586.949345,-740.205942,-11177.109724,-76.609550
19586.949678,-2294.638420,-11991.336260,-919.314598
19586.950011,-4589.276840,-11029.068536,-2604.724693
19586.950344,-1702.473667,-9992.780217,-229.828649
19586.950678,-666.185348,-7920.203579,536.266849
19586.951011,0.000000,-7772.162391,1149.143247
19586.951344,1702.473667,-7994.224174,1455.581446
19586.951677,2738.761985,-7105.977043,-1302.362347
19586.952011,296.082377,-6587.832884,0.000000
19586.952344,5847.626942,-10658.965565,2068.457845
19586.952677,2294.638420,-9104.533087,-1225.752797
19586.953010,1776.494261,-12065.356855,0.000000
19586.953344,1406.391290,-12731.542202,-306.438199
19586.953677,3256.906145,-11325.150913,2604.724693
19586.954010,2442.679609,-10584.944971,2451.505594
19586.954343,1110.308913,-10658.965565,995.924147
19586.954677,-2886.803174,-10658.965565,-76.609550
19586.955010,-4737.318029,-8364.327145,1225.752797
19586.955343,-1850.514855,-8882.471304,1149.143247
19586.955676,-666.185348,-5921.647536,-536.266849
19586.956009,-3330.926739,-7920.203579,1149.143247
19586.956343,-2442.679609,-6735.874072,0.000000
19586.956676,-592.164754,-7179.997637,2451.505594
19586.957009,2368.659014,-6069.688724,2987.772442
19586.957342,1776.494261,-6587.832884,919.314598
19586.957676,4663.297435,-9474.636058,-76.609550
19586.958009,2368.659014,-12065.356855,1762.019645
19586.958342,3478.967927,-11843.295072,-3140.991542
19586.958675,0.000000,-11917.315666,-4903.011187
19586.959009,-2368.659014,-12805.562797,-4903.011187
19586.959342,-4367.215058,-12361.439231,-3447.429741
19586.959675,-1702.473667,-9770.718434,-2221.676944
19586.960008,814.226536,-7772.162391,1685.410096
19586.960341,5255.462188,-6513.812290,6052.154434
19586.960675,4959.379811,-4811.338623,6128.763984
19586.961008,5847.626942,-7105.977043,6052.154434
19586.961341,4071.132681,-5699.585753,1838.629195
19586.961674,2960.823768,-10066.800811,3600.648841
19586.962008,-148.041188,-10658.965565,-612.876398
19586.962341,-4367.215058,-11843.295072,-3600.648841
19586.962674,-6957.935855,-12509.480420,-4903.011187
19586.963007,-6513.812290,-11325.150913,-4443.353888
19586.963341,-2738.761985,-9474.636058,-1608.800546
19586.963674,-2368.659014,-6587.832884,1838.629195
19586.964007,-74.020594,-6513.812290,689.485948
19586.964340,2368.659014,-2442.679609,229.828649
19586.964674,4737.318029,-6883.915261,6358.592633
19586.965007,7846.182985,-7105.977043,5592.497135
19586.965340,4737.318029,-9104.533087,1915.238745
19586.965673,1924.535449,-11547.212695,0.000000
19586.966006,1110.308913,-11843.295072,-2834.553343
19586.966340,1110.308913,-11843.295072,-2528.115143
19586.966673,-1184.329507,-11029.068536,-2145.067394
19586.967006,-2442.679609,-11621.233289,-2681.334243
19586.967339,-5255.462188,-11399.171507,-1915.238745
19586.967673,-3108.864956,-10362.883188,-995.924147
19586.968006,-1554.432478,-9474.636058,2374.896044
19586.968339,-1110.308913,-4811.338623,3064.381992
19586.968672,0.000000,-7179.997637,8427.050478
19586.969006,1702.473667,-4811.338623,3677.258390
19586.969339,1184.329507,-6291.750507,4366.744339
19586.969672,4515.256246,-7698.141797,3600.648841
19586.970005,3330.926739,-7105.977043,689.485948
19586.970339,1110.308913,-9178.553681,-2834.553343
19586.970672,-962.267725,-12435.459826,-5975.544884
19586.971005,-2738.761985,-12287.418637,-7890.783629
19586.971338,-4441.235652,-13101.645173,-5822.325785
19586.971672,-1850.514855,-13027.624579,-4979.620737
19586.972005,-2442.679609,-11843.295072,-3830.477490
19586.972338,0.000000,-9992.780217,3140.991542
19586.972671,5847.626942,-9474.636058,7277.907231
19586.973005,8808.450710,-4737.318029,11568.042020
19586.973338,6735.874072,-4811.338623,9193.145976
19586.973671,4441.235652,-7105.977043,6281.983084
19586.974004,1776.494261,-4811.338623,1838.629195
19586.974338,-74.020594,-6883.915261,-4903.011187
19586.974671,-2960.823768,-11843.295072,-3753.867940
19586.975004,-7772.162391,-11769.274478,-9193.145976
19586.975337,-8660.409521,-12213.398043,-8580.269578
19586.975671,-6587.832884,-11843.295072,-4366.744339
19586.976004,-2516.700203,-9252.574275,153.219100
19586.976337,1184.329507,-7105.977043,3447.429741
19586.976671,3552.988522,-6069.688724,6128.763984
19586.977004,5921.647536,-5255.462188,5515.887586
19586.977337,5773.606348,-4219.173869,4903.011187
19586.977670,7105.977043,-8660.409521,6052.154434
19586.978004,4663.297435,-7994.224174,-1762.019645
19586.978337,1184.329507,-12361.439231,-2451.505594
19586.978670,-1776.494261,-11917.315666,-6741.640382
19586.979003,-1406.391290,-12805.562797,-4826.401637
19586.979337,-1554.432478,-11769.274478,-2681.334243
19586.979670,-814.226536,-11177.109724,-459.657299
19586.980003,-1406.391290,-12435.459826,-76.609550
19586.980336,-3552.988522,-9548.656652,3370.820191
19586.980670,-74.020594,-8290.306550,3753.867940
19586.981003,740.205942,-3627.009116,6128.763984
19586.981336,3775.050304,-6513.812290,6052.154434
19586.981669,148.041188,-6587.832884,3064.381992
19586.982003,1702.473667,-7105.977043,2528.115143
19586.982336,1406.391290,-6217.729913,536.266849
19586.982669,888.247130,-7772.162391,-1762.019645
19586.983002,-370.102971,-9474.636058,-4366.744339
19586.983336,-4145.153275,-12213.398043,-6511.811733
19586.983669,-1702.473667,-11991.336260,-6588.421283
19586.984002,-2368.659014,-14211.954086,-4060.306139
19586.984336,-1998.556043,-11917.315666,-2451.505594
19586.984669,1702.473667,-13619.789333,3064.381992
19586.985002,2368.659014,-7772.162391,2757.943793
19586.985335,5329.482782,-7550.100608,9422.974625
19586.985669,6439.791695,-4811.338623,7660.954980
19586.986002,6143.709319,-3034.844362,6128.763984
19586.986335,3256.906145,-7105.977043,4213.525239
19586.986668,666.185348,-8142.265362,-689.485948
19586.987002,-3849.070898,-9548.656652,-3830.477490
19586.987335,-5847.626942,-11473.192101,-6741.640382
19586.987668,-6587.832884,-12435.459826,-7431.126331
19586.988001,-8438.347739,-11917.315666,-6741.640382
19586.988335,-3182.885551,-13619.789333,-76.609550
19586.988668,-666.185348,-8068.244768,2451.505594
19586.989001,3552.988522,-5995.668130,8886.707777
19586.989334,6735.874072,-5921.647536,7277.907231
19586.989668,5625.565159,-5255.462188,6205.373534
19586.990001,7624.121203,-4811.338623,3983.696590
19586.990334,6439.791695,-7402.059420,2221.676944
19586.990667,2368.659014,-8068.244768,-3064.381992
19586.991001,-814.226536,-15100.201217,-6205.373534
19586.991334,-4737.318029,-13101.645173,-9499.584175
19586.991667,-3627.009116,-11029.068536,-7354.516781
19586.992000,-814.226536,-11843.295072,-2681.334243
19586.992334,-888.247130,-11621.233289,1072.533697
19586.992667,-1406.391290,-10436.903782,3677.258390
19586.993000,1554.432478,-7402.059420,5822.325785
19586.993334,3330.926739,-6217.729913,7584.345430
19586.993667,4071.132681,-5921.647536,9422.974625
19586.994000,2294.638420,-6513.812290,4826.401637
19586.994333,-2960.823768,-6587.832884,3677.258390
19586.994667,-666.185348,-7698.141797,-76.609550
19586.995000,-962.267725,-7105.977043,-4979.620737
19586.995333,-2960.823768,-9104.533087,-3677.258390
19586.995666,-1924.535449,-10288.862594,-5898.935335
19586.996000,-2738.761985,-12139.377449,-6205.373534
19586.996333,-1184.329507,-11917.315666,-4596.572988
19586.996666,1702.473667,-13915.871710,-76.609550
19586.996999,962.267725,-10140.821405,1838.629195
19586.997333,1184.329507,-10214.842000,3294.210641
19586.997666,2294.638420,-8956.491898,4060.306139
19586.997999,2812.782580,-3627.009116,4903.011187
19586.998332,7031.956449,-4737.318029,4443.353888
19586.998666,4737.318029,-7550.100608,7277.907231
19586.998999,-74.020594,-7105.977043,0.000000
19586.999332,-4737.318029,-7179.997637,-3677.258390
19586.999665,-4145.153275,-8512.368333,-5515.887586
19586.999999,-5329.482782,-11547.212695,-4979.620737
19587.000332,-5921.647536,-12065.356855,-5209.449386
19587.000665,-5921.647536,-13249.686362,-2374.896044
19587.000999,-1776.494261,-11473.192101,2451.505594
19587.001332,1554.432478,-6291.750507,5362.668486
19587.001665,5847.626942,-5921.647536,5439.278036
19587.001998,3552.988522,-4219.173869,7660.954980
19587.002332,3849.070898,-5107.421000,5515.887586
19587.002665,4737.318029,-6291.750507,919.314598
19587.002998,3256.906145,-7624.121203,-1378.971896
19587.003331,1110.308913,-10140.821405,-5056.230287
19587.003665,-1406.391290,-12361.439231,-7660.954980
19587.003998,-3627.009116,-14211.954086,-7737.564530
19587.004331,-3404.947333,-12509.480420,-3677.258390
19587.004664,222.061783,-10214.842000,-1455.581446
19587.004998,1184.329507,-10140.821405,6128.763984
19587.005331,2442.679609,-10066.800811,7354.516781
19587.005664,3478.967927,-8882.471304,7277.907231
19587.005997,2886.803174,-6809.894666,7277.907231
19587.006331,1702.473667,-5255.462188,6205.373534
19587.006664,-740.205942,-5255.462188,2068.457845
19587.006997,-3923.091493,-7254.018232,-2068.457845
19587.007330,-3627.009116,-9474.636058,-2528.115143
19587.007664,-4737.318029,-7179.997637,-3370.820191
19587.007997,-4145.153275,-8660.409521,-2987.772442
19587.008330,-74.020594,-10362.883188,-4060.306139
19587.008663,-1998.556043,-9696.697840,-4290.134789
19587.008997,2294.638420,-11177.109724,-995.924147
19587.009330,3404.947333,-11547.212695,1302.362347
19587.009663,2664.741391,-10732.986159,2451.505594
19587.009997,1480.411884,-10214.842000,2681.334243
19587.010330,1110.308913,-8734.430116,1762.019645
19587.010663,592.164754,-7772.162391,4979.620737
19587.010996,3404.947333,-6513.812290,3600.648841
19587.011330,1110.308913,-5699.585753,0.000000
19587.011663,-1776.494261,-5995.668130,0.000000
19587.011996,-1850.514855,-9474.636058,-2987.772442
19587.012329,-1406.391290,-10362.883188,-1991.848295
19587.012663,-2886.803174,-10807.006753,-536.266849
19587.012996,-3552.988522,-10955.047942,-689.485948
19587.013329,-1850.514855,-11547.212695,-1608.800546
19587.013662,-740.205942,-11547.212695,2374.896044
19587.013996,296.082377,-7624.121203,4596.572988
19587.014329,2442.679609,-5255.462188,5286.058936
19587.014662,2368.659014,-4811.338623,3677.258390
19587.014995,2294.638420,-5921.647536,229.828649
19587.015329,814.226536,-4737.318029,-2528.115143
19587.015662,1184.329507,-7179.997637,-1378.971896
19587.015995,1702.473667,-9474.636058,-4673.182538
19587.016328,-962.267725,-10140.821405,-6128.763984
19587.016662,148.041188,-13767.830521,-3217.601092
19587.016995,2738.761985,-12435.459826,0.000000
19587.017328,4737.318029,-10436.903782,3294.210641
19587.017662,6291.750507,-11695.253884,6358.592633
19587.017995,4663.297435,-9474.636058,3907.087040
19587.018328,0.000000,-7772.162391,3983.696590
19587.018661,1184.329507,-9252.574275,4826.401637
19587.018995,-1258.350101,-5995.668130,0.000000
19587.019328,-3552.988522,-6587.832884,919.314598
19587.019661,-2738.761985,-6365.771101,-1838.629195
19587.019994,-2886.803174,-8290.306550,-1915.238745
19587.020328,74.020594,-7105.977043,-1532.190996
19587.020661,1702.473667,-8882.471304,1149.143247
19587.020994,4071.132681,-7402.059420,-1685.410096
19587.021327,2368.659014,-10140.821405,1762.019645
19587.021661,3182.885551,-11843.295072,-689.485948
19587.021994,2886.803174,-10955.047942,-1608.800546
19587.022327,370.102971,-12435.459826,-76.609550
19587.022660,-1628.453072,-11177.109724,-842.705048
19587.022994,-3330.926739,-10362.883188,-2298.286494
19587.023327,-2368.659014,-8364.327145,0.000000
19587.023660,0.000000,-5403.503377,3064.381992
19587.023993,0.000000,-4959.379811,3064.381992
19587.024327,2368.659014,-7105.977043,4519.963438
19587.024660,-74.020594,-8882.471304,1915.238745
19587.024993,296.082377,-7179.997637,1991.848295
19587.025326,-1184.329507,-8956.491898,612.876398
19587.025660,-2738.761985,-11843.295072,-689.485948
19587.025993,-4367.215058,-12435.459826,-2221.676944
19587.026326,-5181.441594,-11325.150913,-1225.752797
19587.026660,-1258.350101,-9474.636058,1149.143247
19587.026993,-888.247130,-9474.636058,2374.896044
19587.027326,-962.267725,-5699.585753,153.219100
19587.027659,-3552.988522,-4811.338623,1838.629195
19587.027993,2294.638420,-6513.812290,-1915.238745
19587.028326,3108.864956,-5995.668130,0.000000
19587.028659,2368.659014,-9548.656652,919.314598
19587.028992,2516.700203,-10436.903782,-766.095498
19587.029326,1480.411884,-12435.459826,-536.266849
19587.029659,1702.473667,-11843.295072,-842.705048
19587.029992,4663.297435,-11843.295072,1762.019645
19587.030325,2516.700203,-10658.965565,2298.286494
19587.030659,148.041188,-10140.821405,995.924147
19587.030992,-2516.700203,-10140.821405,229.828649
19587.031325,-1258.350101,-8882.471304,-76.609550
19587.031658,-2368.659014,-7476.080014,2451.505594
19587.031992,-74.020594,-7105.977043,-76.609550
19587.032325,-3552.988522,-6291.750507,1608.800546
19587.032658,-1184.329507,-7476.080014,1225.752797
19587.032991,3182.885551,-5921.647536,1762.019645
19587.033325,4515.256246,-6661.853478,2911.162892
19587.033658,4071.132681,-9178.553681,1455.581446
19587.033991,2960.823768,-9548.656652,-766.095498
19587.034325,740.205942,-10140.821405,-3677.258390
19587.034658,2960.823768,-14063.912898,-1915.238745
19587.034991,-1258.350101,-14211.954086,-4979.620737
19587.035324,-3775.050304,-11621.233289,-4903.011187
19587.035658,-1258.350101,-13027.624579,-383.047749
19587.035991,-740.205942,-7772.162391,0.000000
19587.036324,3108.864956,-5995.668130,3983.696590
19587.036657,5255.462188,-6513.812290,7584.345430
19587.036991,5551.544565,-5625.565159,7507.735880
19587.037324,2368.659014,-6587.832884,4903.011187
19587.037657,3923.091493,-11251.130318,3600.648841
19587.037990,0.000000,-8364.327145,0.000000
19587.038324,-6513.812290,-9844.739029,-2451.505594
19587.038657,-5699.585753,-13619.789333,-6205.373534
19587.038990,-8882.471304,-12805.562797,-4443.353888
19587.039323,-5329.482782,-10436.903782,-2451.505594
19587.039657,-1258.350101,-8438.347739,995.924147
19587.039990,1406.391290,-7105.977043,2987.772442
19587.040323,3182.885551,-6513.812290,4213.525239
19587.040656,4663.297435,-8290.306550,2374.896044
19587.040990,5847.626942,-4811.338623,3677.258390
19587.041323,6143.709319,-9474.636058,4826.401637
19587.041656,4071.132681,-9474.636058,-1302.362347
19587.041989,0.000000,-11917.315666,-459.657299
19587.042323,-1258.350101,-12287.418637,-3524.039291
19587.042656,296.082377,-11621.233289,-2221.676944
19587.042989,-2368.659014,-11473.192101,-1302.362347
19587.043323,-2442.679609,-10955.047942,-76.609550
19587.043656,-4885.359217,-9178.553681,-766.095498
19587.043989,-2516.700203,-8586.388927,689.485948
19587.044322,-1702.473667,-7031.956449,3447.429741
19587.044656,-1036.288319,-3627.009116,3064.381992
19587.044989,74.020594,-4219.173869,5515.887586
19587.045322,1924.535449,-8290.306550,4826.401637
19587.045655,1184.329507,-4811.338623,0.000000
19587.045989,2664.741391,-6883.915261,2451.505594
19587.046322,2294.638420,-7994.224174,-1302.362347
19587.046655,0.000000,-10436.903782,-3753.867940
19587.046988,-2146.597232,-13545.768739,-5898.935335
19587.047322,-2146.597232,-13323.706956,-6281.983084
19587.047655,-2960.823768,-12805.562797,-3983.696590
19587.047988,-1850.514855,-11991.336260,-3677.258390
19587.048321,-74.020594,-13027.624579,-76.609550
19587.048655,1110.308913,-7179.997637,2604.724693
19587.048988,5403.503377,-3627.009116,7660.954980
19587.049321,6513.812290,-3923.091493,9039.926876
19587.049654,5773.606348,-6217.729913,7277.907231
19587.049988,4071.132681,-7031.956449,4826.401637
19587.050321,1554.432478,-8290.306550,842.705048
19587.050654,-74.020594,-10658.965565,-2528.115143
19587.050987,-6809.894666,-10732.986159,-7354.516781
19587.051321,-7772.162391,-14211.954086,-8963.317327
19587.051654,-7920.203579,-11917.315666,-7048.078582
19587.051987,-3849.070898,-11843.295072,-2451.505594
19587.052321,2294.638420,-9474.636058,3600.648841
19587.052654,3701.029710,-6365.771101,6205.373534
19587.052987,5329.482782,-4071.132681,7354.516781
19587.053320,6883.915261,-4737.318029,6052.154434
19587.053654,7254.018232,-6069.688724,4213.525239
19587.053987,5921.647536,-8364.327145,4596.572988
19587.054320,2294.638420,-8734.430116,-3064.381992
19587.054653,-2960.823768,-11325.150913,-3677.258390
19587.054987,-1850.514855,-14804.118840,-6511.811733
19587.055320,-2738.761985,-12435.459826,-5439.278036
19587.055653,-814.226536,-11547.212695,-2528.115143
19587.055986,-1406.391290,-11399.171507,-383.047749
19587.056320,-3256.906145,-10658.965565,1225.752797
19587.056653,-888.247130,-8290.306550,4213.525239
19587.056986,3478.967927,-9178.553681,8503.660028
19587.057319,0.000000,-2738.761985,7967.393179
19587.057653,2294.638420,-6513.812290,7277.907231
19587.057986,2294.638420,-7105.977043,2374.896044
19587.058319,-370.102971,-6217.729913,842.705048
19587.058652,1406.391290,-6661.853478,-1762.019645
19587.058986,-1850.514855,-8956.491898,-4596.572988
19587.059319,-3256.906145,-11547.212695,-7048.078582
19587.059652,-3478.967927,-11991.336260,-6511.811733
19587.059986,-666.185348,-14211.954086,-4979.620737
19587.060319,-2664.741391,-13397.727550,-3447.429741
19587.060652,-1480.411884,-12065.356855,-383.047749
19587.060985,666.185348,-10288.862594,3217.601092
19587.061319,1776.494261,-5403.503377,4903.011187
19587.061652,6883.915261,-6809.894666,8503.660028
19587.061985,6883.915261,-4145.153275,7277.907231
19587.062318,2368.659014,-6587.832884,7967.393179
19587.062652,2590.720797,-6513.812290,536.266849
19587.062985,-1258.350101,-8660.409521,-4443.353888
19587.063318,-3627.009116,-11547.212695,-5898.935335
19587.063651,-6291.750507,-11917.315666,-6818.249932
19587.063985,-8068.244768,-13397.727550,-6665.030833
19587.064318,-7698.141797,-13323.706956,-3140.991542
19587.064651,-2960.823768,-13471.748144,2374.896044
19587.064984,2294.638420,-5403.503377,5515.887586
19587.065318,4663.297435,-3330.926739,6435.202183
19587.065651,5329.482782,-3627.009116,7277.907231
19587.065984,5033.400406,-4811.338623,5822.325785
19587.066317,6883.915261,-5921.647536,2757.943793
19587.066651,5625.565159,-7031.956449,0.000000
19587.066984,444.123565,-11695.253884,-4826.401637
19587.067317,-1258.350101,-14211.954086,-7737.564530
19587.067650,-3478.967927,-17764.942608,-7431.126331
19587.067984,-2368.659014,-11917.315666,-4903.011187
19587.068317,444.123565,-13323.706956,0.000000
19587.068650,1850.514855,-12361.439231,2987.772442
19587.068984,3478.967927,-10066.800811,7737.564530
19587.069317,2590.720797,-7179.997637,7431.126331
19587.069650,3997.112087,-5625.565159,7201.297681
19587.069983,3256.906145,-5107.421000,7048.078582
19587.070316,296.082377,-4811.338623,2604.724693
19587.070650,-74.020594,-6217.729913,-1302.362347
19587.070983,-4737.318029,-7772.162391,-1225.752797
19587.071316,-370.102971,-9474.636058,-4979.620737
19587.071649,-3552.988522,-8364.327145,-7201.297681
19587.071983,-2442.679609,-11843.295072,-5592.497135
19587.072316,-2664.741391,-12879.583391,-4366.744339
19587.072649,0.000000,-13989.892304,-842.705048
19587.072982,1332.370696,-10732.986159,1455.581446
19587.073315,1184.329507,-11177.109724,2757.943793
19587.073649,444.123565,-7772.162391,3064.381992
19587.073982,3775.050304,-8882.471304,6894.859482
19587.074315,5847.626942,-7105.977043,4826.401637
19587.074648,2664.741391,-4219.173869,5209.449386
19587.074981,0.000000,-7105.977043,2834.553343
19587.075315,-1480.411884,-8882.471304,-1532.190996
19587.075648,-3330.926739,-9400.615463,-3294.210641
19587.075981,-3701.029710,-10955.047942,-3370.820191
19587.076314,-5181.441594,-12065.356855,-3524.039291
19587.076648,-6957.935855,-12805.562797,-3677.258390
19587.076981,-4811.338623,-11843.295072,-689.485948
19587.077314,-1406.391290,-9474.636058,3524.039291
19587.077647,2590.720797,-6587.832884,5822.325785
19587.077980,4145.153275,-4811.338623,6435.202183
19587.078314,3478.967927,-4737.318029,4213.525239
19587.078647,1184.329507,-5403.503377,3370.820191
19587.078980,3182.885551,-7402.059420,-1608.800546
19587.079313,3182.885551,-10362.883188,-2528.115143
19587.079647,-1776.494261,-10732.986159,-4826.401637
19587.079980,-3256.906145,-12805.562797,-7354.516781
19587.080313,-2960.823768,-14359.995275,-5286.058936
19587.080646,296.082377,-12805.562797,-919.314598
19587.080979,5255.462188,-11547.212695,6511.811733
19587.081313,1480.411884,-7476.080014,4903.011187
19587.081646,0.000000,-8364.327145,6741.640382
19587.081979,4071.132681,-7698.141797,5745.716235
19587.082312,1628.453072,-4219.173869,4903.011187
19587.082645,3330.926739,-5921.647536,4826.401637
19587.082979,-1702.473667,-6957.935855,689.485948
19587.083312,-3404.947333,-7994.224174,-2757.943793
19587.083645,-2812.782580,-8734.430116,-3753.867940
19587.083978,-74.020594,-9474.636058,-3140.991542
19587.084312,-2960.823768,-8364.327145,-3677.258390
19587.084645,444.123565,-12731.542202,-1838.629195
19587.084978,2664.741391,-13027.624579,-1302.362347
19587.085311,1184.329507,-10140.821405,0.000000
19587.085644,4071.132681,-10510.924376,919.314598
19587.085978,3478.967927,-10362.883188,2298.286494
19587.086311,2368.659014,-9622.677246,3524.039291
19587.086644,2664.741391,-7772.162391,3217.601092
19587.086977,3478.967927,-5403.503377,2451.505594
19587.087310,0.000000,-5995.668130,3983.696590
19587.087644,2590.720797,-9474.636058,842.705048
19587.087977,-1850.514855,-7698.141797,-3294.210641
19587.088310,-4737.318029,-9548.656652,-3677.258390
19587.088643,-1258.350101,-11251.130318,-3140.991542
19587.088977,-740.205942,-11251.130318,76.609550
19587.089310,-2146.597232,-11251.130318,689.485948
19587.089643,-2812.782580,-10732.986159,1532.190996
19587.089976,-666.185348,-7698.141797,3294.210641
19587.090309,2220.617826,-6291.750507,5439.278036
19587.090643,3034.844362,-5107.421000,5132.839837
19587.090976,1110.308913,-5921.647536,2068.457845
19587.091309,1924.535449,-8290.306550,-76.609550
19587.091642,2886.803174,-7105.977043,-3753.867940
19587.091976,296.082377,-8660.409521,-3370.820191
19587.092309,1702.473667,-12879.583391,-2528.115143
19587.092642,-1554.432478,-14063.912898,-5056.230287
19587.092975,-1184.329507,-12805.562797,-3064.381992
19587.093308,2294.638420,-11251.130318,1302.362347
19587.093642,4071.132681,-10658.965565,3907.087040
19587.093975,3404.947333,-8882.471304,5669.106685
19587.094308,-74.020594,-9474.636058,4826.401637
19587.094641,0.000000,-9474.636058,3600.648841
19587.094974,-3552.988522,-6291.750507,3064.381992
19587.095308,-2146.597232,-7846.182985,2987.772442
19587.095641,-2442.679609,-7105.977043,-1915.238745
19587.095974,-3330.926739,-8586.388927,-1302.362347
19587.096307,-3330.926739,-7920.203579,-2451.505594
19587.096641,296.082377,-8660.409521,0.000000
19587.096974,2368.659014,-8290.306550,1762.019645
19587.097307,1184.329507,-7772.162391,612.876398
19587.097640,3478.967927,-12731.542202,-383.047749
19587.097973,0.000000,-10732.986159,1225.752797
19587.098307,3478.967927,-13027.624579,-76.609550
19587.098640,0.000000,-9548.656652,-2451.505594
19587.098973,-2960.823768,-11177.109724,-1302.362347
19587.099306,-2664.741391,-9326.594869,-459.657299
19587.099639,-740.205942,-6439.791695,1225.752797
19587.099973,1776.494261,-5403.503377,2604.724693
19587.100306,1776.494261,-6883.915261,3677.258390
19587.100639,1998.556043,-6587.832884,306.438199
19587.100972,4071.132681,-9474.636058,4826.401637
19587.101306,2294.638420,-8808.450710,0.000000
19587.101639,-1184.329507,-11769.274478,-153.219100
19587.101972,-1924.535449,-12805.562797,-1532.190996
19587.102305,-5033.400406,-13323.706956,-2221.676944
19587.102638,-3034.844362,-10584.944971,-1532.190996
19587.102972,-1110.308913,-8364.327145,612.876398
19587.103305,1406.391290,-7698.141797,2374.896044
19587.103638,0.000000,-4811.338623,3064.381992
19587.103971,4663.297435,-6513.812290,536.266849
19587.104305,2368.659014,-4811.338623,-1762.019645
19587.104638,4737.318029,-10066.800811,2068.457845
19587.104971,3923.091493,-9326.594869,0.000000
19587.105304,1184.329507,-11991.336260,-1378.971896
19587.105637,1850.514855,-13101.645173,-1991.848295
19587.105971,3404.947333,-12139.377449,842.705048
19587.106304,3330.926739,-11843.295072,1762.019645
19587.106637,296.082377,-10140.821405,2451.505594
19587.106970,-2516.700203,-10510.924376,76.609550
19587.107303,-2516.700203,-9252.574275,153.219100
19587.107637,-2442.679609,-7994.224174,766.095498
19587.107970,-74.020594,-7105.977043,2987.772442
19587.108303,-3552.988522,-5995.668130,919.314598
19587.108636,-74.020594,-9474.636058,3600.648841
19587.108970,-740.205942,-5403.503377,1225.752797
19587.109303,1924.535449,-7105.977043,3524.039291
19587.109636,2960.823768,-8734.430116,2221.676944
19587.109969,2368.659014,-8956.491898,0.000000
19587.110302,740.205942,-11251.130318,-2221.676944
19587.110636,1258.350101,-11473.192101,-3677.258390
19587.110969,-1258.350101,-13323.706956,-3907.087040
19587.111302,-3627.009116,-11029.068536,-4903.011187
19587.111635,-2738.761985,-13619.789333,-1838.629195
19587.111968,-74.020594,-10658.965565,-2528.115143
19587.112302,0.000000,-6587.832884,2451.505594
19587.112635,5255.462188,-5625.565159,5439.278036
19587.112968,4441.235652,-5699.585753,8197.221829
19587.113301,3701.029710,-6291.750507,6971.469032
19587.113635,3256.906145,-6957.935855,3677.258390
19587.113968,888.247130,-7772.162391,0.000000
19587.114301,-4737.318029,-9548.656652,0.000000
19587.114634,-2738.761985,-11843.295072,-6205.373534
19587.114967,-7550.100608,-11991.336260,-7354.516781
19587.115301,-7105.977043,-11621.233289,-4749.792088
19587.115634,-3034.844362,-8734.430116,-2298.286494
19587.115967,1110.308913,-7994.224174,1455.581446
19587.116300,1406.391290,-6365.771101,2757.943793
19587.116634,4367.215058,-4737.318029,2987.772442
19587.116967,7105.977043,-6217.729913,5209.449386
19587.117300,8660.409521,-8290.306550,6052.154434
19587.117633,7031.956449,-9474.636058,842.705048
19587.117966,592.164754,-11029.068536,-919.314598
19587.118300,0.000000,-12509.480420,-1915.238745
19587.118633,518.144159,-10881.027347,-4290.134789
19587.118966,0.000000,-12213.398043,-1608.800546
19587.119299,-666.185348,-11547.212695,-995.924147
19587.119632,-2960.823768,-11251.130318,-459.657299
19587.119966,-2072.576638,-10436.903782,1378.971896
19587.120299,-1702.473667,-8882.471304,1762.019645
19587.120632,0.000000,-6587.832884,3830.477490
19587.120965,1406.391290,-5329.482782,5132.839837
19587.121299,962.267725,-6661.853478,4213.525239
19587.121632,1480.411884,-6513.812290,2987.772442
19587.121965,1184.329507,-5403.503377,3064.381992
19587.122298,4071.132681,-8586.388927,-76.609550
19587.122631,2294.638420,-9178.553681,-3140.991542
19587.122965,-1850.514855,-12953.603985,-5592.497135
19587.123298,-1332.370696,-14211.954086,-6818.249932
19587.123631,-3330.926739,-13545.768739,-5132.839837
19587.123964,-2368.659014,-13027.624579,-3753.867940
19587.124297,-4145.153275,-11843.295072,-1838.629195
19587.124631,-74.020594,-10066.800811,2681.334243
19587.124964,0.000000,-5995.668130,8580.269578
19587.125297,7624.121203,-4737.318029,8503.660028
19587.125630,5107.421000,-4145.153275,7277.907231
19587.125964,2368.659014,-5995.668130,5515.887586
19587.126297,2294.638420,-7402.059420,1225.752797
19587.126630,-222.061783,-9326.594869,-1149.143247
19587.126963,-3627.009116,-11769.274478,-4979.620737
19587.127296,-7179.997637,-13471.748144,-7584.345430
19587.127630,-8660.409521,-13027.624579,-8044.002729
19587.127963,-5699.585753,-13323.706956,-2451.505594
19587.128296,-1406.391290,-11251.130318,-76.609550
19587.128629,962.267725,-4959.379811,2757.943793
19587.128963,4145.153275,-6291.750507,8273.831378
19587.129296,4737.318029,-3034.844362,6435.202183
19587.129629,6513.812290,-5329.482782,5592.497135
19587.129962,5921.647536,-7105.977043,3677.258390
19587.130295,4589.276840,-8586.388927,0.000000
19587.130629,0.000000,-10140.821405,-4903.011187
19587.130962,-74.020594,-14211.954086,-7431.126331
19587.131295,-4145.153275,-12509.480420,-7354.516781
19587.131628,-2368.659014,-12213.398043,-1072.533697
19587.131961,-74.020594,-13027.624579,-76.609550
19587.132295,-2368.659014,-11251.130318,995.924147
19587.132628,-592.164754,-9178.553681,2681.334243
19587.132961,1332.370696,-7476.080014,6358.592633
19587.133294,3256.906145,-4515.256246,7507.735880
19587.133628,2960.823768,-5551.544565,6665.030833
19587.133961,2294.638420,-7698.141797,2221.676944
19587.134294,0.000000,-7179.997637,2451.505594
19587.134627,2294.638420,-9474.636058,-1302.362347
19587.134960,1702.473667,-8882.471304,-3753.867940
19587.135294,-1628.453072,-11103.089130,-3907.087040
19587.135627,-3034.844362,-12361.439231,-6128.763984
19587.135960,-962.267725,-11621.233289,-5898.935335
19587.136293,-1776.494261,-13471.748144,-3294.210641
19587.136626,0.000000,-11917.315666,-536.266849
19587.136960,0.000000,-11695.253884,1838.629195
19587.137293,2072.576638,-9474.636058,4213.525239
19587.137626,4293.194464,-6513.812290,5822.325785
19587.137959,5255.462188,-5329.482782,6741.640382
19587.138293,3849.070898,-4811.338623,7354.516781
19587.138626,3923.091493,-7105.977043,4519.963438
19587.138959,-74.020594,-5403.503377,0.000000
19587.139292,-2368.659014,-9770.718434,-2528.115143
19587.139625,-4219.173869,-13027.624579,-4979.620737
19587.139959,-7328.038826,-11769.274478,-6741.640382
19587.140292,-8956.491898,-14063.912898,-5515.887586
19587.140625,-6069.688724,-11547.212695,-2528.115143
19587.140958,-2368.659014,-7772.162391,2451.505594
19587.141292,296.082377,-4811.338623,7354.516781
19587.141625,6439.791695,-4737.318029,6665.030833
19587.141958,3552.988522,-2738.761985,4903.011187
19587.142291,5033.400406,-5107.421000,5286.058936
19587.142624,4293.194464,-5255.462188,229.828649
19587.142958,3034.844362,-9770.718434,-2987.772442
19587.143291,-1702.473667,-12287.418637,-6971.469032
19587.143624,-3923.091493,-14137.933492,-7584.345430
19587.143957,-666.185348,-14063.912898,-5592.497135
19587.144290,-2072.576638,-11917.315666,-383.047749
19587.144624,2886.803174,-11843.295072,-383.047749
19587.144957,0.000000,-9844.739029,3064.381992
19587.145290,0.000000,-8364.327145,7201.297681
19587.145623,3256.906145,-7105.977043,6128.763984
19587.145957,3775.050304,-5847.626942,7814.174080
19587.146290,2146.597232,-4737.318029,4903.011187
19587.146623,-592.164754,-6883.915261,1991.848295
19587.146956,-1850.514855,-7402.059420,-3294.210641
19587.147289,-2368.659014,-9474.636058,-2528.115143
19587.147623,-2294.638420,-9474.636058,-5286.058936
19587.147956,-2368.659014,-8660.409521,-4903.011187
19587.148289,-1924.535449,-13027.624579,-4903.011187
19587.148622,2294.638420,-13619.789333,-2528.115143
19587.148955,2146.597232,-12287.418637,0.000000
19587.149289,3330.926739,-10436.903782,1455.581446
19587.149622,1998.556043,-10955.047942,2145.067394
19587.149955,296.082377,-7772.162391,3677.258390
19587.150288,4663.297435,-8290.306550,4213.525239
19587.150622,3552.988522,-5403.503377,7201.297681
19587.150955,5847.626942,-7994.224174,4826.401637
19587.151288,-370.102971,-5995.668130,0.000000
19587.151621,-2146.597232,-9104.533087,-1302.362347
19587.151954,-2738.761985,-8956.491898,-4443.353888
19587.152288,-4811.338623,-11547.212695,-4673.182538
19587.152621,-5699.585753,-11769.274478,-5286.058936
19587.152954,-7698.141797,-11917.315666,-2451.505594
19587.153287,-2442.679609,-11251.130318,229.828649
19587.153621,888.247130,-8364.327145,4596.572988
19587.153954,4515.256246,-5773.606348,7584.345430
19587.154287,3923.091493,-5329.482782,7584.345430
19587.154620,2220.617826,-3034.844362,3370.820191
19587.154953,3330.926739,-7698.141797,1762.019645
19587.155287,2294.638420,-6291.750507,-4290.134789
19587.155620,0.000000,-10436.903782,-3140.991542
19587.155953,-888.247130,-13323.706956,-5898.935335
19587.156286,-4811.338623,-12805.562797,-8580.269578
19587.156619,-2590.720797,-13767.830521,-4749.792088
19587.156953,888.247130,-11843.295072,1455.581446
19587.157286,2368.659014,-9548.656652,4673.182538
19587.157619,592.164754,-7772.162391,4903.011187
19587.157952,3478.967927,-8882.471304,5439.278036
19587.158286,1184.329507,-4811.338623,3677.258390
19587.158619,1776.494261,-6587.832884,7507.735880
19587.158952,-74.020594,-7105.977043,1149.143247
19587.159285,-4737.318029,-7179.997637,-2145.067394
19587.159618,-5033.400406,-8808.450710,-4903.011187
19587.159952,-1850.514855,-7920.203579,-4596.572988
19587.160285,-370.102971,-9770.718434,-3217.601092
19587.160618,2664.741391,-10510.924376,-1608.800546
19587.160951,4663.297435,-11843.295072,-1915.238745
19587.161285,2368.659014,-10436.903782,612.876398
19587.161618,3552.988522,-11325.150913,2911.162892
19587.161951,4663.297435,-10658.965565,995.924147
19587.162284,2368.659014,-10807.006753,2068.457845
19587.162617,1480.411884,-9918.759623,1608.800546
19587.162951,1850.514855,-8586.388927,1532.190996
19587.163284,2886.803174,-6365.771101,2221.676944
19587.163617,1702.473667,-7105.977043,1455.581446
19587.163950,370.102971,-5625.565159,-1915.238745
19587.164283,-3552.988522,-8660.409521,0.000000
19587.164617,-74.020594,-9474.636058,-76.609550
19587.164950,1406.391290,-9696.697840,-2145.067394
19587.165283,-1480.411884,-11547.212695,1149.143247
19587.165616,-2664.741391,-11325.150913,-766.095498
19587.165950,-2072.576638,-10732.986159,1072.533697
19587.166283,-740.205942,-8512.368333,2298.286494
19587.166616,2294.638420,-6809.894666,3600.648841
19587.166949,1702.473667,-5995.668130,2451.505594
19587.167282,296.082377,-6291.750507,306.438199
19587.167616,0.000000,-6957.935855,-1149.143247
19587.167949,1184.329507,-6587.832884,-2451.505594
19587.168282,0.000000,-9548.656652,-1378.971896
19587.168615,1110.308913,-10658.965565,-4979.620737
19587.168948,-2368.659014,-13101.645173,-3677.258390
19587.169282,0.000000,-13323.706956,-76.609550
19587.169615,1480.411884,-10140.821405,919.314598
19587.169948,3256.906145,-10140.821405,4903.011187
19587.170281,814.226536,-9252.574275,3983.696590
19587.170615,-1036.288319,-9918.759623,3370.820191
19587.170948,-222.061783,-10066.800811,4213.525239
19587.171281,-2146.597232,-5403.503377,1762.019645
19587.171614,-1258.350101,-4663.297435,-2145.067394
19587.171948,-2960.823768,-7402.059420,536.266849
19587.172281,-2442.679609,-8882.471304,-2834.553343
19587.172614,296.082377,-8438.347739,0.000000
19587.172947,3478.967927,-8882.471304,536.266849
19587.173281,3330.926739,-9178.553681,306.438199
19587.173614,4071.132681,-11843.295072,-689.485948
19587.173947,3552.988522,-10955.047942,-689.485948
19587.174281,3552.988522,-11325.150913,1915.238745
19587.174614,4145.153275,-11547.212695,1762.019645
19587.174947,2294.638420,-12435.459826,-1915.238745
19587.175280,-2368.659014,-10140.821405,-1225.752797
19587.175614,-1924.535449,-9326.594869,-229.828649
19587.175947,2886.803174,-6513.812290,536.266849
19587.176280,1924.535449,-6217.729913,2528.115143
19587.176613,1924.535449,-6661.853478,2374.896044
19587.176947,1406.391290,-8586.388927,2757.943793
19587.177280,2294.638420,-10658.965565,2374.896044
19587.177613,0.000000,-9548.656652,1838.629195
19587.177946,-74.020594,-13027.624579,-76.609550
19587.178280,-3775.050304,-11029.068536,-3064.381992
19587.178613,-5921.647536,-9548.656652,-2451.505594
19587.178946,-2442.679609,-9548.656652,-1225.752797
19587.179279,-1184.329507,-7476.080014,919.314598
19587.179613,-740.205942,-7698.141797,1608.800546
19587.179946,74.020594,-5625.565159,0.000000
19587.180279,-74.020594,-6439.791695,-2604.724693
19587.180612,2368.659014,-8290.306550,2374.896044
19587.180946,3478.967927,-8142.265362,0.000000
19587.181279,0.000000,-7772.162391,612.876398
19587.181612,0.000000,-11621.233289,0.000000
19587.181945,444.123565,-11029.068536,0.000000
19587.182279,2146.597232,-10436.903782,2068.457845
19587.182612,1258.350101,-10436.903782,1838.629195
19587.182945,-1998.556043,-10584.944971,153.219100
19587.183278,-3330.926739,-9918.759623,-2374.896044
19587.183612,-4515.256246,-9474.636058,-383.047749
19587.183945,-2664.741391,-7328.038826,612.876398
19587.184278,-3997.112087,-6661.853478,995.924147
19587.184611,-2368.659014,-7402.059420,2298.286494
19587.184945,-1258.350101,-7994.224174,2068.457845
19587.185278,296.082377,-5995.668130,2451.505594
19587.185611,5847.626942,-7698.141797,2987.772442
19587.185944,2368.659014,-7179.997637,2451.505594
19587.186278,592.164754,-8364.327145,0.000000
19587.186611,1406.391290,-11251.130318,-2987.772442
19587.186944,888.247130,-12805.562797,-3600.648841
19587.187277,-1554.432478,-13175.665768,-4596.572988
19587.187611,-2442.679609,-14211.954086,-4979.620737
19587.187944,-1554.432478,-12435.459826,-4519.963438
19587.188277,-2368.659014,-8956.491898,153.219100
19587.188610,2664.741391,-6883.915261,6665.030833
19587.188944,5847.626942,-5625.565159,6665.030833
19587.189277,7846.182985,-5699.585753,10955.165621
19587.189610,4219.173869,-5551.544565,5592.497135
19587.189943,3997.112087,-8364.327145,3524.039291
19587.190277,2368.659014,-8660.409521,612.876398
19587.190610,-2368.659014,-10510.924376,-3600.648841
19587.190943,-3923.091493,-11621.233289,-9806.022374
19587.191276,-6513.812290,-15396.283594,-4979.620737
19587.191610,-3627.009116,-12435.459826,-4060.306139
19587.191943,-962.267725,-7179.997637,-1225.752797
19587.192276,1702.473667,-9474.636058,2374.896044
19587.192610,2146.597232,-5033.400406,2451.505594
19587.192943,4959.379811,-5773.606348,3983.696590
19587.193276,7994.224174,-4811.338623,4979.620737
19587.193609,7105.977043,-7476.080014,5362.668486
19587.193943,4219.173869,-8660.409521,0.000000
19587.194276,2960.823768,-12435.459826,-76.609550
19587.194609,-74.020594,-13323.706956,-4903.011187
19587.194942,0.000000,-11917.315666,-4903.011187
19587.195276,-1776.494261,-11325.150913,-3983.696590
19587.195609,-2664.741391,-11843.295072,-1915.238745
19587.195942,-3627.009116,-10140.821405,-766.095498
19587.196275,-2516.700203,-9326.594869,1455.581446
19587.196609,-666.185348,-7698.141797,4826.401637
19587.196942,-2368.659014,-4811.338623,7354.516781
19587.197275,1110.308913,-4737.318029,5132.839837
19587.197608,-74.020594,-4441.235652,1838.629195
19587.197942,592.164754,-8216.285956,4826.401637
19587.198275,1184.329507,-4811.338623,0.000000
19587.198608,1036.288319,-8438.347739,-689.485948
19587.198941,-962.267725,-10510.924376,-4826.401637
19587.199275,-2960.823768,-12879.583391,-5975.544884
19587.199608,-1554.432478,-14211.954086,-5592.497135
19587.199941,-2960.823768,-12805.562797,-4290.134789
19587.200274,-3330.926739,-12361.439231,-3524.039291
19587.200608,-2442.679609,-10732.986159,-919.314598
19587.200941,814.226536,-9178.553681,3217.601092
19587.201274,5773.606348,-6439.791695,8580.269578
19587.201607,4885.359217,-1258.350101,5515.887586
19587.201941,5329.482782,-8438.347739,9576.193725
19587.202274,3478.967927,-5329.482782,3064.381992
19587.202607,148.041188,-7105.977043,612.876398
19587.202940,-74.020594,-10955.047942,-2221.676944
19587.203274,-5773.606348,-11325.150913,-6205.373534
19587.203607,-8290.306550,-13619.789333,-7431.126331
19587.203940,-7846.182985,-12731.542202,-5745.716235
19587.204273,-4219.173869,-12435.459826,-1915.238745
19587.204607,-2368.659014,-7179.997637,2757.943793
19587.204940,2368.659014,-6587.832884,7431.126331
19587.205273,7031.956449,-4145.153275,5745.716235
19587.205606,4737.318029,-3627.009116,5515.887586
19587.205940,8216.285956,-7105.977043,3600.648841
19587.206273,6809.894666,-7179.997637,2604.724693
19587.206606,2960.823768,-9992.780217,-1378.971896
19587.206939,518.144159,-12583.501014,-5822.325785
19587.207273,-3108.864956,-12509.480420,-8273.831378
19587.207606,0.000000,-13989.892304,-1455.581446
19587.207939,1702.473667,-11695.253884,-689.485948
19587.208272,-74.020594,-10510.924376,-1378.971896
19587.208606,-74.020594,-11251.130318,3447.429741
19587.208939,74.020594,-8068.244768,3677.258390
19587.209272,3627.009116,-6957.935855,7201.297681
19587.209605,3034.844362,-3923.091493,5669.106685
19587.209939,1628.453072,-6291.750507,4443.353888
19587.210272,0.000000,-6587.832884,2451.505594
19587.210605,2294.638420,-9474.636058,2374.896044
19587.210939,962.267725,-5995.668130,-3370.820191
19587.211272,-1184.329507,-8364.327145,-6128.763984
19587.211605,-296.082377,-12139.377449,-2834.553343
19587.211938,-1998.556043,-10288.862594,-6435.202183
19587.212272,-74.020594,-12805.562797,-4443.353888
19587.212605,-296.082377,-12361.439231,-2451.505594
19587.212938,-370.102971,-12287.418637,76.609550
19587.213271,296.082377,-10140.821405,1225.752797
19587.213605,1924.535449,-7920.203579,4290.134789
19587.213938,4071.132681,-6513.812290,6971.469032
19587.214271,5773.606348,-4737.318029,7737.564530
19587.214604,4663.297435,-6513.812290,6052.154434
19587.214938,2146.597232,-6069.688724,0.000000
19587.215271,-3256.906145,-8660.409521,-919.314598
19587.215604,-4811.338623,-11843.295072,-4979.620737
19587.215937,-6735.874072,-10436.903782,-6894.859482
19587.216271,-7476.080014,-13027.624579,-4979.620737
19587.216604,-8956.491898,-12509.480420,-4903.011187
19587.216937,-5181.441594,-10732.986159,306.438199
19587.217270,148.041188,-7105.977043,5898.935335
19587.217604,1924.535449,-2442.679609,6128.763984
19587.217937,4811.338623,-3923.091493,4290.134789
19587.218270,2960.823768,-5107.421000,6358.592633
19587.218603,4663.297435,-6217.729913,2374.896044
19587.218937,4071.132681,-7105.977043,-2298.286494
19587.219270,-592.164754,-10066.800811,-5592.497135
19587.219603,-4145.153275,-12509.480420,-7814.174080
19587.219936,-2738.761985,-14063.912898,-7124.688131
19587.220270,-1480.411884,-13101.645173,-3370.820191
19587.220603,592.164754,-11325.150913,306.438199
19587.220936,1702.473667,-11473.192101,1455.581446
19587.221269,3478.967927,-11695.253884,7890.783629
19587.221603,2294.638420,-5699.585753,4903.011187
19587.221936,4293.194464,-8216.285956,8580.269578
19587.222269,3997.112087,-3627.009116,5669.106685
19587.222602,592.164754,-6587.832884,4673.182538
19587.222936,-1332.370696,-7031.956449,-995.924147
19587.223269,-3701.029710,-8808.450710,-3830.477490
19587.223602,-1406.391290,-10362.883188,-3753.867940
19587.223935,-1776.494261,-7179.997637,-4290.134789
19587.224269,-74.020594,-11843.295072,-3140.991542
19587.224602,1702.473667,-11843.295072,-4366.744339
19587.224935,888.247130,-11917.315666,0.000000
19587.225268,5181.441594,-11843.295072,4136.915689
19587.225602,4219.173869,-10510.924376,2834.553343
19587.225935,1776.494261,-10658.965565,2451.505594
19587.226268,2590.720797,-8290.306550,3600.648841
19587.226601,3478.967927,-6809.894666,4519.963438
19587.226935,5329.482782,-5403.503377,7584.345430
19587.227268,2294.638420,-6661.853478,1378.971896
19587.227601,-1776.494261,-7179.997637,-2987.772442
19587.227934,-2368.659014,-9696.697840,-995.924147
19587.228268,-1258.350101,-12435.459826,-2834.553343
19587.228601,-4145.153275,-11399.171507,-3294.210641
19587.228934,-5921.647536,-12731.542202,-2681.334243
19587.229268,-4589.276840,-11399.171507,-1072.533697
19587.229601,-2664.741391,-9918.759623,2604.724693
19587.229934,888.247130,-7772.162391,7277.907231
19587.230267,2220.617826,-4589.276840,6665.030833
19587.230601,2072.576638,-4515.256246,5286.058936
19587.230934,2072.576638,-5477.523971,2221.676944
19587.231267,1998.556043,-6513.812290,-1302.362347
19587.231600,148.041188,-8512.368333,-2145.067394
19587.231934,-74.020594,-13027.624579,-3753.867940
19587.232267,-4737.318029,-11917.315666,-7967.393179
19587.232600,-3552.988522,-13397.727550,-5515.887586
19587.232933,1110.308913,-14211.954086,-689.485948
19587.233267,1998.556043,-10140.821405,3294.210641
19587.233600,2738.761985,-8364.327145,4443.353888
19587.233933,888.247130,-8956.491898,6052.154434
19587.234266,0.000000,-6291.750507,4903.011187
19587.234600,0.000000,-5403.503377,6741.640382
19587.234933,1554.432478,-6513.812290,3600.648841
19587.235266,-2442.679609,-4885.359217,-2451.505594
19587.235599,-4737.318029,-7476.080014,-2757.943793
19587.235933,-1850.514855,-7402.059420,-4673.182538
19587.236266,-518.144159,-9178.553681,-2834.553343
19587.236599,1258.350101,-9178.553681,-2528.115143
19587.236932,1110.308913,-11325.150913,-689.485948
19587.237266,2368.659014,-9844.739029,0.000000
19587.237599,2368.659014,-11325.150913,4519.963438
19587.237932,4663.297435,-10658.965565,229.828649
19587.238265,2368.659014,-9548.656652,0.000000
19587.238599,2590.720797,-11843.295072,2374.896044
19587.238932,0.000000,-7772.162391,612.876398
19587.239265,1480.411884,-8068.244768,1532.190996
19587.239598,2220.617826,-6143.709319,2298.286494
19587.239932,1702.473667,-6587.832884,842.705048
19587.240265,-74.020594,-9178.553681,-76.609550
19587.240598,296.082377,-9474.636058,-76.609550
19587.240931,-74.020594,-9474.636058,-1991.848295
19587.241265,-1184.329507,-9548.656652,919.314598
19587.241598,-74.020594,-13027.624579,-76.609550
19587.241931,-1702.473667,-11917.315666,1455.581446
19587.242264,-2590.720797,-10066.800811,1378.971896
19587.242598,148.041188,-7846.182985,2757.943793
19587.242931,1924.535449,-7105.977043,2987.772442
19587.243264,-1110.308913,-5773.606348,0.000000
19587.243597,-74.020594,-6217.729913,-2374.896044
19587.243931,1184.329507,-4811.338623,-3677.258390
19587.244264,3552.988522,-10288.862594,-76.609550
19587.244597,1110.308913,-7476.080014,-3677.258390
19587.244930,0.000000,-13101.645173,-1149.143247
19587.245264,0.000000,-11917.315666,-2145.067394
19587.245597,2442.679609,-11103.089130,995.924147
19587.245930,3923.091493,-11251.130318,4060.306139
19587.246263,2368.659014,-8586.388927,2834.553343
19587.246597,-74.020594,-10362.883188,2374.896044
19587.246930,-1184.329507,-9104.533087,2145.067394
19587.247263,-2960.823768,-8438.347739,1685.410096
19587.247597,-3034.844362,-7105.977043,306.438199
19587.247930,-3923.091493,-7105.977043,-383.047749
19587.248263,-2738.761985,-9400.615463,-76.609550
19587.248596,-1554.432478,-5625.565159,-2298.286494
19587.248930,740.205942,-7772.162391,1225.752797
19587.249263,3849.070898,-8364.327145,4290.134789
19587.249596,2442.679609,-7772.162391,919.314598
19587.249929,2294.638420,-11547.212695,-766.095498
19587.250263,2886.803174,-11251.130318,-1302.362347
19587.250596,2368.659014,-11399.171507,-1608.800546
19587.250929,1184.329507,-10140.821405,-3370.820191
19587.251262,-74.020594,-12435.459826,-3753.867940
19587.251596,-1850.514855,-8956.491898,-2451.505594
19587.251929,3478.967927,-9474.636058,1762.019645
19587.252262,5847.626942,-5921.647536,3600.648841
19587.252595,4737.318029,-4811.338623,4749.792088
19587.252929,5033.400406,-7624.121203,3753.867940
19587.253262,5995.668130,-5773.606348,2911.162892
19587.253595,4663.297435,-9918.759623,2298.286494
19587.253928,2812.782580,-11325.150913,1225.752797
19587.254262,-74.020594,-12435.459826,-4519.963438
19587.254595,-4737.318029,-11917.315666,-6128.763984
19587.254928,-2368.659014,-13397.727550,-689.485948
19587.255261,-814.226536,-9474.636058,-1455.581446
19587.255595,2072.576638,-8290.306550,2681.334243
19587.255928,2146.597232,-5625.565159,3294.210641
19587.256261,2072.576638,-4811.338623,2298.286494
19587.256594,2146.597232,-5329.482782,1378.971896
19587.256928,4663.297435,-8882.471304,2374.896044
19587.257261,2294.638420,-5699.585753,-2451.505594
19587.257594,0.000000,-10881.027347,-383.047749
19587.257927,-74.020594,-16284.530724,-76.609550
19587.258261,-1258.350101,-11251.130318,-2757.943793
19587.258594,-74.020594,-12435.459826,1149.143247
19587.258927,-1776.494261,-11399.171507,0.000000
19587.259260,-6809.894666,-11991.336260,-766.095498
19587.259594,-6661.853478,-9918.759623,-995.924147
19587.259927,-4811.338623,-8808.450710,2374.896044
19587.260260,-5921.647536,-5995.668130,1838.629195
19587.260593,-5403.503377,-4959.379811,2374.896044
19587.260927,-5107.421000,-6957.935855,3370.820191
19587.261260,-3552.988522,-4811.338623,2451.505594
19587.261593,-1184.329507,-5107.421000,4519.963438
19587.261926,1998.556043,-6661.853478,1302.362347
19587.262260,0.000000,-6587.832884,612.876398
19587.262593,-592.164754,-11177.109724,-1302.362347
19587.262926,-222.061783,-12435.459826,-4673.182538
19587.263259,-3256.906145,-14508.036463,-5362.668486
19587.263593,-4145.153275,-13693.809927,-5209.449386
19587.263926,-4885.359217,-13027.624579,-4673.182538
19587.264259,-3552.988522,-11473.192101,-1838.629195
19587.264592,-1184.329507,-7772.162391,5745.716235
19587.264926,4663.297435,-3627.009116,5056.230287
19587.265259,6513.812290,-3627.009116,9806.022374
19587.265592,6513.812290,-5625.565159,9729.412825
19587.265926,4885.359217,-6291.750507,3677.258390
19587.266259,4737.318029,-7698.141797,2681.334243
19587.266592,1628.453072,-9844.739029,-1608.800546
19587.266925,-1554.432478,-11843.295072,-5439.278036
19587.267259,-4811.338623,-14804.118840,-8044.002729
19587.267592,-4737.318029,-14656.077652,-5592.497135
19587.267925,-1258.350101,-10436.903782,-4903.011187
19587.268258,2368.659014,-8068.244768,1532.190996
19587.268592,3552.988522,-7179.997637,4366.744339
19587.268925,8216.285956,-5329.482782,4826.401637
19587.269258,8882.471304,-4367.215058,6128.763984
19587.269591,10658.965565,-4811.338623,5592.497135
19587.269925,8734.430116,-8586.388927,3294.210641
19587.270258,4737.318029,-8364.327145,0.000000
19587.270591,4071.132681,-15100.201217,-3140.991542
19587.270924,592.164754,-13101.645173,-4903.011187
19587.271258,0.000000,-14656.077652,-2068.457845
19587.271591,-962.267725,-12213.398043,-3753.867940
19587.271924,-3552.988522,-9844.739029,-1838.629195
19587.272257,-2960.823768,-9548.656652,306.438199
19587.272591,-1258.350101,-8290.306550,2528.115143
19587.272924,-74.020594,-7179.997637,5745.716235
19587.273257,1184.329507,-4737.318029,7354.516781
19587.273591,-74.020594,-4441.235652,2451.505594
19587.273924,-296.082377,-7698.141797,4213.525239
19587.274257,-74.020594,-4737.318029,-383.047749
19587.274591,3182.885551,-7994.224174,1149.143247
19587.274924,0.000000,-7179.997637,-2451.505594
19587.275257,-3256.906145,-14211.954086,-2528.115143
19587.275591,-3627.009116,-12583.501014,-6894.859482
19587.275924,-4145.153275,-13397.727550,-4826.401637
19587.276257,-2442.679609,-15396.283594,-3140.991542
19587.276591,-6069.688724,-10881.027347,-2757.943793
19587.276924,-2590.720797,-10510.924376,536.266849
19587.277258,888.247130,-6291.750507,6588.421283
19587.277591,4737.318029,-4515.256246,10189.070123
19587.277924,5921.647536,-5181.441594,10955.165621
19587.278258,2368.659014,-4811.338623,6894.859482
19587.278591,0.000000,-7772.162391,4826.401637
19587.278924,-1258.350101,-7550.100608,-2987.772442
19587.279258,-5921.647536,-10732.986159,-4290.134789
19587.279591,-7994.224174,-12065.356855,-6281.983084
19587.279924,-9030.512492,-12953.603985,-7124.688131
19587.280258,-7254.018232,-13027.624579,-4903.011187
19587.280591,-3701.029710,-10140.821405,-612.876398
19587.280924,2886.803174,-7105.977043,4213.525239
19587.281258,4885.359217,-4219.173869,6128.763984
19587.281591,6365.771101,-5181.441594,4903.011187
19587.281924,9400.615463,-8290.306550,4826.401637
19587.282258,7846.182985,-5995.668130,3064.381992
19587.282591,8586.388927,-9326.594869,1762.019645
19587.282925,5551.544565,-9770.718434,-3907.087040
19587.283258,666.185348,-13915.871710,-6205.373534
19587.283591,-74.020594,-14434.015869,-6818.249932
19587.283925,1110.308913,-11325.150913,-5286.058936
19587.284258,222.061783,-9548.656652,-2451.505594
19587.284591,666.185348,-12879.583391,1762.019645
19587.284925,2294.638420,-11843.295072,3294.210641
19587.285258,2886.803174,-6735.874072,5822.325785
19587.285591,4663.297435,-5329.482782,7737.564530
19587.285925,4663.297435,-4145.153275,5362.668486
19587.286258,2294.638420,-6365.771101,4749.792088
19587.286591,222.061783,-6661.853478,1838.629195
19587.286925,2368.659014,-7254.018232,-76.609550
19587.287258,444.123565,-10066.800811,-1302.362347
19587.287591,-74.020594,-11843.295072,-6205.373534
19587.287925,-2442.679609,-10140.821405,-9193.145976
19587.288258,-4145.153275,-12213.398043,-5515.887586
19587.288592,-3552.988522,-11917.315666,-3370.820191
19587.288925,-814.226536,-11325.150913,-1838.629195
19587.289258,740.205942,-10436.903782,2987.772442
19587.289592,888.247130,-8734.430116,5056.230287
19587.289925,3923.091493,-7402.059420,7124.688131
19587.290258,4737.318029,-6365.771101,9116.536426
19587.290592,3182.885551,-4145.153275,5132.839837
19587.290925,0.000000,-5995.668130,5056.230287
19587.291258,-2146.597232,-9474.636058,-76.609550
19587.291592,-3923.091493,-8660.409521,-4903.011187
19587.291925,-5625.565159,-11399.171507,-4903.011187
19587.292258,-7846.182985,-11843.295072,-5592.497135
19587.292592,-10288.862594,-13249.686362,-6052.154434
19587.292925,-7179.997637,-13027.624579,-2528.115143
19587.293258,-2738.761985,-9474.636058,3217.601092
19587.293592,296.082377,-5477.523971,6435.202183
19587.293925,2368.659014,-4219.173869,7967.393179
19587.294259,3108.864956,-4367.215058,5822.325785
19587.294592,3849.070898,-5255.462188,5745.716235
19587.294925,1184.329507,-4811.338623,3064.381992
19587.295259,3182.885551,-9474.636058,-2528.115143
19587.295592,-2368.659014,-9844.739029,-7277.907231
19587.295925,-3182.885551,-14211.954086,-7737.564530
19587.296259,-1850.514855,-14804.118840,-6205.373534
19587.296592,0.000000,-12731.542202,-2221.676944
19587.296925,888.247130,-11029.068536,1838.629195
19587.297259,2146.597232,-10288.862594,5056.230287
19587.297592,2294.638420,-8882.471304,7277.907231
19587.297925,1184.329507,-5403.503377,8580.269578
19587.298259,5847.626942,-3552.988522,5745.716235
19587.298592,2368.659014,-4219.173869,6894.859482
19587.298925,1184.329507,-5403.503377,919.314598
19587.299259,-666.185348,-7105.977043,-3907.087040
19587.299592,-740.205942,-9474.636058,-4673.182538
19587.299926,-444.123565,-9770.718434,-4979.620737
19587.300259,296.082377,-11251.130318,-5286.058936
19587.300592,-1924.535449,-11029.068536,-7354.516781
19587.300926,3478.967927,-14211.954086,-1915.238745
19587.301259,5847.626942,-13027.624579,1762.019645
19587.301592,2960.823768,-9548.656652,3677.258390
19587.301926,5847.626942,-11843.295072,4213.525239
19587.302259,2368.659014,-8660.409521,3983.696590
19587.302592,3701.029710,-8364.327145,4519.963438
19587.302926,5847.626942,-5995.668130,4826.401637
19587.303259,3256.906145,-6439.791695,2987.772442
19587.303592,1184.329507,-8956.491898,995.924147
19587.303926,-74.020594,-10658.965565,-2528.115143
19587.304259,-3552.988522,-10140.821405,-1455.581446
19587.304592,-2368.659014,-11917.315666,-76.609550
19587.304926,-3627.009116,-13027.624579,-2528.115143
19587.305259,-5625.565159,-11917.315666,153.219100
19587.305592,-4367.215058,-9918.759623,153.219100
19587.305926,-666.185348,-8364.327145,3830.477490
19587.306259,2368.659014,-6217.729913,6971.469032
19587.306593,592.164754,-4811.338623,6741.640382
19587.306926,1406.391290,-5181.441594,2911.162892
19587.307259,-148.041188,-6439.791695,-153.219100
19587.307593,740.205942,-7994.224174,-1302.362347
19587.307926,-370.102971,-8734.430116,-4060.306139
19587.308259,-3404.947333,-11029.068536,-6741.640382
19587.308593,-4219.173869,-14804.118840,-4979.620737
19587.308926,-2442.679609,-13915.871710,-4826.401637
19587.309259,1184.329507,-12065.356855,3217.601092
19587.309593,2886.803174,-11695.253884,5439.278036
19587.309926,-444.123565,-10140.821405,4903.011187
19587.310259,-1628.453072,-8882.471304,4826.401637
19587.310593,-1258.350101,-7698.141797,5132.839837
19587.310926,0.000000,-4811.338623,3677.258390
19587.311259,-4145.153275,-3923.091493,2451.505594
19587.311593,-2442.679609,-7105.977043,-1302.362347
19587.311926,-5329.482782,-5921.647536,-4366.744339
19587.312260,-3552.988522,-7772.162391,-3064.381992
19587.312593,0.000000,-7105.977043,-2681.334243
19587.312926,1406.391290,-10955.047942,-1915.238745
19587.313260,2442.679609,-11251.130318,-1072.533697
19587.313593,3182.885551,-11103.089130,-842.705048
19587.313926,5921.647536,-13175.665768,1838.629195
19587.314260,4737.318029,-9844.739029,3677.258390
19587.314593,5847.626942,-11251.130318,-76.609550
19587.314926,2072.576638,-9548.656652,612.876398
19587.315260,1480.411884,-9918.759623,2374.896044
19587.315593,3701.029710,-5995.668130,612.876398
19587.315926,4737.318029,-6809.894666,2987.772442
19587.316260,3478.967927,-7105.977043,1149.143247
19587.316593,2590.720797,-8142.265362,76.609550
19587.316926,2886.803174,-10362.883188,-76.609550
19587.317260,2368.659014,-10436.903782,2374.896044
19587.317593,0.000000,-11843.295072,-689.485948
19587.317927,-2368.659014,-11621.233289,-1838.629195
19587.318260,-74.020594,-13619.789333,-76.609550
19587.318593,-74.020594,-10658.965565,2374.896044
19587.318927,2294.638420,-6883.915261,2145.067394
19587.319260,1776.494261,-7920.203579,2681.334243
19587.319593,2220.617826,-5551.544565,1225.752797
19587.319927,592.164754,-3627.009116,0.000000
19587.320260,5847.626942,-8290.306550,-76.609550
19587.320593,1480.411884,-6587.832884,-1685.410096
19587.320927,0.000000,-10732.986159,-612.876398
19587.321260,2294.638420,-12435.459826,-3447.429741
19587.321593,-74.020594,-13323.706956,-842.705048
19587.321927,2294.638420,-13027.624579,536.266849
19587.322260,592.164754,-11177.109724,2681.334243
19587.322593,-1110.308913,-10658.965565,1991.848295
19587.322927,-4737.318029,-8364.327145,1225.752797
19587.323260,-4441.235652,-9178.553681,1608.800546
19587.323594,-4071.132681,-6883.915261,2451.505594
19587.323927,-5107.421000,-4959.379811,2451.505594
19587.324260,-4515.256246,-6069.688724,995.924147
19587.324594,-5107.421000,-4737.318029,-1378.971896
19587.324927,-1554.432478,-9474.636058,3600.648841
19587.325260,2294.638420,-5921.647536,76.609550
19587.325594,0.000000,-7772.162391,1532.190996
19587.325927,444.123565,-13027.624579,-306.438199
19587.326260,814.226536,-12139.377449,-2451.505594
19587.326594,-222.061783,-13027.624579,-1378.971896
19587.326927,0.000000,-11325.150913,-612.876398
19587.327260,-2146.597232,-11325.150913,-1685.410096
19587.327594,-2960.823768,-9548.656652,0.000000
19587.327927,0.000000,-7179.997637,2221.676944
19587.328260,2664.741391,-3034.844362,1532.190996
19587.328594,2664.741391,-4811.338623,5745.716235
19587.328927,5847.626942,-8290.306550,3600.648841
19587.329261,740.205942,-5995.668130,2757.943793
19587.329594,4071.132681,-7698.141797,383.047749
19587.329927,4293.194464,-11621.233289,689.485948
19587.330261,2368.659014,-11029.068536,-612.876398
19587.330594,-74.020594,-14804.118840,-1302.362347
19587.330927,-666.185348,-13027.624579,-5132.839837
19587.331261,0.000000,-12065.356855,-76.609550
19587.331594,2368.659014,-9548.656652,3600.648841
19587.331927,3478.967927,-6809.894666,2068.457845
19587.332261,4515.256246,-6217.729913,2987.772442
19587.332594,2812.782580,-5625.565159,1915.238745
19587.332927,5847.626942,-6217.729913,2374.896044
19587.333261,5625.565159,-6735.874072,2145.067394
19587.333594,4071.132681,-9474.636058,-766.095498
19587.333927,0.000000,-10140.821405,-6128.763984
19587.334261,1184.329507,-14211.954086,-689.485948
19587.334594,1702.473667,-13027.624579,-1608.800546
19587.334928,1702.473667,-10732.986159,-2451.505594
19587.335261,-1332.370696,-14211.954086,-76.609550
19587.335594,-5403.503377,-11917.315666,-1838.629195
19587.335928,-5477.523971,-8956.491898,0.000000
19587.336261,-3923.091493,-8142.265362,2374.896044
19587.336594,-3330.926739,-4737.318029,2987.772442
19587.336928,-2812.782580,-4811.338623,4903.011187
19587.337261,-1480.411884,-4737.318029,4519.963438
19587.337594,0.000000,-5773.606348,4826.401637
19587.337928,592.164754,-5995.668130,2451.505594
19587.338261,1184.329507,-8142.265362,2604.724693
19587.338594,-370.102971,-10362.883188,-4673.182538
19587.338928,-3552.988522,-12509.480420,-7354.516781
19587.339261,-4441.235652,-15322.262999,-5286.058936
19587.339594,-5329.482782,-13101.645173,-5975.544884
19587.339928,-5477.523971,-13545.768739,-2834.553343
19587.340261,-5033.400406,-11177.109724,-1915.238745
19587.340595,-2738.761985,-7772.162391,1455.581446
19587.340928,3478.967927,-5921.647536,7277.907231
19587.341261,3923.091493,-1258.350101,10725.336972
19587.341595,5847.626942,-2294.638420,6128.763984
19587.341928,4145.153275,-6883.915261,6971.469032
19587.342261,3478.967927,-8882.471304,2374.896044
19587.342595,2294.638420,-10140.821405,-229.828649
19587.342928,-1184.329507,-12435.459826,-3907.087040
19587.343261,-6217.729913,-13915.871710,-8580.269578
19587.343595,-6439.791695,-14952.160028,-8273.831378
19587.343928,-4663.297435,-13027.624579,-4290.134789
19587.344261,0.000000,-8956.491898,1762.019645
19587.344595,1184.329507,-4811.338623,1225.752797
19587.344928,3849.070898,-3923.091493,5515.887586
19587.345261,8216.285956,-5329.482782,8503.660028
19587.345595,9992.780217,-3997.112087,5439.278036
19587.345928,9844.739029,-6883.915261,3753.867940
19587.346261,6217.729913,-8660.409521,766.095498
19587.346595,3923.091493,-10881.027347,-3370.820191
19587.346928,1184.329507,-14137.933492,-4979.620737
19587.347262,2294.638420,-16580.613101,-4979.620737
19587.347595,-2368.659014,-13101.645173,-3064.381992
19587.347928,-2368.659014,-12805.562797,-766.095498
19587.348262,-1258.350101,-11103.089130,-2068.457845
19587.348595,-3552.988522,-7772.162391,1225.752797
19587.348928,1036.288319,-7031.956449,3983.696590
19587.349262,1480.411884,-4959.379811,7584.345430
19587.349595,2146.597232,-3330.926739,6818.249932
19587.349928,1184.329507,-5921.647536,4826.401637
19587.350262,1406.391290,-5255.462188,842.705048
19587.350595,1776.494261,-7328.038826,3600.648841
19587.350928,1554.432478,-7846.182985,-2528.115143
19587.351262,-1850.514855,-10140.821405,-8273.831378
19587.351595,-5921.647536,-12509.480420,-7354.516781
19587.351928,-3330.926739,-14137.933492,-7584.345430
19587.352262,-2960.823768,-13471.748144,-4290.134789
19587.352595,-4293.194464,-13545.768739,-2987.772442
19587.352929,-2368.659014,-10807.006753,0.000000
19587.353262,1110.308913,-8216.285956,3983.696590
19587.353595,4515.256246,-4959.379811,9269.755526
19587.353929,5773.606348,-3849.070898,10035.851024
19587.354262,4071.132681,-5329.482782,8350.440928
19587.354595,1776.494261,-6883.915261,6128.763984
19587.354929,-74.020594,-8290.306550,-76.609550
19587.355262,-4737.318029,-7772.162391,-6128.763984
19587.355595,-6513.812290,-12879.583391,-4979.620737
19587.355929,-8660.409521,-13027.624579,-8044.002729
19587.356262,-11547.212695,-11917.315666,-7967.393179
19587.356595,-8068.244768,-12435.459826,-3753.867940
19587.356929,-2664.741391,-7920.203579,1072.533697
19587.357262,1850.514855,-6439.791695,6281.983084
19587.357595,5255.462188,-4737.318029,8503.660028
19587.357929,6439.791695,-4737.318029,4826.401637
19587.358262,6217.729913,-5107.421000,6818.249932
19587.358596,8586.388927,-7624.121203,5745.716235
19587.358929,4959.379811,-7624.121203,-2451.505594
19587.359262,592.164754,-12805.562797,-3753.867940
19587.359596,-2516.700203,-14582.057057,-9116.536426
19587.359929,-1850.514855,-15100.201217,-6818.249932
19587.360262,0.000000,-12953.603985,-3447.429741
19587.360596,-1554.432478,-11991.336260,-2451.505594
19587.360929,-74.020594,-9474.636058,76.609550
19587.361262,0.000000,-8364.327145,7354.516781
19587.361596,5107.421000,-5921.647536,9729.412825
19587.361929,5847.626942,-2664.741391,7890.783629
19587.362262,3478.967927,-5921.647536,7277.907231
19587.362596,1258.350101,-6513.812290,3140.991542
19587.362929,0.000000,-7402.059420,-459.657299
19587.363262,-74.020594,-8882.471304,-3677.258390
19587.363596,-1776.494261,-10732.986159,-5362.668486
19587.363929,-1998.556043,-11029.068536,-7354.516781
19587.364263,-3552.988522,-13101.645173,-5362.668486
19587.364596,-74.020594,-13323.706956,-5132.839837
19587.364929,0.000000,-10732.986159,-3677.258390
19587.365263,296.082377,-10732.986159,1455.581446
19587.365596,2072.576638,-9474.636058,3830.477490
19587.365929,2960.823768,-7550.100608,5132.839837
19587.366263,6143.709319,-5921.647536,8120.612279
19587.366596,8216.285956,-4737.318029,9729.412825
19587.366929,3552.988522,-4219.173869,6281.983084
19587.367263,1110.308913,-6957.935855,-1762.019645
19587.367596,-666.185348,-9770.718434,-4826.401637
19587.367929,-5329.482782,-12361.439231,-4519.963438
19587.368263,-6513.812290,-11473.192101,-7277.907231
19587.368596,-9326.594869,-13915.871710,-7201.297681
19587.368929,-8512.368333,-13915.871710,-4366.744339
19587.369263,-4441.235652,-10140.821405,1302.362347
19587.369596,1702.473667,-7105.977043,8503.660028
19587.369930,3256.906145,-4071.132681,8580.269578
19587.370263,3478.967927,-3552.988522,7584.345430
19587.370596,3552.988522,-4367.215058,4903.011187
19587.370930,4071.132681,-5255.462188,2374.896044
19587.371263,3256.906145,-8512.368333,-612.876398
19587.371596,-1480.411884,-9548.656652,-7354.516781
19587.371930,-4737.318029,-15248.242405,-7431.126331
19587.372263,-5403.503377,-14285.974681,-10189.070123
19587.372596,-4219.173869,-13471.748144,-6052.154434
19587.372930,1554.432478,-13027.624579,842.705048
19587.373263,2072.576638,-11029.068536,5362.668486
19587.373596,2072.576638,-7476.080014,6971.469032
19587.373930,1628.453072,-6883.915261,7048.078582
19587.374263,4071.132681,-6809.894666,7277.907231
19587.374596,592.164754,-3923.091493,7354.516781
19587.374930,1036.288319,-6883.915261,4826.401637
19587.375263,-3330.926739,-6291.750507,-3677.258390
19587.375596,-4737.318029,-8364.327145,-3983.696590
19587.375930,-74.020594,-9474.636058,-6511.811733
19587.376263,0.000000,-9474.636058,-4136.915689
19587.376596,-814.226536,-11473.192101,-4213.525239
19587.376930,222.061783,-12287.418637,-3830.477490
19587.377263,1776.494261,-10140.821405,-1838.629195
19587.377596,3775.050304,-7179.997637,0.000000
19587.377930,6217.729913,-11843.295072,3600.648841
19587.378263,4515.256246,-9474.636058,2374.896044
19587.378596,2072.576638,-8068.244768,3830.477490
19587.378930,5847.626942,-7105.977043,3140.991542
19587.379263,4219.173869,-6809.894666,2987.772442
19587.379596,2960.823768,-7179.997637,995.924147
19587.379930,0.000000,-8956.491898,0.000000
19587.380263,0.000000,-9104.533087,-2298.286494
19587.380596,-1776.494261,-11843.295072,-76.609550
19587.380930,-1258.350101,-11547.212695,-4673.182538
19587.381263,-4737.318029,-10732.986159,-2145.067394
19587.381596,-5625.565159,-11769.274478,2068.457845
19587.381930,-1258.350101,-9474.636058,-612.876398
19587.382263,1480.411884,-7624.121203,5898.935335
19587.382596,3256.906145,-5107.421000,6588.421283
19587.382930,3404.947333,-4959.379811,5592.497135
19587.383263,592.164754,-5995.668130,1838.629195
19587.383597,1702.473667,-7254.018232,-1991.848295
19587.383930,444.123565,-9474.636058,-3140.991542
19587.384263,-518.144159,-10732.986159,-6052.154434
19587.384597,-3627.009116,-15100.201217,-6818.249932
19587.384930,-3034.844362,-14804.118840,-4979.620737
19587.385263,-2368.659014,-11917.315666,612.876398
19587.385597,3478.967927,-10658.965565,3600.648841
19587.385930,2294.638420,-9474.636058,2987.772442
19587.386263,962.267725,-9474.636058,6052.154434
19587.386597,-1110.308913,-7994.224174,4826.401637
19587.386930,0.000000,-6587.832884,5515.887586
19587.387263,-740.205942,-5773.606348,4213.525239
19587.387597,-3478.967927,-6217.729913,536.266849
19587.387930,-5033.400406,-7920.203579,-689.485948
19587.388263,-7105.977043,-7179.997637,-2451.505594
19587.388597,-1850.514855,-9474.636058,-3753.867940
19587.388930,-962.267725,-9474.636058,-2681.334243
19587.389263,0.000000,-8290.306550,-1608.800546
19587.389597,1702.473667,-10658.965565,-1302.362347
19587.389930,2812.782580,-11029.068536,306.438199
19587.390263,4145.153275,-11325.150913,2374.896044
19587.390597,2590.720797,-10436.903782,842.705048
19587.390930,1998.556043,-11251.130318,-76.609550
19587.391263,592.164754,-10955.047942,3294.210641
19587.391597,3478.967927,-8290.306550,-76.609550
19587.391930,1776.494261,-4811.338623,2451.505594
19587.392263,2664.741391,-6587.832884,2451.505594
19587.392597,148.041188,-7328.038826,0.000000
19587.392930,962.267725,-9326.594869,-1149.143247
19587.393263,1702.473667,-9770.718434,0.000000
19587.393597,888.247130,-9992.780217,153.219100
19587.393930,-2220.617826,-9844.739029,-3064.381992
19587.394263,-148.041188,-13915.871710,-76.609550
19587.394597,-1258.350101,-11843.295072,-76.609550
19587.394930,0.000000,-7179.997637,2451.505594
19587.395263,3923.091493,-8290.306550,4826.401637
19587.395597,1776.494261,-5699.585753,1838.629195
19587.395930,1628.453072,-5847.626942,383.047749
19587.396263,4145.153275,-6513.812290,-459.657299
19587.396597,3923.091493,-8438.347739,-1608.800546
19587.396930,1184.329507,-10288.862594,-1532.190996
19587.397263,3182.885551,-13027.624579,-3753.867940
19587.397597,-1776.494261,-12213.398043,-2145.067394
19587.397930,0.000000,-12509.480420,1225.752797
19587.398263,7031.956449,-11843.295072,4213.525239
19587.398597,1184.329507,-9548.656652,4366.744339
19587.398930,74.020594,-8660.409521,2681.334243
19587.399263,-2516.700203,-9400.615463,1225.752797
19587.399597,-2664.741391,-8142.265362,1149.143247
19587.399930,-4737.318029,-5995.668130,1225.752797
19587.400263,-2960.823768,-5699.585753,-612.876398
19587.400597,-5477.523971,-7846.182985,-1072.533697
19587.400930,-3701.029710,-7105.977043,-995.924147
19587.401263,-74.020594,-8290.306550,1149.143247
19587.401597,1110.308913,-6587.832884,612.876398
19587.401930,2368.659014,-9548.656652,612.876398
19587.402263,1776.494261,-11769.274478,2068.457845
19587.402597,1554.432478,-10732.986159,-1225.752797
19587.402930,4071.132681,-10881.027347,1762.019645
19587.403263,2368.659014,-10140.821405,-1838.629195
19587.403597,1406.391290,-11251.130318,-2221.676944
19587.403930,-1850.514855,-11621.233289,-2298.286494
19587.404263,-2368.659014,-7179.997637,-3064.381992
19587.404597,-1776.494261,-5995.668130,0.000000
19587.404930,4663.297435,-6513.812290,842.705048
19587.405264,2960.823768,-5107.421000,3983.696590
19587.405597,2368.659014,-6291.750507,4903.011187
19587.405930,4367.215058,-8290.306550,4213.525239
19587.406264,1850.514855,-10436.903782,2987.772442
19587.406597,-592.164754,-10140.821405,-919.314598
19587.406930,-3627.009116,-12509.480420,-2528.115143
19587.407264,-4885.359217,-12953.603985,-3830.477490
19587.407597,-4589.276840,-8956.491898,-2451.505594
19587.407930,-74.020594,-9474.636058,-995.924147
19587.408264,1406.391290,-5403.503377,306.438199
19587.408597,0.000000,-5995.668130,2451.505594
19587.408930,3404.947333,-5107.421000,766.095498
19587.409264,4515.256246,-7105.977043,3600.648841
19587.409597,3997.112087,-7328.038826,1302.362347
19587.409930,2072.576638,-9992.780217,-1225.752797
19587.410264,1702.473667,-13915.871710,-995.924147
19587.410597,0.000000,-11917.315666,-919.314598
19587.410930,1110.308913,-13619.789333,-689.485948
19587.411264,-1258.350101,-11029.068536,-2451.505594
19587.411597,-4737.318029,-12657.521608,0.000000
19587.411930,-4811.338623,-11547.212695,-76.609550
19587.412264,-4071.132681,-7698.141797,1149.143247
19587.412597,-3034.844362,-6439.791695,3140.991542
19587.412930,-1480.411884,-4071.132681,4519.963438
19587.413264,-1924.535449,-4219.173869,4596.572988
19587.413597,1702.473667,-7994.224174,4213.525239
19587.413930,0.000000,-5403.503377,2451.505594
19587.414264,0.000000,-7179.997637,2451.505594
19587.414597,1702.473667,-10362.883188,-1302.362347
19587.414930,-222.061783,-11843.295072,-3830.477490
19587.415264,-2442.679609,-13841.851115,-5822.325785
19587.415597,-3108.864956,-13693.809927,-5209.449386
19587.415930,-3182.885551,-12731.542202,-4443.353888
19587.416264,-3478.967927,-9918.759623,-3677.258390
19587.416597,-1850.514855,-10510.924376,-76.609550
19587.416930,592.164754,-6365.771101,3294.210641
19587.417264,4737.318029,-4441.235652,7890.783629
19587.417597,5995.668130,-3478.967927,8810.098227
19587.417930,5255.462188,-5181.441594,6358.592633
19587.418264,3404.947333,-8882.471304,6128.763984
19587.418597,4663.297435,-9474.636058,-76.609550
19587.418930,-1776.494261,-10732.986159,-1838.629195
19587.419264,-2960.823768,-13101.645173,-5822.325785
19587.419597,-5403.503377,-13619.789333,-8120.612279
19587.419930,-5551.544565,-14211.954086,-4979.620737
19587.420264,-2146.597232,-10214.842000,-2145.067394
19587.420597,2220.617826,-8142.265362,2681.334243
19587.420930,2960.823768,-4811.338623,3064.381992
19587.421264,7476.080014,-7105.977043,6665.030833
19587.421597,8216.285956,-4441.235652,4826.401637
19587.421930,7105.977043,-4811.338623,4903.011187
19587.422264,7624.121203,-9474.636058,2987.772442
19587.422597,4737.318029,-11251.130318,-76.609550
19587.422930,962.267725,-14359.995275,-3753.867940
19587.423264,222.061783,-14508.036463,-5745.716235
19587.423597,-518.144159,-13619.789333,-4673.182538
19587.423930,-74.020594,-13323.706956,-1302.362347
19587.424264,-74.020594,-11547.212695,-3140.991542
19587.424597,-3552.988522,-9844.739029,1762.019645
19587.424930,-74.020594,-9474.636058,6052.154434
19587.425264,-74.020594,-6217.729913,5362.668486
19587.425597,2812.782580,-4737.318029,8197.221829
19587.425930,148.041188,-4663.297435,4903.011187
19587.426264,148.041188,-6513.812290,3294.210641
19587.426597,962.267725,-6661.853478,1762.019645
19587.426930,222.061783,-7105.977043,-995.924147
19587.427264,-962.267725,-8364.327145,-7354.516781
19587.427597,-4737.318029,-14211.954086,-4979.620737
19587.427931,-3627.009116,-14211.954086,-7431.126331
19587.428264,-3034.844362,-13101.645173,-7354.516781
19587.428597,-2812.782580,-14211.954086,-2528.115143
19587.428931,-4071.132681,-10436.903782,-1378.971896
19587.429264,-1332.370696,-9252.574275,3140.991542
19587.429597,2516.700203,-5625.565159,7354.516781
19587.429931,5847.626942,-3256.906145,9729.412825
19587.430264,5329.482782,-4885.359217,9652.803275
19587.430597,3923.091493,-4811.338623,6128.763984
19587.430931,814.226536,-7698.141797,1991.848295
19587.431264,-1184.329507,-9844.739029,-3064.381992
19587.431597,-1258.350101,-14211.954086,-4979.620737
19587.431931,-7179.997637,-12509.480420,-9193.145976
19587.432264,-8586.388927,-14508.036463,-6128.763984
19587.432597,-6883.915261,-14211.954086,-5132.839837
19587.432931,-4737.318029,-9548.656652,0.000000
19587.433264,2072.576638,-6735.874072,6588.421283
19587.433597,5551.544565,-3997.112087,8963.317327
19587.433931,6661.853478,-2368.659014,7354.516781
19587.434264,8216.285956,-6809.894666,6665.030833
19587.434597,7105.977043,-4219.173869,4903.011187
19587.434931,6439.791695,-5995.668130,-2451.505594
19587.435264,3256.906145,-12731.542202,-4060.306139
19587.435597,-3034.844362,-15988.448347,-9882.631924
19587.435931,-3108.864956,-16136.489536,-8656.879127
19587.436264,-1036.288319,-14211.954086,-4366.744339
19587.436597,0.000000,-11991.336260,-1838.629195
19587.436931,370.102971,-10955.047942,1762.019645
19587.437264,962.267725,-9104.533087,5592.497135
19587.437597,4145.153275,-5699.585753,10342.289223
19587.437931,3552.988522,-1258.350101,7354.516781
19587.438264,4737.318029,-4811.338623,9729.412825
19587.438597,2146.597232,-4811.338623,3217.601092
19587.438931,-1850.514855,-7105.977043,76.609550
19587.439264,-74.020594,-9178.553681,-3447.429741
19587.439597,-1332.370696,-10362.883188,-5132.839837
19587.439931,-1702.473667,-11547.212695,-6588.421283
19587.440264,-2960.823768,-12435.459826,-6511.811733
19587.440597,-1258.350101,-15396.283594,-4060.306139
19587.440931,-2368.659014,-12213.398043,-1838.629195
19587.441264,1184.329507,-11621.233289,3600.648841
19587.441597,2294.638420,-8438.347739,1532.190996
19587.441931,0.000000,-5995.668130,4903.011187
19587.442264,3478.967927,-6513.812290,4903.011187
19587.442597,5551.544565,-5255.462188,7890.783629
19587.442931,4663.297435,-5181.441594,6665.030833
19587.443264,2368.659014,-7179.997637,2221.676944
19587.443597,-2590.720797,-8956.491898,-4213.525239
19587.443931,-4737.318029,-13101.645173,-2834.553343
19587.444264,-5403.503377,-11843.295072,-6128.763984
19587.444597,-7179.997637,-11843.295072,-7354.516781
19587.444931,-9474.636058,-10732.986159,-4903.011187
19587.445264,-6587.832884,-10732.986159,-919.314598
19587.445597,-2072.576638,-7772.162391,5286.058936
19587.445931,2368.659014,-3701.029710,7967.393179
19587.446264,3849.070898,-3627.009116,9039.926876
19587.446597,4663.297435,-3182.885551,4903.011187
19587.446931,3775.050304,-5551.544565,3294.210641
19587.447264,4145.153275,-7328.038826,-229.828649
19587.447597,1406.391290,-9918.759623,-4979.620737
19587.447931,-2960.823768,-13249.686362,-7354.516781
19587.448264,-3923.091493,-14285.974681,-10725.336972
19587.448597,-4441.235652,-15470.304188,-7967.393179
19587.448931,296.082377,-14211.954086,-689.485948
19587.449264,2146.597232,-10140.821405,2604.724693
19587.449598,2368.659014,-7179.997637,7660.954980
19587.449931,3775.050304,-6513.812290,7890.783629
19587.450264,4219.173869,-5847.626942,8273.831378
19587.450598,4737.318029,-5033.400406,7354.516781
19587.450931,3478.967927,-6513.812290,4826.401637
19587.451264,-74.020594,-7105.977043,-1915.238745
19587.451598,-4737.318029,-9622.677246,-3753.867940
19587.451931,-1258.350101,-13619.789333,-4979.620737
19587.452264,-1258.350101,-9548.656652,-5975.544884
19587.452598,592.164754,-11325.150913,-2528.115143
19587.452931,0.000000,-11251.130318,-3600.648841
19587.453264,1554.432478,-11917.315666,-766.095498
19587.453598,4959.379811,-10510.924376,2298.286494
19587.453931,4293.194464,-8142.265362,2374.896044
19587.454264,5255.462188,-7772.162391,0.000000
19587.454598,4737.318029,-10658.965565,4826.401637
19587.454931,2886.803174,-8068.244768,2451.505594
19587.455264,2368.659014,-6587.832884,4290.134789
19587.455598,2294.638420,-8882.471304,2374.896044
19587.455931,0.000000,-8956.491898,76.609550
19587.456264,-1036.288319,-9474.636058,-1302.362347
19587.456598,-3034.844362,-11029.068536,-2374.896044
19587.456931,-3552.988522,-9548.656652,-2298.286494
19587.457264,-4219.173869,-10140.821405,-2451.505594
19587.457598,-2664.741391,-11769.274478,1762.019645
19587.457931,-2442.679609,-9474.636058,-76.609550
19587.458264,-2072.576638,-7772.162391,2604.724693
19587.458598,1628.453072,-4515.256246,5745.716235
19587.458931,2072.576638,-5625.565159,6052.154434
19587.459264,2590.720797,-5773.606348,2681.334243
19587.459598,-222.061783,-7624.121203,-689.485948
19587.459931,3182.885551,-9474.636058,-1302.362347
19587.460264,0.000000,-9548.656652,-3370.820191
19587.460598,-1554.432478,-12435.459826,-7277.907231
19587.460931,-3627.009116,-11621.233289,-8580.269578
19587.461264,-2368.659014,-15322.262999,-689.485948
19587.461598,1998.556043,-10658.965565,1762.019645
19587.461931,3627.009116,-7994.224174,5132.839837
19587.462264,2368.659014,-8068.244768,6435.202183
19587.462598,296.082377,-7994.224174,5515.887586
19587.462931,1702.473667,-7698.141797,6665.030833
19587.463264,148.041188,-6365.771101,3677.258390
19587.463598,-1850.514855,-6883.915261,1072.533697
19587.463931,-4071.132681,-7624.121203,-2681.334243
19587.464264,-4441.235652,-9474.636058,-3753.867940
19587.464598,-1998.556043,-11251.130318,-2145.067394
19587.464931,0.000000,-7179.997637,-3677.258390
19587.465264,2368.659014,-10658.965565,2068.457845
19587.465598,3478.967927,-9326.594869,153.219100
19587.465931,2738.761985,-7254.018232,0.000000
19587.466264,5699.585753,-11843.295072,2068.457845
19587.466598,3701.029710,-9844.739029,919.314598
19587.466931,2442.679609,-9622.677246,76.609550
19587.467264,814.226536,-10510.924376,-153.219100
19587.467598,1110.308913,-9474.636058,-76.609550
19587.467931,0.000000,-7772.162391,3140.991542
19587.468264,4367.215058,-8586.388927,2987.772442
19587.468598,1110.308913,-6587.832884,0.000000
19587.468931,0.000000,-7772.162391,612.876398
19587.469264,1702.473667,-9474.636058,76.609550
19587.469598,1184.329507,-9548.656652,1915.238745
19587.469931,0.000000,-9474.636058,459.657299
19587.470264,-3108.864956,-11473.192101,0.000000
19587.470598,-3478.967927,-9548.656652,-1762.019645
19587.470931,-2368.659014,-10732.986159,3600.648841
19587.471264,2294.638420,-7105.977043,2374.896044
19587.471598,1110.308913,-5995.668130,0.000000
19587.471931,1554.432478,-7846.182985,2834.553343
19587.472265,1924.535449,-5699.585753,0.000000
19587.472598,3478.967927,-8216.285956,-76.609550
19587.472931,3552.988522,-8068.244768,-919.314598
19587.473264,1850.514855,-10140.821405,-1608.800546
19587.473598,1184.329507,-11917.315666,-1838.629195
19587.473931,3478.967927,-14211.954086,-76.609550
19587.474264,592.164754,-10732.986159,1838.629195
19587.474598,4219.173869,-9474.636058,2757.943793
19587.474931,4663.297435,-13027.624579,4213.525239
19587.475264,-3256.906145,-8364.327145,1225.752797
19587.475598,-2886.803174,-9030.512492,536.266849
19587.475931,-2738.761985,-8586.388927,1072.533697
19587.476264,-2072.576638,-5995.668130,1532.190996
19587.476598,-5181.441594,-7402.059420,0.000000
19587.476931,-2664.741391,-8290.306550,-76.609550
19587.477264,-4441.235652,-7772.162391,612.876398
19587.477597,0.000000,-7179.997637,4443.353888
19587.477931,4663.297435,-7105.977043,2374.896044
19587.478264,2368.659014,-7179.997637,0.000000
19587.478597,3552.988522,-10436.903782,1149.143247
19587.478931,2516.700203,-11177.109724,-1532.190996
19587.479264,3330.926739,-11843.295072,-2528.115143
19587.479597,-74.020594,-13619.789333,-3753.867940
19587.479931,-1998.556043,-13915.871710,-4979.620737
19587.480264,-1702.473667,-10510.924376,-1915.238745
19587.480597,148.041188,-9178.553681,1302.362347
19587.480931,3108.864956,-5033.400406,3983.696590
19587.481264,5255.462188,-7105.977043,8503.660028
19587.481597,2368.659014,-5403.503377,9729.412825
19587.481930,3478.967927,-4885.359217,3140.991542
19587.482264,1332.370696,-9992.780217,4596.572988
19587.482597,0.000000,-8364.327145,-1838.629195
19587.482930,-4811.338623,-11547.212695,-4903.011187
19587.483264,-5329.482782,-12731.542202,-4903.011187
19587.483597,-6883.915261,-12583.501014,-4290.134789
19587.483930,-3330.926739,-9918.759623,-2528.115143
19587.484264,-1850.514855,-7105.977043,-689.485948
19587.484597,1702.473667,-8290.306550,3600.648841
19587.484930,3182.885551,-7105.977043,2068.457845
19587.485264,1776.494261,-5403.503377,3983.696590
19587.485597,6069.688724,-7402.059420,4903.011187
19587.485930,2442.679609,-6587.832884,1838.629195
19587.486263,1332.370696,-11325.150913,-229.828649
19587.486597,592.164754,-12139.377449,-1915.238745
19587.486930,-370.102971,-12583.501014,-1915.238745
19587.487263,0.000000,-10140.821405,-2451.505594
19587.487597,-1258.350101,-13619.789333,-2528.115143
19587.487930,-5181.441594,-11843.295072,-1915.238745
19587.488263,-6513.812290,-9548.656652,1225.752797
19587.488597,-74.020594,-9474.636058,4213.525239
19587.488930,-1480.411884,-5551.544565,4903.011187
19587.489263,0.000000,-5033.400406,4903.011187
19587.489597,666.185348,-4515.256246,4903.011187
19587.489930,222.061783,-6069.688724,3217.601092
19587.490263,2960.823768,-7254.018232,3600.648841
19587.490596,4663.297435,-7105.977043,-1455.581446
19587.490930,0.000000,-9548.656652,-2451.505594
19587.491263,-2368.659014,-11917.315666,-4290.134789
19587.491596,-74.020594,-16580.613101,-6205.373534
19587.491930,-1776.494261,-13545.768739,-4213.525239
19587.492263,-1924.535449,-11917.315666,-3677.258390
19587.492596,-666.185348,-11843.295072,-1991.848295
19587.492930,-592.164754,-9252.574275,1072.533697
19587.493263,2368.659014,-5995.668130,6741.640382
19587.493596,6883.915261,-3627.009116,8427.050478
19587.493930,6069.688724,-4737.318029,8503.660028
19587.494263,4737.318029,-5995.668130,5669.106685
19587.494596,2886.803174,-6809.894666,1302.362347
19587.494929,0.000000,-9548.656652,306.438199
19587.495263,-74.020594,-11843.295072,-3140.991542
19587.495596,-5995.668130,-11325.150913,-9652.803275
19587.495929,-6439.791695,-14211.954086,-6205.373534
19587.496263,-4811.338623,-13619.789333,-2528.115143
19587.496596,-1184.329507,-8660.409521,153.219100
19587.496929,592.164754,-6587.832884,3983.696590
19587.497263,4367.215058,-4811.338623,5669.106685
19587.497596,4737.318029,-2442.679609,5515.887586
19587.497929,4737.318029,-3034.844362,5515.887586
19587.498263,8216.285956,-7105.977043,1762.019645
19587.498596,3701.029710,-7772.162391,0.000000
19587.498929,1480.411884,-12731.542202,-1455.581446
19587.499262,-962.267725,-12287.418637,-6511.811733
19587.499596,-2368.659014,-15174.221811,-5286.058936
19587.499929,-962.267725,-12361.439231,-3907.087040
19587.500262,-1110.308913,-11991.336260,-842.705048
19587.500596,-1184.329507,-11547.212695,1685.410096
19587.500929,-4145.153275,-8364.327145,4826.401637
19587.501262,-74.020594,-6513.812290,3140.991542
19587.501596,592.164754,-3923.091493,8886.707777
19587.501929,2886.803174,-5625.565159,6971.469032
19587.502262,0.000000,-4811.338623,2757.943793
19587.502596,518.144159,-7105.977043,1915.238745
19587.502929,888.247130,-7698.141797,306.438199
19587.503262,1258.350101,-8586.388927,-2068.457845
19587.503595,-2442.679609,-12435.459826,-6205.373534
19587.503929,-4145.153275,-14434.015869,-6205.373534
19587.504262,-4737.318029,-12435.459826,-7431.126331
19587.504595,-3701.029710,-12509.480420,-4903.011187
19587.504929,-666.185348,-12435.459826,-919.314598
19587.505262,-74.020594,-11547.212695,2068.457845
19587.505595,2072.576638,-6883.915261,5209.449386
19587.505929,5255.462188,-5033.400406,8656.879127
19587.506262,6957.935855,-3849.070898,9576.193725
19587.506595,5033.400406,-4811.338623,7967.393179
19587.506929,4663.297435,-8290.306550,2987.772442
19587.507262,0.000000,-8660.409521,306.438199
19587.507595,-1850.514855,-13915.871710,-3140.991542
19587.507928,-5107.421000,-11621.233289,-8580.269578
19587.508262,-7772.162391,-13915.871710,-7124.688131
19587.508595,-7920.203579,-12879.583391,-6435.202183
19587.508928,-6291.750507,-11843.295072,-2528.115143
19587.509262,-1184.329507,-7846.182985,3447.429741
19587.509595,2590.720797,-3034.844362,7354.516781
19587.509928,5847.626942,-3997.112087,8197.221829
19587.510262,5847.626942,-4145.153275,6358.592633
19587.510595,6587.832884,-5995.668130,4673.182538
19587.510928,5699.585753,-7698.141797,995.924147
19587.511262,3256.906145,-8364.327145,-3983.696590
19587.511595,-370.102971,-14656.077652,-6205.373534
19587.511928,-2442.679609,-13249.686362,-11031.775171
19587.512261,-2220.617826,-15840.407159,-4979.620737
19587.512595,1184.329507,-13619.789333,-1072.533697
19587.512928,-370.102971,-9548.656652,0.000000
19587.513261,814.226536,-9474.636058,3600.648841
19587.513595,1850.514855,-7105.977043,7737.564530
19587.513928,3478.967927,-4811.338623,9499.584175
19587.514261,2960.823768,-2442.679609,7967.393179
19587.514595,4071.132681,-5921.647536,5745.716235
19587.514928,-2220.617826,-5921.647536,383.047749
19587.515261,-3552.988522,-7179.997637,-1532.190996
19587.515595,-1702.473667,-11843.295072,-3140.991542
19587.515928,-2368.659014,-9844.739029,-4903.011187
19587.516261,-2368.659014,-11917.315666,-5669.106685
19587.516594,-2220.617826,-12065.356855,-6128.763984
19587.516928,-740.205942,-12731.542202,-3524.039291
19587.517261,2146.597232,-13027.624579,1149.143247
19587.517594,4663.297435,-10658.965565,1149.143247
19587.517928,0.000000,-8660.409521,4903.011187
19587.518261,4663.297435,-9474.636058,6052.154434
19587.518594,4515.256246,-6513.812290,6128.763984
19587.518928,5329.482782,-6365.771101,8963.317327
19587.519261,4959.379811,-5329.482782,4596.572988
19587.519594,-74.020594,-9326.594869,-76.609550
19587.519928,-3182.885551,-10288.862594,-3677.258390
19587.520261,-4219.173869,-11769.274478,-4979.620737
19587.520594,-5995.668130,-10140.821405,-7890.783629
19587.520927,-8290.306550,-13397.727550,-3753.867940
19587.521261,-6291.750507,-13027.624579,-2528.115143
19587.521594,-3627.009116,-6587.832884,0.000000
19587.521927,1184.329507,-7994.224174,8503.660028
19587.522261,3256.906145,-3330.926739,8120.612279
19587.522594,5255.462188,-3701.029710,7737.564530
19587.522927,3923.091493,-3997.112087,4673.182538
19587.523261,5551.544565,-6217.729913,1762.019645
19587.523594,2590.720797,-9104.533087,-2757.943793
19587.523927,0.000000,-11843.295072,-6665.030833
19587.524261,-3627.009116,-14656.077652,-8963.317327
19587.524594,-5921.647536,-14285.974681,-9193.145976
19587.524927,-4145.153275,-13693.809927,-3753.867940
19587.525260,2886.803174,-11251.130318,-76.609550
19587.525594,3552.988522,-7179.997637,4519.963438
19587.525927,2664.741391,-7476.080014,9729.412825
19587.526260,2368.659014,-5403.503377,5822.325785
19587.526594,3775.050304,-6069.688724,8273.831378
19587.526927,2590.720797,-5847.626942,6205.373534
19587.527260,1110.308913,-5995.668130,2298.286494
19587.527594,-1998.556043,-9474.636058,-1455.581446
19587.527927,-4219.173869,-8956.491898,-4673.182538
19587.528260,-1258.350101,-11251.130318,-5898.935335
19587.528594,-2368.659014,-9844.739029,-3370.820191
19587.528927,-2368.659014,-11029.068536,-2911.162892
19587.529260,296.082377,-11843.295072,-2298.286494
19587.529593,3404.947333,-10732.986159,1455.581446
19587.529927,4367.215058,-8660.409521,3294.210641
19587.530260,3552.988522,-8512.368333,2681.334243
19587.530593,3182.885551,-8882.471304,2987.772442
19587.530927,0.000000,-9548.656652,3677.258390
19587.531260,1184.329507,-5403.503377,0.000000
19587.531593,592.164754,-6883.915261,3064.381992
19587.531927,2294.638420,-8290.306550,-76.609550
19587.532260,-74.020594,-9474.636058,-383.047749
19587.532593,-370.102971,-10510.924376,-1915.238745
19587.532927,-2294.638420,-10955.047942,-1302.362347
19587.533260,-3552.988522,-11621.233289,-1532.190996
19587.533593,-3552.988522,-10214.842000,-1149.143247
19587.533926,-3627.009116,-12435.459826,1762.019645
19587.534260,-4737.318029,-7772.162391,2451.505594
19587.534593,-2368.659014,-5995.668130,6128.763984
19587.534926,4367.215058,-5773.606348,5898.935335
19587.535260,1184.329507,-2442.679609,3677.258390
19587.535593,814.226536,-6587.832884,0.000000
19587.535926,1554.432478,-8290.306550,-1378.971896
19587.536260,740.205942,-9252.574275,-3447.429741
19587.536593,0.000000,-11399.171507,-4443.353888
19587.536926,-2442.679609,-12435.459826,-7124.688131
19587.537260,-3552.988522,-14582.057057,-2834.553343
19587.537593,1702.473667,-13619.789333,-76.609550
19587.537926,4071.132681,-9178.553681,2374.896044
19587.538259,1184.329507,-5995.668130,4903.011187
19587.538593,2886.803174,-7698.141797,5209.449386
19587.538926,-74.020594,-8142.265362,5132.839837
19587.539259,518.144159,-6217.729913,4596.572988
19587.539593,-1184.329507,-7105.977043,2681.334243
19587.539926,-1258.350101,-6513.812290,-1915.238745
19587.540259,-4219.173869,-8882.471304,-2987.772442
19587.540593,-4293.194464,-8808.450710,-4213.525239
19587.540926,-2368.659014,-8956.491898,-2681.334243
19587.541259,0.000000,-8956.491898,0.000000
19587.541593,4663.297435,-9474.636058,536.266849
19587.541926,1184.329507,-8364.327145,-1915.238745
19587.542259,1776.494261,-10732.986159,1225.752797
19587.542592,5255.462188,-11547.212695,1762.019645
19587.542926,2146.597232,-8364.327145,612.876398
19587.543259,2886.803174,-10066.800811,-76.609550
19587.543592,-666.185348,-10288.862594,-612.876398
19587.543926,666.185348,-8734.430116,229.828649
19587.544259,3182.885551,-8290.306550,3294.210641
19587.544592,4071.132681,-8290.306550,-76.609550
19587.544926,-1776.494261,-7772.162391,1225.752797
19587.545259,-2368.659014,-9548.656652,919.314598
19587.545592,2294.638420,-8438.347739,229.828649
19587.545926,0.000000,-8956.491898,3064.381992
19587.546259,-740.205942,-10436.903782,-76.609550
19587.546592,-1702.473667,-11399.171507,-459.657299
19587.546925,-2368.659014,-10658.965565,0.000000
19587.547259,-222.061783,-9474.636058,1149.143247
19587.547592,1702.473667,-8290.306550,-76.609550
19587.547925,0.000000,-7179.997637,3140.991542
19587.548259,888.247130,-7550.100608,2374.896044
19587.548592,3478.967927,-6513.812290,-1302.362347
19587.548925,3923.091493,-8734.430116,-76.609550
19587.549259,2072.576638,-8956.491898,-919.314598
19587.549592,1406.391290,-10436.903782,-1838.629195
19587.549925,444.123565,-12139.377449,-1302.362347
19587.550259,0.000000,-11029.068536,0.000000
19587.550592,4367.215058,-8956.491898,1302.362347
19587.550925,0.000000,-9548.656652,3677.258390
19587.551258,1998.556043,-10658.965565,995.924147
19587.551592,-4737.318029,-9548.656652,-1838.629195
19587.551925,-3330.926739,-7846.182985,-383.047749
19587.552258,-2812.782580,-7920.203579,995.924147
19587.552592,-2664.741391,-6439.791695,689.485948
19587.552925,-4219.173869,-7179.997637,76.609550
19587.553258,-1406.391290,-7698.141797,1532.190996
19587.553592,0.000000,-5995.668130,3677.258390
19587.553925,4663.297435,-7105.977043,3294.210641
19587.554258,4663.297435,-7402.059420,0.000000
19587.554592,3701.029710,-11843.295072,-76.609550
19587.554925,1998.556043,-11695.253884,-3447.429741
19587.555258,1776.494261,-13175.665768,-2221.676944
19587.555591,-2220.617826,-12953.603985,-4366.744339
19587.555925,-2738.761985,-12361.439231,-4443.353888
19587.556258,-2812.782580,-12139.377449,-1685.410096
19587.556591,-1184.329507,-8068.244768,919.314598
19587.556925,2738.761985,-4737.318029,4443.353888
19587.557258,4589.276840,-4219.173869,6128.763984
19587.557591,4589.276840,-5033.400406,7048.078582
19587.557925,2072.576638,-7179.997637,3830.477490
19587.558258,740.205942,-7179.997637,0.000000
19587.558591,1702.473667,-13619.789333,-76.609550
19587.558925,-4737.318029,-10732.986159,-4290.134789
19587.559258,-4811.338623,-13619.789333,-4979.620737
19587.559591,-6069.688724,-14508.036463,-3753.867940
19587.559924,-3330.926739,-11251.130318,-1915.238745
19587.560258,-1554.432478,-8142.265362,1225.752797
19587.560591,2294.638420,-5847.626942,2834.553343
19587.560924,2886.803174,-6513.812290,4519.963438
19587.561258,1480.411884,-3034.844362,3064.381992
19587.561591,3552.988522,-5995.668130,5975.544884
19587.561924,4663.297435,-7105.977043,689.485948
19587.562258,1184.329507,-9548.656652,0.000000
19587.562591,1702.473667,-13471.748144,-2528.115143
19587.562924,0.000000,-13175.665768,-2834.553343
19587.563258,962.267725,-11917.315666,-2145.067394
19587.563591,370.102971,-12213.398043,-1378.971896
19587.563924,-1998.556043,-11251.130318,-1608.800546
19587.564257,-6513.812290,-10140.821405,919.314598
19587.564591,-1258.350101,-9474.636058,3294.210641
19587.564924,-370.102971,-7698.141797,2221.676944
19587.565257,0.000000,-3923.091493,4903.011187
19587.565591,-74.020594,-4441.235652,3064.381992
19587.565924,0.000000,-5699.585753,4060.306139
19587.566257,1998.556043,-6735.874072,2911.162892
19587.566591,2812.782580,-7031.956449,1915.238745
19587.566924,1480.411884,-7179.997637,0.000000
19587.567257,1184.329507,-12509.480420,-76.609550
19587.567591,-74.020594,-13915.871710,-6818.249932
19587.567924,-2960.823768,-12509.480420,-7354.516781
19587.568257,-2368.659014,-13397.727550,-3064.381992
19587.568590,-1258.350101,-11399.171507,-4519.963438
19587.568924,-2146.597232,-10807.006753,-995.924147
19587.569257,0.000000,-7179.997637,1991.848295
19587.569590,4219.173869,-5329.482782,6588.421283
19587.569924,5625.565159,-2442.679609,7048.078582
19587.570257,4885.359217,-5699.585753,6588.421283
19587.570590,3478.967927,-7920.203579,4749.792088
19587.570924,1480.411884,-8142.265362,1608.800546
19587.571257,2294.638420,-11843.295072,-76.609550
19587.571590,-1850.514855,-12731.542202,-5898.935335
19587.571923,-8290.306550,-13101.645173,-6435.202183
19587.572257,-5107.421000,-16284.530724,-4979.620737
19587.572590,-4219.173869,-10807.006753,-4213.525239
19587.572923,-592.164754,-8512.368333,1225.752797
19587.573257,2738.761985,-5625.565159,3830.477490
19587.573590,4145.153275,-4515.256246,6281.983084
19587.573923,6143.709319,-3923.091493,6205.373534
19587.574257,7328.038826,-4589.276840,4060.306139
19587.574590,6069.688724,-8734.430116,2374.896044
19587.574923,2368.659014,-8956.491898,306.438199
19587.575257,-74.020594,-13619.789333,-4366.744339
19587.575590,-1998.556043,-13397.727550,-7967.393179
19587.575923,-370.102971,-14656.077652,-4366.744339
19587.576257,-2368.659014,-11621.233289,-3064.381992
19587.576590,-1184.329507,-11843.295072,-689.485948
19587.576923,-3701.029710,-10362.883188,229.828649
19587.577256,-2368.659014,-6587.832884,1838.629195
19587.577590,-74.020594,-7105.977043,6971.469032
19587.577923,2886.803174,-3552.988522,7277.907231
19587.578256,1110.308913,-2442.679609,3677.258390
19587.578590,0.000000,-7476.080014,6052.154434
19587.578923,1036.288319,-6439.791695,919.314598
19587.579256,1702.473667,-6291.750507,-1225.752797
19587.579589,592.164754,-10807.006753,-2604.724693
19587.579923,-3330.926739,-12657.521608,-7354.516781
19587.580256,-3034.844362,-14211.954086,-8656.879127
19587.580589,-4441.235652,-13693.809927,-6128.763984
19587.580923,-2442.679609,-11621.233289,-5515.887586
19587.581256,-1258.350101,-10066.800811,-3524.039291
19587.581589,0.000000,-10436.903782,4060.306139
19587.581922,4663.297435,-6513.812290,6052.154434
19587.582256,6513.812290,-4737.318029,9729.412825
19587.582589,7698.141797,-4441.235652,10265.679673
19587.582922,6217.729913,-4811.338623,8197.221829
19587.583255,2664.741391,-7402.059420,2528.115143
19587.583589,888.247130,-11325.150913,-76.609550
19587.583922,-3775.050304,-10881.027347,-8273.831378
19587.584255,-7105.977043,-13101.645173,-9806.022374
19587.584589,-7550.100608,-15988.448347,-7431.126331
19587.584922,-7179.997637,-13619.789333,-6818.249932
19587.585255,-4071.132681,-11547.212695,-229.828649
19587.585588,1554.432478,-6513.812290,5745.716235
19587.585922,4737.318029,-4071.132681,10265.679673
19587.586255,5625.565159,-3034.844362,8044.002729
19587.586588,6513.812290,-6513.812290,6665.030833
19587.586922,7031.956449,-6809.894666,3600.648841
19587.587255,5625.565159,-8216.285956,689.485948
19587.587588,2368.659014,-10881.027347,-4060.306139
19587.587921,-3552.988522,-13101.645173,-7660.954980
19587.588255,-1554.432478,-16580.613101,-8656.879127
19587.588588,-2146.597232,-13027.624579,-6511.811733
19587.588921,-2368.659014,-12509.480420,-612.876398
19587.589254,-74.020594,-11251.130318,1149.143247
19587.589588,1110.308913,-9918.759623,5439.278036
19587.589921,2072.576638,-5403.503377,8044.002729
19587.590254,4663.297435,-3997.112087,9116.536426
19587.590588,2960.823768,-3552.988522,8503.660028
19587.590921,296.082377,-3627.009116,2757.943793
19587.591254,-4737.318029,-5995.668130,0.000000
19587.591587,-814.226536,-9474.636058,-3753.867940
19587.591921,-3478.967927,-8290.306550,-6511.811733
19587.592254,-3256.906145,-10732.986159,-6358.592633
19587.592587,-1998.556043,-11843.295072,-6205.373534
19587.592921,-1554.432478,-14211.954086,-4979.620737
19587.593254,296.082377,-12953.603985,-2757.943793
19587.593587,1480.411884,-11621.233289,1225.752797
19587.593920,3775.050304,-11251.130318,3907.087040
19587.594254,740.205942,-7476.080014,5209.449386
19587.594587,4663.297435,-8882.471304,5439.278036
19587.594920,3849.070898,-4811.338623,7967.393179
19587.595254,3552.988522,-4811.338623,8273.831378
19587.595587,2960.823768,-6735.874072,1532.190996
19587.595920,-370.102971,-10510.924376,-689.485948
19587.596253,-3552.988522,-11325.150913,-4596.572988
19587.596587,-3701.029710,-11251.130318,-5362.668486
19587.596920,-4811.338623,-13027.624579,-6205.373534
19587.597253,-7105.977043,-13101.645173,-3447.429741
19587.597586,-6069.688724,-9770.718434,-3140.991542
19587.597920,-3552.988522,-7920.203579,2451.505594
19587.598253,4071.132681,-6513.812290,8503.660028
19587.598586,4663.297435,-2960.823768,6358.592633
19587.598920,2368.659014,-3034.844362,7354.516781
19587.599253,4071.132681,-5329.482782,2987.772442
19587.599586,4071.132681,-6957.935855,-383.047749
19587.599919,1184.329507,-9252.574275,-3677.258390
19587.600253,-74.020594,-11695.253884,-9269.755526
19587.600586,-3552.988522,-14952.160028,-7124.688131
19587.600919,-2664.741391,-16506.592507,-4979.620737
19587.601253,-74.020594,-12139.377449,-4366.744339
19587.601586,1850.514855,-10066.800811,2145.067394
19587.601919,2960.823768,-7920.203579,5975.544884
19587.602252,1924.535449,-6661.853478,6971.469032
19587.602586,2738.761985,-6809.894666,7201.297681
19587.602919,2368.659014,-5403.503377,6741.640382
19587.603252,1110.308913,-5107.421000,3677.258390
19587.603585,-1184.329507,-6661.853478,-76.609550
19587.603919,-4737.318029,-8364.327145,-4136.915689
19587.604252,-4219.173869,-10140.821405,-5592.497135
19587.604585,-2960.823768,-8364.327145,-4903.011187
19587.604919,-74.020594,-11251.130318,-3753.867940
19587.605252,-74.020594,-9918.759623,-4826.401637
19587.605585,592.164754,-11621.233289,612.876398
19587.605918,5847.626942,-11843.295072,1762.019645
19587.606252,2738.761985,-7772.162391,2451.505594
19587.606585,3775.050304,-9770.718434,2681.334243
19587.606918,1480.411884,-9104.533087,2374.896044
19587.607252,1628.453072,-8808.450710,2911.162892
19587.607585,3256.906145,-8068.244768,4826.401637
19587.607918,2886.803174,-6809.894666,383.047749
19587.608251,0.000000,-9030.512492,2451.505594
19587.608585,-74.020594,-10658.965565,-689.485948
19587.608918,-2442.679609,-9548.656652,-3064.381992
