#time,accel_x,accel_y,accel_z
20117.738495,7105.977043,-9844.739029,5439.278036
20117.738829,9400.615463,-8290.306550,3294.210641
20117.739163,9474.636058,-8364.327145,5132.839837
20117.739496,9474.636058,-8068.244768,1838.629195
20117.739830,6809.894666,-9696.697840,-919.314598
20117.740164,5921.647536,-9992.780217,-3064.381992
20117.740498,7476.080014,-10510.924376,-2528.115143
20117.740831,7031.956449,-9178.553681,-4903.011187
20117.741165,7105.977043,-8364.327145,-4903.011187
20117.741499,10658.965565,-10658.965565,2987.772442
20117.741832,11843.295072,-7476.080014,3064.381992
20117.742166,15026.180623,-8882.471304,5132.839837
20117.742500,13767.830521,-9400.615463,4903.011187
20117.742833,12805.562797,-9548.656652,3370.820191
20117.743167,8438.347739,-11177.109724,1378.971896
20117.743501,5255.462188,-11547.212695,-2528.115143
20117.743834,0.000000,-9548.656652,-3677.258390
20117.744168,2812.782580,-11843.295072,-1302.362347
20117.744502,3775.050304,-9474.636058,-76.609550
20117.744835,592.164754,-4811.338623,0.000000
20117.745169,5255.462188,-6957.935855,2221.676944
20117.745503,5995.668130,-6883.915261,3983.696590
20117.745836,9696.697840,-6217.729913,4826.401637
20117.746170,8364.327145,-6587.832884,3677.258390
20117.746504,7031.956449,-10658.965565,1762.019645
20117.746837,5329.482782,-11029.068536,-76.609550
20117.747171,2886.803174,-11621.233289,-3983.696590
20117.747505,1776.494261,-12139.377449,-5286.058936
20117.747839,-2960.823768,-12509.480420,-4903.011187
20117.748172,-1776.494261,-12879.583391,-2528.115143
20117.748506,-1258.350101,-9252.574275,-2068.457845
20117.748840,-666.185348,-7179.997637,0.000000
20117.749173,2886.803174,-7105.977043,4519.963438
20117.749507,3849.070898,-4811.338623,5669.106685
20117.749841,9104.533087,-5625.565159,9576.193725
20117.750174,7105.977043,-5255.462188,6818.249932
20117.750508,4737.318029,-7624.121203,1838.629195
20117.750842,3478.967927,-11251.130318,-76.609550
20117.751175,-1480.411884,-13101.645173,-2528.115143
20117.751509,-5329.482782,-11325.150913,-7967.393179
20117.751843,-7550.100608,-14285.974681,-7354.516781
20117.752176,-6957.935855,-15100.201217,-4060.306139
20117.752510,-4441.235652,-9548.656652,0.000000
20117.752844,518.144159,-6809.894666,3447.429741
20117.753177,4145.153275,-4219.173869,7431.126331
20117.753511,8660.409521,-2368.659014,8197.221829
20117.753845,10584.944971,-2368.659014,7584.345430
20117.754179,11621.233289,-5921.647536,7277.907231
20117.754512,8216.285956,-5403.503377,0.000000
20117.754846,7179.997637,-11251.130318,-1915.238745
20117.755180,5255.462188,-14211.954086,-4979.620737
20117.755513,1110.308913,-14211.954086,-8350.440928
20117.755847,-2442.679609,-14878.139434,-8886.707777
20117.756181,-2146.597232,-14434.015869,-5056.230287
20117.756514,-2220.617826,-11917.315666,-229.828649
20117.756848,0.000000,-8364.327145,2451.505594
20117.757182,5255.462188,-7105.977043,7277.907231
20117.757515,7698.141797,-3627.009116,9806.022374
20117.757849,9474.636058,-4145.153275,13100.233016
20117.758183,10584.944971,-1406.391290,5822.325785
20117.758516,7698.141797,-3775.050304,2451.505594
20117.758850,8882.471304,-6661.853478,-1072.533697
20117.759184,5551.544565,-9400.615463,-6511.811733
20117.759517,2738.761985,-11843.295072,-10342.289223
20117.759851,-74.020594,-17172.777854,-10189.070123
20117.760185,-1850.514855,-15174.221811,-11031.775171
20117.760518,-2368.659014,-17098.757260,-3753.867940
20117.760852,-74.020594,-18357.107362,-76.609550
20117.761186,-4589.276840,-11917.315666,3677.258390
20117.761520,-1184.329507,-7179.997637,6741.640382
20117.761853,2960.823768,-6069.688724,12870.404366
20117.762187,6587.832884,-1036.288319,15168.690860
20117.762521,8438.347739,1258.350101,12947.013916
20117.762854,7994.224174,-2294.638420,9499.584175
20117.763188,5699.585753,-2960.823768,1838.629195
20117.763522,2146.597232,-5847.626942,-5898.935335
20117.763855,-2590.720797,-12509.480420,-11108.384721
20117.764189,-8438.347739,-15988.448347,-15781.567259
20117.764523,-12435.459826,-19319.375086,-15321.909960
20117.764856,-10732.986159,-18949.272115,-12334.137518
20117.765190,-10881.027347,-19097.313304,-6128.763984
20117.765524,-9474.636058,-14285.974681,4519.963438
20117.765857,-3034.844362,-10658.965565,10955.165621
20117.766191,1184.329507,-1850.514855,18692.730151
20117.766525,5551.544565,1850.514855,18999.168350
20117.766858,8142.265362,3034.844362,16088.005458
20117.767192,8734.430116,3478.967927,10495.508323
20117.767526,7031.956449,-2368.659014,2987.772442
20117.767860,2886.803174,-5329.482782,-9576.193725
20117.768193,-4737.318029,-14878.139434,-14709.033562
20117.768527,-10066.800811,-21317.931130,-18462.901502
20117.768861,-12065.356855,-20873.807564,-18462.901502
20117.769194,-11251.130318,-23686.590144,-11721.261119
20117.769528,-10362.883188,-20355.663405,-3983.696590
20117.769862,-5995.668130,-15174.221811,5439.278036
20117.770195,1406.391290,-8068.244768,15015.471761
20117.770529,7624.121203,-1776.494261,20761.187996
20117.770863,12953.603985,5921.647536,19612.044749
20117.771196,12435.459826,6439.791695,18616.120601
20117.771530,13915.871710,2442.679609,12793.794817
20117.771864,9992.780217,814.226536,-2451.505594
20117.772197,5255.462188,-5329.482782,-12487.356617
20117.772531,-3552.988522,-15988.448347,-18845.949251
20117.772865,-8808.450710,-21021.848753,-23748.960438
20117.773198,-9992.780217,-25315.043216,-20454.749797
20117.773532,-8882.471304,-24648.857869,-11644.651570
20117.773866,-5921.647536,-20799.786970,-2451.505594
20117.774199,-1184.329507,-15026.180623,11568.042020
20117.774533,8216.285956,-5921.647536,18616.120601
20117.774867,13989.892304,-1776.494261,25740.808733
20117.775201,16506.592507,6513.812290,22906.255390
20117.775534,14211.954086,6143.709319,16777.491406
20117.775868,10658.965565,3108.864956,6052.154434
20117.776202,6439.791695,-2146.597232,-6435.202183
20117.776535,0.000000,-7179.997637,-16547.662757
20117.776869,-4663.297435,-16062.468941,-19995.092498
20117.777203,-7179.997637,-21095.869347,-22063.550342
20117.777536,-9474.636058,-25685.146187,-16930.710506
20117.777870,-7476.080014,-27017.516883,-5745.716235
20117.778204,-5921.647536,-21688.034101,3600.648841
20117.778537,-1850.514855,-12953.603985,9193.145976
20117.778871,4145.153275,-6587.832884,17160.539155
20117.779205,8438.347739,592.164754,24898.103685
20117.779538,9770.718434,7031.956449,21144.235745
20117.779872,8512.368333,6513.812290,12640.575717
20117.780206,6365.771101,4145.153275,2298.286494
20117.780539,2368.659014,-1110.308913,-7124.688131
20117.780873,-2442.679609,-7105.977043,-16011.395908
20117.781207,-9474.636058,-15766.386565,-18769.339701
20117.781541,-11917.315666,-21465.972318,-23902.179538
20117.781874,-12435.459826,-26721.434506,-13942.938064
20117.782208,-10658.965565,-25537.104999,-3753.867940
20117.782542,-5403.503377,-20725.766376,4826.401637
20117.782875,-1998.556043,-12731.542202,11797.870669
20117.783209,3108.864956,-5255.462188,18769.339701
20117.783543,7254.018232,2220.617826,23442.522239
20117.783876,6661.853478,8142.265362,18539.511052
20117.784210,8216.285956,4737.318029,13406.671215
20117.784544,2368.659014,4663.297435,0.000000
20117.784877,592.164754,-1258.350101,-5362.668486
20117.785211,-2442.679609,-5921.647536,-15245.300410
20117.785545,-9474.636058,-16654.633695,-19612.044749
20117.785878,-9622.677246,-23020.404796,-19612.044749
20117.786212,-8808.450710,-25759.166782,-12334.137518
20117.786546,-6957.935855,-23908.651927,-3140.991542
20117.786879,-3034.844362,-19763.498651,4826.401637
20117.787213,1110.308913,-11843.295072,10342.289223
20117.787547,4737.318029,-4811.338623,18692.730151
20117.787880,7105.977043,4663.297435,19612.044749
20117.788214,11177.109724,5921.647536,14325.985813
20117.788548,7698.141797,5847.626942,7354.516781
20117.788882,7698.141797,3775.050304,0.000000
20117.789215,4959.379811,-1924.535449,-6741.640382
20117.789549,888.247130,-9474.636058,-14249.376263
20117.789882,-3182.885551,-19467.416275,-16394.443657
20117.790216,-5181.441594,-22576.281231,-16547.662757
20117.790549,-3552.988522,-25981.228564,-6511.811733
20117.790883,-2442.679609,-23686.590144,-1915.238745
20117.791216,-1850.514855,-17246.798449,1225.752797
20117.791550,3034.844362,-12139.377449,10418.898773
20117.791883,5921.647536,-3627.009116,20761.187996
20117.792217,9104.533087,5033.400406,14709.033562
20117.792550,7402.059420,7031.956449,11184.994271
20117.792884,7179.997637,4737.318029,5132.839837
20117.793217,3923.091493,4367.215058,0.000000
20117.793551,3034.844362,-2442.679609,-7354.516781
20117.793884,-740.205942,-10732.986159,-12257.527968
20117.794218,-3923.091493,-18135.045579,-14632.424012
20117.794551,-4811.338623,-24870.919651,-11721.261119
20117.794885,-4811.338623,-23760.610738,-7354.516781
20117.795218,-8586.388927,-22576.281231,-4290.134789
20117.795552,-4737.318029,-19023.292709,5898.935335
20117.795886,-74.020594,-10362.883188,10189.070123
20117.796219,3849.070898,-2146.597232,17083.929605
20117.796553,4885.359217,5551.544565,14709.033562
20117.796886,5921.647536,6291.750507,10189.070123
20117.797220,4145.153275,5255.462188,5209.449386
20117.797553,3775.050304,2072.576638,-1915.238745
20117.797887,2294.638420,-3108.864956,-9806.022374
20117.798220,-3849.070898,-15396.283594,-12334.137518
20117.798554,-7772.162391,-21910.095883,-15092.081311
20117.798887,-9474.636058,-23168.445985,-9806.022374
20117.799221,-8364.327145,-24870.919651,-5592.497135
20117.799554,-7698.141797,-20799.786970,766.095498
20117.799888,-3923.091493,-14878.139434,5898.935335
20117.800221,0.000000,-6809.894666,12257.527968
20117.800555,2664.741391,1702.473667,14862.252661
20117.800888,5551.544565,7031.956449,9806.022374
20117.801222,5033.400406,4071.132681,10801.946522
20117.801555,5699.585753,3256.906145,2834.553343
20117.801889,4071.132681,740.205942,-4290.134789
20117.802222,-888.247130,-6291.750507,-9729.412825
20117.802556,-3923.091493,-14804.118840,-13406.671215
20117.802889,-4737.318029,-19911.539840,-11951.089769
20117.803223,-7031.956449,-24278.754898,-9346.365076
20117.803556,-5403.503377,-23094.425390,-4060.306139
20117.803890,-7105.977043,-19023.292709,2451.505594
20117.804223,-74.020594,-15100.201217,8503.660028
20117.804557,2886.803174,-4737.318029,10725.336972
20117.804890,5921.647536,1110.308913,12870.404366
20117.805224,7105.977043,2664.741391,11031.775171
20117.805557,8660.409521,5847.626942,5592.497135
20117.805891,8364.327145,2072.576638,2451.505594
20117.806224,5403.503377,-3849.070898,-3140.991542
20117.806558,1998.556043,-8142.265362,-11261.603821
20117.806892,-1036.288319,-17987.004391,-11108.384721
20117.807225,-3627.009116,-22058.137072,-12257.527968
20117.807559,-4811.338623,-21688.034101,-9806.022374
20117.807892,-4737.318029,-21391.951724,-2298.286494
20117.808226,-1480.411884,-18949.272115,1838.629195
20117.808559,2294.638420,-10510.924376,8733.488677
20117.808893,6809.894666,-4737.318029,13253.452115
20117.809226,8438.347739,296.082377,14632.424012
20117.809560,9992.780217,4293.194464,10955.165621
20117.809893,8586.388927,1776.494261,6971.469032
20117.810227,5329.482782,-222.061783,383.047749
20117.810560,3627.009116,-3627.009116,-5822.325785
20117.810894,-222.061783,-9474.636058,-10725.336972
20117.811227,-1850.514855,-17764.942608,-11414.822920
20117.811561,-5921.647536,-21465.972318,-11031.775171
20117.811894,-7179.997637,-23686.590144,-7431.126331
20117.812228,-9474.636058,-19319.375086,-4903.011187
20117.812561,-8882.471304,-16654.633695,2757.943793
20117.812895,-74.020594,-9474.636058,8503.660028
20117.813228,4219.173869,-1776.494261,14325.985813
20117.813562,7550.100608,3552.988522,15551.738609
20117.813895,7920.203579,3775.050304,12027.699319
20117.814229,6291.750507,3478.967927,4979.620737
20117.814562,5625.565159,-2368.659014,1762.019645
20117.814896,-74.020594,-8290.306550,-7737.564530
20117.815229,-5921.647536,-11917.315666,-14096.157163
20117.815563,-8290.306550,-22206.178260,-11338.213370
20117.815896,-10732.986159,-20799.786970,-12717.185267
20117.816230,-10584.944971,-20873.807564,-6741.640382
20117.816563,-8882.471304,-18875.251521,229.828649
20117.816897,-3627.009116,-13027.624579,7124.688131
20117.817230,0.000000,-4811.338623,12870.404366
20117.817564,6957.935855,0.000000,18309.682402
20117.817897,7328.038826,3478.967927,12870.404366
20117.818231,7698.141797,6439.791695,9806.022374
20117.818565,7920.203579,0.000000,4213.525239
20117.818898,4145.153275,-2516.700203,-3677.258390
20117.819232,-370.102971,-8364.327145,-11491.432470
20117.819565,-5477.523971,-16432.571912,-15245.300410
20117.819899,-8068.244768,-21243.910535,-15398.519510
20117.820232,-9548.656652,-23168.445985,-9959.241474
20117.820566,-7772.162391,-23094.425390,-5592.497135
20117.820899,-6809.894666,-15470.304188,2451.505594
20117.821233,1776.494261,-10658.965565,13406.671215
20117.821566,8216.285956,-4145.153275,15858.176809
20117.821900,10066.800811,3478.967927,18386.291952
20117.822233,11473.192101,4737.318029,12870.404366
20117.822567,10066.800811,1924.535449,6971.469032
20117.822900,7698.141797,74.020594,-612.876398
20117.823234,5255.462188,-6513.812290,-7354.516781
20117.823567,-3034.844362,-12731.542202,-15245.300410
20117.823901,-6513.812290,-18653.189738,-16624.272307
20117.824234,-8586.388927,-22280.198854,-14019.547613
20117.824568,-7994.224174,-20207.622217,-9806.022374
20117.824901,-6513.812290,-18135.045579,-1225.752797
20117.825235,-1776.494261,-15914.427753,7890.783629
20117.825568,4737.318029,-8660.409521,17083.929605
20117.825902,10288.862594,0.000000,17237.148705
20117.826235,11769.274478,888.247130,17083.929605
20117.826569,10066.800811,3552.988522,11414.822920
20117.826902,8142.265362,518.144159,4673.182538
20117.827236,4811.338623,-1628.453072,-3753.867940
20117.827569,-1776.494261,-7179.997637,-11644.651570
20117.827903,-3923.091493,-13027.624579,-18386.291952
20117.828236,-6587.832884,-22502.260637,-14785.643111
20117.828570,-9104.533087,-21539.992912,-12793.794817
20117.828903,-10881.027347,-20207.622217,-6741.640382
20117.829237,-7105.977043,-18431.127956,766.095498
20117.829571,-3256.906145,-13101.645173,9576.193725
20117.829904,5033.400406,-4219.173869,16317.834107
20117.830238,9104.533087,888.247130,18692.730151
20117.830571,10584.944971,1924.535449,17083.929605
20117.830905,8364.327145,5847.626942,8580.269578
20117.831238,7031.956449,0.000000,2068.457845
20117.831572,1184.329507,-2442.679609,-6741.640382
20117.831905,-3849.070898,-10066.800811,-13483.280765
20117.832239,-7402.059420,-18653.189738,-16700.881856
20117.832572,-10658.965565,-20577.725188,-15015.471761
20117.832906,-11991.336260,-21688.034101,-10418.898773
20117.833239,-8660.409521,-21317.931130,-2221.676944
20117.833573,-4959.379811,-16210.510130,5362.668486
20117.833906,1184.329507,-8364.327145,16011.395908
20117.834240,8216.285956,-1850.514855,18769.339701
20117.834573,10288.862594,4663.297435,17160.539155
20117.834907,10955.047942,1480.411884,14632.424012
20117.835240,8808.450710,2368.659014,4826.401637
20117.835574,6809.894666,0.000000,-2834.553343
20117.835907,-1036.288319,-5995.668130,-11031.775171
20117.836241,-5403.503377,-11991.336260,-18539.511052
20117.836574,-9474.636058,-19245.354492,-17773.415554
20117.836908,-9548.656652,-23686.590144,-13559.890315
20117.837241,-11177.109724,-20799.786970,-7967.393179
20117.837575,-6513.812290,-19467.416275,0.000000
20117.837908,-888.247130,-14285.974681,11261.603821
20117.838242,7031.956449,-7105.977043,16317.834107
20117.838575,11991.336260,0.000000,20607.968896
20117.838909,10732.986159,2590.720797,16854.100956
20117.839242,11843.295072,3404.947333,9806.022374
20117.839576,9326.594869,2146.597232,2757.943793
20117.839909,5847.626942,-3701.029710,-6205.373534
20117.840243,-2738.761985,-8734.430116,-15934.786358
20117.840577,-6883.915261,-16432.571912,-19612.044749
20117.840910,-9474.636058,-21539.992912,-17390.367805
20117.841244,-10658.965565,-22576.281231,-11338.213370
20117.841577,-7105.977043,-22798.343014,-1915.238745
20117.841911,-1850.514855,-18949.272115,6665.030833
20117.842244,4071.132681,-9548.656652,12870.404366
20117.842578,9474.636058,-3108.864956,20378.140247
20117.842911,11769.274478,666.185348,17160.539155
20117.843245,9992.780217,2072.576638,13406.671215
20117.843578,8956.491898,3182.885551,6588.421283
20117.843912,4441.235652,148.041188,-1302.362347
20117.844245,0.000000,-3923.091493,-9806.022374
20117.844579,-5255.462188,-11695.253884,-16011.395908
20117.844912,-10658.965565,-15470.304188,-17160.539155
20117.845246,-13027.624579,-19615.457463,-13483.280765
20117.845579,-10510.924376,-23686.590144,-7737.564530
20117.845913,-9992.780217,-20207.622217,-2451.505594
20117.846246,-2738.761985,-16432.571912,7354.516781
20117.846580,4441.235652,-8734.430116,16394.443657
20117.846913,8068.244768,-1998.556043,19535.435199
20117.847247,11473.192101,592.164754,18922.558801
20117.847580,11769.274478,592.164754,12180.918418
20117.847914,5995.668130,3478.967927,2451.505594
20117.848247,4737.318029,-1776.494261,-3677.258390
20117.848581,-2960.823768,-8734.430116,-12334.137518
20117.848914,-7105.977043,-13397.727550,-16777.491406
20117.849248,-9770.718434,-19763.498651,-15475.129060
20117.849581,-8882.471304,-22872.363608,-10189.070123
20117.849915,-7550.100608,-22576.281231,-2911.162892
20117.850248,-2738.761985,-18653.189738,4826.401637
20117.850582,4071.132681,-12287.418637,12180.918418
20117.850915,5255.462188,-3627.009116,15934.786358
20117.851249,9474.636058,-444.123565,19228.997000
20117.851582,11769.274478,0.000000,15551.738609
20117.851916,8216.285956,2368.659014,6665.030833
20117.852250,3849.070898,2146.597232,-1991.848295
20117.852583,-666.185348,-3256.906145,-10572.117872
20117.852917,-5181.441594,-8882.471304,-16394.443657
20117.853250,-7698.141797,-14285.974681,-17160.539155
20117.853584,-7772.162391,-19097.313304,-15321.909960
20117.853917,-8290.306550,-24130.713709,-9193.145976
20117.854251,-5033.400406,-22946.384202,-76.609550
20117.854584,-74.020594,-15766.386565,6741.640382
20117.854918,4663.297435,-11251.130318,15858.176809
20117.855251,8882.471304,-3034.844362,18386.291952
20117.855585,10732.986159,1776.494261,16394.443657
20117.855918,9696.697840,3404.947333,11031.775171
20117.856252,6513.812290,4367.215058,3064.381992
20117.856585,4071.132681,814.226536,-5209.449386
20117.856919,-814.226536,-7105.977043,-12180.918418
20117.857252,-5773.606348,-11843.295072,-17466.977354
20117.857586,-8068.244768,-19689.478057,-16471.053207
20117.857919,-9474.636058,-22576.281231,-13406.671215
20117.858253,-5995.668130,-24870.919651,-4979.620737
20117.858586,-3849.070898,-17246.798449,4903.011187
20117.858920,3627.009116,-14211.954086,12410.747068
20117.859253,9400.615463,-7698.141797,18769.339701
20117.859587,8438.347739,-74.020594,18386.291952
20117.859920,8808.450710,2886.803174,13636.499864
20117.860254,8142.265362,4071.132681,6281.983084
20117.860587,4071.132681,1702.473667,-2298.286494
20117.860921,592.164754,-4219.173869,-9193.145976
20117.861254,-4515.256246,-6883.915261,-16547.662757
20117.861588,-8734.430116,-13693.809927,-17160.539155
20117.861921,-7402.059420,-22206.178260,-12947.013916
20117.862255,-7772.162391,-22798.343014,-8350.440928
20117.862588,-6069.688724,-21317.931130,-76.609550
20117.862922,-2442.679609,-17098.757260,7277.907231
20117.863256,2516.700203,-10658.965565,13559.890315
20117.863589,5995.668130,-4293.194464,18769.339701
20117.863923,9400.615463,1184.329507,18309.682402
20117.864256,4737.318029,5847.626942,9806.022374
20117.864590,4885.359217,2294.638420,3064.381992
20117.864923,2220.617826,-2368.659014,-3753.867940
20117.865257,-3404.947333,-4811.338623,-11951.089769
20117.865590,-5551.544565,-11547.212695,-17390.367805
20117.865924,-8438.347739,-19985.560434,-15551.738609
20117.866257,-7624.121203,-23094.425390,-11108.384721
20117.866591,-6957.935855,-22206.178260,-4290.134789
20117.866924,-3182.885551,-18949.272115,2068.457845
20117.867258,-2368.659014,-12213.398043,11031.775171
20117.867591,6735.874072,-9474.636058,16777.491406
20117.867925,7179.997637,1480.411884,16317.834107
20117.868258,4737.318029,4663.297435,14709.033562
20117.868592,7031.956449,3552.988522,6511.811733
20117.868925,2664.741391,2220.617826,-153.219100
20117.869259,962.267725,-1110.308913,-7201.297681
20117.869592,-2368.659014,-6291.750507,-12487.356617
20117.869926,-5995.668130,-14211.954086,-16011.395908
20117.870259,-6809.894666,-20059.581028,-14479.204912
20117.870593,-5995.668130,-22502.260637,-8886.707777
20117.870926,-4515.256246,-21465.972318,-2145.067394
20117.871260,-1776.494261,-18431.127956,5515.887586
20117.871593,3182.885551,-14211.954086,10955.165621
20117.871927,6143.709319,-3849.070898,14709.033562
20117.872260,5625.565159,3478.967927,16547.662757
20117.872594,8586.388927,1924.535449,12793.794817
20117.872927,5625.565159,4071.132681,3677.258390
20117.873261,4885.359217,592.164754,-1608.800546
20117.873594,2442.679609,-3478.967927,-7354.516781
20117.873928,-2590.720797,-10510.924376,-14019.547613
20117.874261,-3775.050304,-18357.107362,-12947.013916
20117.874595,-6143.709319,-23094.425390,-10495.508323
20117.874929,-5403.503377,-21391.951724,-7048.078582
20117.875262,-2664.741391,-19911.539840,0.000000
20117.875596,-592.164754,-17024.736666,8503.660028
20117.875929,5847.626942,-9474.636058,14019.547613
20117.876263,6883.915261,-2220.617826,15551.738609
20117.876596,8290.306550,2590.720797,13559.890315
20117.876930,5551.544565,2590.720797,8197.221829
20117.877263,3775.050304,3478.967927,76.609550
20117.877597,2664.741391,-2368.659014,-4366.744339
20117.877930,-2368.659014,-4811.338623,-9806.022374
20117.878264,-2220.617826,-13175.665768,-11721.261119
20117.878597,-3849.070898,-18801.230927,-10189.070123
20117.878931,-3627.009116,-21169.889941,-8963.317327
20117.879264,-5773.606348,-21836.075289,-3064.381992
20117.879598,-5033.400406,-19467.416275,1072.533697
20117.879931,-1776.494261,-14730.098246,7354.516781
20117.880265,1480.411884,-7476.080014,12870.404366
20117.880598,5847.626942,888.247130,12947.013916
20117.880932,5625.565159,2516.700203,11031.775171
20117.881265,7105.977043,1184.329507,8503.660028
20117.881599,3256.906145,3182.885551,612.876398
20117.881932,1480.411884,-2442.679609,-4749.792088
20117.882266,-1184.329507,-9178.553681,-9346.365076
20117.882599,-6217.729913,-15470.304188,-13636.499864
20117.882933,-6587.832884,-21095.869347,-12563.966167
20117.883266,-3627.009116,-24574.837274,-5592.497135
20117.883600,-7402.059420,-19615.457463,-2451.505594
20117.883933,-2738.761985,-18653.189738,3600.648841
20117.884267,-370.102971,-11843.295072,9116.536426
20117.884600,1924.535449,-2442.679609,13483.280765
20117.884934,3552.988522,3478.967927,14709.033562
20117.885267,5625.565159,3330.926739,10955.165621
20117.885601,3627.009116,3404.947333,4903.011187
20117.885935,3256.906145,222.061783,-995.924147
20117.886268,3182.885551,-5921.647536,-6205.373534
20117.886602,-2886.803174,-9844.739029,-12257.527968
20117.886935,-4293.194464,-16654.633695,-14019.547613
20117.887269,-3775.050304,-21021.848753,-10495.508323
20117.887602,-5181.441594,-23316.487173,-6358.592633
20117.887936,-3404.947333,-21317.931130,-76.609550
20117.888269,-3034.844362,-15174.221811,3830.477490
20117.888603,-666.185348,-8364.327145,7967.393179
20117.888936,3701.029710,-1850.514855,14938.862211
20117.889270,7920.203579,3552.988522,13100.233016
20117.889603,5329.482782,2886.803174,11568.042020
20117.889936,7179.997637,3330.926739,5286.058936
20117.890269,5847.626942,-2220.617826,-1149.143247
20117.890602,1628.453072,-7624.121203,-6818.249932
20117.890936,-1258.350101,-13619.789333,-12640.575717
20117.891269,-3775.050304,-17838.963202,-13483.280765
20117.891602,-5033.400406,-23686.590144,-9806.022374
20117.891935,-5773.606348,-21910.095883,-4366.744339
20117.892268,-4219.173869,-18653.189738,0.000000
20117.892601,-1850.514855,-15396.283594,7277.907231
20117.892935,1850.514855,-6809.894666,11874.480219
20117.893268,5921.647536,666.185348,14096.157163
20117.893601,6883.915261,2368.659014,12563.966167
20117.893934,6513.812290,6439.791695,6741.640382
20117.894267,2960.823768,2294.638420,3677.258390
20117.894601,5699.585753,-4737.318029,-2528.115143
20117.894934,3478.967927,-9474.636058,-8656.879127
20117.895267,-1554.432478,-12805.562797,-12870.404366
20117.895600,-3923.091493,-20355.663405,-12257.527968
20117.895933,-6439.791695,-22650.301825,-9499.584175
20117.896267,-7994.224174,-21317.931130,-4979.620737
20117.896600,-7105.977043,-17320.819043,-612.876398
20117.896933,-3997.112087,-12509.480420,6741.640382
20117.897266,2368.659014,-4737.318029,13406.671215
20117.897599,7031.956449,2368.659014,12180.918418
20117.897932,6513.812290,5255.462188,13483.280765
20117.898266,10584.944971,1184.329507,9729.412825
20117.898599,8068.244768,888.247130,1225.752797
20117.898932,5773.606348,-4737.318029,-3140.991542
20117.899265,-1110.308913,-11177.109724,-10572.117872
20117.899598,-4811.338623,-17912.983796,-13636.499864
20117.899932,-7105.977043,-22576.281231,-13176.842566
20117.900265,-7772.162391,-23242.466579,-7431.126331
20117.900598,-7105.977043,-19171.333898,-2145.067394
20117.900931,-5477.523971,-15840.407159,4060.306139
20117.901264,222.061783,-8882.471304,9116.536426
20117.901597,1924.535449,-2072.576638,13406.671215
20117.901931,4737.318029,4663.297435,16241.224558
20117.902264,8216.285956,2368.659014,12180.918418
20117.902597,7624.121203,2368.659014,5132.839837
20117.902930,5847.626942,-2072.576638,-76.609550
20117.903263,2294.638420,-7105.977043,-6818.249932
20117.903597,-1998.556043,-12213.398043,-12257.527968
20117.903930,-4959.379811,-19837.519246,-13253.452115
20117.904263,-7402.059420,-22946.384202,-12104.308868
20117.904596,-8364.327145,-23538.548956,-5745.716235
20117.904929,-11251.130318,-19023.292709,0.000000
20117.905262,-2738.761985,-14211.954086,4826.401637
20117.905596,2294.638420,-6513.812290,11874.480219
20117.905929,5477.523971,3478.967927,16241.224558
20117.906262,9992.780217,3256.906145,15092.081311
20117.906595,10214.842000,4515.256246,11338.213370
20117.906928,8290.306550,222.061783,5822.325785
20117.907262,7031.956449,-2368.659014,-2987.772442
20117.907595,2294.638420,-9474.636058,-10495.508323
20117.907928,-2960.823768,-17764.942608,-12334.137518
20117.908261,-5107.421000,-23094.425390,-14785.643111
20117.908594,-9030.512492,-22058.137072,-12257.527968
20117.908927,-9474.636058,-21095.869347,-4903.011187
20117.909261,-6291.750507,-16358.551318,1225.752797
20117.909594,-1184.329507,-10436.903782,8580.269578
20117.909927,4293.194464,-3182.885551,14402.595362
20117.910260,9178.553681,3404.947333,17083.929605
20117.910593,7698.141797,5551.544565,11338.213370
20117.910927,10584.944971,592.164754,7890.783629
20117.911260,7031.956449,0.000000,-1302.362347
20117.911593,1776.494261,-3627.009116,-5515.887586
20117.911926,-74.020594,-11843.295072,-12334.137518
20117.912259,-4737.318029,-17246.798449,-15398.519510
20117.912592,-7031.956449,-22724.322419,-14402.595362
20117.912926,-10066.800811,-23760.610738,-9652.803275
20117.913259,-8216.285956,-21762.054695,-2911.162892
20117.913592,-5921.647536,-17838.963202,4290.134789
20117.913925,1998.556043,-9474.636058,10342.289223
20117.914258,5329.482782,1702.473667,18079.853753
20117.914592,9474.636058,4071.132681,21833.721693
20117.914925,11177.109724,4737.318029,14632.424012
20117.915258,8290.306550,2738.761985,8810.098227
20117.915591,6365.771101,592.164754,-612.876398
20117.915924,-222.061783,-6809.894666,-9882.631924
20117.916257,-5255.462188,-13101.645173,-18233.072852
20117.916591,-10658.965565,-21391.951724,-17773.415554
20117.916924,-10288.862594,-23760.610738,-15321.909960
20117.917257,-10807.006753,-23316.487173,-8273.831378
20117.917590,-7402.059420,-20725.766376,-76.609550
20117.917923,-3034.844362,-12435.459826,7737.564530
20117.918257,3552.988522,-3775.050304,17313.758255
20117.918590,9992.780217,740.205942,22599.817191
20117.918923,12657.521608,4737.318029,17083.929605
20117.919256,9474.636058,5255.462188,13330.061665
20117.919589,9400.615463,0.000000,6665.030833
20117.919922,3849.070898,-1554.432478,-4903.011187
20117.920256,-2368.659014,-8586.388927,-14402.595362
20117.920589,-6439.791695,-16876.695478,-18922.558801
20117.920922,-9474.636058,-21391.951724,-18845.949251
20117.921255,-13027.624579,-23760.610738,-13483.280765
20117.921588,-8956.491898,-26055.249158,-5592.497135
20117.921922,-5699.585753,-17764.942608,1149.143247
20117.922255,518.144159,-10288.862594,12257.527968
20117.922588,8142.265362,-1480.411884,19535.435199
20117.922921,12731.542202,4663.297435,21910.331243
20117.923254,12361.439231,4885.359217,17083.929605
20117.923587,12361.439231,4219.173869,9422.974625
20117.923921,8882.471304,814.226536,1225.752797
20117.924254,1776.494261,-4811.338623,-8427.050478
20117.924587,-2442.679609,-11843.295072,-20148.311597
20117.924920,-9474.636058,-20207.622217,-20837.797546
20117.925253,-11843.295072,-24352.775492,-16854.100956
20117.925587,-10658.965565,-24944.940245,-11031.775171
20117.925920,-6587.832884,-21317.931130,-995.924147
20117.926253,-962.267725,-15248.242405,9729.412825
20117.926586,6809.894666,-6883.915261,18003.244203
20117.926919,11769.274478,1184.329507,21986.940793
20117.927252,9474.636058,2886.803174,20148.311597
20117.927586,8142.265362,5921.647536,9576.193725
20117.927919,4737.318029,3478.967927,4290.134789
20117.928252,4663.297435,-1776.494261,-4979.620737
20117.928585,-1406.391290,-8142.265362,-13559.890315
20117.928918,-7328.038826,-14730.098246,-19612.044749
20117.929252,-10140.821405,-21836.075289,-18769.339701
20117.929585,-11843.295072,-25167.002028,-14325.985813
20117.929918,-11251.130318,-23168.445985,-7048.078582
20117.930251,-4811.338623,-22502.260637,3294.210641
20117.930584,0.000000,-12213.398043,14709.033562
20117.930917,7105.977043,-3923.091493,24132.008187
20117.931251,9992.780217,3775.050304,19612.044749
20117.931584,9992.780217,4737.318029,18309.682402
20117.931917,10584.944971,6587.832884,9422.974625
20117.932250,5847.626942,2516.700203,459.657299
20117.932583,1406.391290,-3330.926739,-9882.631924
20117.932917,-7105.977043,-8364.327145,-18692.730151
20117.933250,-7476.080014,-20133.601622,-19688.654299
20117.933583,-9696.697840,-23686.590144,-16317.834107
20117.933916,-9844.739029,-26129.269753,-9652.803275
20117.934249,-7920.203579,-22058.137072,-1838.629195
20117.934582,-2442.679609,-15692.365970,6052.154434
20117.934916,6143.709319,-8882.471304,19535.435199
20117.935249,11177.109724,-2368.659014,20761.187996
20117.935582,9548.656652,4663.297435,18386.291952
20117.935915,10066.800811,4219.173869,15015.471761
20117.936248,7624.121203,3552.988522,4366.744339
20117.936582,4589.276840,888.247130,-4519.963438
20117.936915,-3182.885551,-6809.894666,-13023.623466
20117.937248,-6661.853478,-11473.192101,-19305.606550
20117.937581,-9474.636058,-19023.292709,-18999.168350
20117.937914,-7179.997637,-26055.249158,-13559.890315
20117.938247,-10066.800811,-24130.713709,-8044.002729
20117.938581,-6809.894666,-20207.622217,3064.381992
20117.938914,2294.638420,-15396.283594,13406.671215
20117.939247,5329.482782,-5403.503377,18386.291952
20117.939580,11473.192101,1184.329507,19535.435199
20117.939913,10732.986159,4737.318029,17083.929605
20117.940247,9992.780217,5107.421000,9652.803275
20117.940580,6513.812290,2442.679609,2145.067394
20117.940913,4663.297435,-4441.235652,-9882.631924
20117.941246,-4737.318029,-8660.409521,-14709.033562
20117.941579,-9474.636058,-16062.468941,-17007.320056
20117.941913,-7179.997637,-22502.260637,-17083.929605
20117.942246,-9474.636058,-26351.331535,-9039.926876
20117.942579,-6513.812290,-22428.240043,-1378.971896
20117.942912,-1036.288319,-16802.674883,8120.612279
20117.943245,3701.029710,-10066.800811,14479.204912
20117.943578,9400.615463,-3552.988522,19535.435199
20117.943912,9104.533087,4145.153275,15551.738609
20117.944245,9474.636058,4071.132681,15551.738609
20117.944578,8216.285956,4293.194464,4826.401637
20117.944911,2886.803174,3923.091493,-7354.516781
20117.945244,-2368.659014,-6883.915261,-10495.508323
20117.945578,-6217.729913,-10288.862594,-17160.539155
20117.945911,-7550.100608,-18135.045579,-17237.148705
20117.946244,-9474.636058,-23316.487173,-13406.671215
20117.946577,-7328.038826,-25759.166782,-5286.058936
20117.946910,-6291.750507,-20577.725188,1225.752797
20117.947243,-740.205942,-15396.283594,9116.536426
20117.947577,3627.009116,-7624.121203,16164.615008
20117.947910,4737.318029,1110.308913,17160.539155
20117.948243,7105.977043,4663.297435,16547.662757
20117.948576,9400.615463,4737.318029,9116.536426
20117.948909,3552.988522,4663.297435,229.828649
20117.949243,592.164754,-1258.350101,-6435.202183
20117.949576,-2368.659014,-6291.750507,-12793.794817
20117.949909,-7328.038826,-15322.262999,-17160.539155
20117.950242,-8734.430116,-21243.910535,-16700.881856
20117.950575,-7624.121203,-25981.228564,-9882.631924
20117.950908,-5181.441594,-23464.528361,-1149.143247
20117.951242,-666.185348,-16358.551318,6281.983084
20117.951575,4663.297435,-13027.624579,11568.042020
20117.951908,6143.709319,-3923.091493,17160.539155
20117.952241,5921.647536,4663.297435,17160.539155
20117.952574,7846.182985,3923.091493,12563.966167
20117.952908,5921.647536,3849.070898,6052.154434
20117.953241,1332.370696,1110.308913,-2911.162892
20117.953574,-962.267725,-3552.988522,-9882.631924
20117.953907,-3775.050304,-9474.636058,-14785.643111
20117.954240,-7698.141797,-17246.798449,-15934.786358
20117.954573,-6069.688724,-21317.931130,-13253.452115
20117.954907,-7846.182985,-22872.363608,-7967.393179
20117.955240,-4811.338623,-21762.054695,-1225.752797
20117.955573,-74.020594,-18949.272115,8503.660028
20117.955906,4589.276840,-9770.718434,14632.424012
20117.956239,9030.512492,-370.102971,18233.072852
20117.956573,9474.636058,4663.297435,16241.224558
20117.956906,7846.182985,4293.194464,10189.070123
20117.957239,7328.038826,1036.288319,4826.401637
20117.957572,2664.741391,-74.020594,-4903.011187
20117.957905,-2368.659014,-5403.503377,-9806.022374
20117.958238,-2442.679609,-15100.201217,-16624.272307
20117.958572,-7105.977043,-19023.292709,-17007.320056
20117.958905,-5403.503377,-23686.590144,-10955.165621
20117.959238,-4219.173869,-22058.137072,-3677.258390
20117.959571,-666.185348,-18727.210333,4060.306139
20117.959904,592.164754,-13767.830521,10189.070123
20117.960238,6439.791695,-5921.647536,14019.547613
20117.960571,4737.318029,2886.803174,17160.539155
20117.960904,9104.533087,3552.988522,14632.424012
20117.961237,8216.285956,5033.400406,5132.839837
20117.961570,2960.823768,2886.803174,0.000000
20117.961903,2146.597232,-3404.947333,-7431.126331
20117.962237,-2886.803174,-9696.697840,-14096.157163
20117.962570,-4515.256246,-16950.716072,-16011.395908
20117.962903,-4959.379811,-21465.972318,-12947.013916
20117.963236,-3627.009116,-24870.919651,-8044.002729
20117.963569,-3923.091493,-21688.034101,-1225.752797
20117.963903,-3997.112087,-18431.127956,4903.011187
20117.964236,1184.329507,-11399.171507,11491.432470
20117.964569,2960.823768,-2442.679609,15934.786358
20117.964902,7031.956449,2664.741391,15858.176809
20117.965235,5255.462188,4737.318029,9729.412825
20117.965568,2368.659014,4663.297435,5822.325785
20117.965902,2664.741391,74.020594,-76.609550
20117.966235,-74.020594,-4219.173869,-8580.269578
20117.966568,-4071.132681,-12139.377449,-13942.938064
20117.966901,-7624.121203,-19541.436869,-15321.909960
20117.967234,-8364.327145,-23612.569550,-12717.185267
20117.967568,-5995.668130,-24574.837274,-4366.744339
20117.967901,-4219.173869,-22206.178260,-76.609550
20117.968234,-3775.050304,-13397.727550,8503.660028
20117.968567,0.000000,-5403.503377,13483.280765
20117.968900,5477.523971,0.000000,17083.929605
20117.969233,4737.318029,5847.626942,14709.033562
20117.969567,5773.606348,5033.400406,8733.488677
20117.969900,4071.132681,2442.679609,3447.429741
20117.970233,2664.741391,-1406.391290,-3677.258390
20117.970566,-74.020594,-7105.977043,-10801.946522
20117.970899,-3627.009116,-15396.283594,-16011.395908
20117.971233,-7105.977043,-19615.457463,-14096.157163
20117.971566,-4811.338623,-24722.878463,-8580.269578
20117.971899,-5107.421000,-24870.919651,-4366.744339
20117.972232,-4219.173869,-20725.766376,2068.457845
20117.972565,-2960.823768,-12583.501014,7660.954980
20117.972898,2294.638420,-4737.318029,13713.109414
20117.973232,7105.977043,2960.823768,16164.615008
20117.973565,7105.977043,6439.791695,13483.280765
20117.973898,7624.121203,5033.400406,7048.078582
20117.974231,5329.482782,3478.967927,2451.505594
20117.974564,7624.121203,-4737.318029,-4979.620737
20117.974898,370.102971,-11251.130318,-11721.261119
20117.975231,-4145.153275,-16728.654289,-16011.395908
20117.975564,-4737.318029,-23612.569550,-13559.890315
20117.975897,-5625.565159,-24796.899057,-9193.145976
20117.976230,-4071.132681,-22502.260637,-2528.115143
20117.976563,-888.247130,-17172.777854,6435.202183
20117.976897,0.000000,-9548.656652,11644.651570
20117.977230,7031.956449,0.000000,16471.053207
20117.977563,8808.450710,4737.318029,12717.185267
20117.977896,5921.647536,4515.256246,12563.966167
20117.978229,7254.018232,4737.318029,5439.278036
20117.978563,5255.462188,370.102971,153.219100
20117.978896,2516.700203,-6291.750507,-6971.469032
20117.979229,-962.267725,-11251.130318,-13253.452115
20117.979562,-2960.823768,-19393.395680,-14096.157163
20117.979895,-5773.606348,-23168.445985,-11951.089769
20117.980228,-7550.100608,-25167.002028,-8120.612279
20117.980562,-7920.203579,-21391.951724,-3830.477490
20117.980895,-6439.791695,-16062.468941,3140.991542
20117.981228,0.000000,-7179.997637,11031.775171
20117.981561,5551.544565,3552.988522,13713.109414
20117.981894,5921.647536,4515.256246,18539.511052
20117.982228,9400.615463,7105.977043,12180.918418
20117.982561,7031.956449,3108.864956,6665.030833
20117.982894,4737.318029,-2146.597232,-229.828649
20117.983227,1406.391290,-7179.997637,-8197.221829
20117.983560,-3182.885551,-14730.098246,-14325.985813
20117.983894,-5699.585753,-22428.240043,-13636.499864
20117.984227,-6587.832884,-26055.249158,-10495.508323
20117.984560,-7994.224174,-23168.445985,-7201.297681
20117.984893,-9474.636058,-17838.963202,1532.190996
20117.985226,-3627.009116,-13841.851115,7277.907231
20117.985559,148.041188,-2442.679609,10112.460574
20117.985893,4293.194464,2072.576638,15398.519510
20117.986226,6809.894666,7550.100608,14709.033562
20117.986559,6661.853478,5181.441594,10418.898773
20117.986892,5995.668130,1628.453072,4290.134789
20117.987225,3701.029710,-518.144159,-3907.087040
20117.987559,-2368.659014,-9548.656652,-9039.926876
20117.987892,-3330.926739,-16580.613101,-14785.643111
20117.988225,-5107.421000,-24574.837274,-16011.395908
20117.988558,-6883.915261,-25833.187376,-9576.193725
20117.988891,-9178.553681,-22280.198854,-5439.278036
20117.989224,-6661.853478,-18579.169144,995.924147
20117.989558,-2072.576638,-11695.253884,8810.098227
20117.989891,3330.926739,-3256.906145,14632.424012
20117.990224,7105.977043,5551.544565,17773.415554
20117.990557,11473.192101,3256.906145,18309.682402
20117.990890,11177.109724,6883.915261,9193.145976
20117.991223,7105.977043,1110.308913,2451.505594
20117.991556,6143.709319,-7105.977043,-3907.087040
20117.991889,-74.020594,-11843.295072,-13559.890315
20117.992222,-6365.771101,-20429.683999,-16471.053207
20117.992555,-7698.141797,-25167.002028,-15092.081311
20117.992889,-9474.636058,-24944.940245,-9959.241474
20117.993222,-8290.306550,-20799.786970,-4903.011187
20117.993555,-3923.091493,-14878.139434,1225.752797
20117.993888,2368.659014,-8882.471304,14019.547613
20117.994221,6439.791695,592.164754,17696.806004
20117.994554,10584.944971,7105.977043,14632.424012
20117.994887,9474.636058,7031.956449,13789.718964
20117.995220,10066.800811,888.247130,9729.412825
20117.995553,6365.771101,-74.020594,-1915.238745
20117.995887,3478.967927,-6735.874072,-9652.803275
20117.996220,-370.102971,-14804.118840,-14785.643111
20117.996553,-6809.894666,-21984.116477,-16011.395908
20117.996886,-9326.594869,-25018.960840,-14632.424012
20117.997219,-11029.068536,-24870.919651,-9652.803275
20117.997552,-7920.203579,-20281.642811,-995.924147
20117.997885,-3256.906145,-14582.057057,7660.954980
20117.998218,1480.411884,-3627.009116,12257.527968
20117.998551,7402.059420,4071.132681,20991.016645
20117.998884,10436.903782,4737.318029,16777.491406
20117.999218,8808.450710,7550.100608,11031.775171
20117.999551,8290.306550,592.164754,6358.592633
20117.999884,5921.647536,-1258.350101,-2451.505594
20118.000217,-1332.370696,-9104.533087,-11491.432470
20118.000550,-5255.462188,-17320.819043,-17543.586904
20118.000883,-8364.327145,-23686.590144,-18462.901502
20118.001216,-11843.295072,-24944.940245,-12180.918418
20118.001549,-8364.327145,-24204.734303,-3753.867940
20118.001882,-7254.018232,-19541.436869,1762.019645
20118.002216,-3552.988522,-8364.327145,10112.460574
20118.002549,3849.070898,-74.020594,17160.539155
20118.002882,9844.739029,5033.400406,19382.216099
20118.003215,10066.800811,5773.606348,16088.005458
20118.003548,9548.656652,4663.297435,9499.584175
20118.003881,5329.482782,1702.473667,612.876398
20118.004214,3701.029710,-7698.141797,-6205.373534
20118.004547,-2886.803174,-10140.821405,-16547.662757
20118.004880,-7994.224174,-19023.292709,-17160.539155
20118.005213,-7402.059420,-24278.754898,-15704.957709
20118.005547,-11251.130318,-25389.063811,-10265.679673
20118.005880,-9178.553681,-23686.590144,-3753.867940
20118.006213,-5773.606348,-16580.613101,4290.134789
20118.006546,2146.597232,-7179.997637,13483.280765
20118.006879,9104.533087,0.000000,21986.940793
20118.007212,12953.603985,4737.318029,18309.682402
20118.007545,10288.862594,7920.203579,12563.966167
20118.007878,11325.150913,2368.659014,10955.165621
20118.008211,9400.615463,0.000000,-2528.115143
20118.008545,0.000000,-7179.997637,-11338.213370
20118.008878,-4885.359217,-14730.098246,-19918.482948
20118.009211,-9474.636058,-23908.651927,-20224.921147
20118.009544,-9992.780217,-26499.372724,-14938.862211
20118.009877,-8734.430116,-25389.063811,-6128.763984
20118.010210,-4811.338623,-19837.519246,1762.019645
20118.010543,518.144159,-12361.439231,11414.822920
20118.010876,7328.038826,-3478.967927,18616.120601
20118.011209,10214.842000,6957.935855,19612.044749
20118.011542,9400.615463,7031.956449,15628.348159
20118.011876,9844.739029,2664.741391,11261.603821
20118.012209,5551.544565,2368.659014,1149.143247
20118.012542,1036.288319,-2442.679609,-8273.831378
20118.012875,-2146.597232,-9474.636058,-16624.272307
20118.013208,-7031.956449,-17838.963202,-19535.435199
20118.013541,-8956.491898,-24426.796086,-17237.148705
20118.013874,-10807.006753,-26129.269753,-11951.089769
20118.014207,-10955.047942,-24056.693115,-4596.572988
20118.014540,-5403.503377,-19615.457463,3677.258390
20118.014873,2812.782580,-11843.295072,15551.738609
20118.015207,9104.533087,1036.288319,19841.873398
20118.015540,11769.274478,7624.121203,19612.044749
20118.015873,12435.459826,8216.285956,16394.443657
20118.016206,12139.377449,5403.503377,9729.412825
20118.016539,7698.141797,740.205942,-1378.971896
20118.016872,1110.308913,-5921.647536,-13176.842566
20118.017205,-4219.173869,-16284.530724,-19688.654299
20118.017538,-9252.574275,-21391.951724,-22676.426741
20118.017871,-7179.997637,-29608.237680,-15398.519510
20118.018205,-8364.327145,-26129.269753,-8886.707777
20118.018538,-5625.565159,-21984.116477,612.876398
20118.018871,1776.494261,-15248.242405,13789.718964
20118.019204,7105.977043,-3256.906145,20761.187996
20118.019537,9474.636058,3404.947333,23212.693589
20118.019870,10362.883188,7624.121203,18462.901502
20118.020203,9400.615463,7550.100608,12180.918418
20118.020536,3552.988522,3478.967927,4749.792088
20118.020869,1110.308913,-74.020594,-9806.022374
20118.021202,-7105.977043,-8364.327145,-18079.853753
20118.021536,-9252.574275,-17764.942608,-22140.159892
20118.021869,-11917.315666,-23390.507767,-21833.721693
20118.022202,-11621.233289,-27387.619854,-14785.643111
20118.022535,-10807.006753,-26203.290347,-5286.058936
20118.022868,-4515.256246,-20651.745782,5745.716235
20118.023201,2368.659014,-11029.068536,16241.224558
20118.023534,8216.285956,-4737.318029,23212.693589
20118.023867,7698.141797,7031.956449,20837.797546
20118.024200,9770.718434,6439.791695,18386.291952
20118.024534,10584.944971,5921.647536,8197.221829
20118.024867,5551.544565,3552.988522,-689.485948
20118.025200,-74.020594,-5329.482782,-10189.070123
20118.025533,-6513.812290,-11029.068536,-18999.168350
20118.025866,-9252.574275,-20577.725188,-20531.359346
20118.026199,-9770.718434,-25759.166782,-17313.758255
20118.026532,-9548.656652,-27831.743419,-8963.317327
20118.026865,-6957.935855,-22872.363608,689.485948
20118.027198,-518.144159,-14211.954086,9039.926876
20118.027531,4589.276840,-7402.059420,17313.758255
20118.027865,8290.306550,2294.638420,19918.482948
20118.028198,10658.965565,5551.544565,20148.311597
20118.028531,12361.439231,4737.318029,14632.424012
20118.028864,8216.285956,7624.121203,3064.381992
20118.029197,2072.576638,-222.061783,-6435.202183
20118.029530,-1258.350101,-7105.977043,-16011.395908
20118.029863,-6661.853478,-15618.345376,-20378.140247
20118.030196,-6883.915261,-21614.013506,-19535.435199
20118.030529,-7698.141797,-27757.722825,-12947.013916
20118.030863,-7105.977043,-24944.940245,-4903.011187
20118.031196,-1184.329507,-23094.425390,6665.030833
20118.031529,1628.453072,-11917.315666,12257.527968
20118.031862,5921.647536,-2442.679609,21144.235745
20118.032195,10584.944971,1776.494261,19535.435199
20118.032528,9474.636058,6809.894666,15858.176809
20118.032861,8290.306550,5847.626942,9346.365076
20118.033194,5847.626942,3552.988522,0.000000
20118.033527,2146.597232,-2960.823768,-8963.317327
20118.033860,-2442.679609,-10658.965565,-14785.643111
20118.034194,-5699.585753,-21317.931130,-19688.654299
20118.034527,-9474.636058,-23760.610738,-17773.415554
20118.034860,-7698.141797,-27609.681637,-9806.022374
20118.035193,-5033.400406,-23316.487173,-76.609550
20118.035526,1110.308913,-18801.230927,10342.289223
20118.035859,4145.153275,-9104.533087,15475.129060
20118.036192,7105.977043,-1258.350101,19458.825649
20118.036525,9474.636058,6069.688724,18156.463303
20118.036858,7698.141797,8068.244768,12257.527968
20118.037192,5847.626942,4737.318029,3294.210641
20118.037525,0.000000,-74.020594,-4136.915689
20118.037858,-814.226536,-6513.812290,-12334.137518
20118.038191,-5921.647536,-10140.821405,-18309.682402
20118.038524,-7846.182985,-21317.931130,-16624.272307
20118.038857,-7994.224174,-24944.940245,-12257.527968
20118.039190,-9326.594869,-24130.713709,-6511.811733
20118.039523,-6217.729913,-20207.622217,1685.410096
20118.039856,-2368.659014,-14285.974681,9193.145976
20118.040189,296.082377,-5403.503377,15321.909960
20118.040523,7031.956449,1184.329507,19535.435199
20118.040856,8808.450710,5921.647536,14325.985813
20118.041189,4737.318029,6439.791695,10572.117872
20118.041522,2220.617826,2664.741391,2374.896044
20118.041855,592.164754,-1776.494261,-6435.202183
20118.042188,-3701.029710,-8068.244768,-13483.280765
20118.042521,-7254.018232,-17172.777854,-17160.539155
20118.042854,-7402.059420,-22946.384202,-15168.690860
20118.043187,-8808.450710,-24944.940245,-9193.145976
20118.043521,-5773.606348,-22280.198854,-2757.943793
20118.043854,-1406.391290,-18505.148550,5669.106685
20118.044187,1184.329507,-10732.986159,12870.404366
20118.044520,4737.318029,-1258.350101,15934.786358
20118.044853,7920.203579,4737.318029,14632.424012
20118.045186,5921.647536,5847.626942,13483.280765
20118.045519,7328.038826,3701.029710,6052.154434
20118.045852,5847.626942,888.247130,-1302.362347
20118.046185,296.082377,-4811.338623,-8656.879127
20118.046518,-3552.988522,-12065.356855,-15934.786358
20118.046852,-5921.647536,-19985.560434,-17160.539155
20118.047185,-5255.462188,-23464.528361,-13789.718964
20118.047518,-3627.009116,-25167.002028,-4979.620737
20118.047851,-2960.823768,-19023.292709,612.876398
20118.048184,-1776.494261,-14285.974681,7967.393179
20118.048517,5255.462188,-9474.636058,14632.424012
20118.048850,6735.874072,3182.885551,15321.909960
20118.049183,8512.368333,4145.153275,15551.738609
20118.049516,6291.750507,5255.462188,9346.365076
20118.049849,6291.750507,3478.967927,2451.505594
20118.050183,3552.988522,-1850.514855,-3064.381992
20118.050516,2886.803174,-7698.141797,-9269.755526
20118.050849,-6513.812290,-14285.974681,-14096.157163
20118.051182,-4811.338623,-23094.425390,-12947.013916
20118.051515,-4811.338623,-25463.084405,-11108.384721
20118.051848,-5329.482782,-21391.951724,-3677.258390
20118.052181,-3627.009116,-19245.354492,2987.772442
20118.052514,0.000000,-11621.233289,9806.022374
20118.052847,3478.967927,-5033.400406,14938.862211
20118.053181,4737.318029,2812.782580,16088.005458
20118.053514,5625.565159,7624.121203,10112.460574
20118.053847,296.082377,4367.215058,7354.516781
20118.054180,1702.473667,0.000000,-1455.581446
20118.054513,-2664.741391,-2442.679609,-9806.022374
20118.054846,-4737.318029,-9548.656652,-12257.527968
20118.055179,-3775.050304,-16876.695478,-14632.424012
20118.055512,-4811.338623,-21391.951724,-11797.870669
20118.055845,-5403.503377,-23316.487173,-6511.811733
20118.056178,-7105.977043,-22428.240043,-2298.286494
20118.056512,-5181.441594,-16432.571912,2681.334243
20118.056845,-1406.391290,-10732.986159,10112.460574
20118.057178,3775.050304,-1184.329507,14785.643111
20118.057511,5403.503377,3701.029710,15245.300410
20118.057844,7402.059420,4293.194464,13253.452115
20118.058177,6735.874072,2664.741391,6052.154434
20118.058510,5181.441594,1702.473667,0.000000
20118.058843,1184.329507,-4811.338623,-4903.011187
20118.059176,-370.102971,-13619.789333,-13559.890315
20118.059510,-4737.318029,-19319.375086,-16547.662757
20118.059843,-3849.070898,-23686.590144,-11568.042020
20118.060176,-4293.194464,-24056.693115,-5975.544884
20118.060509,-3034.844362,-19319.375086,0.000000
20118.060842,-74.020594,-14211.954086,6358.592633
20118.061175,1776.494261,-8290.306550,11568.042020
20118.061508,4145.153275,3182.885551,14709.033562
20118.061841,8586.388927,4959.379811,13483.280765
20118.062174,7402.059420,4367.215058,11568.042020
20118.062507,10288.862594,2960.823768,6052.154434
20118.062841,6143.709319,-1332.370696,-1762.019645
20118.063174,2886.803174,-9326.594869,-8733.488677
20118.063507,-666.185348,-14878.139434,-15168.690860
20118.063840,-3108.864956,-19615.457463,-15781.567259
20118.064173,-1850.514855,-26055.249158,-11108.384721
20118.064506,-7105.977043,-21984.116477,-5515.887586
20118.064839,-2812.782580,-20725.766376,1762.019645
20118.065172,-962.267725,-13027.624579,5439.278036
20118.065505,3552.988522,-3034.844362,12947.013916
20118.065839,8290.306550,3478.967927,16088.005458
20118.066172,8660.409521,6291.750507,13176.842566
20118.066505,10214.842000,5477.523971,9422.974625
20118.066838,8882.471304,1702.473667,3983.696590
20118.067171,6439.791695,-5033.400406,-4596.572988
20118.067504,2960.823768,-11843.295072,-8656.879127
20118.067837,-1850.514855,-20133.601622,-15092.081311
20118.068170,-6439.791695,-23242.466579,-14709.033562
20118.068503,-8290.306550,-23760.610738,-11031.775171
20118.068836,-7624.121203,-22354.219448,-3830.477490
20118.069170,-6143.709319,-15840.407159,3064.381992
20118.069503,-3552.988522,-8956.491898,9806.022374
20118.069836,2886.803174,-2368.659014,15858.176809
20118.070169,2368.659014,6439.791695,17160.539155
20118.070502,7920.203579,6513.812290,13406.671215
20118.070835,3478.967927,4737.318029,6971.469032
20118.071168,0.000000,-74.020594,1225.752797
20118.071501,-1776.494261,-7179.997637,-6128.763984
20118.071834,-6735.874072,-12879.583391,-13559.890315
20118.072168,-9178.553681,-19615.457463,-16088.005458
20118.072501,-12139.377449,-23760.610738,-14785.643111
20118.072834,-11325.150913,-26055.249158,-9882.631924
20118.073167,-13619.789333,-19911.539840,-2451.505594
20118.073500,-9178.553681,-14285.974681,4903.011187
20118.073833,-3034.844362,-6883.915261,12257.527968
20118.074166,1850.514855,1998.556043,16624.272307
20118.074499,6735.874072,5921.647536,18309.682402
20118.074832,7031.956449,7328.038826,12870.404366
20118.075165,7698.141797,1702.473667,10955.165621
20118.075499,7031.956449,-1184.329507,-1608.800546
20118.075832,2664.741391,-8290.306550,-7737.564530
20118.076165,-1776.494261,-17690.922014,-14785.643111
20118.076498,-4737.318029,-22502.260637,-17237.148705
20118.076831,-6957.935855,-27165.558071,-14172.766713
20118.077164,-6365.771101,-23686.590144,-7814.174080
20118.077497,-4811.338623,-19837.519246,-1302.362347
20118.077830,-1554.432478,-11325.150913,7354.516781
20118.078163,6439.791695,-4737.318029,17083.929605
20118.078497,9992.780217,2368.659014,18309.682402
20118.078830,12213.398043,8808.450710,15934.786358
20118.079163,13545.768739,5329.482782,13406.671215
20118.079496,11251.130318,1406.391290,6281.983084
20118.079829,7402.059420,-3552.988522,-4213.525239
20118.080162,2368.659014,-9548.656652,-12870.404366
20118.080495,-3256.906145,-17246.798449,-19305.606550
20118.080828,-8290.306550,-22576.281231,-18079.853753
20118.081161,-5107.421000,-27831.743419,-14785.643111
20118.081494,-8586.388927,-22206.178260,-9729.412825
20118.081828,-4737.318029,-19023.292709,3064.381992
20118.082161,-74.020594,-9918.759623,8580.269578
20118.082494,7920.203579,0.000000,17620.196454
20118.082827,10807.006753,5773.606348,19688.654299
20118.083160,12953.603985,7698.141797,17007.320056
20118.083493,10214.842000,4663.297435,11644.651570
20118.083826,9548.656652,0.000000,4826.401637
20118.084159,7031.956449,-4441.235652,-8197.221829
20118.084492,-3552.988522,-14285.974681,-14709.033562
20118.084825,-4737.318029,-21095.869347,-17237.148705
20118.085159,-9548.656652,-26647.413912,-18999.168350
20118.085492,-9992.780217,-26055.249158,-12334.137518
20118.085825,-10214.842000,-22798.343014,-3830.477490
20118.086158,-5773.606348,-16654.633695,4903.011187
20118.086491,-518.144159,-6291.750507,12870.404366
20118.086824,5625.565159,2442.679609,19995.092498
20118.087157,8808.450710,7105.977043,20071.702048
20118.087490,7698.141797,7402.059420,16164.615008
20118.087823,6439.791695,2368.659014,8197.221829
20118.088157,1850.514855,592.164754,-1455.581446
20118.088490,-3478.967927,-6587.832884,-11644.651570
20118.088823,-5403.503377,-15100.201217,-16624.272307
20118.089156,-10140.821405,-24870.919651,-20148.311597
20118.089489,-11917.315666,-25463.084405,-15551.738609
20118.089822,-12509.480420,-26943.496289,-8656.879127
20118.090155,-10140.821405,-21614.013506,-306.438199
20118.090488,-4293.194464,-12361.439231,9269.755526
20118.090821,2664.741391,-2812.782580,16930.710506
20118.091154,8808.450710,3552.988522,23212.693589
20118.091488,7105.977043,8216.285956,21986.940793
20118.091821,12361.439231,7105.977043,13100.233016
20118.092154,6217.729913,4737.318029,4596.572988
20118.092487,4145.153275,-666.185348,-5515.887586
20118.092820,-1850.514855,-10955.047942,-16011.395908
20118.093153,-7476.080014,-19911.539840,-21297.454844
20118.093486,-9548.656652,-25611.125593,-19995.092498
20118.093820,-11029.068536,-28275.866984,-13100.233016
20118.094153,-8364.327145,-23686.590144,-5592.497135
20118.094486,-2442.679609,-21021.848753,7277.907231
20118.094819,2590.720797,-6291.750507,12563.966167
20118.095152,8290.306550,-74.020594,19612.044749
20118.095485,11843.295072,6439.791695,22676.426741
20118.095818,10658.965565,7624.121203,17466.977354
20118.096152,11177.109724,4885.359217,7354.516781
20118.096485,9178.553681,1332.370696,-766.095498
20118.096818,2590.720797,-6735.874072,-11491.432470
20118.097151,-3256.906145,-12213.398043,-21757.112143
20118.097484,-4219.173869,-23686.590144,-21527.283494
20118.097817,-7179.997637,-28423.908173,-18462.901502
20118.098151,-8882.471304,-26129.269753,-10725.336972
20118.098484,-4811.338623,-25463.084405,2068.457845
20118.098817,-1628.453072,-15544.324782,10878.556072
20118.099150,6217.729913,-4959.379811,19152.387450
20118.099483,11917.315666,4663.297435,22982.864940
20118.099816,11695.253884,6957.935855,20607.968896
20118.100150,10658.965565,7031.956449,15321.909960
20118.100483,9400.615463,3552.988522,4826.401637
20118.100816,2368.659014,-74.020594,-4596.572988
20118.101149,-4737.318029,-7179.997637,-14096.157163
20118.101482,-5403.503377,-18357.107362,-19688.654299
20118.101815,-11251.130318,-24500.816680,-19612.044749
20118.102149,-12657.521608,-26869.475695,-15398.519510
20118.102482,-11177.109724,-26277.310941,-6281.983084
20118.102815,-7179.997637,-19689.478057,3294.210641
20118.103148,-2368.659014,-10140.821405,13176.842566
20118.103481,5107.421000,-1110.308913,19152.387450
20118.103814,7476.080014,5255.462188,21144.235745
20118.104147,8660.409521,7031.956449,17850.025103
20118.104481,7624.121203,7402.059420,10955.165621
20118.104814,1628.453072,3478.967927,1225.752797
20118.105147,-370.102971,-4737.318029,-9882.631924
20118.105480,-7179.997637,-9844.739029,-20531.359346
20118.105813,-10658.965565,-20207.622217,-20991.016645
20118.106146,-9548.656652,-26943.496289,-16011.395908
20118.106480,-11325.150913,-27905.764013,-10955.165621
20118.106813,-10510.924376,-24648.857869,-2298.286494
20118.107146,-3923.091493,-16580.613101,7660.954980
20118.107479,2960.823768,-5995.668130,14709.033562
20118.107812,6217.729913,2886.803174,21144.235745
20118.108145,12361.439231,5329.482782,18309.682402
20118.108479,11769.274478,8290.306550,14019.547613
20118.108812,8586.388927,6735.874072,7967.393179
20118.109145,7846.182985,2220.617826,-2528.115143
20118.109478,1332.370696,-7105.977043,-12640.575717
20118.109811,-3108.864956,-15174.221811,-19765.263848
20118.110144,-6513.812290,-22872.363608,-21144.235745
20118.110477,-5995.668130,-28423.908173,-15858.176809
20118.110811,-7105.977043,-26129.269753,-5898.935335
20118.111144,-74.020594,-22502.260637,3294.210641
20118.111477,4071.132681,-11325.150913,12257.527968
20118.111810,7550.100608,-2442.679609,19612.044749
20118.112143,12139.377449,4515.256246,20224.921147
20118.112476,14137.933492,8068.244768,17696.806004
20118.112810,12435.459826,7772.162391,12180.918418
20118.113143,8586.388927,4145.153275,2298.286494
20118.113476,3182.885551,-2368.659014,-10189.070123
20118.113809,-3552.988522,-12065.356855,-16930.710506
20118.114142,-5995.668130,-18949.272115,-23365.912689
20118.114475,-8290.306550,-24352.775492,-20531.359346
20118.114809,-8364.327145,-30792.567187,-12870.404366
20118.115142,-4219.173869,-26647.413912,-1915.238745
20118.115475,-666.185348,-18579.169144,7967.393179
20118.115808,6883.915261,-9474.636058,17850.025103
20118.116141,11769.274478,296.082377,22599.817191
20118.116474,9474.636058,5847.626942,22063.550342
20118.116808,12953.603985,7105.977043,14632.424012
20118.117141,4737.318029,5847.626942,7967.393179
20118.117474,1184.329507,1110.308913,-2604.724693
20118.117807,-1258.350101,-7105.977043,-13253.452115
20118.118140,-7179.997637,-15100.201217,-19688.654299
20118.118473,-10658.965565,-21317.931130,-20531.359346
20118.118806,-12657.521608,-27239.578666,-16394.443657
20118.119140,-11251.130318,-26129.269753,-8273.831378
20118.119473,-8734.430116,-19171.333898,2451.505594
20118.119806,-2146.597232,-13619.789333,11721.261119
20118.120139,1924.535449,-4589.276840,18616.120601
20118.120472,4293.194464,2812.782580,20761.187996
20118.120805,4959.379811,7328.038826,17390.367805
20118.121139,3478.967927,9400.615463,10035.851024
20118.121472,444.123565,2664.741391,3600.648841
20118.121805,-3627.009116,-1406.391290,-9806.022374
20118.122138,-7994.224174,-8660.409521,-14479.204912
20118.122471,-9770.718434,-17468.860231,-18462.901502
20118.122804,-11029.068536,-22058.137072,-19305.606550
20118.123138,-10807.006753,-27239.578666,-11721.261119
20118.123471,-8734.430116,-23982.672521,-2681.334243
20118.123804,-3552.988522,-18727.210333,6205.373534
20118.124137,0.000000,-9548.656652,12257.527968
20118.124470,6735.874072,-4441.235652,17696.806004
20118.124803,6513.812290,4737.318029,17696.806004
20118.125136,5921.647536,8216.285956,15015.471761
20118.125470,8660.409521,5033.400406,8503.660028
20118.125803,4885.359217,3478.967927,-919.314598
20118.126136,3330.926739,-3182.885551,-8963.317327
20118.126469,-1036.288319,-11769.274478,-15858.176809
20118.126802,-3923.091493,-20503.704593,-18999.168350
20118.127135,-2294.638420,-26647.413912,-14479.204912
20118.127469,-1258.350101,-28423.908173,-9882.631924
20118.127802,-1776.494261,-20947.828159,0.000000
20118.128135,592.164754,-14878.139434,8580.269578
20118.128468,7846.182985,-9178.553681,15858.176809
20118.128801,13471.748144,0.000000,21067.626195
20118.129134,12583.501014,6143.709319,18233.072852
20118.129468,13249.686362,6513.812290,12947.013916
20118.129801,8734.430116,4737.318029,4443.353888
20118.130134,6439.791695,-888.247130,-4366.744339
20118.130467,-1036.288319,-4811.338623,-14249.376263
20118.130800,-4737.318029,-16062.468941,-17466.977354
20118.131133,-3923.091493,-23612.569550,-16011.395908
20118.131467,-4811.338623,-25907.207970,-14938.862211
20118.131800,-4441.235652,-25611.125593,-4366.744339
20118.132133,-4663.297435,-21688.034101,2834.553343
20118.132466,1258.350101,-12879.583391,11108.384721
20118.132799,4145.153275,-4293.194464,17620.196454
20118.133132,9400.615463,4737.318029,19228.997000
20118.133465,7402.059420,8216.285956,15934.786358
20118.133799,5255.462188,5477.523971,9193.145976
20118.134132,4663.297435,2886.803174,1149.143247
20118.134465,-1776.494261,-3034.844362,-6128.763984
20118.134798,-2368.659014,-10288.862594,-12180.918418
20118.135131,-6291.750507,-20577.725188,-17543.586904
20118.135464,-10066.800811,-22576.281231,-18309.682402
20118.135798,-11251.130318,-26129.269753,-11031.775171
20118.136131,-7698.141797,-22576.281231,-3677.258390
20118.136464,-5477.523971,-17098.757260,4903.011187
20118.136797,-1036.288319,-9104.533087,13330.061665
20118.137130,2442.679609,0.000000,17237.148705
20118.137463,5255.462188,4145.153275,19535.435199
20118.137797,4071.132681,9400.615463,13713.109414
20118.138130,4663.297435,4737.318029,5132.839837
20118.138463,0.000000,2294.638420,0.000000
20118.138796,-4145.153275,-6587.832884,-7967.393179
20118.139129,-6143.709319,-14137.933492,-15781.567259
20118.139462,-8956.491898,-22206.178260,-16777.491406
20118.139795,-8512.368333,-24944.940245,-13942.938064
20118.140129,-7031.956449,-24870.919651,-6588.421283
20118.140462,-7179.997637,-21317.931130,-1302.362347
20118.140795,-4737.318029,-14285.974681,8120.612279
20118.141128,0.000000,-3627.009116,11644.651570
20118.141461,3552.988522,2886.803174,18999.168350
20118.141794,8216.285956,6513.812290,17083.929605
20118.142128,8216.285956,7698.141797,9729.412825
20118.142461,6143.709319,2664.741391,4826.401637
20118.142794,5773.606348,-814.226536,-2987.772442
20118.143127,2368.659014,-7624.121203,-10495.508323
20118.143460,-2146.597232,-18135.045579,-15168.690860
20118.143793,-1258.350101,-24278.754898,-14785.643111
20118.144127,-4737.318029,-24352.775492,-10418.898773
20118.144460,-5921.647536,-24352.775492,-3677.258390
20118.144793,-222.061783,-18949.272115,842.705048
20118.145126,0.000000,-10140.821405,7507.735880
20118.145459,4959.379811,-2368.659014,13176.842566
20118.145792,8438.347739,3849.070898,16164.615008
20118.146126,8512.368333,6735.874072,13176.842566
20118.146459,7179.997637,4959.379811,8963.317327
20118.146792,8808.450710,2664.741391,1762.019645
20118.147125,4737.318029,-4219.173869,-2528.115143
20118.147458,1998.556043,-13619.789333,-10495.508323
20118.147791,-74.020594,-18357.107362,-18769.339701
20118.148124,-4737.318029,-22576.281231,-14709.033562
20118.148458,-4811.338623,-27017.516883,-10955.165621
20118.148791,-5329.482782,-22724.322419,-4903.011187
20118.149124,-3997.112087,-18653.189738,3753.867940
20118.149457,444.123565,-9548.656652,11184.994271
20118.149790,5255.462188,148.041188,15858.176809
20118.150123,7550.100608,6217.729913,17620.196454
20118.150457,5847.626942,7402.059420,13636.499864
20118.150790,6661.853478,5995.668130,7737.564530
20118.151123,3849.070898,222.061783,1838.629195
20118.151456,814.226536,-7994.224174,-6818.249932
20118.151789,-4663.297435,-11917.315666,-16394.443657
20118.152122,-8882.471304,-20503.704593,-14402.595362
20118.152456,-7920.203579,-25463.084405,-13100.233016
20118.152789,-10436.903782,-22872.363608,-9193.145976
20118.153122,-8512.368333,-20577.725188,-2451.505594
20118.153455,-6365.771101,-14063.912898,4979.620737
20118.153788,-2294.638420,-5921.647536,12487.356617
20118.154121,3478.967927,592.164754,16394.443657
20118.154454,5551.544565,4737.318029,14632.424012
20118.154788,4145.153275,8512.368333,11644.651570
20118.155121,2368.659014,3478.967927,7967.393179
20118.155454,3775.050304,-2368.659014,-1915.238745
20118.155787,0.000000,-7179.997637,-8886.707777
20118.156120,-4293.194464,-16136.489536,-15015.471761
20118.156453,-5477.523971,-22872.363608,-15168.690860
20118.156787,-7550.100608,-26647.413912,-12410.747068
20118.157120,-7772.162391,-24870.919651,-6818.249932
20118.157453,-5699.585753,-18949.272115,-2221.676944
20118.157786,-4737.318029,-11917.315666,8120.612279
20118.158119,3997.112087,-3552.988522,16241.224558
20118.158452,6735.874072,2960.823768,16777.491406
20118.158786,11177.109724,7698.141797,16777.491406
20118.159119,11103.089130,5625.565159,11951.089769
20118.159452,12509.480420,2368.659014,7201.297681
20118.159785,9400.615463,-2886.803174,-2298.286494
20118.160118,2664.741391,-11325.150913,-12257.527968
20118.160451,-370.102971,-19319.375086,-18999.168350
20118.160785,-5921.647536,-26129.269753,-15934.786358
20118.161118,-2886.803174,-27535.661042,-11261.603821
20118.161451,-4367.215058,-23094.425390,-5592.497135
20118.161784,-4441.235652,-16062.468941,1762.019645
20118.162117,1480.411884,-8808.450710,11031.775171
20118.162450,6809.894666,592.164754,16471.053207
20118.162783,10214.842000,7328.038826,19152.387450
20118.163117,12287.418637,5921.647536,17083.929605
20118.163450,7698.141797,6439.791695,9959.241474
20118.163783,7031.956449,-888.247130,-76.609550
20118.164116,4663.297435,-7698.141797,-8810.098227
20118.164449,-2368.659014,-14285.974681,-15015.471761
20118.164782,-5921.647536,-21391.951724,-20071.702048
20118.165116,-6587.832884,-27239.578666,-16471.053207
20118.165449,-8808.450710,-26721.434506,-11031.775171
20118.165782,-6439.791695,-22502.260637,-2145.067394
20118.166115,-1850.514855,-16580.613101,7737.564530
20118.166448,2960.823768,-4811.338623,15015.471761
20118.166781,5847.626942,1258.350101,18999.168350
20118.167115,11325.150913,8882.471304,18309.682402
20118.167448,9178.553681,4959.379811,15092.081311
20118.167781,7105.977043,3256.906145,7354.516781
20118.168114,4515.256246,-3552.988522,-2221.676944
20118.168447,0.000000,-7179.997637,-9806.022374
20118.168780,-3627.009116,-17616.901420,-16317.834107
20118.169113,-10140.821405,-23982.672521,-19918.482948
20118.169447,-10066.800811,-26795.455100,-13559.890315
20118.169780,-13323.706956,-24500.816680,-8427.050478
20118.170113,-8956.491898,-17912.983796,153.219100
20118.170446,-6587.832884,-11029.068536,7048.078582
20118.170779,-74.020594,-4145.153275,15858.176809
20118.171112,2960.823768,7624.121203,19612.044749
20118.171446,5921.647536,7031.956449,21374.064394
20118.171779,8216.285956,7402.059420,11108.384721
20118.172112,1184.329507,4071.132681,4903.011187
20118.172445,3775.050304,-2960.823768,-4673.182538
20118.172778,-4737.318029,-11177.109724,-14096.157163
20118.173111,-7179.997637,-19097.313304,-19612.044749
20118.173445,-11547.212695,-26647.413912,-18692.730151
20118.173778,-11917.315666,-27239.578666,-14938.862211
20118.174111,-13915.871710,-23760.610738,-4596.572988
20118.174444,-6513.812290,-18949.272115,5439.278036
20118.174777,-74.020594,-8882.471304,11568.042020
20118.175110,6809.894666,1628.453072,20224.921147
20118.175444,9474.636058,8068.244768,20224.921147
20118.175777,11177.109724,8290.306550,17390.367805
20118.176110,10955.047942,5255.462188,11338.213370
20118.176443,9252.574275,1554.432478,2221.676944
20118.176776,4145.153275,-5995.668130,-9806.022374
20118.177109,888.247130,-16580.613101,-15398.519510
20118.177442,-5995.668130,-22576.281231,-22676.426741
20118.177776,-8290.306550,-27979.784608,-19612.044749
20118.178109,-6513.812290,-28423.908173,-8656.879127
20118.178442,-6143.709319,-22650.301825,-3370.820191
20118.178775,-1110.308913,-14063.912898,6588.421283
20118.179108,5329.482782,-4219.173869,16854.100956
20118.179441,12361.439231,5033.400406,21986.940793
20118.179775,14211.954086,9400.615463,20224.921147
20118.180108,14211.954086,7402.059420,16854.100956
20118.180441,12287.418637,3997.112087,8350.440928
20118.180774,6143.709319,-1332.370696,-3447.429741
20118.181107,2294.638420,-11251.130318,-13559.890315
20118.181440,-5107.421000,-18949.272115,-23595.741338
20118.181774,-11251.130318,-25537.104999,-22676.426741
20118.182107,-13027.624579,-29090.093521,-16164.615008
20118.182440,-11325.150913,-26499.372724,-10418.898773
20118.182773,-5921.647536,-20429.683999,3064.381992
20118.183106,-1554.432478,-10066.800811,12257.527968
20118.183439,7772.162391,74.020594,22216.769442
20118.183772,11103.089130,7772.162391,24132.008187
20118.184106,10510.924376,11399.171507,18616.120601
20118.184439,10955.047942,6661.853478,11261.603821
20118.184772,7698.141797,1998.556043,6665.030833
20118.185105,3478.967927,-4737.318029,-8044.002729
20118.185438,-2738.761985,-12731.542202,-19382.216099
20118.185771,-9548.656652,-22798.343014,-22906.255390
20118.186105,-11473.192101,-28423.908173,-22063.550342
20118.186438,-11621.233289,-28645.969955,-14632.424012
20118.186771,-9030.512492,-24722.878463,-3753.867940
20118.187104,-4737.318029,-15766.386565,7354.516781
20118.187437,4663.297435,-5921.647536,16471.053207
20118.187770,8290.306550,3478.967927,25204.541884
20118.188104,11769.274478,7698.141797,21680.502593
20118.188437,9844.739029,8290.306550,15551.738609
20118.188770,6513.812290,7624.121203,7354.516781
20118.189103,3182.885551,444.123565,-3140.991542
20118.189436,-2368.659014,-7624.121203,-13559.890315
20118.189769,-7698.141797,-15840.407159,-21603.893044
20118.190103,-8956.491898,-26647.413912,-20301.530697
20118.190436,-11769.274478,-26721.434506,-18999.168350
20118.190769,-9548.656652,-28423.908173,-7431.126331
20118.191102,-7179.997637,-22502.260637,229.828649
20118.191435,-3256.906145,-12509.480420,12257.527968
20118.191768,7105.977043,-2368.659014,22829.645840
20118.192101,9992.780217,5181.441594,24132.008187
20118.192435,10362.883188,9992.780217,20531.359346
20118.192768,11177.109724,9178.553681,13866.328514
20118.193101,6957.935855,4293.194464,4519.963438
20118.193434,1184.329507,-1850.514855,-5515.887586
20118.193767,-3627.009116,-11251.130318,-19612.044749
20118.194100,-8882.471304,-19615.457463,-23595.741338
20118.194433,-10658.965565,-27313.599260,-18845.949251
20118.194766,-8068.244768,-30200.402434,-13176.842566
20118.195099,-7402.059420,-26351.331535,-3753.867940
20118.195432,-1554.432478,-18357.107362,5439.278036
20118.195766,4737.318029,-7476.080014,17543.586904
20118.196099,8364.327145,2368.659014,19841.873398
20118.196432,10658.965565,7031.956449,21757.112143
20118.196765,11399.171507,9178.553681,16241.224558
20118.197098,9178.553681,5551.544565,9116.536426
20118.197431,5551.544565,2072.576638,-2298.286494
20118.197764,-74.020594,-7698.141797,-13559.890315
20118.198097,-6365.771101,-14878.139434,-20991.016645
20118.198430,-9474.636058,-23760.610738,-20607.968896
20118.198763,-7179.997637,-28423.908173,-18845.949251
20118.199097,-9104.533087,-28201.846390,-9806.022374
20118.199430,-3330.926739,-24870.919651,2374.896044
20118.199763,222.061783,-13693.809927,12257.527968
20118.200096,6143.709319,-4145.153275,19305.606550
20118.200429,9178.553681,3108.864956,21910.331243
20118.200762,9104.533087,10288.862594,17773.415554
20118.201095,7698.141797,9992.780217,14096.157163
20118.201428,7031.956449,5329.482782,3907.087040
20118.201761,1110.308913,-74.020594,-8580.269578
20118.202094,-5181.441594,-9548.656652,-15628.348159
20118.202427,-5995.668130,-18653.189738,-21067.626195
20118.202761,-9474.636058,-26055.249158,-19995.092498
20118.203094,-10584.944971,-28794.011144,-14709.033562
20118.203427,-8438.347739,-26795.455100,-5056.230287
20118.203760,-4441.235652,-17838.963202,4903.011187
20118.204093,0.000000,-9548.656652,16700.881856
20118.204426,7031.956449,-1184.329507,17696.806004
20118.204759,7698.141797,7031.956449,17773.415554
20118.205092,8586.388927,7624.121203,18309.682402
20118.205425,6587.832884,9104.533087,7967.393179
20118.205758,3775.050304,2812.782580,-1608.800546
20118.206091,-1258.350101,-5329.482782,-10801.946522
20118.206425,-4885.359217,-12879.583391,-17926.634653
20118.206758,-6291.750507,-21317.931130,-19228.997000
20118.207091,-8290.306550,-27979.784608,-16011.395908
20118.207424,-7772.162391,-28423.908173,-11414.822920
20118.207757,-7105.977043,-23168.445985,-153.219100
20118.208090,-1776.494261,-16654.633695,9729.412825
20118.208423,4145.153275,-6883.915261,17083.929605
20118.208756,8068.244768,2146.597232,20224.921147
20118.209089,9696.697840,8512.368333,19612.044749
20118.209422,10510.924376,9770.718434,14632.424012
20118.209756,6957.935855,5477.523971,6205.373534
20118.210089,5847.626942,592.164754,-4366.744339
20118.210422,0.000000,-5995.668130,-13483.280765
20118.210755,-4737.318029,-15470.304188,-17083.929605
20118.211088,-5403.503377,-24870.919651,-19688.654299
20118.211421,-7105.977043,-27313.599260,-13176.842566
20118.211754,-4737.318029,-25759.166782,-6435.202183
20118.212087,-740.205942,-19023.292709,3907.087040
20118.212420,3182.885551,-12583.501014,11797.870669
20118.212753,7031.956449,-2960.823768,16930.710506
20118.213086,9992.780217,4737.318029,18922.558801
20118.213420,9400.615463,8586.388927,15704.957709
20118.213753,8660.409521,7624.121203,10035.851024
20118.214086,4367.215058,3034.844362,995.924147
20118.214419,1998.556043,-4145.153275,-8350.440928
20118.214752,-1406.391290,-14211.954086,-13559.890315
20118.215085,-5403.503377,-18653.189738,-20684.578446
20118.215418,-5329.482782,-26129.269753,-17160.539155
20118.215751,-4145.153275,-26721.434506,-9806.022374
20118.216084,-4367.215058,-23760.610738,-3370.820191
20118.216417,-1110.308913,-18209.066173,6358.592633
20118.216750,444.123565,-11621.233289,12257.527968
20118.217084,6143.709319,-1480.411884,18156.463303
20118.217417,6587.832884,8216.285956,16394.443657
20118.217750,8808.450710,7698.141797,14632.424012
20118.218083,6735.874072,6513.812290,6052.154434
20118.218416,1332.370696,1998.556043,0.000000
20118.218749,2220.617826,-6217.729913,-6205.373534
20118.219082,-5921.647536,-13693.809927,-15628.348159
20118.219415,-7772.162391,-22650.301825,-17850.025103
20118.219748,-10807.006753,-27387.619854,-15398.519510
20118.220081,-9104.533087,-25981.228564,-9882.631924
20118.220415,-7698.141797,-20799.786970,0.000000
20118.220748,-666.185348,-14211.954086,6971.469032
20118.221081,3330.926739,-4737.318029,15245.300410
20118.221414,2664.741391,4663.297435,17773.415554
20118.221747,5255.462188,7698.141797,15551.738609
20118.222080,3775.050304,5625.565159,10342.289223
20118.222413,2738.761985,3775.050304,3447.429741
20118.222746,518.144159,-1184.329507,-3907.087040
20118.223079,-2664.741391,-9474.636058,-11568.042020
20118.223412,-4219.173869,-18061.024985,-14938.862211
20118.223745,-7179.997637,-23094.425390,-18386.291952
20118.224079,-7698.141797,-25241.022622,-11031.775171
20118.224412,-8290.306550,-23760.610738,-3370.820191
20118.224745,-3775.050304,-20725.766376,2374.896044
20118.225078,-1924.535449,-12065.356855,9576.193725
20118.225411,3108.864956,-2368.659014,14938.862211
20118.225744,5921.647536,5107.421000,17850.025103
20118.226077,7179.997637,7994.224174,14172.766713
20118.226410,8808.450710,4959.379811,11261.603821
20118.226743,5329.482782,2664.741391,2451.505594
20118.227076,5847.626942,-3478.967927,-5592.497135
20118.227409,444.123565,-12213.398043,-12027.699319
20118.227743,-3552.988522,-19023.292709,-17160.539155
20118.228076,-4737.318029,-25537.104999,-14785.643111
20118.228409,-2146.597232,-26943.496289,-9269.755526
20118.228742,-3034.844362,-21391.951724,-4903.011187
20118.229075,-1776.494261,-17912.983796,4519.963438
20118.229408,3478.967927,-7105.977043,10955.165621
20118.229741,5773.606348,0.000000,16394.443657
20118.230074,9770.718434,8068.244768,17237.148705
20118.230407,9918.759623,7105.977043,14019.547613
20118.230740,7105.977043,4367.215058,7354.516781
20118.231074,5921.647536,1702.473667,2145.067394
20118.231407,3478.967927,-9178.553681,-8350.440928
20118.231740,-2368.659014,-13101.645173,-16394.443657
20118.232073,-5921.647536,-23760.610738,-16394.443657
20118.232406,-2960.823768,-23760.610738,-14709.033562
20118.232739,-5995.668130,-28127.825796,-6818.249932
20118.233072,-4811.338623,-19245.354492,-2451.505594
20118.233405,-3404.947333,-15322.262999,6358.592633
20118.233738,1702.473667,-6513.812290,13100.233016
20118.234071,6217.729913,3775.050304,20148.311597
20118.234404,6439.791695,8808.450710,13483.280765
20118.234738,5921.647536,6735.874072,12947.013916
20118.235071,5551.544565,1480.411884,6052.154434
20118.235404,6143.709319,-2072.576638,-766.095498
20118.235737,518.144159,-10066.800811,-9499.584175
20118.236070,-3034.844362,-18357.107362,-15551.738609
20118.236403,-6365.771101,-23316.487173,-16088.005458
20118.236736,-9326.594869,-27091.537477,-13253.452115
20118.237069,-7105.977043,-25463.084405,-6205.373534
20118.237402,-8882.471304,-16654.633695,0.000000
20118.237735,-3552.988522,-10140.821405,8886.707777
20118.238069,1702.473667,-2072.576638,14019.547613
20118.238402,5255.462188,6069.688724,16164.615008
20118.238735,4145.153275,7476.080014,15092.081311
20118.239068,6883.915261,7846.182985,10572.117872
20118.239401,4737.318029,1850.514855,5515.887586
20118.239734,0.000000,-4811.338623,-3370.820191
20118.240067,-74.020594,-10658.965565,-14785.643111
20118.240400,-7105.977043,-19615.457463,-15321.909960
20118.240733,-4737.318029,-24944.940245,-12947.013916
20118.241066,-7772.162391,-26055.249158,-11874.480219
20118.241399,-8364.327145,-22502.260637,-4979.620737
20118.241733,-7698.141797,-15470.304188,1225.752797
20118.242066,-3701.029710,-7846.182985,8427.050478
20118.242399,3108.864956,1850.514855,15015.471761
20118.242732,4737.318029,7031.956449,17773.415554
20118.243065,9400.615463,9252.574275,13942.938064
20118.243398,8660.409521,4885.359217,10725.336972
20118.243731,8586.388927,-444.123565,3983.696590
20118.244064,5477.523971,-6587.832884,-4290.134789
20118.244397,-1184.329507,-14285.974681,-14096.157163
20118.244730,-3627.009116,-24278.754898,-17237.148705
20118.245063,-6883.915261,-25241.022622,-16854.100956
20118.245397,-5921.647536,-27535.661042,-7584.345430
20118.245730,-3923.091493,-21317.931130,-1302.362347
20118.246063,-4737.318029,-12509.480420,4903.011187
20118.246396,592.164754,-4811.338623,11951.089769
20118.246729,5625.565159,3552.988522,16471.053207
20118.247062,8882.471304,9326.594869,17237.148705
20118.247395,10362.883188,5699.585753,16471.053207
20118.247728,9400.615463,2368.659014,6971.469032
20118.248061,5329.482782,-1850.514855,0.000000
20118.248394,3256.906145,-11473.192101,-8197.221829
20118.248728,-1554.432478,-18061.024985,-17696.806004
20118.249061,-6809.894666,-25241.022622,-18309.682402
20118.249394,-7476.080014,-28275.866984,-15628.348159
20118.249727,-9030.512492,-24130.713709,-8810.098227
20118.250060,-6217.729913,-19541.436869,0.000000
20118.250393,-74.020594,-12435.459826,10955.165621
20118.250726,4663.297435,0.000000,14325.985813
20118.251059,6513.812290,5847.626942,21986.940793
20118.251392,10658.965565,6809.894666,20761.187996
20118.251725,9400.615463,8438.347739,11031.775171
20118.252058,7179.997637,148.041188,5439.278036
20118.252392,3997.112087,-5033.400406,-4213.525239
20118.252725,-1036.288319,-12361.439231,-13406.671215
20118.253058,-6217.729913,-21465.972318,-18462.901502
20118.253391,-8882.471304,-25907.207970,-18003.244203
20118.253724,-13027.624579,-24944.940245,-16547.662757
20118.254057,-10658.965565,-23020.404796,-4979.620737
20118.254390,-6291.750507,-16432.571912,2681.334243
20118.254723,-2146.597232,-5107.421000,9806.022374
20118.255056,5255.462188,1184.329507,18309.682402
20118.255389,7105.977043,7624.121203,19918.482948
20118.255722,9030.512492,9400.615463,16854.100956
20118.256056,6883.915261,3627.009116,10725.336972
20118.256389,4737.318029,1480.411884,383.047749
20118.256722,740.205942,-7031.956449,-8350.440928
20118.257055,-3330.926739,-15100.201217,-17237.148705
20118.257388,-5033.400406,-22872.363608,-18922.558801
20118.257721,-7105.977043,-27609.681637,-15321.909960
20118.258054,-5477.523971,-27683.702231,-9269.755526
20118.258387,-7179.997637,-21095.869347,-4290.134789
20118.258720,-4737.318029,-13693.809927,3064.381992
20118.259053,296.082377,-3923.091493,14402.595362
20118.259387,7698.141797,4663.297435,20991.016645
20118.259720,11547.212695,9548.656652,19918.482948
20118.260053,11473.192101,8142.265362,15704.957709
20118.260386,9622.677246,4071.132681,8580.269578
20118.260719,8216.285956,0.000000,-689.485948
20118.261052,0.000000,-8956.491898,-11108.384721
20118.261385,-1850.514855,-16432.571912,-22063.550342
20118.261718,-8882.471304,-27017.516883,-21144.235745
20118.262051,-8882.471304,-28942.052332,-16011.395908
20118.262384,-7179.997637,-26055.249158,-7431.126331
20118.262717,-5107.421000,-20281.642811,2068.457845
20118.263051,0.000000,-10658.965565,11261.603821
20118.263384,7402.059420,222.061783,20224.921147
20118.263717,11917.315666,7179.997637,23289.303139
20118.264050,13323.706956,9252.574275,22293.378992
20118.264383,10658.965565,8216.285956,12257.527968
20118.264716,7698.141797,1998.556043,6358.592633
20118.265049,4663.297435,-4145.153275,-7584.345430
20118.265382,-3256.906145,-13027.624579,-18079.853753
20118.265715,-6883.915261,-23390.507767,-23978.789087
20118.266048,-10066.800811,-28423.908173,-22140.159892
20118.266381,-11843.295072,-30422.464216,-15015.471761
20118.266715,-8808.450710,-24130.713709,-4903.011187
20118.267048,-4811.338623,-18949.272115,4826.401637
20118.267381,1184.329507,-4811.338623,17160.539155
20118.267714,7105.977043,2294.638420,26736.732880
20118.268047,12657.521608,10066.800811,22369.988542
20118.268380,10658.965565,11177.109724,19612.044749
20118.268713,8586.388927,5255.462188,11031.775171
20118.269046,6143.709319,1628.453072,-689.485948
20118.269379,-962.267725,-8068.244768,-11951.089769
20118.269712,-7105.977043,-16950.716072,-21374.064394
20118.270046,-11991.336260,-24278.754898,-25664.199183
20118.270379,-13619.789333,-30200.402434,-17850.025103
20118.270712,-12509.480420,-27831.743419,-11491.432470
20118.271045,-10955.047942,-20207.622217,0.000000
20118.271378,-4737.318029,-11917.315666,11797.870669
20118.271711,2738.761985,-222.061783,19612.044749
20118.272044,8882.471304,6883.915261,23748.960438
20118.272377,9474.636058,10066.800811,21680.502593
20118.272710,9030.512492,7698.141797,15092.081311
20118.273043,5847.626942,6587.832884,3677.258390
20118.273376,1628.453072,-3404.947333,-6205.373534
20118.273710,-4145.153275,-11029.068536,-17083.929605
20118.274043,-9622.677246,-21317.931130,-23136.084040
20118.274376,-10066.800811,-27239.578666,-20914.407095
20118.274709,-11917.315666,-30348.443622,-16394.443657
20118.275042,-11251.130318,-24944.940245,-7967.393179
20118.275375,-7105.977043,-18431.127956,6741.640382
20118.275708,1628.453072,-9474.636058,16471.053207
20118.276041,7105.977043,3478.967927,22676.426741
20118.276374,11177.109724,8734.430116,22599.817191
20118.276707,11843.295072,9918.759623,18922.558801
20118.277040,11399.171507,8068.244768,12334.137518
20118.277374,9400.615463,2368.659014,1762.019645
20118.277707,4663.297435,-6513.812290,-11261.603821
20118.278040,-4145.153275,-14878.139434,-19152.387450
20118.278373,-8290.306550,-25241.022622,-21833.721693
20118.278706,-6587.832884,-30496.484810,-20914.407095
20118.279039,-6957.935855,-30570.505405,-10495.508323
20118.279372,-5403.503377,-24204.734303,-1455.581446
20118.279705,0.000000,-15322.262999,10189.070123
20118.280038,7105.977043,-1850.514855,18386.291952
20118.280371,9918.759623,6143.709319,22063.550342
20118.280705,14730.098246,12953.603985,17160.539155
20118.281038,13027.624579,8512.368333,19228.997000
20118.281371,9400.615463,5921.647536,6665.030833
20118.281704,4663.297435,1406.391290,-6741.640382
20118.282037,-3034.844362,-11843.295072,-16011.395908
20118.282370,-5477.523971,-17690.922014,-22982.864940
20118.282703,-9474.636058,-28645.969955,-22140.159892
20118.283036,-8512.368333,-29904.320057,-17160.539155
20118.283369,-10510.924376,-30274.423028,-7048.078582
20118.283702,-6143.709319,-20207.622217,2451.505594
20118.284035,592.164754,-9844.739029,17696.806004
20118.284369,7624.121203,0.000000,20148.311597
20118.284702,10732.986159,8290.306550,23212.693589
20118.285035,8438.347739,11769.274478,18845.949251
20118.285368,9252.574275,8586.388927,12334.137518
20118.285701,2960.823768,3923.091493,612.876398
20118.286034,-1258.350101,-4885.359217,-11338.213370
20118.286367,-4811.338623,-13619.789333,-18462.901502
20118.286700,-10658.965565,-24056.693115,-20914.407095
20118.287033,-10732.986159,-27905.764013,-22063.550342
20118.287366,-11843.295072,-29978.340651,-14096.157163
20118.287699,-7698.141797,-24204.734303,-1378.971896
20118.288033,-1184.329507,-15618.345376,9806.022374
20118.288366,4293.194464,-6291.750507,18233.072852
20118.288699,7328.038826,3182.885551,21833.721693
20118.289032,8142.265362,8512.368333,20454.749797
20118.289365,9104.533087,10658.965565,15245.300410
20118.289698,5773.606348,5625.565159,8197.221829
20118.290031,2442.679609,1110.308913,-3677.258390
20118.290364,-3108.864956,-8068.244768,-12947.013916
20118.290697,-6809.894666,-16284.530724,-19995.092498
20118.291030,-7772.162391,-24870.919651,-20301.530697
20118.291364,-9770.718434,-30052.361245,-14249.376263
20118.291697,-8068.244768,-29016.072926,-7431.126331
20118.292030,-6439.791695,-19097.313304,2451.505594
20118.292363,-1776.494261,-11917.315666,11644.651570
20118.292696,5255.462188,-1036.288319,16547.662757
20118.293029,9696.697840,5033.400406,21527.283494
20118.293362,10066.800811,10362.883188,18845.949251
20118.293696,9770.718434,9178.553681,12563.966167
20118.294029,3923.091493,6143.709319,1225.752797
20118.294362,2368.659014,-4737.318029,-6511.811733
20118.294695,-2442.679609,-13027.624579,-16011.395908
20118.295029,-6291.750507,-19393.395680,-22063.550342
20118.295362,-5995.668130,-29608.237680,-17237.148705
20118.295695,-9474.636058,-29682.258274,-11951.089769
20118.296028,-3256.906145,-24278.754898,-995.924147
20118.296361,-888.247130,-16950.716072,7660.954980
20118.296695,4737.318029,-8068.244768,15245.300410
20118.297028,8808.450710,296.082377,21374.064394
20118.297361,11769.274478,4737.318029,19535.435199
20118.297694,8882.471304,11177.109724,14709.033562
20118.298027,8364.327145,3552.988522,9729.412825
20118.298361,5255.462188,0.000000,-3140.991542
20118.298694,-74.020594,-8290.306550,-10495.508323
20118.299027,-3775.050304,-15174.221811,-18233.072852
20118.299360,-6587.832884,-24574.837274,-20454.749797
20118.299694,-5995.668130,-28201.846390,-15628.348159
20118.300027,-7105.977043,-25537.104999,-9039.926876
20118.300360,-3627.009116,-21169.889941,0.000000
20118.300693,0.000000,-14285.974681,12640.575717
20118.301026,5847.626942,-5921.647536,16930.710506
20118.301360,7105.977043,6439.791695,18386.291952
20118.301693,9400.615463,7105.977043,19535.435199
20118.302026,7031.956449,8438.347739,10801.946522
20118.302359,3108.864956,3997.112087,3217.601092
20118.302693,222.061783,-2442.679609,-5209.449386
20118.303026,-2368.659014,-8956.491898,-12563.966167
20118.303359,-4811.338623,-18653.189738,-19535.435199
20118.303692,-7994.224174,-27017.516883,-15704.957709
20118.304025,-7105.977043,-26721.434506,-9882.631924
20118.304359,-6291.750507,-25018.960840,-5439.278036
20118.304692,-3478.967927,-15396.283594,3140.991542
20118.305025,-1480.411884,-11029.068536,12104.308868
20118.305358,3552.988522,-1258.350101,16164.615008
20118.305691,4737.318029,6143.709319,16547.662757
20118.306025,4737.318029,8216.285956,12870.404366
20118.306358,4663.297435,6217.729913,7048.078582
20118.306691,1776.494261,814.226536,383.047749
20118.307024,1406.391290,-4589.276840,-6281.983084
20118.307358,-3404.947333,-13175.665768,-13406.671215
20118.307691,-4737.318029,-20799.786970,-16547.662757
20118.308024,-3627.009116,-26055.249158,-14785.643111
20118.308357,-5921.647536,-25537.104999,-8580.269578
20118.308690,-3997.112087,-22798.343014,-1302.362347
20118.309024,-2442.679609,-18949.272115,4826.401637
20118.309357,0.000000,-7476.080014,11644.651570
20118.309690,3182.885551,1480.411884,16011.395908
20118.310023,7179.997637,7402.059420,17083.929605
20118.310356,6291.750507,8734.430116,12180.918418
20118.310690,7105.977043,4959.379811,9729.412825
20118.311023,5847.626942,1184.329507,-383.047749
20118.311356,2960.823768,-6587.832884,-8580.269578
20118.311689,0.000000,-17172.777854,-12947.013916
20118.312023,-3034.844362,-22798.343014,-18003.244203
20118.312356,-5921.647536,-27313.599260,-13636.499864
20118.312689,-3627.009116,-26055.249158,-8350.440928
20118.313022,-3256.906145,-20799.786970,-842.705048
20118.313355,-148.041188,-13989.892304,6665.030833
20118.313689,4663.297435,-5921.647536,14325.985813
20118.314022,8216.285956,5921.647536,14096.157163
20118.314355,7402.059420,7920.203579,17850.025103
20118.314688,9400.615463,4737.318029,13406.671215
20118.315022,5255.462188,5847.626942,4903.011187
20118.315355,5773.606348,-3552.988522,-1302.362347
20118.315688,1258.350101,-9992.780217,-9882.631924
20118.316021,-3552.988522,-17838.963202,-17007.320056
20118.316354,-4663.297435,-24870.919651,-18079.853753
20118.316688,-4737.318029,-26425.352129,-13176.842566
20118.317021,-7698.141797,-25537.104999,-9193.145976
20118.317354,-4145.153275,-21317.931130,1762.019645
20118.317687,-1554.432478,-11843.295072,7277.907231
20118.318020,3775.050304,-296.082377,12870.404366
20118.318354,8808.450710,5625.565159,19228.997000
20118.318687,9696.697840,9622.677246,16088.005458
20118.319020,7105.977043,7031.956449,11644.651570
20118.319353,5329.482782,1480.411884,3677.258390
20118.319687,3627.009116,-2886.803174,-4673.182538
20118.320020,-2812.782580,-14285.974681,-12563.966167
20118.320353,-5033.400406,-20725.766376,-18845.949251
20118.320686,-7328.038826,-26943.496289,-16471.053207
20118.321019,-7698.141797,-27535.661042,-10418.898773
20118.321353,-5995.668130,-23612.569550,-2528.115143
20118.321686,-5995.668130,-14359.995275,1838.629195
20118.322019,-1776.494261,-5995.668130,9806.022374
20118.322352,1776.494261,666.185348,18309.682402
20118.322685,5329.482782,9252.574275,17160.539155
20118.323019,4515.256246,6957.935855,15092.081311
20118.323352,5847.626942,6217.729913,8044.002729
20118.323685,2368.659014,-370.102971,1838.629195
20118.324018,518.144159,-8882.471304,-8044.002729
20118.324352,-5477.523971,-14878.139434,-15934.786358
20118.324685,-5995.668130,-20207.622217,-19612.044749
20118.325018,-8586.388927,-27017.516883,-14709.033562
20118.325351,-9178.553681,-27461.640448,-8656.879127
20118.325684,-7179.997637,-21317.931130,-2528.115143
20118.326018,-5255.462188,-14211.954086,5439.278036
20118.326351,1036.288319,-4737.318029,14325.985813
20118.326684,5181.441594,4885.359217,16777.491406
20118.327017,6365.771101,7698.141797,17696.806004
20118.327351,9474.636058,9252.574275,14325.985813
20118.327684,7105.977043,6439.791695,5209.449386
20118.328017,6513.812290,-2442.679609,1762.019645
20118.328350,3478.967927,-9030.512492,-11338.213370
20118.328683,-3552.988522,-17838.963202,-17160.539155
20118.329017,-3923.091493,-26647.413912,-18769.339701
20118.329350,-6217.729913,-28645.969955,-15015.471761
20118.329683,-5107.421000,-26351.331535,-8350.440928
20118.330016,-5033.400406,-18505.148550,-76.609550
20118.330349,-74.020594,-11843.295072,8503.660028
20118.330683,1776.494261,-666.185348,16547.662757
20118.331016,8290.306550,5255.462188,21374.064394
20118.331349,11177.109724,11843.295072,15934.786358
20118.331682,8290.306550,7624.121203,14938.862211
20118.332016,9252.574275,0.000000,7277.907231
20118.332349,5181.441594,-3775.050304,-3983.696590
20118.332682,1406.391290,-14137.933492,-12257.527968
20118.333015,-3330.926739,-20429.683999,-18845.949251
20118.333348,-5403.503377,-30200.402434,-17543.586904
20118.333682,-8068.244768,-26129.269753,-16547.662757
20118.334015,-9474.636058,-24204.734303,-5745.716235
20118.334348,-4811.338623,-17764.942608,2374.896044
20118.334681,-666.185348,-6513.812290,9806.022374
20118.335014,6513.812290,1332.370696,19535.435199
20118.335348,8808.450710,9844.739029,20684.578446
20118.335681,9696.697840,10066.800811,17007.320056
20118.336014,10436.903782,5625.565159,11874.480219
20118.336347,8068.244768,0.000000,4519.963438
20118.336681,3108.864956,-7772.162391,-7584.345430
20118.337014,-3256.906145,-15618.345376,-17160.539155
20118.337347,-6809.894666,-24796.899057,-21067.626195
20118.337680,-10510.924376,-29238.134709,-18999.168350
20118.338013,-9474.636058,-27535.661042,-10495.508323
20118.338347,-8512.368333,-21317.931130,-4979.620737
20118.338680,-4811.338623,-11991.336260,3677.258390
20118.339013,888.247130,-4145.153275,15551.738609
20118.339346,5847.626942,5921.647536,19535.435199
20118.339680,10436.903782,10436.903782,21374.064394
20118.340013,10584.944971,9326.594869,17160.539155
20118.340346,7846.182985,4367.215058,8886.707777
20118.340679,4737.318029,-3627.009116,-1225.752797
20118.341012,-296.082377,-10288.862594,-9882.631924
20118.341346,-5403.503377,-18801.230927,-21297.454844
20118.341679,-9178.553681,-25537.104999,-23748.960438
20118.342012,-12435.459826,-29386.175897,-16011.395908
20118.342345,-12435.459826,-25833.187376,-11031.775171
20118.342678,-8216.285956,-19689.478057,536.266849
20118.343012,-3775.050304,-9622.677246,10418.898773
20118.343345,3404.947333,1184.329507,18999.168350
20118.343678,10584.944971,7105.977043,24438.446386
20118.344011,10955.047942,11991.336260,21910.331243
20118.344345,10584.944971,9400.615463,11644.651570
20118.344678,8290.306550,2294.638420,5822.325785
20118.345011,6957.935855,-5181.441594,-4366.744339
20118.345344,-1998.556043,-15396.283594,-16241.224558
20118.345677,-6735.874072,-22946.384202,-23595.741338
20118.346011,-11029.068536,-30866.587781,-22063.550342
20118.346344,-9918.759623,-29830.299463,-14555.814462
20118.346677,-9474.636058,-21391.951724,-4903.011187
20118.347010,-3330.926739,-17468.860231,6665.030833
20118.347343,0.000000,-3034.844362,12563.966167
20118.347677,8882.471304,2368.659014,23825.569988
20118.348010,12657.521608,11251.130318,21757.112143
20118.348343,10658.965565,11843.295072,17160.539155
20118.348676,9622.677246,5847.626942,9806.022374
20118.349010,6735.874072,740.205942,-1378.971896
20118.349343,74.020594,-9252.574275,-11951.089769
20118.349676,-3552.988522,-17542.880825,-21297.454844
20118.350009,-7179.997637,-27535.661042,-25204.541884
20118.350342,-10658.965565,-30866.587781,-18462.901502
20118.350676,-9548.656652,-29904.320057,-8044.002729
20118.351009,-7179.997637,-21614.013506,-1532.190996
20118.351342,-3330.926739,-10881.027347,10725.336972
20118.351675,5625.565159,518.144159,20531.359346
20118.352009,10658.965565,7920.203579,24668.275036
20118.352342,10955.047942,11769.274478,22063.550342
20118.352675,11251.130318,9696.697840,14709.033562
20118.353008,7624.121203,4737.318029,5056.230287
20118.353341,3849.070898,-2812.782580,-5669.106685
20118.353675,-2146.597232,-12509.480420,-16624.272307
20118.354008,-7846.182985,-22946.384202,-23672.350888
20118.354341,-11547.212695,-28497.928767,-23902.179538
20118.354674,-11325.150913,-30792.567187,-17237.148705
20118.355007,-10214.842000,-24056.693115,-6128.763984
20118.355341,-5107.421000,-18949.272115,4826.401637
20118.355674,2294.638420,-7105.977043,14632.424012
20118.356007,5921.647536,4663.297435,22676.426741
20118.356340,10436.903782,9474.636058,23289.303139
20118.356674,11177.109724,11399.171507,19075.777900
20118.357007,8586.388927,6883.915261,11721.261119
20118.357340,5329.482782,2590.720797,1991.848295
20118.357673,1110.308913,-6513.812290,-11261.603821
20118.358006,-5921.647536,-14285.974681,-22676.426741
20118.358340,-9474.636058,-24352.775492,-22676.426741
20118.358673,-9548.656652,-30792.567187,-20301.530697
20118.359006,-11251.130318,-29682.258274,-11568.042020
20118.359339,-8216.285956,-24056.693115,-2221.676944
20118.359672,-2516.700203,-14285.974681,9193.145976
20118.360006,4589.276840,-3256.906145,19535.435199
20118.360339,10288.862594,3552.988522,24132.008187
20118.360672,12953.603985,14063.912898,18692.730151
20118.361005,11843.295072,9474.636058,18769.339701
20118.361339,11769.274478,4737.318029,9729.412825
20118.361672,5847.626942,-74.020594,-3677.258390
20118.362005,1702.473667,-11547.212695,-14172.766713
20118.362338,-5773.606348,-19097.313304,-22676.426741
20118.362671,-9178.553681,-28719.990550,-23748.960438
20118.363005,-9474.636058,-31606.793723,-18462.901502
20118.363338,-10066.800811,-28497.928767,-9652.803275
20118.363671,-5921.647536,-19023.292709,0.000000
20118.364004,1184.329507,-11325.150913,16777.491406
20118.364338,9400.615463,2072.576638,21986.940793
20118.364671,12361.439231,9992.780217,23289.303139
20118.365004,13989.892304,10658.965565,21986.940793
20118.365337,11547.212695,9992.780217,14249.376263
20118.365670,6069.688724,4663.297435,2757.943793
20118.366004,888.247130,-4663.297435,-9959.241474
20118.366337,-5477.523971,-11917.315666,-21297.454844
20118.366670,-8290.306550,-23834.631332,-24361.836836
20118.367003,-9252.574275,-29312.155303,-22369.988542
20118.367336,-10362.883188,-32717.102636,-15398.519510
20118.367670,-7994.224174,-26721.434506,-2757.943793
20118.368003,-1258.350101,-19763.498651,9729.412825
20118.368336,4663.297435,-3627.009116,17160.539155
20118.368669,10955.047942,3034.844362,24515.055936
20118.369003,14730.098246,7698.141797,25051.322785
20118.369336,11991.336260,12657.521608,19612.044749
20118.369669,9400.615463,6217.729913,10648.727422
20118.370002,3997.112087,740.205942,-3064.381992
20118.370335,-2590.720797,-8290.306550,-14479.204912
20118.370669,-7031.956449,-17764.942608,-22753.036291
20118.371002,-13027.624579,-25833.187376,-24055.398637
20118.371335,-13101.645173,-29238.134709,-22063.550342
20118.371668,-11029.068536,-31384.731941,-9882.631924
20118.372001,-5995.668130,-23094.425390,4213.525239
20118.372335,-666.185348,-11547.212695,13406.671215
20118.372668,4737.318029,-1480.411884,21374.064394
20118.373001,7698.141797,7105.977043,22676.426741
20118.373334,9474.636058,12361.439231,21144.235745
20118.373668,9474.636058,10362.883188,14785.643111
20118.374001,6809.894666,4071.132681,6052.154434
20118.374334,-2368.659014,-2442.679609,-9806.022374
20118.374667,-5625.565159,-13619.789333,-17850.025103
20118.375000,-8956.491898,-21910.095883,-24285.227287
20118.375334,-10584.944971,-27757.722825,-22982.864940
20118.375667,-9696.697840,-32272.979071,-15168.690860
20118.376000,-7772.162391,-26573.393318,-3907.087040
20118.376333,-2590.720797,-17098.757260,8273.831378
20118.376667,3404.947333,-6513.812290,17160.539155
20118.377000,9400.615463,1184.329507,21986.940793
20118.377333,9474.636058,8512.368333,24438.446386
20118.377666,14137.933492,9474.636058,18309.682402
20118.377999,7920.203579,8660.409521,8273.831378
20118.378333,4737.318029,1702.473667,0.000000
20118.378666,-370.102971,-6365.771101,-12257.527968
20118.378999,-3034.844362,-15470.304188,-19612.044749
20118.379332,-5847.626942,-25463.084405,-21833.721693
20118.379665,-7698.141797,-31680.814318,-17850.025103
20118.379999,-6735.874072,-28794.011144,-12257.527968
20118.380332,-2960.823768,-23686.590144,3600.648841
20118.380665,2146.597232,-12879.583391,10265.679673
20118.380998,3552.988522,-666.185348,19612.044749
20118.381332,9474.636058,4367.215058,23289.303139
20118.381665,11103.089130,12657.521608,18692.730151
20118.381998,10510.924376,9474.636058,13406.671215
20118.382331,5625.565159,5255.462188,4290.134789
20118.382664,1998.556043,-1702.473667,-6052.154434
20118.382998,-1258.350101,-9548.656652,-15628.348159
20118.383331,-4515.256246,-18283.086767,-20607.968896
20118.383664,-8216.285956,-27979.784608,-19688.654299
20118.383997,-8068.244768,-31088.649564,-14862.252661
20118.384330,-5403.503377,-26943.496289,-3753.867940
20118.384664,-3923.091493,-20133.601622,3524.039291
20118.384997,0.000000,-7772.162391,9806.022374
20118.385330,2960.823768,-370.102971,20378.140247
20118.385663,9400.615463,7698.141797,19841.873398
20118.385997,7105.977043,12953.603985,18386.291952
20118.386330,5847.626942,7994.224174,9882.631924
20118.386663,3552.988522,3923.091493,689.485948
20118.386996,-1036.288319,-5477.523971,-7890.783629
20118.387329,-2442.679609,-12731.542202,-17237.148705
20118.387663,-5995.668130,-23094.425390,-22369.988542
20118.387996,-7698.141797,-30052.361245,-16317.834107
20118.388329,-5921.647536,-29682.258274,-8656.879127
20118.388662,-5403.503377,-24870.919651,-2221.676944
20118.388996,-3034.844362,-16432.571912,7890.783629
20118.389329,592.164754,-7105.977043,14325.985813
20118.389662,6365.771101,3256.906145,19612.044749
20118.389995,8808.450710,9844.739029,19535.435199
20118.390328,6513.812290,12657.521608,13789.718964
20118.390662,5255.462188,7031.956449,3677.258390
20118.390995,2072.576638,-2072.576638,-383.047749
20118.391328,-74.020594,-6365.771101,-11951.089769
20118.391661,-5107.421000,-16950.716072,-18079.853753
20118.391994,-7920.203579,-26055.249158,-19688.654299
20118.392328,-8882.471304,-28794.011144,-16394.443657
20118.392660,-7476.080014,-26869.475695,-7814.174080
20118.392994,-4811.338623,-20429.683999,842.705048
20118.393327,-2220.617826,-13027.624579,8656.879127
20118.393660,2590.720797,-1850.514855,15934.786358
20118.393993,8808.450710,2960.823768,19535.435199
20118.394327,6809.894666,12361.439231,17160.539155
20118.394660,8956.491898,7402.059420,12257.527968
20118.394993,6365.771101,4663.297435,3677.258390
20118.395326,5477.523971,-1850.514855,-3447.429741
20118.395660,814.226536,-12139.377449,-12640.575717
20118.395993,-3034.844362,-23686.590144,-17237.148705
20118.396326,-4811.338623,-27535.661042,-18616.120601
20118.396660,-7105.977043,-28794.011144,-12257.527968
20118.396993,-2442.679609,-26055.249158,-3753.867940
20118.397326,-3034.844362,-16950.716072,2757.943793
20118.397659,296.082377,-6587.832884,10418.898773
20118.397993,4737.318029,814.226536,16241.224558
20118.398326,8660.409521,7550.100608,18156.463303
20118.398659,8808.450710,10066.800811,14019.547613
20118.398992,6365.771101,5847.626942,9116.536426
20118.399326,4663.297435,1184.329507,1149.143247
20118.399659,1702.473667,-7402.059420,-6818.249932
20118.399992,-2442.679609,-16284.530724,-15015.471761
20118.400326,-4663.297435,-22798.343014,-19075.777900
20118.400659,-6217.729913,-28423.908173,-15704.957709
20118.400992,-4219.173869,-27239.578666,-8044.002729
20118.401325,-7105.977043,-21984.116477,-2451.505594
20118.401659,-1258.350101,-17172.777854,6052.154434
20118.401992,0.000000,-3627.009116,12563.966167
20118.402325,2960.823768,3478.967927,19612.044749
20118.402658,8216.285956,8290.306550,17083.929605
20118.402992,6069.688724,8142.265362,13100.233016
20118.403325,5625.565159,5477.523971,7737.564530
20118.403658,4219.173869,-1406.391290,229.828649
20118.403992,222.061783,-8290.306550,-9882.631924
20118.404325,-3552.988522,-18431.127956,-14785.643111
20118.404658,-4811.338623,-27831.743419,-17237.148705
20118.404991,-7179.997637,-26129.269753,-14709.033562
20118.405325,-6809.894666,-27979.784608,-5745.716235
20118.405658,-5403.503377,-17987.004391,-2145.067394
20118.405991,-3775.050304,-12287.418637,7584.345430
20118.406325,1776.494261,-1776.494261,14172.766713
20118.406658,5181.441594,5033.400406,17620.196454
20118.406991,4737.318029,10584.944971,15934.786358
20118.407324,6513.812290,6291.750507,14632.424012
20118.407658,4663.297435,2220.617826,3907.087040
20118.407991,1184.329507,-1258.350101,-2451.505594
20118.408324,-74.020594,-13027.624579,-10189.070123
20118.408657,-4737.318029,-19911.539840,-17160.539155
20118.408991,-3775.050304,-25981.228564,-16930.710506
20118.409324,-7105.977043,-29238.134709,-12257.527968
20118.409657,-5403.503377,-24056.693115,-5898.935335
20118.409991,-5033.400406,-17172.777854,3064.381992
20118.410324,-74.020594,-11843.295072,9116.536426
20118.410657,3775.050304,888.247130,14709.033562
20118.410990,7105.977043,6439.791695,18386.291952
20118.411324,9104.533087,9474.636058,17083.929605
20118.411657,7254.018232,8216.285956,11031.775171
20118.411990,7476.080014,1776.494261,3830.477490
20118.412323,4959.379811,-6439.791695,-4673.182538
20118.412657,814.226536,-15100.201217,-13866.328514
20118.412990,-2294.638420,-22428.240043,-18386.291952
20118.413323,-5847.626942,-29016.072926,-18079.853753
20118.413657,-7031.956449,-29238.134709,-13100.233016
20118.413990,-6661.853478,-22354.219448,-5362.668486
20118.414323,-4811.338623,-14804.118840,1149.143247
20118.414656,-740.205942,-4219.173869,11338.213370
20118.414990,5921.647536,1776.494261,19228.997000
20118.415323,10584.944971,7105.977043,21374.064394
20118.415656,9104.533087,12361.439231,14709.033562
20118.415989,9104.533087,5329.482782,10955.165621
20118.416323,4441.235652,-666.185348,1532.190996
20118.416656,2442.679609,-8734.430116,-9346.365076
20118.416989,-1850.514855,-16432.571912,-16547.662757
20118.417323,-7105.977043,-24944.940245,-20837.797546
20118.417656,-5995.668130,-29608.237680,-19612.044749
20118.417989,-9474.636058,-29016.072926,-9882.631924
20118.418322,-8364.327145,-21021.848753,-4060.306139
20118.418656,-5107.421000,-13397.727550,5669.106685
20118.418989,0.000000,-3034.844362,14709.033562
20118.419322,5329.482782,6439.791695,20531.359346
20118.419655,9326.594869,12435.459826,20224.921147
20118.419989,10881.027347,10881.027347,16471.053207
20118.420322,9104.533087,2368.659014,11414.822920
20118.420655,5847.626942,-814.226536,-2451.505594
20118.420989,2294.638420,-13619.789333,-10495.508323
20118.421322,-4811.338623,-19615.457463,-21757.112143
20118.421655,-8734.430116,-28497.928767,-21757.112143
20118.421988,-9548.656652,-31680.814318,-16394.443657
20118.422322,-8882.471304,-25907.207970,-9116.536426
20118.422655,-7994.224174,-19097.313304,1532.190996
20118.422988,-1702.473667,-8660.409521,11031.775171
20118.423322,3330.926739,2368.659014,17083.929605
20118.423655,7698.141797,9400.615463,24438.446386
20118.423988,11177.109724,13249.686362,19612.044749
20118.424321,10140.821405,10584.944971,13483.280765
20118.424655,8438.347739,1628.453072,6511.811733
20118.424988,4663.297435,-5921.647536,-6818.249932
20118.425321,-1258.350101,-14508.036463,-17237.148705
20118.425654,-6143.709319,-23982.672521,-22829.645840
20118.425988,-9252.574275,-30718.546593,-21833.721693
20118.426321,-11399.171507,-30200.402434,-15858.176809
20118.426654,-8956.491898,-26055.249158,-5592.497135
20118.426988,-7402.059420,-15470.304188,4903.011187
20118.427321,888.247130,-5847.626942,17696.806004
20118.427654,9400.615463,5921.647536,20761.187996
20118.427987,11177.109724,11843.295072,21986.940793
20118.428321,12953.603985,11843.295072,18156.463303
20118.428654,8290.306550,5773.606348,11108.384721
20118.428987,6587.832884,518.144159,-612.876398
20118.429320,3182.885551,-9030.512492,-10495.508323
20118.429654,-2368.659014,-18949.272115,-19688.654299
20118.429987,-6957.935855,-28942.052332,-22829.645840
20118.430320,-9992.780217,-32272.979071,-19152.387450
20118.430654,-9992.780217,-28497.928767,-11721.261119
20118.430987,-8290.306550,-21391.951724,0.000000
20118.431320,-2368.659014,-12583.501014,10878.556072
20118.431653,4663.297435,-3552.988522,19535.435199
20118.431987,9104.533087,9104.533087,22063.550342
20118.432320,12139.377449,13175.665768,23519.131789
20118.432653,11769.274478,10955.047942,15245.300410
20118.432986,6735.874072,4811.338623,6281.983084
20118.433320,3034.844362,-2368.659014,-5669.106685
20118.433653,-3330.926739,-12361.439231,-16930.710506
20118.433986,-8290.306550,-20947.828159,-23902.179538
20118.434320,-10658.965565,-30792.567187,-21527.283494
20118.434653,-11917.315666,-30274.423028,-18386.291952
20118.434986,-9548.656652,-24944.940245,-9806.022374
20118.435319,-7105.977043,-20429.683999,4213.525239
20118.435653,-2442.679609,-6143.709319,12257.527968
20118.435986,6957.935855,2072.576638,22446.598091
20118.436319,11621.233289,10955.047942,25127.932334
20118.436653,11399.171507,13249.686362,21450.673944
20118.436986,11769.274478,7698.141797,14632.424012
20118.437319,8216.285956,1184.329507,3600.648841
20118.437652,222.061783,-4811.338623,-10725.336972
20118.437986,-2960.823768,-15026.180623,-21450.673944
20118.438319,-8512.368333,-28423.908173,-23978.789087
20118.438652,-11843.295072,-31754.834912,-22063.550342
20118.438985,-11695.253884,-31384.731941,-14709.033562
20118.439319,-8068.244768,-24204.734303,-3753.867940
20118.439652,-3552.988522,-14434.015869,9039.926876
20118.439985,4663.297435,-2368.659014,19075.777900
20118.440319,12361.439231,5921.647536,23825.569988
20118.440652,10584.944971,13545.768739,22063.550342
20118.440985,13767.830521,9474.636058,17696.806004
20118.441318,10140.821405,6513.812290,8503.660028
20118.441652,6143.709319,-1628.453072,-1915.238745
20118.441985,0.000000,-8808.450710,-14709.033562
20118.442318,-6291.750507,-19319.375086,-23519.131789
20118.442651,-9474.636058,-29016.072926,-24898.103685
20118.442985,-12879.583391,-30866.587781,-19612.044749
20118.443318,-10732.986159,-27017.516883,-11951.089769
20118.443651,-7550.100608,-22872.363608,1532.190996
20118.443985,1406.391290,-11843.295072,14325.985813
20118.444318,6069.688724,2294.638420,22063.550342
20118.444651,11769.274478,8290.306550,25051.322785
20118.444984,12435.459826,12953.603985,21757.112143
20118.445318,11695.253884,9622.677246,15092.081311
20118.445651,7254.018232,5255.462188,4060.306139
20118.445984,1776.494261,-3627.009116,-8886.707777
20118.446317,-4219.173869,-13175.665768,-20761.187996
20118.446651,-7698.141797,-24204.734303,-24668.275036
20118.446984,-10214.842000,-31162.670158,-22063.550342
20118.447317,-9918.759623,-31754.834912,-14709.033562
20118.447651,-9474.636058,-25241.022622,-4903.011187
20118.447984,-3034.844362,-16580.613101,7277.907231
20118.448317,3034.844362,-3182.885551,18079.853753
20118.448650,8586.388927,4515.256246,24515.055936
20118.448984,14137.933492,9474.636058,24438.446386
20118.449317,10955.047942,12657.521608,19612.044749
20118.449650,7550.100608,7920.203579,9882.631924
20118.449983,3108.864956,1480.411884,-2911.162892
20118.450317,-3997.112087,-9252.574275,-15398.519510
20118.450650,-7105.977043,-17838.963202,-23902.179538
20118.450983,-9844.739029,-25833.187376,-25740.808733
20118.451317,-11547.212695,-29682.258274,-19612.044749
20118.451650,-10658.965565,-31236.690752,-9269.755526
20118.451983,-6587.832884,-22502.260637,536.266849
20118.452316,0.000000,-11399.171507,14632.424012
20118.452650,5921.647536,-370.102971,21986.940793
20118.452983,10436.903782,6291.750507,24438.446386
20118.453316,10732.986159,12361.439231,20531.359346
20118.453650,10584.944971,9474.636058,14632.424012
20118.453983,5847.626942,8068.244768,2451.505594
20118.454316,1332.370696,-3775.050304,-8580.269578
20118.454649,-2516.700203,-13619.789333,-18156.463303
20118.454983,-9474.636058,-20503.704593,-24515.055936
20118.455316,-8956.491898,-30052.361245,-22906.255390
20118.455649,-9918.759623,-32346.999665,-15168.690860
20118.455982,-6809.894666,-26203.290347,-3370.820191
20118.456316,-2220.617826,-16580.613101,8197.221829
20118.456649,3627.009116,-5625.565159,16777.491406
20118.456982,5329.482782,4367.215058,23289.303139
20118.457316,10955.047942,6217.729913,23212.693589
20118.457649,10584.944971,11843.295072,15858.176809
20118.457982,5921.647536,9400.615463,9806.022374
20118.458315,4367.215058,1184.329507,-1915.238745
20118.458649,-1332.370696,-7105.977043,-12870.404366
20118.458982,-4589.276840,-15396.283594,-20607.968896
20118.459315,-6291.750507,-24500.816680,-22906.255390
20118.459648,-7179.997637,-31976.896694,-18003.244203
20118.459982,-7698.141797,-30422.464216,-9959.241474
20118.460315,-4811.338623,-22650.301825,612.876398
20118.460648,-370.102971,-12953.603985,10725.336972
20118.460982,4737.318029,-3923.091493,19612.044749
20118.461315,11177.109724,3552.988522,21986.940793
20118.461648,8438.347739,12361.439231,20837.797546
20118.461981,7105.977043,11769.274478,16547.662757
20118.462315,7031.956449,5921.647536,5439.278036
20118.462648,592.164754,-74.020594,-7048.078582
20118.462981,-1110.308913,-10658.965565,-13866.328514
20118.463314,-5477.523971,-18949.272115,-20607.968896
20118.463648,-7994.224174,-27387.619854,-22293.378992
20118.463981,-7772.162391,-33161.226202,-16011.395908
20118.464314,-7328.038826,-29312.155303,-6205.373534
20118.464648,-4367.215058,-17987.004391,3064.381992
20118.464981,2072.576638,-10288.862594,15321.909960
20118.465314,7031.956449,-1776.494261,20148.311597
20118.465647,10288.862594,7402.059420,22982.864940
20118.465981,10584.944971,13027.624579,18233.072852
20118.466314,7254.018232,9030.512492,12027.699319
20118.466647,3404.947333,3849.070898,612.876398
20118.466981,-962.267725,-3330.926739,-9039.926876
20118.467314,-3108.864956,-14656.077652,-16011.395908
20118.467647,-9474.636058,-21391.951724,-21757.112143
20118.467980,-6291.750507,-29904.320057,-18462.901502
20118.468314,-9548.656652,-33161.226202,-12947.013916
20118.468647,-5699.585753,-22650.301825,-3140.991542
20118.468980,-3330.926739,-16580.613101,7048.078582
20118.469313,1554.432478,-7105.977043,14709.033562
20118.469647,7624.121203,3627.009116,21833.721693
20118.469980,7105.977043,9400.615463,20837.797546
20118.470313,11769.274478,13175.665768,14632.424012
20118.470647,5329.482782,5921.647536,7354.516781
20118.470980,6439.791695,0.000000,-1915.238745
20118.471313,-1924.535449,-7179.997637,-10725.336972
20118.471646,-4737.318029,-16062.468941,-19612.044749
20118.471980,-7476.080014,-25685.146187,-21450.673944
20118.472313,-8586.388927,-32421.020260,-16011.395908
20118.472646,-6513.812290,-27535.661042,-8656.879127
20118.472979,-3775.050304,-21910.095883,2374.896044
20118.473313,-2368.659014,-10732.986159,11644.651570
20118.473646,5847.626942,-1776.494261,17083.929605
20118.473979,7698.141797,9400.615463,17773.415554
20118.474313,9474.636058,10584.944971,21833.721693
20118.474646,7994.224174,9178.553681,12947.013916
20118.474979,4885.359217,3627.009116,3600.648841
20118.475312,148.041188,-3849.070898,-5132.839837
20118.475646,-2886.803174,-11399.171507,-15628.348159
20118.475979,-5995.668130,-21317.931130,-20301.530697
20118.476312,-7698.141797,-27905.764013,-18845.949251
20118.476645,-6069.688724,-28497.928767,-13789.718964
20118.476979,-4885.359217,-25833.187376,-3217.601092
20118.477312,-4293.194464,-17987.004391,3983.696590
20118.477645,2294.638420,-10658.965565,14019.547613
20118.477979,3552.988522,1554.432478,19612.044749
20118.478312,9474.636058,7328.038826,23212.693589
20118.478645,8216.285956,11843.295072,14172.766713
20118.478978,4737.318029,7031.956449,8273.831378
20118.479312,4441.235652,0.000000,2068.457845
20118.479645,3108.864956,-5107.421000,-7124.688131
20118.479978,-1184.329507,-15322.262999,-14785.643111
20118.480311,-6069.688724,-24944.940245,-19458.825649
20118.480645,-6587.832884,-28423.908173,-19228.997000
20118.480978,-7994.224174,-27313.599260,-9806.022374
20118.481311,-3775.050304,-22946.384202,-76.609550
20118.481645,-666.185348,-14211.954086,6052.154434
20118.481978,592.164754,-4219.173869,14096.157163
20118.482311,7624.121203,3552.988522,18309.682402
20118.482644,7402.059420,9844.739029,18999.168350
20118.482978,7105.977043,9844.739029,12104.308868
20118.483311,4885.359217,5181.441594,6205.373534
20118.483644,2664.741391,-74.020594,-2451.505594
20118.483978,0.000000,-8364.327145,-9039.926876
20118.484311,-3034.844362,-19541.436869,-17696.806004
20118.484644,-5847.626942,-23760.610738,-21374.064394
20118.484977,-5921.647536,-28942.052332,-12410.747068
20118.485311,-6143.709319,-24944.940245,-8273.831378
20118.485644,-6291.750507,-20133.601622,-612.876398
20118.485977,-4367.215058,-11917.315666,7507.735880
20118.486310,1480.411884,-1554.432478,14785.643111
20118.486644,7031.956449,5403.503377,20531.359346
20118.486977,7994.224174,9992.780217,19535.435199
20118.487310,8216.285956,8882.471304,11261.603821
20118.487644,5921.647536,5255.462188,7048.078582
20118.487977,5033.400406,-3701.029710,-1302.362347
20118.488310,0.000000,-12509.480420,-10878.556072
20118.488643,-2442.679609,-21910.095883,-18769.339701
20118.488977,-6587.832884,-28794.011144,-18845.949251
20118.489310,-7328.038826,-30052.361245,-14096.157163
20118.489643,-6587.832884,-24870.919651,-7124.688131
20118.489976,-2442.679609,-18357.107362,2987.772442
20118.490310,0.000000,-5107.421000,9116.536426
20118.490643,2368.659014,2294.638420,19458.825649
20118.490976,8216.285956,7698.141797,19535.435199
20118.491310,5921.647536,11177.109724,16700.881856
20118.491643,7254.018232,8512.368333,10112.460574
20118.491976,5625.565159,1850.514855,3064.381992
20118.492309,3330.926739,-7624.121203,-4903.011187
20118.492643,-666.185348,-15396.283594,-13559.890315
20118.492976,-3997.112087,-23464.528361,-18616.120601
20118.493309,-5477.523971,-28053.805202,-17237.148705
20118.493642,-7402.059420,-29312.155303,-11721.261119
20118.493976,-7105.977043,-22798.343014,-4060.306139
20118.494309,-4811.338623,-16580.613101,4519.963438
20118.494642,-3552.988522,-5403.503377,14479.204912
20118.494975,5847.626942,4737.318029,17390.367805
20118.495309,7105.977043,11769.274478,18386.291952
20118.495642,8290.306550,12953.603985,16241.224558
20118.495975,8216.285956,6365.771101,8427.050478
20118.496308,5477.523971,-1554.432478,1302.362347
20118.496642,592.164754,-8956.491898,-9806.022374
20118.496975,-2442.679609,-19393.395680,-17543.586904
20118.497308,-5403.503377,-26055.249158,-19995.092498
20118.497641,-8438.347739,-28497.928767,-17773.415554
20118.497975,-7698.141797,-28127.825796,-8350.440928
20118.498308,-5107.421000,-21317.931130,-76.609550
20118.498641,-3627.009116,-11547.212695,6741.640382
20118.498974,296.082377,-1258.350101,16241.224558
20118.499308,6365.771101,5773.606348,19612.044749
20118.499641,7698.141797,10658.965565,20148.311597
20118.499974,7994.224174,9400.615463,14709.033562
20118.500307,5921.647536,4663.297435,6128.763984
20118.500641,6439.791695,-5329.482782,-1608.800546
20118.500974,-370.102971,-11251.130318,-13713.109414
20118.501307,-5921.647536,-19911.539840,-18692.730151
20118.501640,-5403.503377,-29608.237680,-19688.654299
20118.501974,-8586.388927,-30718.546593,-15168.690860
20118.502307,-8660.409521,-24944.940245,-8197.221829
20118.502640,-7031.956449,-17838.963202,306.438199
20118.502973,-1554.432478,-8438.347739,11031.775171
20118.503307,4737.318029,1702.473667,20531.359346
20118.503640,9400.615463,9474.636058,19228.997000
20118.503973,10066.800811,11473.192101,19688.654299
20118.504306,12361.439231,6069.688724,14632.424012
20118.504639,8808.450710,0.000000,4826.401637
20118.504973,3849.070898,-6883.915261,-4596.572988
20118.505306,0.000000,-14804.118840,-15398.519510
20118.505639,-4959.379811,-24130.713709,-20607.968896
20118.505972,-7105.977043,-28942.052332,-20454.749797
20118.506306,-10658.965565,-28497.928767,-12870.404366
20118.506639,-7698.141797,-20947.828159,-6665.030833
20118.506972,-5107.421000,-14804.118840,4213.525239
20118.507305,74.020594,-4737.318029,12180.918418
20118.507639,4663.297435,4441.235652,17620.196454
20118.507972,7698.141797,10584.944971,21144.235745
20118.508305,12065.356855,9770.718434,17083.929605
20118.508638,8216.285956,5329.482782,8580.269578
20118.508972,5921.647536,-814.226536,1532.190996
20118.509305,3478.967927,-10362.883188,-7431.126331
20118.509638,-1998.556043,-17616.901420,-17696.806004
20118.509971,-5107.421000,-25611.125593,-20914.407095
20118.510305,-9178.553681,-31162.670158,-18539.511052
20118.510638,-9474.636058,-26425.352129,-12257.527968
20118.510971,-11843.295072,-19615.457463,-2451.505594
20118.511304,-3034.844362,-14211.954086,6665.030833
20118.511638,666.185348,-296.082377,15092.081311
20118.511971,7402.059420,8512.368333,22063.550342
20118.512304,9696.697840,14063.912898,21067.626195
20118.512637,10066.800811,9474.636058,16700.881856
20118.512971,8216.285956,4219.173869,7431.126331
