#time,accel_x,accel_y,accel_z
22451.839634,5847.626942,-7105.977043,1991.848295
22451.839967,3404.947333,-8068.244768,0.000000
22451.840301,3182.885551,-8586.388927,-2145.067394
22451.840634,1998.556043,-8734.430116,-4443.353888
22451.840967,1406.391290,-10658.965565,-4979.620737
22451.841301,3478.967927,-11843.295072,-2528.115143
22451.841634,6439.791695,-10658.965565,-2681.334243
22451.841968,6513.812290,-8364.327145,1838.629195
22451.842301,10066.800811,-10881.027347,5669.106685
22451.842634,9474.636058,-8364.327145,4290.134789
22451.842968,11843.295072,-8216.285956,4596.572988
22451.843301,11769.274478,-8290.306550,3907.087040
22451.843635,10658.965565,-8068.244768,1685.410096
22451.843968,7105.977043,-7772.162391,-2451.505594
22451.844302,9400.615463,-11843.295072,-2528.115143
22451.844635,5995.668130,-10658.965565,-3753.867940
22451.844968,4737.318029,-9548.656652,-3677.258390
22451.845302,7031.956449,-12435.459826,-2528.115143
22451.845635,5847.626942,-11917.315666,-383.047749
22451.845969,4441.235652,-11103.089130,995.924147
22451.846302,5181.441594,-10214.842000,3140.991542
22451.846635,6439.791695,-9400.615463,4826.401637
22451.846969,8808.450710,-8290.306550,8810.098227
22451.847302,10584.944971,-4737.318029,6052.154434
22451.847636,7402.059420,-3923.091493,6128.763984
22451.847969,9400.615463,-8290.306550,3600.648841
22451.848302,6439.791695,-6217.729913,-4366.744339
22451.848636,5477.523971,-9178.553681,-3907.087040
22451.848969,6957.935855,-9474.636058,-6128.763984
22451.849303,5847.626942,-11177.109724,-6971.469032
22451.849636,6587.832884,-12213.398043,-5132.839837
22451.849970,10584.944971,-13915.871710,-76.609550
22451.850303,9992.780217,-11029.068536,919.314598
22451.850636,11325.150913,-11029.068536,2604.724693
22451.850970,10436.903782,-9992.780217,4903.011187
22451.851303,9474.636058,-6587.832884,5056.230287
22451.851637,11251.130318,-5551.544565,6435.202183
22451.851970,13545.768739,-5921.647536,4826.401637
22451.852303,11177.109724,-4441.235652,0.000000
22451.852637,7698.141797,-7920.203579,766.095498
22451.852970,6143.709319,-9474.636058,-3753.867940
22451.853304,1776.494261,-11177.109724,-6358.592633
22451.853637,1776.494261,-10881.027347,-6358.592633
22451.853971,3034.844362,-11473.192101,-2911.162892
22451.854304,6809.894666,-10362.883188,0.000000
22451.854637,7105.977043,-7179.997637,4290.134789
22451.854971,15026.180623,-8290.306550,5439.278036
22451.855304,14137.933492,-8290.306550,5439.278036
22451.855638,11547.212695,-5995.668130,2757.943793
22451.855971,10658.965565,-7920.203579,-1532.190996
22451.856304,9548.656652,-7994.224174,-2987.772442
22451.856638,8142.265362,-8586.388927,-2987.772442
22451.856971,7031.956449,-10807.006753,-4136.915689
22451.857305,5255.462188,-12435.459826,-3140.991542
22451.857638,6513.812290,-11695.253884,-76.609550
22451.857971,11769.274478,-9474.636058,1838.629195
22451.858305,14211.954086,-6291.750507,6741.640382
22451.858638,18357.107362,-8512.368333,8503.660028
22451.858972,16802.674883,-6809.894666,6358.592633
22451.859305,14137.933492,-7031.956449,2145.067394
22451.859639,13175.665768,-8216.285956,612.876398
22451.859972,8882.471304,-11103.089130,-3524.039291
22451.860305,2368.659014,-11029.068536,-7354.516781
22451.860639,5255.462188,-11843.295072,-6511.811733
22451.860972,6069.688724,-5995.668130,-4596.572988
22451.861306,9474.636058,-6143.709319,1991.848295
22451.861639,13545.768739,-8882.471304,4060.306139
22451.861972,11991.336260,-6291.750507,4596.572988
22451.862306,12731.542202,-9252.574275,5822.325785
22451.862639,13027.624579,-8882.471304,3600.648841
22451.862973,14804.118840,-7476.080014,2604.724693
22451.863306,14804.118840,-9178.553681,2374.896044
22451.863639,13545.768739,-6587.832884,-2451.505594
22451.863973,10066.800811,-10288.862594,-1915.238745
22451.864306,8808.450710,-15026.180623,-1915.238745
22451.864640,5255.462188,-10288.862594,-5515.887586
22451.864973,4145.153275,-7179.997637,-3064.381992
22451.865307,7698.141797,-9918.759623,229.828649
22451.865640,8808.450710,-6513.812290,1532.190996
22451.865973,12139.377449,-7105.977043,5592.497135
22451.866307,15322.262999,-9178.553681,10342.289223
22451.866640,11917.315666,-7772.162391,6128.763984
22451.866974,11251.130318,-7254.018232,2757.943793
22451.867307,11473.192101,-6587.832884,-995.924147
22451.867640,8956.491898,-8586.388927,-4443.353888
22451.867974,7254.018232,-9252.574275,-5515.887586
22451.868307,4663.297435,-12139.377449,-7354.516781
22451.868641,6291.750507,-9548.656652,-6128.763984
22451.868974,7698.141797,-9918.759623,76.609550
22451.869308,12657.521608,-10658.965565,2374.896044
22451.869641,9474.636058,-7920.203579,3600.648841
22451.869974,12139.377449,-10436.903782,5056.230287
22451.870308,13175.665768,-7624.121203,7890.783629
22451.870641,15914.427753,-4737.318029,6511.811733
22451.870975,14137.933492,-9474.636058,6665.030833
22451.871308,9400.615463,-6883.915261,-2451.505594
22451.871641,4737.318029,-13397.727550,-4903.011187
22451.871975,5921.647536,-8438.347739,-3753.867940
22451.872308,8808.450710,-9474.636058,-4366.744339
22451.872642,8808.450710,-8882.471304,-1915.238745
22451.872975,6217.729913,-7402.059420,-1915.238745
22451.873308,6587.832884,-11177.109724,-1915.238745
22451.873642,8216.285956,-9400.615463,-995.924147
22451.873975,11843.295072,-9548.656652,4366.744339
22451.874309,11769.274478,-3627.009116,4903.011187
22451.874642,14211.954086,-7105.977043,6665.030833
22451.874976,15322.262999,-13027.624579,4213.525239
22451.875309,13249.686362,-8808.450710,1378.971896
22451.875642,13841.851115,-6513.812290,306.438199
22451.875976,11177.109724,-10955.047942,-76.609550
22451.876309,9326.594869,-9918.759623,-3983.696590
22451.876643,6809.894666,-12435.459826,-2911.162892
22451.876976,7105.977043,-8364.327145,-2451.505594
22451.877309,9696.697840,-9326.594869,-76.609550
22451.877643,11769.274478,-8882.471304,-3753.867940
22451.877976,9548.656652,-11325.150913,919.314598
22451.878310,9474.636058,-7772.162391,7890.783629
22451.878643,10584.944971,-7476.080014,1225.752797
22451.878977,10362.883188,-10955.047942,4519.963438
22451.879310,10658.965565,-5995.668130,1915.238745
22451.879643,12731.542202,-6661.853478,4673.182538
22451.879977,12435.459826,-6365.771101,2145.067394
22451.880310,9918.759623,-10955.047942,-2221.676944
22451.880644,6513.812290,-11843.295072,-3140.991542
22451.880977,7476.080014,-10881.027347,-5439.278036
22451.881310,4959.379811,-12435.459826,-4366.744339
22451.881644,5329.482782,-6217.729913,-4060.306139
22451.881977,9474.636058,-10140.821405,919.314598
22451.882311,12065.356855,-8882.471304,7277.907231
22451.882644,14137.933492,-9474.636058,5439.278036
22451.882977,9400.615463,-6587.832884,3600.648841
22451.883311,14063.912898,-8142.265362,4826.401637
22451.883644,9918.759623,-10658.965565,2987.772442
22451.883978,13101.645173,-5995.668130,5056.230287
22451.884311,4515.256246,-11695.253884,-5745.716235
22451.884645,6439.791695,-10955.047942,-1455.581446
22451.884978,1184.329507,-10140.821405,-76.609550
22451.885311,9400.615463,-10362.883188,-1302.362347
22451.885645,4811.338623,-8882.471304,-1302.362347
22451.885978,0.000000,-9548.656652,-4903.011187
22451.886312,5255.462188,-8216.285956,0.000000
22451.886645,4071.132681,-8808.450710,2757.943793
22451.886978,9400.615463,-7105.977043,6052.154434
22451.887312,4811.338623,-7476.080014,5209.449386
22451.887645,7105.977043,-3627.009116,-689.485948
22451.887979,3478.967927,-10658.965565,-76.609550
22451.888312,6439.791695,-8290.306550,-1915.238745
22451.888646,1776.494261,-7179.997637,-3677.258390
22451.888979,4663.297435,-13175.665768,1149.143247
22451.889312,4293.194464,-9548.656652,-3370.820191
22451.889646,1258.350101,-10881.027347,-5822.325785
22451.889979,5403.503377,-12657.521608,-2451.505594
22451.890313,2442.679609,-13323.706956,5132.839837
22451.890646,9474.636058,-5995.668130,4903.011187
22451.890979,9104.533087,-9474.636058,6665.030833
22451.891313,4811.338623,-4811.338623,2451.505594
22451.891646,2368.659014,-5551.544565,2911.162892
22451.891980,5551.544565,-6957.935855,3600.648841
22451.892313,2960.823768,-8068.244768,-1302.362347
22451.892646,666.185348,-8734.430116,-2221.676944
22451.892980,148.041188,-8956.491898,-4826.401637
22451.893313,-222.061783,-11547.212695,-4826.401637
22451.893647,-74.020594,-11251.130318,-2528.115143
22451.893980,1110.308913,-12435.459826,-2221.676944
22451.894314,3552.988522,-6587.832884,2145.067394
22451.894647,5329.482782,-12805.562797,7277.907231
22451.894980,5847.626942,-6809.894666,2681.334243
22451.895314,6217.729913,-7698.141797,4826.401637
22451.895647,5921.647536,-6957.935855,5362.668486
22451.895981,4145.153275,-8364.327145,2145.067394
22451.896314,3404.947333,-8956.491898,2681.334243
22451.896647,-666.185348,-12139.377449,-6205.373534
22451.896981,-3552.988522,-12805.562797,0.000000
22451.897314,-1628.453072,-1924.535449,-4903.011187
22451.897648,1406.391290,-12953.603985,919.314598
22451.897981,1184.329507,-4811.338623,3677.258390
22451.898315,0.000000,-7920.203579,995.924147
22451.898648,1702.473667,-13915.871710,2987.772442
22451.898981,3182.885551,-666.185348,0.000000
22451.899315,4145.153275,-9548.656652,536.266849
22451.899648,3627.009116,-7328.038826,2528.115143
22451.899982,2516.700203,-7550.100608,-3524.039291
22451.900315,-2072.576638,-12879.583391,-4366.744339
22451.900648,148.041188,-12879.583391,-2834.553343
22451.900982,4145.153275,-10066.800811,-3677.258390
22451.901315,1184.329507,-14582.057057,6511.811733
22451.901649,5847.626942,-4071.132681,2451.505594
22451.901982,1924.535449,-7179.997637,0.000000
22451.902315,3404.947333,-11843.295072,7277.907231
22451.902649,3256.906145,-9548.656652,2451.505594
22451.902982,3775.050304,-6735.874072,3907.087040
22451.903316,1998.556043,-8142.265362,2528.115143
22451.903649,-1332.370696,-9252.574275,-766.095498
22451.903983,-5403.503377,-6735.874072,-3140.991542
22451.904316,-4737.318029,-11695.253884,-2528.115143
22451.904649,-370.102971,-8586.388927,-2987.772442
22451.904983,-2220.617826,-7179.997637,153.219100
22451.905316,-2368.659014,-9844.739029,1455.581446
22451.905650,-5995.668130,-9474.636058,-4979.620737
22451.905983,-5477.523971,-10436.903782,-1532.190996
22451.906316,-2590.720797,-8068.244768,-306.438199
22451.906650,6291.750507,-8660.409521,6588.421283
22451.906983,2516.700203,-8364.327145,3677.258390
22451.907317,-74.020594,-10658.965565,2834.553343
22451.907650,-1776.494261,-8364.327145,0.000000
22451.907983,2368.659014,-7624.121203,4366.744339
22451.908317,4663.297435,-8734.430116,2987.772442
22451.908650,-2220.617826,-6291.750507,0.000000
22451.908984,-2516.700203,-9178.553681,-1915.238745
22451.909317,-7920.203579,-11325.150913,-6205.373534
22451.909651,-4441.235652,-11473.192101,-3140.991542
22451.909984,-370.102971,-10658.965565,-76.609550
22451.910317,-1850.514855,-7179.997637,0.000000
22451.910651,1110.308913,-8290.306550,1762.019645
22451.910984,-1258.350101,-5699.585753,0.000000
22451.911318,592.164754,-6587.832884,1532.190996
22451.911651,4737.318029,-8956.491898,3064.381992
22451.911984,5033.400406,-7179.997637,7048.078582
22451.912318,4663.297435,-9030.512492,-1378.971896
22451.912651,0.000000,-14285.974681,306.438199
22451.912985,-3034.844362,-12435.459826,-5286.058936
22451.913318,0.000000,-9548.656652,-1225.752797
22451.913652,1628.453072,-8882.471304,842.705048
22451.913985,666.185348,-11695.253884,-842.705048
22451.914318,-4293.194464,-11177.109724,689.485948
22451.914652,-370.102971,-8290.306550,2374.896044
22451.914985,3849.070898,-4515.256246,4903.011187
22451.915319,5921.647536,-4811.338623,11031.775171
22451.915652,11177.109724,-4737.318029,7431.126331
22451.915985,-3552.988522,-8364.327145,-1072.533697
22451.916319,-888.247130,-12361.439231,-3140.991542
22451.916652,-5625.565159,-12657.521608,-6665.030833
22451.916986,1480.411884,-7105.977043,-1302.362347
22451.917319,-1480.411884,-11251.130318,-6052.154434
22451.917652,-2738.761985,-13619.789333,-4366.744339
22451.917986,-3775.050304,-8660.409521,-3064.381992
22451.918319,-74.020594,-14211.954086,-76.609550
22451.918653,11769.274478,-2960.823768,7814.174080
22451.918986,1776.494261,-6143.709319,5515.887586
22451.919320,9400.615463,-5921.647536,6052.154434
22451.919653,-740.205942,-10066.800811,306.438199
22451.919986,-222.061783,-12435.459826,0.000000
22451.920320,3256.906145,-7698.141797,1685.410096
22451.920653,0.000000,-9548.656652,0.000000
22451.920987,-4737.318029,-7179.997637,-2451.505594
22451.921320,-5995.668130,-12435.459826,-4979.620737
22451.921653,-4959.379811,-9474.636058,-6818.249932
22451.921987,-4737.318029,-11917.315666,-3677.258390
22451.922320,1480.411884,-7772.162391,3677.258390
22451.922654,222.061783,-7994.224174,2145.067394
22451.922987,1554.432478,-7994.224174,5975.544884
22451.923321,-3849.070898,-7772.162391,-919.314598
22451.923654,5551.544565,-9474.636058,7277.907231
22451.923987,4145.153275,-5699.585753,8197.221829
22451.924321,5847.626942,-5699.585753,1225.752797
22451.924654,-3552.988522,-12213.398043,-76.609550
22451.924988,-9548.656652,-14211.954086,-6511.811733
22451.925321,-4737.318029,-7476.080014,-4749.792088
22451.925654,-444.123565,-10881.027347,-306.438199
22451.925988,2590.720797,-7846.182985,689.485948
22451.926321,-3775.050304,-8956.491898,919.314598
22451.926655,-3182.885551,-6217.729913,-2681.334243
22451.926988,-74.020594,-11251.130318,842.705048
22451.927321,1776.494261,-7179.997637,4903.011187
22451.927655,7698.141797,-4441.235652,6665.030833
22451.927988,-2146.597232,-12213.398043,-1225.752797
22451.928322,2294.638420,-8660.409521,2374.896044
22451.928655,-814.226536,-9844.739029,-1838.629195
22451.928989,1924.535449,-9918.759623,2374.896044
22451.929322,740.205942,-6217.729913,-1608.800546
22451.929655,-5847.626942,-10807.006753,-6435.202183
22451.929988,-2442.679609,-9770.718434,-5362.668486
22451.930322,-7031.956449,-12065.356855,-4979.620737
22451.930655,3552.988522,-9992.780217,4136.915689
22451.930988,4145.153275,-4811.338623,6894.859482
22451.931322,5255.462188,-4737.318029,5745.716235
22451.931655,4663.297435,-10362.883188,8503.660028
22451.931988,1702.473667,-7179.997637,1838.629195
22451.932321,5625.565159,-5551.544565,-3064.381992
22451.932655,1184.329507,-14878.139434,612.876398
22451.932988,3478.967927,-3330.926739,-7354.516781
22451.933321,-5921.647536,-13249.686362,-3294.210641
22451.933654,-6513.812290,-10732.986159,-4903.011187
22451.933988,-3330.926739,-15988.448347,-5132.839837
22451.934321,1776.494261,-6587.832884,612.876398
22451.934654,592.164754,-7179.997637,3064.381992
22451.934987,518.144159,-9474.636058,6358.592633
22451.935321,-1258.350101,-5921.647536,2987.772442
22451.935654,0.000000,-8290.306550,2068.457845
22451.935987,10807.006753,-2812.782580,9729.412825
22451.936321,3701.029710,-9030.512492,4903.011187
22451.936654,5255.462188,-6809.894666,153.219100
22451.936987,-6883.915261,-10807.006753,-7354.516781
22451.937320,-4219.173869,-17764.942608,-7737.564530
22451.937654,-74.020594,-9178.553681,-6128.763984
22451.937987,-2368.659014,-12361.439231,-153.219100
22451.938320,2294.638420,-11251.130318,-3753.867940
22451.938653,-2442.679609,-13397.727550,2451.505594
22451.938987,5847.626942,-7105.977043,5898.935335
22451.939320,4737.318029,-5699.585753,9806.022374
22451.939653,5625.565159,-6439.791695,8656.879127
22451.939986,1998.556043,-5477.523971,229.828649
22451.940320,-2960.823768,-7179.997637,0.000000
22451.940653,-2368.659014,-5995.668130,-6128.763984
22451.940986,-74.020594,-14211.954086,-1302.362347
22451.941320,-814.226536,-7179.997637,-2451.505594
22451.941653,-3552.988522,-10140.821405,0.000000
22451.941986,-4811.338623,-11843.295072,-3753.867940
22451.942319,-7105.977043,-12213.398043,-3370.820191
22451.942653,1110.308913,-7105.977043,-3753.867940
22451.942986,2886.803174,-12139.377449,6358.592633
22451.943319,5033.400406,-3330.926739,6435.202183
22451.943652,2368.659014,-7476.080014,6818.249932
22451.943986,962.267725,-12435.459826,5286.058936
22451.944319,148.041188,-8216.285956,0.000000
22451.944652,5847.626942,-8290.306550,4826.401637
22451.944985,-74.020594,-9474.636058,-2528.115143
22451.945319,-3404.947333,-7179.997637,-5515.887586
22451.945652,-6291.750507,-15100.201217,-689.485948
22451.945985,-4811.338623,-11251.130318,-6511.811733
22451.946319,-444.123565,-10510.924376,842.705048
22451.946652,518.144159,-11547.212695,2834.553343
22451.946985,2590.720797,-5255.462188,2451.505594
22451.947318,-2368.659014,-8142.265362,1915.238745
22451.947652,0.000000,-9622.677246,1838.629195
22451.947985,4737.318029,-7476.080014,6665.030833
22451.948318,4811.338623,-2442.679609,3677.258390
22451.948651,4737.318029,-12657.521608,1608.800546
22451.948985,-2442.679609,-10066.800811,-2221.676944
22451.949318,-5033.400406,-9474.636058,-5592.497135
22451.949651,-2442.679609,-11695.253884,-5286.058936
22451.949984,3923.091493,-9400.615463,842.705048
22451.950318,-2368.659014,-11029.068536,-1608.800546
22451.950651,-1258.350101,-10510.924376,-1685.410096
22451.950984,-3923.091493,-9474.636058,-2221.676944
22451.951318,2368.659014,-10362.883188,2451.505594
22451.951651,9400.615463,-6513.812290,7890.783629
22451.951984,4737.318029,-4811.338623,6741.640382
22451.952317,2368.659014,-9252.574275,3370.820191
22451.952651,-666.185348,-8364.327145,0.000000
22451.952984,2146.597232,-11251.130318,-842.705048
22451.953317,3108.864956,-11251.130318,536.266849
22451.953650,1332.370696,-9104.533087,1838.629195
22451.953984,-2960.823768,-4811.338623,-7354.516781
22451.954317,-6143.709319,-18653.189738,-6205.373534
22451.954650,-1850.514855,-8882.471304,-4060.306139
22451.954983,-1776.494261,-9548.656652,1838.629195
22451.955317,5847.626942,-6809.894666,7890.783629
22451.955650,2960.823768,-4367.215058,3677.258390
22451.955983,-370.102971,-11547.212695,4903.011187
22451.956317,2664.741391,-4811.338623,2757.943793
22451.956650,3923.091493,-8216.285956,2451.505594
22451.956983,2960.823768,-10510.924376,3217.601092
22451.957316,-74.020594,-8290.306550,-4519.963438
22451.957650,-7105.977043,-10288.862594,-6128.763984
22451.957983,-6809.894666,-13101.645173,-5592.497135
22451.958316,-74.020594,-13027.624579,-76.609550
22451.958649,1776.494261,-8068.244768,2681.334243
22451.958983,1702.473667,-9030.512492,4136.915689
22451.959316,-1258.350101,-6291.750507,-1225.752797
22451.959649,-3478.967927,-14063.912898,1072.533697
22451.959982,2960.823768,-5699.585753,7660.954980
22451.960316,8142.265362,-4737.318029,5592.497135
22451.960649,2664.741391,-6883.915261,3370.820191
22451.960982,-4367.215058,-10140.821405,-4366.744339
22451.961316,-6883.915261,-11621.233289,-8120.612279
22451.961649,-6365.771101,-13397.727550,-2911.162892
22451.961982,-370.102971,-10955.047942,-3753.867940
22451.962315,-1258.350101,-6883.915261,-3370.820191
22451.962649,-3849.070898,-8660.409521,-1762.019645
22451.962982,814.226536,-9474.636058,2068.457845
22451.963315,2960.823768,-8068.244768,7048.078582
22451.963648,5625.565159,-9252.574275,9729.412825
22451.963982,7624.121203,-3849.070898,8350.440928
22451.964315,592.164754,-5995.668130,3064.381992
22451.964648,-1776.494261,-9548.656652,-1991.848295
22451.964981,2294.638420,-6809.894666,-4290.134789
22451.965315,-1184.329507,-14285.974681,-6128.763984
22451.965648,2368.659014,-7624.121203,1378.971896
22451.965981,-4145.153275,-11917.315666,-4903.011187
22451.966315,-4515.256246,-13545.768739,-3217.601092
22451.966648,-5477.523971,-7402.059420,-5362.668486
22451.966981,3404.947333,-7994.224174,2298.286494
22451.967314,7031.956449,-7105.977043,9422.974625
22451.967648,6217.729913,-2886.803174,9729.412825
22451.967981,1998.556043,-4959.379811,1225.752797
22451.968314,0.000000,-10955.047942,-76.609550
22451.968647,4663.297435,-12287.418637,2987.772442
22451.968981,3478.967927,-7698.141797,-689.485948
22451.969314,1110.308913,-11843.295072,-3447.429741
22451.969647,-4293.194464,-8586.388927,-7048.078582
22451.969980,-5699.585753,-15396.283594,-5132.839837
22451.970314,0.000000,-8956.491898,-2451.505594
22451.970647,5551.544565,-13619.789333,3600.648841
22451.970980,1184.329507,-6143.709319,3677.258390
22451.971314,1776.494261,-4589.276840,4826.401637
22451.971647,-2294.638420,-8512.368333,-1838.629195
22451.971980,1184.329507,-10140.821405,6128.763984
22451.972313,9770.718434,-4293.194464,7201.297681
22451.972647,3256.906145,-10140.821405,4903.011187
22451.972980,2590.720797,-2886.803174,-2834.553343
22451.973313,-8142.265362,-15766.386565,-7660.954980
22451.973646,-3627.009116,-10732.986159,-6741.640382
22451.973980,-2072.576638,-13027.624579,-1915.238745
22451.974313,-74.020594,-15396.283594,-383.047749
22451.974646,-1776.494261,-5995.668130,2451.505594
22451.974979,-7105.977043,-8364.327145,2451.505594
22451.975313,4145.153275,370.102971,2374.896044
22451.975646,1776.494261,-9548.656652,6128.763984
22451.975979,8364.327145,-5477.523971,7277.907231
22451.976313,4293.194464,-8956.491898,4519.963438
22451.976646,0.000000,-9548.656652,-1838.629195
22451.976979,-1702.473667,-11843.295072,-3140.991542
22451.977312,-74.020594,-11399.171507,-2834.553343
22451.977646,4219.173869,-10362.883188,-842.705048
22451.977979,-1776.494261,-12361.439231,-76.609550
22451.978312,-3775.050304,-10436.903782,-6052.154434
22451.978645,-7476.080014,-10436.903782,-3677.258390
22451.978979,592.164754,-10362.883188,2374.896044
22451.979312,4959.379811,-5329.482782,8273.831378
22451.979645,4737.318029,-2442.679609,9346.365076
22451.979978,2886.803174,-2960.823768,1302.362347
22451.980312,-2590.720797,-11843.295072,2068.457845
22451.980645,888.247130,-6883.915261,0.000000
22451.980978,2294.638420,-10362.883188,995.924147
22451.981312,-1258.350101,-8660.409521,-3677.258390
22451.981645,-814.226536,-12731.542202,-3370.820191
22451.981978,-5995.668130,-16284.530724,-5592.497135
22451.982311,1110.308913,-11399.171507,-4673.182538
22451.982645,1702.473667,-15396.283594,1762.019645
22451.982978,962.267725,-9474.636058,2451.505594
22451.983311,1924.535449,-3478.967927,4519.963438
22451.983644,-1480.411884,-10584.944971,4903.011187
22451.983978,4737.318029,-2442.679609,3983.696590
22451.984311,1776.494261,-4811.338623,6128.763984
22451.984644,9400.615463,-4737.318029,4519.963438
22451.984978,-962.267725,-11251.130318,-76.609550
22451.985311,-4737.318029,-4811.338623,-4903.011187
22451.985644,-7179.997637,-14285.974681,-7048.078582
22451.985977,-1776.494261,-8512.368333,-8350.440928
22451.986311,444.123565,-14137.933492,-3294.210641
22451.986644,-5107.421000,-9918.759623,-5822.325785
22451.986977,1332.370696,-10658.965565,766.095498
22451.987310,-4959.379811,-13915.871710,3600.648841
22451.987644,7031.956449,-3034.844362,3064.381992
22451.987977,5921.647536,-9030.512492,11568.042020
22451.988310,8808.450710,-4737.318029,3600.648841
22451.988643,5107.421000,-5995.668130,2451.505594
22451.988977,3775.050304,-10066.800811,6665.030833
22451.989310,5329.482782,-5625.565159,0.000000
22451.989643,-1554.432478,-15988.448347,383.047749
22451.989977,-444.123565,-6291.750507,-9652.803275
22451.990310,-7105.977043,-15026.180623,-5745.716235
22451.990643,-7179.997637,-11843.295072,-7431.126331
22451.990976,-4071.132681,-9548.656652,-3677.258390
22451.991310,-1332.370696,-10732.986159,4903.011187
22451.991643,1628.453072,-3775.050304,5515.887586
22451.991976,2220.617826,-4441.235652,5439.278036
22451.992309,1036.288319,-4737.318029,2451.505594
22451.992643,1998.556043,-7846.182985,1838.629195
22451.992976,7031.956449,-8660.409521,4366.744339
22451.993309,4737.318029,-10881.027347,2834.553343
22451.993642,0.000000,-11177.109724,-3600.648841
22451.993976,-3997.112087,-12509.480420,-7737.564530
22451.994309,-4737.318029,-16062.468941,-9499.584175
22451.994642,-2072.576638,-13397.727550,383.047749
22451.994976,0.000000,-8364.327145,2451.505594
22451.995309,3330.926739,-8586.388927,7277.907231
22451.995642,222.061783,-6809.894666,4826.401637
22451.995975,-1702.473667,-3997.112087,3140.991542
22451.996309,4663.297435,-6513.812290,9576.193725
22451.996642,2294.638420,-3552.988522,5669.106685
22451.996975,962.267725,-1628.453072,-1915.238745
22451.997308,-7402.059420,-11029.068536,-7354.516781
22451.997642,-6587.832884,-14211.954086,-7431.126331
22451.997975,-5551.544565,-13915.871710,-4979.620737
22451.998308,2294.638420,-11843.295072,-3140.991542
22451.998641,-3552.988522,-10140.821405,-3983.696590
22451.998975,1184.329507,-11029.068536,-1838.629195
22451.999308,-3552.988522,-14285.974681,4903.011187
22451.999641,5477.523971,-6069.688724,5286.058936
22451.999975,7994.224174,-7254.018232,12563.966167
22452.000308,5921.647536,-2516.700203,8350.440928
22452.000641,5329.482782,-3034.844362,3677.258390
22452.000974,-74.020594,-9474.636058,-76.609550
22452.001308,592.164754,-6809.894666,-5439.278036
22452.001641,-4737.318029,-11325.150913,-2451.505594
22452.001974,-74.020594,-11843.295072,-3753.867940
22452.002307,-4737.318029,-9622.677246,-4060.306139
22452.002641,-8364.327145,-14137.933492,-7354.516781
22452.002974,-3330.926739,-8882.471304,-4673.182538
22452.003307,-74.020594,-9770.718434,2911.162892
22452.003640,9400.615463,-6513.812290,7277.907231
22452.003974,5847.626942,-6587.832884,4903.011187
22452.004307,4737.318029,-7402.059420,6665.030833
22452.004640,2886.803174,-11843.295072,2374.896044
22452.004974,3034.844362,-3627.009116,1225.752797
22452.005307,6957.935855,-10658.965565,3294.210641
22452.005640,1110.308913,-9844.739029,-2604.724693
22452.005973,-1184.329507,-10140.821405,-4903.011187
22452.006307,-6291.750507,-13767.830521,-5822.325785
22452.006640,-74.020594,-11843.295072,-1915.238745
22452.006973,296.082377,-8364.327145,2451.505594
22452.007306,518.144159,-8068.244768,1685.410096
22452.007640,1184.329507,-8142.265362,4213.525239
22452.007973,-4737.318029,-8956.491898,612.876398
22452.008306,1998.556043,-8882.471304,2374.896044
22452.008639,2368.659014,-5995.668130,5515.887586
22452.008973,0.000000,-5995.668130,5745.716235
22452.009306,-74.020594,-7698.141797,-2528.115143
22452.009639,-3552.988522,-11917.315666,-4903.011187
22452.009973,-740.205942,-11769.274478,-4979.620737
22452.010306,2072.576638,-10658.965565,2145.067394
22452.010639,-1554.432478,-10658.965565,-1302.362347
22452.010972,-74.020594,-8734.430116,-3140.991542
22452.011306,-6735.874072,-18357.107362,-1915.238745
22452.011639,296.082377,-4811.338623,-2451.505594
22452.011972,4663.297435,-12435.459826,9729.412825
22452.012305,5847.626942,-5625.565159,5669.106685
22452.012639,9252.574275,-6661.853478,8580.269578
22452.012972,-1480.411884,-7328.038826,3217.601092
22452.013305,3775.050304,-5921.647536,0.000000
22452.013638,-2590.720797,-13027.624579,-383.047749
22452.013972,1184.329507,-7179.997637,-2068.457845
22452.014305,-2294.638420,-10658.965565,-3753.867940
22452.014638,-4737.318029,-9548.656652,-3677.258390
22452.014972,-5181.441594,-14211.954086,-3753.867940
22452.015305,-1850.514855,-11843.295072,-1915.238745
22452.015638,-1554.432478,-7772.162391,4290.134789
22452.015971,-1406.391290,-4293.194464,1225.752797
22452.016305,2590.720797,-4663.297435,2374.896044
22452.016638,1036.288319,-9178.553681,2374.896044
22452.016971,3552.988522,-10732.986159,6435.202183
22452.017304,8808.450710,-4811.338623,5056.230287
22452.017638,4071.132681,-11843.295072,-76.609550
22452.017971,-74.020594,-11103.089130,-5439.278036
22452.018304,-4737.318029,-11621.233289,-5132.839837
22452.018637,-74.020594,-13915.871710,-4979.620737
22452.018971,1110.308913,-7772.162391,153.219100
22452.019304,2442.679609,-7920.203579,1685.410096
22452.019637,1480.411884,-9548.656652,5669.106685
22452.019971,-444.123565,-5699.585753,1915.238745
22452.020304,-2442.679609,-9548.656652,-1532.190996
22452.020637,2368.659014,-6809.894666,6052.154434
22452.020970,962.267725,-3923.091493,1532.190996
22452.021304,-2368.659014,-3627.009116,-2451.505594
22452.021637,-5921.647536,-14285.974681,-5362.668486
22452.021970,-5107.421000,-7772.162391,-8273.831378
22452.022303,-1850.514855,-14211.954086,-3753.867940
22452.022637,5625.565159,-10066.800811,-766.095498
22452.022970,-1850.514855,-16358.551318,383.047749
22452.023303,3997.112087,-5403.503377,1225.752797
22452.023636,2294.638420,-10658.965565,3830.477490
22452.023970,6365.771101,-7254.018232,8350.440928
22452.024303,9104.533087,-5403.503377,8273.831378
22452.024636,4663.297435,-7994.224174,6665.030833
22452.024970,2590.720797,-6587.832884,0.000000
22452.025303,-5329.482782,-11325.150913,-3677.258390
22452.025636,-296.082377,-11547.212695,-1302.362347
22452.025969,-3330.926739,-8068.244768,-4903.011187
22452.026303,-4145.153275,-10140.821405,-2145.067394
22452.026636,-4367.215058,-8808.450710,-3524.039291
22452.026969,-7254.018232,-10140.821405,-3524.039291
22452.027302,-4441.235652,-8142.265362,-2374.896044
22452.027636,2294.638420,-7105.977043,2374.896044
22452.027969,6439.791695,-3330.926739,4903.011187
22452.028302,3552.988522,-10362.883188,7890.783629
22452.028635,5847.626942,-10658.965565,3600.648841
22452.028969,-3478.967927,-11325.150913,-1838.629195
22452.029302,4663.297435,-7105.977043,2374.896044
22452.029635,5773.606348,-11103.089130,2221.676944
22452.029968,1554.432478,-11621.233289,1762.019645
22452.030301,-4885.359217,-9252.574275,-5132.839837
22452.030634,-7105.977043,-13101.645173,-3677.258390
22452.030967,-666.185348,-8216.285956,0.000000
22452.031301,-74.020594,-9474.636058,-76.609550
22452.031634,2590.720797,-5181.441594,3677.258390
22452.031967,-7031.956449,-6291.750507,919.314598
22452.032300,-2368.659014,-5403.503377,612.876398
22452.032633,888.247130,-3627.009116,-1378.971896
22452.032966,2960.823768,-10140.821405,4060.306139
22452.033299,592.164754,-4811.338623,1991.848295
22452.033632,-666.185348,-13915.871710,-5286.058936
22452.033965,-3997.112087,-13693.809927,-4903.011187
22452.034298,-74.020594,-15396.283594,-3140.991542
22452.034631,2886.803174,-14285.974681,1838.629195
22452.034964,3034.844362,-2442.679609,2451.505594
22452.035298,1998.556043,-13915.871710,4060.306139
22452.035631,518.144159,-6661.853478,3140.991542
22452.035964,444.123565,-7105.977043,2221.676944
22452.036297,4663.297435,-4515.256246,3983.696590
22452.036630,3997.112087,-3034.844362,2834.553343
22452.036963,3478.967927,-9474.636058,3294.210641
22452.037296,-3552.988522,-7179.997637,0.000000
22452.037629,-4737.318029,-11917.315666,-3524.039291
22452.037962,-74.020594,-10066.800811,-4979.620737
22452.038295,-370.102971,-11843.295072,-995.924147
22452.038628,-1554.432478,-8216.285956,-3064.381992
22452.038962,-5329.482782,-10584.944971,-5056.230287
22452.039295,-2738.761985,-11843.295072,-2451.505594
22452.039628,4737.318029,-5107.421000,5822.325785
22452.039961,7031.956449,-8882.471304,5286.058936
22452.040294,5107.421000,-6439.791695,4979.620737
22452.040627,1702.473667,-8438.347739,3370.820191
22452.040960,5773.606348,-8586.388927,2451.505594
22452.041293,3404.947333,-6883.915261,6128.763984
22452.041626,3775.050304,-8142.265362,-76.609550
22452.041959,1110.308913,-8660.409521,-4596.572988
22452.042292,-4589.276840,-13027.624579,-3753.867940
22452.042626,-4219.173869,-14211.954086,-5669.106685
22452.042959,-6143.709319,-10436.903782,-1838.629195
22452.043292,-518.144159,-6217.729913,-1838.629195
22452.043625,-962.267725,-2516.700203,0.000000
22452.043958,518.144159,-7254.018232,2374.896044
22452.044291,0.000000,-7179.997637,3983.696590
22452.044624,3478.967927,-9474.636058,1762.019645
22452.044957,5921.647536,-10732.986159,2451.505594
22452.045290,6069.688724,-11547.212695,7277.907231
22452.045623,4071.132681,-8882.471304,-1302.362347
22452.045956,-4145.153275,-11917.315666,-2451.505594
22452.046289,-2516.700203,-11917.315666,-4290.134789
22452.046623,444.123565,-11473.192101,-1072.533697
22452.046956,-1036.288319,-9326.594869,995.924147
22452.047289,-1850.514855,-8882.471304,-383.047749
22452.047622,-7772.162391,-12435.459826,-3753.867940
22452.047955,-2664.741391,-3330.926739,1225.752797
22452.048288,5033.400406,-8882.471304,9422.974625
22452.048621,8216.285956,-3627.009116,10418.898773
22452.048954,2294.638420,-5773.606348,3677.258390
22452.049287,-74.020594,-5921.647536,-1302.362347
22452.049620,-1924.535449,-13915.871710,-4136.915689
22452.049953,1406.391290,-13545.768739,-2681.334243
22452.050287,1184.329507,-11029.068536,-4136.915689
22452.050620,-7105.977043,-16654.633695,-6741.640382
22452.050953,-370.102971,-11251.130318,-2528.115143
22452.051286,-5107.421000,-10881.027347,-4290.134789
22452.051619,4663.297435,-7772.162391,6741.640382
22452.051952,8216.285956,-2960.823768,7737.564530
22452.052285,3256.906145,-7031.956449,7354.516781
22452.052618,4441.235652,-4663.297435,6971.469032
22452.052951,-2294.638420,-7698.141797,306.438199
22452.053284,1776.494261,-6587.832884,0.000000
22452.053617,2072.576638,-10214.842000,153.219100
22452.053950,1554.432478,-9918.759623,-1608.800546
22452.054284,-3182.885551,-8068.244768,-7354.516781
22452.054617,-8364.327145,-17764.942608,-8044.002729
22452.054950,-3627.009116,-11843.295072,-6818.249932
22452.055283,370.102971,-11325.150913,-2451.505594
22452.055616,6513.812290,-8956.491898,7967.393179
22452.055949,2368.659014,-7105.977043,7890.783629
22452.056282,4663.297435,-6513.812290,6511.811733
22452.056615,3256.906145,-7846.182985,4826.401637
22452.056948,8216.285956,-6735.874072,6588.421283
22452.057281,6365.771101,-7031.956449,5669.106685
22452.057614,1110.308913,-7846.182985,-229.828649
22452.057948,-6513.812290,-14285.974681,-7277.907231
22452.058281,-11251.130318,-11917.315666,-7814.174080
22452.058614,-1258.350101,-13619.789333,-4979.620737
22452.058947,-1036.288319,-8882.471304,-689.485948
22452.059280,-2072.576638,-8956.491898,1072.533697
22452.059613,-4219.173869,-7402.059420,0.000000
22452.059946,-888.247130,-6735.874072,1685.410096
22452.060279,3330.926739,-5995.668130,6588.421283
22452.060612,8068.244768,-5033.400406,6665.030833
22452.060945,3478.967927,-9474.636058,2374.896044
22452.061278,3034.844362,-10362.883188,4826.401637
22452.061612,-666.185348,-11843.295072,-3140.991542
22452.061945,-2960.823768,-10732.986159,-1532.190996
22452.062278,2368.659014,-9474.636058,-2757.943793
22452.062611,-3552.988522,-14285.974681,-2451.505594
22452.062944,1110.308913,-7402.059420,-1149.143247
22452.063277,-8734.430116,-11843.295072,-4826.401637
22452.063610,-3404.947333,-8956.491898,-536.266849
22452.063943,1184.329507,-4811.338623,3064.381992
22452.064276,5847.626942,-8142.265362,7277.907231
22452.064609,2368.659014,-1850.514855,5056.230287
22452.064942,0.000000,-4663.297435,995.924147
22452.065275,-666.185348,-10658.965565,-2528.115143
22452.065609,3552.988522,-9622.677246,536.266849
22452.065942,1924.535449,-14878.139434,995.924147
22452.066275,-222.061783,-9474.636058,-3294.210641
22452.066608,-3108.864956,-15174.221811,-4213.525239
22452.066941,-2812.782580,-15396.283594,-1302.362347
22452.067274,3478.967927,-4145.153275,-2987.772442
22452.067607,0.000000,-10881.027347,4443.353888
22452.067940,3478.967927,-7105.977043,4826.401637
22452.068273,1702.473667,-7994.224174,1762.019645
22452.068606,-2368.659014,-9474.636058,4519.963438
22452.068939,5181.441594,-3997.112087,2145.067394
22452.069273,2072.576638,-9548.656652,3524.039291
22452.069606,3997.112087,-7846.182985,0.000000
22452.069939,1998.556043,-10140.821405,1149.143247
22452.070272,-6661.853478,-13989.892304,-7660.954980
22452.070605,592.164754,-9030.512492,-3600.648841
22452.070938,-3478.967927,-12953.603985,-3294.210641
22452.071271,592.164754,-11917.315666,-3677.258390
22452.071604,3552.988522,-8660.409521,8810.098227
22452.071937,-1850.514855,-9918.759623,1455.581446
22452.072270,7920.203579,-4145.153275,5745.716235
22452.072603,3552.988522,-3182.885551,7354.516781
22452.072937,4959.379811,-8290.306550,3600.648841
22452.073270,2368.659014,-7179.997637,7201.297681
22452.073603,-2590.720797,-9252.574275,-3983.696590
22452.073936,-3034.844362,-11843.295072,-2528.115143
22452.074269,-1184.329507,-6883.915261,-3370.820191
22452.074602,-1184.329507,-12509.480420,-1455.581446
22452.074935,-4219.173869,-7772.162391,-3064.381992
22452.075268,-2960.823768,-6291.750507,-9193.145976
22452.075601,-7105.977043,-15692.365970,-2528.115143
22452.075934,4737.318029,-7179.997637,2451.505594
22452.076267,2294.638420,-11399.171507,8503.660028
22452.076600,6365.771101,-1702.473667,6205.373534
22452.076934,2516.700203,-10732.986159,2451.505594
22452.077267,3478.967927,-8882.471304,4213.525239
22452.077600,4737.318029,-4811.338623,2374.896044
22452.077933,370.102971,-10732.986159,0.000000
22452.078266,1332.370696,-8290.306550,-2528.115143
22452.078599,-6587.832884,-18209.066173,-5592.497135
22452.078932,-2738.761985,-8734.430116,-4366.744339
22452.079265,-5625.565159,-11917.315666,-4290.134789
22452.079598,814.226536,-9696.697840,536.266849
22452.079931,888.247130,-4811.338623,4443.353888
22452.080264,-2960.823768,-7179.997637,1838.629195
22452.080598,4071.132681,-5921.647536,4213.525239
22452.080931,0.000000,-9548.656652,3677.258390
22452.081264,6217.729913,-9474.636058,6665.030833
22452.081597,2886.803174,-6143.709319,612.876398
22452.081930,0.000000,-10140.821405,-4596.572988
22452.082263,-3849.070898,-14434.015869,-1915.238745
22452.082596,1184.329507,-9992.780217,-995.924147
22452.082929,-1036.288319,-11621.233289,-229.828649
22452.083262,-74.020594,-10510.924376,-76.609550
22452.083595,-2886.803174,-7772.162391,-2451.505594
22452.083928,-3478.967927,-12879.583391,2374.896044
22452.084262,3108.864956,-1184.329507,1149.143247
22452.084595,0.000000,-6291.750507,7737.564530
22452.084928,4737.318029,-4071.132681,3830.477490
22452.085261,3108.864956,-5921.647536,2221.676944
22452.085594,962.267725,-10658.965565,-536.266849
22452.085927,1184.329507,-11917.315666,-306.438199
22452.086260,1702.473667,-11547.212695,-1302.362347
22452.086593,-1480.411884,-13693.809927,-5515.887586
22452.086926,740.205942,-11473.192101,-1685.410096
22452.087259,-1702.473667,-10140.821405,-5669.106685
22452.087592,-3182.885551,-11103.089130,-1608.800546
22452.087925,814.226536,-10066.800811,4826.401637
22452.088259,5033.400406,-3627.009116,5515.887586
22452.088592,3552.988522,-5107.421000,11031.775171
22452.088925,5551.544565,-5921.647536,3907.087040
22452.089258,-814.226536,-10140.821405,2145.067394
22452.089591,2368.659014,-5551.544565,1149.143247
22452.089924,-1184.329507,-13101.645173,-3294.210641
22452.090257,0.000000,-9104.533087,-3294.210641
22452.090590,-3627.009116,-12657.521608,-4903.011187
22452.090923,-4811.338623,-12731.542202,-6818.249932
22452.091256,-2442.679609,-8364.327145,-4290.134789
22452.091589,-2072.576638,-11621.233289,0.000000
22452.091923,2516.700203,-8290.306550,6971.469032
22452.092256,-370.102971,-3701.029710,2528.115143
22452.092589,4367.215058,-10658.965565,536.266849
22452.092922,3256.906145,-8882.471304,7201.297681
22452.093255,8660.409521,-5921.647536,4213.525239
22452.093588,4885.359217,-7772.162391,5286.058936
22452.093921,592.164754,-6587.832884,612.876398
22452.094254,-7105.977043,-13101.645173,-7048.078582
22452.094587,-2442.679609,-14211.954086,-2221.676944
22452.094920,-6883.915261,-10955.047942,-9269.755526
22452.095253,-4737.318029,-11325.150913,-612.876398
22452.095587,-666.185348,-6439.791695,0.000000
22452.095920,-370.102971,-6735.874072,2145.067394
22452.096253,-1776.494261,-7994.224174,4826.401637
22452.096586,2812.782580,-4071.132681,5745.716235
22452.096919,4663.297435,-6217.729913,3907.087040
22452.097252,5921.647536,-7772.162391,4826.401637
22452.097585,4071.132681,-8142.265362,1838.629195
22452.097918,-5921.647536,-11029.068536,-3677.258390
22452.098251,2294.638420,-12287.418637,-1302.362347
22452.098584,-4737.318029,-13249.686362,-4596.572988
22452.098917,2664.741391,-10288.862594,-1991.848295
22452.099250,-3034.844362,-10955.047942,-153.219100
22452.099584,-4515.256246,-8068.244768,-3907.087040
22452.099917,-2442.679609,-9474.636058,1225.752797
22452.100250,3478.967927,-5921.647536,4519.963438
22452.100583,5329.482782,-2442.679609,5515.887586
22452.100916,1184.329507,-7402.059420,5745.716235
22452.101249,1850.514855,-7179.997637,0.000000
22452.101582,-2072.576638,-9548.656652,1915.238745
22452.101915,3034.844362,-7994.224174,-76.609550
22452.102248,148.041188,-13101.645173,0.000000
22452.102581,-1850.514855,-9918.759623,-4213.525239
22452.102914,-4441.235652,-10510.924376,-5745.716235
22452.103248,-5107.421000,-15100.201217,-6052.154434
22452.103581,-370.102971,-9178.553681,-3677.258390
22452.103914,444.123565,-11547.212695,2451.505594
22452.104247,4219.173869,-4737.318029,5132.839837
22452.104580,4071.132681,-5921.647536,7277.907231
22452.104913,2294.638420,-8882.471304,4826.401637
22452.105246,4737.318029,-2442.679609,3064.381992
22452.105579,4145.153275,-9474.636058,4826.401637
22452.105912,5625.565159,-10140.821405,2757.943793
22452.106245,-2960.823768,-10732.986159,-3217.601092
22452.106578,-6883.915261,-13619.789333,-9499.584175
22452.106912,-4219.173869,-13619.789333,-6052.154434
22452.107245,-2072.576638,-11029.068536,-3447.429741
22452.107578,0.000000,-7772.162391,0.000000
22452.107911,-1258.350101,-7031.956449,1762.019645
22452.108244,-666.185348,-5921.647536,0.000000
22452.108577,2368.659014,-7402.059420,6665.030833
22452.108910,7031.956449,-7105.977043,7890.783629
22452.109243,8586.388927,-5477.523971,3907.087040
22452.109576,4663.297435,-12879.583391,7890.783629
22452.109909,2590.720797,-7994.224174,919.314598
22452.110242,1554.432478,-12065.356855,-1149.143247
22452.110575,-370.102971,-11251.130318,-1915.238745
22452.110909,-666.185348,-9548.656652,-8580.269578
22452.111242,-4737.318029,-11917.315666,-4290.134789
22452.111575,-3775.050304,-13027.624579,-3753.867940
22452.111908,-7846.182985,-9548.656652,-4903.011187
22452.112241,-74.020594,-7698.141797,4213.525239
22452.112574,4367.215058,-4959.379811,7354.516781
22452.112907,5255.462188,-1998.556043,8197.221829
22452.113240,592.164754,-9474.636058,5362.668486
22452.113573,2590.720797,-4145.153275,-229.828649
22452.113906,-3552.988522,-9548.656652,0.000000
22452.114239,3404.947333,-14804.118840,-76.609550
22452.114573,2294.638420,-13027.624579,-3753.867940
22452.114906,-8290.306550,-14878.139434,-8580.269578
22452.115239,-1850.514855,-14804.118840,-4136.915689
22452.115572,-3256.906145,-9548.656652,-766.095498
22452.115905,1998.556043,-8956.491898,3753.867940
22452.116238,1332.370696,-6291.750507,6358.592633
22452.116571,1554.432478,-4145.153275,6052.154434
22452.116904,-2368.659014,-7031.956449,3830.477490
22452.117237,1628.453072,-4663.297435,5286.058936
22452.117570,1924.535449,-7624.121203,3370.820191
22452.117903,2368.659014,-8364.327145,2451.505594
22452.118237,518.144159,-8290.306550,-3140.991542
22452.118570,-8142.265362,-13693.809927,-7354.516781
22452.118903,-3552.988522,-11325.150913,-4979.620737
22452.119236,-1554.432478,-13027.624579,-5056.230287
22452.119569,0.000000,-11917.315666,-3677.258390
22452.119902,-444.123565,-10510.924376,383.047749
22452.120235,1628.453072,-11029.068536,1302.362347
22452.120568,4663.297435,-9770.718434,7584.345430
22452.120901,8216.285956,-3552.988522,11568.042020
22452.121234,5921.647536,-4737.318029,7277.907231
22452.121567,4737.318029,-2442.679609,7354.516781
22452.121900,-74.020594,-12435.459826,-76.609550
22452.122234,-1258.350101,-10066.800811,-3753.867940
22452.122567,-3034.844362,-11251.130318,-6665.030833
22452.122900,518.144159,-13471.748144,-5132.839837
22452.123233,-1924.535449,-10436.903782,-2681.334243
22452.123566,-3108.864956,-10436.903782,-4060.306139
22452.123899,-8734.430116,-11917.315666,-4136.915689
22452.124232,3923.091493,-7105.977043,1608.800546
22452.124565,1184.329507,-9548.656652,10801.946522
22452.124898,8216.285956,592.164754,7737.564530
22452.125231,0.000000,-9548.656652,306.438199
22452.125564,592.164754,-7920.203579,1991.848295
22452.125898,5921.647536,-9104.533087,3524.039291
22452.126231,3034.844362,-9326.594869,689.485948
22452.126564,5699.585753,-10066.800811,-1915.238745
22452.126897,-2442.679609,-15100.201217,-7431.126331
22452.127230,-3034.844362,-14952.160028,-3677.258390
22452.127563,-1258.350101,-8882.471304,-2528.115143
22452.127896,1110.308913,-13619.789333,-76.609550
22452.128229,740.205942,-4811.338623,2451.505594
22452.128562,-2960.823768,-8956.491898,6818.249932
22452.128895,-74.020594,-3552.988522,5286.058936
22452.129228,296.082377,-2960.823768,3064.381992
22452.129561,1036.288319,-7031.956449,1762.019645
22452.129894,2072.576638,-7698.141797,1915.238745
22452.130227,-1776.494261,-8364.327145,-766.095498
22452.130560,-1258.350101,-11843.295072,-7737.564530
22452.130893,-7105.977043,-11917.315666,-7967.393179
22452.131226,0.000000,-11325.150913,-2221.676944
22452.131559,1702.473667,-15396.283594,1455.581446
22452.131892,5033.400406,-9178.553681,2145.067394
22452.132225,-74.020594,-14359.995275,2145.067394
22452.132558,2368.659014,-6217.729913,6741.640382
22452.132891,3923.091493,-3627.009116,4903.011187
22452.133224,2664.741391,-7031.956449,9116.536426
22452.133556,3849.070898,-4811.338623,4136.915689
22452.133889,0.000000,-9252.574275,-76.609550
22452.134222,-4515.256246,-9548.656652,-3677.258390
22452.134555,-2442.679609,-9474.636058,-6511.811733
22452.134888,-1184.329507,-12509.480420,-2221.676944
22452.135221,-74.020594,-13027.624579,-1608.800546
22452.135554,-4737.318029,-8364.327145,-5822.325785
22452.135887,-7846.182985,-15396.283594,-1991.848295
22452.136220,2294.638420,-4737.318029,-76.609550
22452.136553,-1628.453072,-10140.821405,1149.143247
22452.136886,8290.306550,-3701.029710,7354.516781
22452.137219,4515.256246,-9178.553681,6435.202183
22452.137552,1776.494261,-7772.162391,4903.011187
22452.137885,592.164754,-9548.656652,3983.696590
22452.138217,1702.473667,-8734.430116,-3217.601092
22452.138550,4737.318029,-9548.656652,0.000000
22452.138883,1036.288319,-12435.459826,-2528.115143
22452.139216,-3627.009116,-13101.645173,-3677.258390
22452.139549,-2442.679609,-9474.636058,-995.924147
22452.139882,-2664.741391,-8290.306550,1302.362347
22452.140215,3330.926739,-3997.112087,689.485948
22452.140548,2368.659014,-6883.915261,6128.763984
22452.140881,-1776.494261,-10066.800811,3600.648841
22452.141214,-3034.844362,-5551.544565,-4596.572988
22452.141547,-1184.329507,-12139.377449,3217.601092
22452.141880,4663.297435,-9474.636058,2068.457845
22452.142213,2960.823768,-5995.668130,4903.011187
22452.142546,74.020594,-10140.821405,-4749.792088
22452.142878,-1628.453072,-13323.706956,-3983.696590
22452.143211,1036.288319,-10658.965565,-2528.115143
22452.143544,4663.297435,-13619.789333,4826.401637
22452.143877,7031.956449,-5921.647536,2987.772442
22452.144210,-3997.112087,-11917.315666,0.000000
22452.144543,1702.473667,-5921.647536,1149.143247
22452.144876,-1850.514855,-10658.965565,995.924147
22452.145209,4367.215058,-6217.729913,2987.772442
22452.145542,1924.535449,-8808.450710,4903.011187
22452.145875,-2294.638420,-8586.388927,0.000000
22452.146208,1406.391290,-9252.574275,1915.238745
22452.146541,-4737.318029,-10140.821405,306.438199
22452.146874,2294.638420,-3627.009116,-4596.572988
22452.147207,-2072.576638,-13027.624579,612.876398
22452.147540,2886.803174,-11251.130318,-4979.620737
22452.147872,-9474.636058,-14878.139434,-2911.162892
22452.148205,-3182.885551,-7105.977043,-76.609550
22452.148538,-2368.659014,-6735.874072,-2757.943793
22452.148871,5403.503377,-12879.583391,7890.783629
22452.149204,4959.379811,-6883.915261,6894.859482
22452.149537,-2368.659014,-8068.244768,1838.629195
22452.149870,1258.350101,-6587.832884,0.000000
22452.150203,2664.741391,-7698.141797,2298.286494
22452.150536,4589.276840,-11325.150913,4213.525239
22452.150869,3775.050304,-6217.729913,-689.485948
22452.151202,-5921.647536,-14878.139434,-7354.516781
22452.151535,-6661.853478,-12731.542202,-4673.182538
22452.151868,-4737.318029,-5107.421000,-1225.752797
22452.152201,-1258.350101,-8882.471304,-1302.362347
22452.152533,2294.638420,-8142.265362,6358.592633
22452.152866,0.000000,-3034.844362,6052.154434
22452.153199,962.267725,-3404.947333,3524.039291
22452.153532,-370.102971,-8586.388927,0.000000
22452.153865,3552.988522,-8512.368333,1072.533697
22452.154198,3478.967927,-11251.130318,1149.143247
22452.154531,296.082377,-10732.986159,-2451.505594
22452.154864,-74.020594,-16432.571912,-2528.115143
22452.155197,814.226536,-13323.706956,-4366.744339
22452.155530,2368.659014,-7179.997637,-2451.505594
22452.155863,4663.297435,-11843.295072,2987.772442
22452.156196,3552.988522,-6883.915261,3677.258390
22452.156529,740.205942,-10140.821405,4060.306139
22452.156862,1258.350101,-5995.668130,2145.067394
22452.157194,1406.391290,-6957.935855,1072.533697
22452.157527,1184.329507,-5995.668130,6435.202183
22452.157860,5255.462188,-4737.318029,3600.648841
22452.158193,-3627.009116,-11695.253884,-2451.505594
22452.158526,-2960.823768,-8364.327145,-3983.696590
22452.158859,-5403.503377,-9548.656652,-7967.393179
22452.159192,370.102971,-12805.562797,-4443.353888
22452.159525,-2368.659014,-12953.603985,2987.772442
22452.159858,-2442.679609,-5477.523971,-3753.867940
22452.160191,-5625.565159,-11325.150913,-3677.258390
22452.160524,2368.659014,-11917.315666,6665.030833
22452.160857,4663.297435,-8586.388927,4213.525239
22452.161190,5329.482782,-4811.338623,6128.763984
22452.161523,5181.441594,-10658.965565,5745.716235
22452.161855,1110.308913,-10140.821405,612.876398
22452.162188,5329.482782,-8808.450710,2298.286494
22452.162521,296.082377,-11399.171507,3294.210641
22452.162854,2146.597232,-8734.430116,-1762.019645
22452.163187,-3552.988522,-10732.986159,-2451.505594
22452.163520,-5847.626942,-12065.356855,-3830.477490
22452.163853,-3552.988522,-4959.379811,-2987.772442
22452.164186,-5995.668130,-9474.636058,-76.609550
22452.164519,-74.020594,-4737.318029,1149.143247
22452.164852,-74.020594,-4515.256246,229.828649
22452.165185,-3256.906145,-9696.697840,2911.162892
22452.165518,-74.020594,-10658.965565,-76.609550
22452.165851,1702.473667,-9918.759623,-1072.533697
22452.166184,5847.626942,-12435.459826,5439.278036
22452.166516,7550.100608,-8660.409521,2145.067394
22452.166849,370.102971,-13693.809927,919.314598
22452.167182,4885.359217,-8808.450710,-1838.629195
22452.167515,-2072.576638,-13101.645173,0.000000
22452.167848,5847.626942,-5699.585753,-3983.696590
22452.168181,0.000000,-12435.459826,3600.648841
22452.168514,-3627.009116,-8734.430116,-1915.238745
22452.168847,-3182.885551,-7179.997637,306.438199
22452.169180,0.000000,-4515.256246,2604.724693
22452.169513,2960.823768,-4515.256246,3217.601092
22452.169846,1480.411884,-5773.606348,3217.601092
22452.170179,296.082377,-7698.141797,-1608.800546
22452.170512,-2072.576638,-12287.418637,919.314598
22452.170845,-1998.556043,-9844.739029,-6435.202183
22452.171177,-74.020594,-14211.954086,-2528.115143
22452.171510,-2442.679609,-9770.718434,-2451.505594
22452.171843,296.082377,-6291.750507,-6128.763984
22452.172176,0.000000,-16210.510130,3677.258390
22452.172509,2590.720797,-8290.306550,1608.800546
22452.172842,3330.926739,-8142.265362,2298.286494
22452.173175,740.205942,-8734.430116,4443.353888
22452.173508,4219.173869,-5921.647536,1149.143247
22452.173841,2368.659014,-11917.315666,6128.763984
22452.174174,4071.132681,-7179.997637,5515.887586
22452.174507,2368.659014,-5403.503377,1225.752797
22452.174840,-1036.288319,-13841.851115,2374.896044
22452.175173,-2442.679609,-4145.153275,-3447.429741
22452.175506,-7179.997637,-12435.459826,-5592.497135
22452.175838,-5329.482782,-7476.080014,-6511.811733
22452.176171,-7698.141797,-11843.295072,-6205.373534
22452.176504,-3330.926739,-8808.450710,-2068.457845
22452.176837,3478.967927,-8290.306550,4826.401637
22452.177170,-4145.153275,-9548.656652,3677.258390
22452.177503,6735.874072,-5329.482782,-76.609550
22452.177836,5255.462188,-12731.542202,3064.381992
22452.178169,8512.368333,-7105.977043,9346.365076
22452.178502,9104.533087,-5921.647536,3600.648841
22452.178835,74.020594,-15692.365970,2145.067394
22452.179168,-5995.668130,-11325.150913,-5898.935335
22452.179501,-4293.194464,-8882.471304,-5286.058936
22452.179834,2294.638420,-11251.130318,-1915.238745
22452.180167,-740.205942,-7328.038826,1225.752797
22452.180499,-4959.379811,-8290.306550,-2298.286494
22452.180832,-5255.462188,-7846.182985,229.828649
22452.181165,0.000000,-5995.668130,3064.381992
22452.181498,3404.947333,-2812.782580,6052.154434
22452.181831,2886.803174,-11547.212695,4826.401637
22452.182164,296.082377,-2738.761985,0.000000
22452.182497,-1480.411884,-14952.160028,-842.705048
22452.182830,-370.102971,-13693.809927,-2911.162892
22452.183163,4441.235652,-4515.256246,-1762.019645
22452.183496,-1184.329507,-15914.427753,-2451.505594
22452.183829,4515.256246,-9474.636058,-76.609550
22452.184162,-4589.276840,-14211.954086,-5592.497135
22452.184495,-74.020594,-13027.624579,2987.772442
22452.184828,3552.988522,-1258.350101,6128.763984
22452.185160,5921.647536,-4811.338623,9806.022374
22452.185493,5847.626942,-7105.977043,8503.660028
22452.185826,-4737.318029,-5403.503377,1225.752797
22452.186159,-3034.844362,-6513.812290,-1532.190996
22452.186492,0.000000,-5625.565159,-3983.696590
22452.186825,1110.308913,-11695.253884,-2068.457845
22452.187158,-5699.585753,-11695.253884,-4979.620737
22452.187491,-3034.844362,-13619.789333,-8656.879127
22452.187824,-7105.977043,-11917.315666,-5822.325785
22452.188157,2886.803174,-13323.706956,-76.609550
22452.188490,5699.585753,-8882.471304,5362.668486
22452.188823,7031.956449,-4145.153275,6052.154434
22452.189156,4737.318029,-11621.233289,8350.440928
22452.189489,2516.700203,-7624.121203,4979.620737
22452.189821,74.020594,-7624.121203,2068.457845
22452.190154,2368.659014,-3923.091493,306.438199
22452.190487,4071.132681,-9992.780217,1225.752797
22452.190820,-4145.153275,-11325.150913,0.000000
22452.191153,-2220.617826,-9474.636058,-4366.744339
22452.191486,-7698.141797,-11843.295072,-8044.002729
22452.191819,0.000000,-5995.668130,-3370.820191
22452.192152,-2664.741391,-13027.624579,2068.457845
22452.192485,0.000000,-5329.482782,-306.438199
22452.192818,-4219.173869,-10510.924376,1225.752797
22452.193151,-2442.679609,-9326.594869,2068.457845
22452.193484,4737.318029,-6883.915261,5822.325785
22452.193817,7031.956449,-8586.388927,6358.592633
22452.194150,7105.977043,-3627.009116,4903.011187
22452.194482,-1258.350101,-13027.624579,-1915.238745
22452.194815,-2220.617826,-13693.809927,-4290.134789
22452.195148,-1258.350101,-6809.894666,-4136.915689
22452.195481,2590.720797,-10658.965565,0.000000
22452.195814,1184.329507,-7476.080014,1302.362347
22452.196147,-4811.338623,-12731.542202,-842.705048
22452.196480,-6513.812290,-10362.883188,-1225.752797
22452.196813,-3775.050304,-7179.997637,1225.752797
22452.197146,3034.844362,-4219.173869,3524.039291
22452.197479,1702.473667,-7920.203579,5362.668486
22452.197812,3182.885551,-9178.553681,-76.609550
22452.198145,-3256.906145,-8364.327145,-6128.763984
22452.198478,592.164754,-13323.706956,-76.609550
22452.198811,4663.297435,-9030.512492,1225.752797
22452.199143,592.164754,-5995.668130,0.000000
22452.199476,2146.597232,-14211.954086,-76.609550
22452.199809,-2294.638420,-8956.491898,-3753.867940
22452.200142,-9400.615463,-14434.015869,-4903.011187
22452.200475,3923.091493,-1184.329507,-689.485948
22452.200808,4071.132681,-10658.965565,4519.963438
22452.201141,7698.141797,-5403.503377,10955.165621
22452.201474,-74.020594,-12435.459826,6052.154434
22452.201807,-2442.679609,-5107.421000,-4290.134789
22452.202140,5329.482782,-10658.965565,3677.258390
22452.202473,2886.803174,-9548.656652,919.314598
22452.202806,4811.338623,-7994.224174,76.609550
22452.203139,-7698.141797,-12657.521608,-6741.640382
22452.203472,-4071.132681,-13545.768739,-5669.106685
22452.203805,-3552.988522,-6587.832884,0.000000
22452.204137,11473.192101,-8290.306550,4826.401637
22452.204470,1258.350101,-7179.997637,3677.258390
22452.204803,-4737.318029,-10732.986159,612.876398
22452.205136,-1850.514855,-11843.295072,-76.609550
22452.205469,0.000000,-9844.739029,4290.134789
22452.205802,6809.894666,-4737.318029,1838.629195
22452.206135,1850.514855,-7550.100608,5515.887586
22452.206468,4293.194464,-7402.059420,1685.410096
22452.206801,-1998.556043,-9992.780217,-76.609550
22452.207134,-3923.091493,-13027.624579,-3753.867940
22452.207467,0.000000,-5107.421000,-1225.752797
22452.207800,-1850.514855,-9474.636058,-76.609550
22452.208133,-74.020594,-11843.295072,-4060.306139
22452.208466,-7105.977043,-9548.656652,-3907.087040
22452.208798,-4145.153275,-9548.656652,-5209.449386
22452.209131,4071.132681,-11547.212695,3907.087040
22452.209464,9030.512492,-6587.832884,9652.803275
22452.209797,7031.956449,-7994.224174,8503.660028
22452.210130,2516.700203,-8586.388927,3677.258390
22452.210463,0.000000,-6291.750507,-995.924147
22452.210796,1776.494261,-10807.006753,-536.266849
22452.211129,1776.494261,-8364.327145,0.000000
22452.211462,-4145.153275,-8660.409521,-2451.505594
22452.211795,-8364.327145,-16284.530724,-7431.126331
22452.212128,-5921.647536,-7179.997637,-7354.516781
22452.212461,-2960.823768,-8956.491898,-689.485948
22452.212794,4737.318029,-2442.679609,3907.087040
22452.213127,1184.329507,-9548.656652,5515.887586
22452.213459,-962.267725,-6217.729913,842.705048
22452.213792,-962.267725,-11695.253884,229.828649
22452.214125,2516.700203,-8586.388927,4596.572988
22452.214458,6735.874072,-4071.132681,3140.991542
22452.214791,-74.020594,-15100.201217,-1915.238745
22452.215124,2960.823768,-8660.409521,-2221.676944
22452.215457,-7105.977043,-18949.272115,-2834.553343
22452.215790,4145.153275,-7179.997637,1225.752797
22452.216123,-222.061783,-10658.965565,1149.143247
22452.216456,0.000000,-6587.832884,-919.314598
22452.216789,-1332.370696,-8142.265362,2221.676944
22452.217122,-2738.761985,-7105.977043,-76.609550
22452.217455,592.164754,-3923.091493,5209.449386
22452.217788,-2368.659014,-5403.503377,612.876398
22452.218120,4737.318029,-7179.997637,6511.811733
22452.218453,-370.102971,-3997.112087,1149.143247
22452.218786,-666.185348,-11251.130318,-4979.620737
22452.219119,-74.020594,-10955.047942,-3140.991542
22452.219452,-370.102971,-14508.036463,-6128.763984
22452.219785,1184.329507,-15470.304188,1762.019645
22452.220118,888.247130,-7846.182985,2068.457845
22452.220451,-1554.432478,-12435.459826,-76.609550
22452.220784,0.000000,-4811.338623,3677.258390
22452.221117,592.164754,-7476.080014,4903.011187
22452.221450,8216.285956,-6513.812290,7890.783629
22452.221783,3552.988522,-2442.679609,4903.011187
22452.222116,-5403.503377,-12287.418637,-842.705048
22452.222449,1258.350101,-5477.523971,-2374.896044
22452.222781,-2368.659014,-12953.603985,0.000000
22452.223114,2812.782580,-7402.059420,-3447.429741
22452.223447,-2146.597232,-8660.409521,-6665.030833
22452.223780,-6513.812290,-14582.057057,-4979.620737
22452.224113,-666.185348,-10955.047942,-4519.963438
22452.224446,-6513.812290,-9548.656652,1225.752797
22452.224779,1184.329507,-7179.997637,76.609550
22452.225112,3775.050304,-5995.668130,4903.011187
22452.225445,3775.050304,-7105.977043,3447.429741
22452.225778,2664.741391,-11547.212695,4060.306139
22452.226111,5403.503377,-8586.388927,7277.907231
22452.226444,6439.791695,-4441.235652,0.000000
22452.226777,6809.894666,-9104.533087,5209.449386
22452.227110,1110.308913,-7550.100608,-1915.238745
22452.227442,-6365.771101,-12805.562797,-6435.202183
22452.227775,-3627.009116,-14063.912898,-4366.744339
22452.228108,-4515.256246,-10140.821405,-6741.640382
22452.228441,-2072.576638,-11917.315666,612.876398
22452.228774,-1776.494261,-6661.853478,3600.648841
22452.229107,-3627.009116,-6661.853478,689.485948
22452.229440,-2368.659014,-3627.009116,3217.601092
22452.229773,4515.256246,-4737.318029,3677.258390
22452.230106,6217.729913,-8512.368333,4519.963438
22452.230439,4219.173869,-11399.171507,2987.772442
22452.230772,2294.638420,-9474.636058,1149.143247
22452.231105,-2442.679609,-12361.439231,-5515.887586
22452.231438,4515.256246,-7994.224174,-1915.238745
22452.231771,-4811.338623,-17172.777854,-4979.620737
22452.232103,2590.720797,-7550.100608,-2145.067394
22452.232436,-4811.338623,-14211.954086,-76.609550
22452.232769,-7031.956449,-9548.656652,-1532.190996
22452.233102,222.061783,-4071.132681,2757.943793
22452.233435,518.144159,-7402.059420,7201.297681
22452.233768,4737.318029,-3627.009116,7354.516781
22452.234101,2886.803174,-4441.235652,4213.525239
22452.234434,-592.164754,-12509.480420,-76.609550
22452.234767,-74.020594,-7698.141797,-3524.039291
22452.235100,-2072.576638,-12509.480420,-4903.011187
22452.235433,0.000000,-8956.491898,-2145.067394
22452.235765,-1850.514855,-14211.954086,-4596.572988
22452.236098,-4441.235652,-12805.562797,-5515.887586
22452.236431,888.247130,-11251.130318,-1072.533697
22452.236764,296.082377,-9474.636058,-76.609550
22452.237097,7105.977043,-8364.327145,10418.898773
22452.237430,4663.297435,-4737.318029,5439.278036
22452.237763,1110.308913,-8364.327145,3064.381992
22452.238096,1776.494261,-7698.141797,2374.896044
22452.238429,4663.297435,-7105.977043,2068.457845
22452.238762,4959.379811,-7698.141797,1915.238745
22452.239095,740.205942,-7846.182985,-1225.752797
22452.239427,-5255.462188,-13619.789333,-4979.620737
22452.239760,-5181.441594,-11843.295072,-5286.058936
22452.240093,-592.164754,-9474.636058,-5592.497135
22452.240426,-2294.638420,-10732.986159,-1838.629195
22452.240759,-1184.329507,-9030.512492,3677.258390
22452.241092,2294.638420,-9474.636058,-1915.238745
22452.241425,814.226536,-13545.768739,2987.772442
22452.241758,5551.544565,-7105.977043,5439.278036
22452.242091,6365.771101,-6735.874072,7277.907231
22452.242424,5921.647536,-8660.409521,7431.126331
22452.242756,7476.080014,-5329.482782,3830.477490
22452.243089,-888.247130,-13471.748144,842.705048
22452.243422,370.102971,-5107.421000,-5286.058936
22452.243755,-2146.597232,-13693.809927,-5745.716235
22452.244088,-2294.638420,-11325.150913,-3677.258390
22452.244421,-3552.988522,-8364.327145,-4903.011187
22452.244754,-8660.409521,-14211.954086,-3753.867940
22452.245087,-3849.070898,-8290.306550,-3753.867940
22452.245420,-2368.659014,-7179.997637,4903.011187
22452.245753,5033.400406,-6735.874072,9729.412825
22452.246086,5255.462188,-666.185348,4903.011187
22452.246418,-740.205942,-10066.800811,2834.553343
22452.246751,3478.967927,-4293.194464,612.876398
22452.247084,222.061783,-12509.480420,2298.286494
22452.247417,4737.318029,-10584.944971,-2757.943793
22452.247750,1184.329507,-17764.942608,-1915.238745
22452.248083,-6661.853478,-13397.727550,-4903.011187
22452.248416,-4145.153275,-8364.327145,-3064.381992
22452.248749,-2442.679609,-8290.306550,-76.609550
22452.249082,0.000000,-4811.338623,1532.190996
22452.249415,222.061783,-8956.491898,6281.983084
22452.249747,1480.411884,-9252.574275,5592.497135
22452.250080,-1776.494261,-5403.503377,2911.162892
22452.250413,3478.967927,-3552.988522,4519.963438
22452.250746,4293.194464,-9474.636058,-383.047749
22452.251079,0.000000,-10140.821405,0.000000
22452.251412,1554.432478,-11843.295072,-2528.115143
22452.251745,-5995.668130,-15988.448347,-9039.926876
22452.252078,-74.020594,-13619.789333,-4979.620737
22452.252411,1184.329507,-13693.809927,-3983.696590
22452.252744,3330.926739,-10881.027347,6894.859482
22452.253077,3034.844362,-2516.700203,2068.457845
22452.253409,296.082377,-8660.409521,4903.011187
22452.253742,3478.967927,-4737.318029,4903.011187
22452.254075,4737.318029,-3627.009116,6205.373534
22452.254408,6439.791695,-7994.224174,5439.278036
22452.254741,0.000000,-7179.997637,0.000000
22452.255074,-4663.297435,-9252.574275,-4979.620737
22452.255407,-2960.823768,-10510.924376,-4060.306139
22452.255740,-4145.153275,-11325.150913,-7660.954980
22452.256073,-2220.617826,-11991.336260,-3294.210641
22452.256406,-962.267725,-9178.553681,-1302.362347
22452.256738,-6513.812290,-9844.739029,0.000000
22452.257071,-74.020594,-8142.265362,2068.457845
22452.257404,4663.297435,-6957.935855,3677.258390
22452.257737,3552.988522,-8512.368333,10495.508323
22452.258070,4663.297435,-5033.400406,5439.278036
22452.258403,3849.070898,-11103.089130,1915.238745
22452.258736,1702.473667,-11769.274478,459.657299
22452.259069,5477.523971,-7105.977043,-2451.505594
22452.259402,-74.020594,-19985.560434,4826.401637
22452.259735,2368.659014,-74.020594,-2528.115143
22452.260068,-6291.750507,-15988.448347,-3753.867940
22452.260400,-2368.659014,-7772.162391,-3294.210641
22452.260733,-3108.864956,-6809.894666,-1915.238745
22452.261066,-3627.009116,-11843.295072,1838.629195
22452.261399,3256.906145,-666.185348,1225.752797
22452.261732,-5921.647536,-9548.656652,7277.907231
22452.262065,2294.638420,-1258.350101,0.000000
22452.262398,-2960.823768,-7476.080014,612.876398
22452.262731,1998.556043,-12879.583391,-842.705048
22452.263064,4737.318029,-8068.244768,2604.724693
22452.263397,148.041188,-14211.954086,-1302.362347
22452.263730,814.226536,-10436.903782,-4443.353888
22452.264062,-962.267725,-14211.954086,-3140.991542
22452.264395,8290.306550,-6291.750507,-1762.019645
22452.264728,5477.523971,-17246.798449,7124.688131
22452.265061,5847.626942,-7698.141797,3294.210641
22452.265394,-3552.988522,-8364.327145,306.438199
22452.265727,1406.391290,-7105.977043,4060.306139
22452.266060,2220.617826,-5107.421000,612.876398
22452.266393,5033.400406,-4959.379811,6052.154434
22452.266726,1702.473667,-5995.668130,2757.943793
22452.267059,-6809.894666,-9548.656652,-4290.134789
22452.267391,-4737.318029,-10881.027347,-76.609550
22452.267724,-4811.338623,-7402.059420,-8044.002729
22452.268057,-222.061783,-11917.315666,-4903.011187
22452.268390,0.000000,-10066.800811,-689.485948
22452.268723,-4737.318029,-12213.398043,-1838.629195
22452.269056,-3627.009116,-9770.718434,536.266849
22452.269389,1332.370696,-8068.244768,2528.115143
22452.269722,5403.503377,-10955.047942,4519.963438
22452.270055,12731.542202,-5995.668130,9346.365076
22452.270388,4663.297435,-14211.954086,6665.030833
22452.270721,0.000000,-6587.832884,1838.629195
22452.271053,2590.720797,-8882.471304,2834.553343
22452.271386,4071.132681,-11843.295072,-1302.362347
22452.271719,592.164754,-9548.656652,0.000000
22452.272052,-3034.844362,-6143.709319,-4673.182538
22452.272385,-12287.418637,-15322.262999,-7201.297681
22452.272718,-7105.977043,-7920.203579,-4519.963438
22452.273051,-5107.421000,-13027.624579,2604.724693
22452.273384,5699.585753,962.267725,4213.525239
22452.273717,1258.350101,-5255.462188,6205.373534
22452.274050,-3552.988522,-9252.574275,689.485948
22452.274382,0.000000,-5181.441594,0.000000
22452.274715,-1480.411884,-10436.903782,0.000000
22452.275048,8734.430116,-11103.089130,4213.525239
22452.275381,518.144159,-11843.295072,-1302.362347
22452.275714,1776.494261,-9844.739029,-3677.258390
22452.276047,-2442.679609,-11547.212695,-4673.182538
22452.276380,4145.153275,-11399.171507,-2604.724693
22452.276713,3775.050304,-13101.645173,5056.230287
22452.277046,2220.617826,-9178.553681,3447.429741
22452.277379,-2072.576638,-11029.068536,1378.971896
22452.277712,-1850.514855,-4071.132681,2604.724693
22452.278044,4663.297435,-3552.988522,-76.609550
22452.278377,2664.741391,-4219.173869,6741.640382
22452.278710,2368.659014,-8956.491898,4903.011187
22452.279043,-3923.091493,-9548.656652,-2451.505594
22452.279376,-3849.070898,-8586.388927,-3753.867940
22452.279709,-4071.132681,-9326.594869,-6741.640382
22452.280042,-814.226536,-13619.789333,-842.705048
22452.280375,-74.020594,-11251.130318,-2528.115143
22452.280708,-4441.235652,-10140.821405,-2451.505594
22452.281041,-4959.379811,-15396.283594,-3907.087040
22452.281373,1332.370696,-7179.997637,1225.752797
22452.281706,6217.729913,-7105.977043,7660.954980
22452.282039,9400.615463,-9474.636058,9422.974625
22452.282372,7698.141797,-7105.977043,7277.907231
22452.282705,1332.370696,-11325.150913,153.219100
22452.283038,3997.112087,-9474.636058,4366.744339
22452.283371,3182.885551,-5921.647536,-1302.362347
22452.283704,4367.215058,-13915.871710,1762.019645
22452.284037,-4737.318029,-6291.750507,-3677.258390
22452.284370,-9474.636058,-10140.821405,-6205.373534
22452.284703,-5995.668130,-9474.636058,-5745.716235
22452.285035,-9178.553681,-7179.997637,-4596.572988
22452.285368,222.061783,-5107.421000,1225.752797
22452.285701,-1554.432478,-6661.853478,4903.011187
22452.286034,-148.041188,-6883.915261,3677.258390
22452.286367,-2516.700203,-7476.080014,0.000000
22452.286700,3775.050304,-10436.903782,1302.362347
22452.287033,4737.318029,-10288.862594,6665.030833
22452.287366,7624.121203,-7328.038826,2987.772442
22452.287699,370.102971,-11917.315666,-2451.505594
22452.288032,-2960.823768,-11917.315666,-6128.763984
22452.288364,962.267725,-9844.739029,-5515.887586
22452.288697,3849.070898,-10955.047942,-1685.410096
22452.289030,74.020594,-12139.377449,3983.696590
22452.289363,-1850.514855,-8216.285956,-919.314598
22452.289696,-2442.679609,-9548.656652,306.438199
22452.290029,888.247130,-1332.370696,3753.867940
22452.290362,2146.597232,-3701.029710,5132.839837
22452.290695,1036.288319,-3923.091493,5975.544884
22452.291028,-814.226536,-8290.306550,2068.457845
22452.291361,-5995.668130,-8956.491898,-4903.011187
22452.291694,-1480.411884,-6883.915261,-7048.078582
22452.292026,-4145.153275,-14211.954086,-4060.306139
22452.292359,1406.391290,-13101.645173,-3983.696590
22452.292692,-3256.906145,-10732.986159,-919.314598
22452.293025,-2146.597232,-11547.212695,-1915.238745
22452.293358,1702.473667,-6291.750507,-1378.971896
22452.293691,1258.350101,-17024.736666,6665.030833
22452.294024,13249.686362,-4737.318029,11568.042020
22452.294357,8808.450710,-7105.977043,7354.516781
22452.294690,7254.018232,-7698.141797,8503.660028
22452.295023,-74.020594,-8882.471304,-76.609550
22452.295356,1406.391290,-8068.244768,-3677.258390
22452.295688,2294.638420,-13027.624579,1149.143247
22452.296021,-4145.153275,-6291.750507,-6435.202183
22452.296354,-8956.491898,-11325.150913,-6435.202183
22452.296687,-11325.150913,-9474.636058,-8656.879127
22452.297020,-3552.988522,-4811.338623,-6741.640382
22452.297353,-2146.597232,-7179.997637,0.000000
22452.297686,3552.988522,-7105.977043,7277.907231
22452.298019,-74.020594,-7994.224174,4826.401637
22452.298352,2294.638420,-11843.295072,4826.401637
22452.298685,2442.679609,-5995.668130,4136.915689
22452.299017,8216.285956,-6365.771101,6358.592633
22452.299350,7254.018232,-9474.636058,3600.648841
22452.299683,2516.700203,-13841.851115,-2834.553343
22452.300016,-666.185348,-14730.098246,-2528.115143
22452.300349,-2368.659014,-8068.244768,-4290.134789
22452.300682,-2442.679609,-15692.365970,-2528.115143
22452.301015,3182.885551,-5995.668130,0.000000
22452.301348,-4737.318029,-11695.253884,919.314598
22452.301681,-1628.453072,-9474.636058,0.000000
22452.302014,-962.267725,-4367.215058,2451.505594
22452.302347,-1184.329507,-9252.574275,2451.505594
22452.302679,5699.585753,-5625.565159,7277.907231
22452.303012,-1998.556043,-4811.338623,0.000000
22452.303345,592.164754,-10658.965565,2068.457845
22452.303678,-3627.009116,-8142.265362,-3064.381992
22452.304011,-5107.421000,-9548.656652,-6128.763984
22452.304344,3478.967927,-9326.594869,-689.485948
22452.304677,-1258.350101,-11843.295072,-3447.429741
22452.305010,-1628.453072,-12065.356855,-1915.238745
22452.305343,-2442.679609,-11325.150913,-536.266849
22452.305676,3701.029710,-11991.336260,2068.457845
22452.306008,6809.894666,-5995.668130,7967.393179
22452.306341,7328.038826,-7994.224174,9422.974625
22452.306674,3478.967927,-10066.800811,4213.525239
22452.307007,2294.638420,-7105.977043,4519.963438
22452.307340,-740.205942,-7624.121203,-1225.752797
22452.307673,1184.329507,-3627.009116,0.000000
22452.308006,-3034.844362,-10658.965565,-4366.744339
22452.308339,-5995.668130,-10362.883188,-8273.831378
22452.308672,-7772.162391,-6661.853478,-7814.174080
22452.309005,-5033.400406,-13471.748144,-4366.744339
22452.309338,-3256.906145,-8364.327145,-1225.752797
22452.309670,2442.679609,-10658.965565,2911.162892
22452.310003,2368.659014,-8364.327145,5669.106685
22452.310336,3256.906145,-8142.265362,3140.991542
22452.310669,4441.235652,-10214.842000,6665.030833
22452.311002,8216.285956,-7698.141797,4366.744339
22452.311335,7105.977043,-8364.327145,2451.505594
22452.311668,2368.659014,-13619.789333,4826.401637
22452.312001,-1258.350101,-6735.874072,-6128.763984
22452.312334,-2368.659014,-11917.315666,-919.314598
22452.312667,1850.514855,-4663.297435,-3140.991542
22452.312999,2368.659014,-10584.944971,1532.190996
22452.313332,-1924.535449,-7698.141797,-766.095498
22452.313665,-3923.091493,-12435.459826,-3140.991542
22452.313998,-5995.668130,-12139.377449,-3677.258390
22452.314331,0.000000,-8512.368333,3907.087040
22452.314664,3849.070898,-7920.203579,7277.907231
22452.314997,4071.132681,-5403.503377,3677.258390
22452.315330,2294.638420,-7105.977043,1149.143247
22452.315663,814.226536,-11251.130318,1455.581446
22452.315996,-74.020594,-7920.203579,-2757.943793
22452.316329,4811.338623,-11843.295072,536.266849
22452.316661,-1184.329507,-11325.150913,-1838.629195
22452.316994,1776.494261,-11325.150913,-3677.258390
22452.317327,-1850.514855,-15988.448347,-4979.620737
22452.317660,1406.391290,-7476.080014,2451.505594
22452.317993,4737.318029,-4811.338623,6435.202183
22452.318326,5255.462188,-10066.800811,7584.345430
22452.318659,0.000000,-4811.338623,6128.763984
22452.318992,-3182.885551,-5773.606348,-689.485948
22452.319325,-2516.700203,-8068.244768,-1532.190996
22452.319658,-1776.494261,-7476.080014,-3524.039291
22452.319991,-2220.617826,-10288.862594,-3140.991542
22452.320323,-2960.823768,-9548.656652,-3064.381992
22452.320656,-6809.894666,-10140.821405,-8273.831378
22452.320989,-4515.256246,-11843.295072,-5898.935335
22452.321322,0.000000,-7698.141797,995.924147
22452.321655,2368.659014,-7179.997637,2145.067394
22452.321988,8438.347739,-12435.459826,9729.412825
22452.322321,3478.967927,-9770.718434,6818.249932
22452.322654,5847.626942,-6513.812290,2987.772442
22452.322987,5847.626942,-10066.800811,7201.297681
22452.323320,3552.988522,-9770.718434,1532.190996
22452.323652,4663.297435,-6217.729913,2374.896044
22452.323985,-6587.832884,-13249.686362,-6665.030833
22452.324318,-3627.009116,-13027.624579,-6205.373534
22452.324651,-11843.295072,-10140.821405,-2451.505594
22452.324984,1702.473667,-6809.894666,-1915.238745
22452.325317,-74.020594,-9474.636058,1149.143247
22452.325650,-4737.318029,-7179.997637,1225.752797
22452.325983,-1258.350101,-9474.636058,2298.286494
22452.326316,-74.020594,-4737.318029,2757.943793
22452.326649,4811.338623,-6365.771101,995.924147
22452.326982,6439.791695,-7994.224174,4826.401637
22452.327314,2738.761985,-11991.336260,2068.457845
22452.327647,1702.473667,-11251.130318,-1915.238745
22452.327980,-2442.679609,-18357.107362,-1915.238745
22452.328313,1184.329507,-3923.091493,-3064.381992
22452.328646,2738.761985,-14211.954086,3370.820191
22452.328979,2072.576638,-2738.761985,1225.752797
22452.329312,-2146.597232,-9474.636058,-689.485948
22452.329645,-4737.318029,-9622.677246,1149.143247
22452.329978,3627.009116,-3997.112087,2451.505594
22452.330311,0.000000,-6883.915261,4903.011187
22452.330643,7031.956449,-9474.636058,3600.648841
22452.330976,-5773.606348,-8364.327145,-4903.011187
22452.331309,-4145.153275,-15174.221811,-3753.867940
22452.331642,-74.020594,-8290.306550,-3753.867940
22452.331975,3552.988522,-10955.047942,-153.219100
22452.332308,3552.988522,-10584.944971,-919.314598
22452.332641,-148.041188,-10807.006753,2987.772442
22452.332974,-1776.494261,-6143.709319,-3983.696590
22452.333307,4663.297435,-11251.130318,6052.154434
22452.333640,3478.967927,-5403.503377,0.000000
22452.333973,8438.347739,-6809.894666,7890.783629
22452.334305,666.185348,-5773.606348,383.047749
22452.334638,0.000000,-8660.409521,-1225.752797
22452.334971,-6513.812290,-11917.315666,1225.752797
22452.335304,1110.308913,-10658.965565,-2528.115143
22452.335637,1850.514855,-10436.903782,-1685.410096
22452.335970,-1776.494261,-9252.574275,-1302.362347
22452.336303,-1258.350101,-12879.583391,-2528.115143
22452.336636,-4219.173869,-5329.482782,-1762.019645
22452.336969,740.205942,-4293.194464,-1838.629195
22452.337302,1554.432478,-12139.377449,2374.896044
22452.337634,592.164754,-8364.327145,3064.381992
22452.337967,0.000000,-11621.233289,1762.019645
22452.338300,2590.720797,-12731.542202,5745.716235
22452.338633,2294.638420,-3849.070898,76.609550
22452.338966,5921.647536,-8660.409521,5822.325785
22452.339299,4441.235652,-7179.997637,6435.202183
22452.339632,-1776.494261,-8956.491898,-2757.943793
22452.339965,-2072.576638,-11029.068536,0.000000
22452.340298,-5033.400406,-8364.327145,-5286.058936
22452.340631,-74.020594,-9474.636058,2987.772442
22452.340963,-1850.514855,-5107.421000,-76.609550
22452.341296,-2738.761985,-9474.636058,-5592.497135
22452.341629,-7624.121203,-11473.192101,-5515.887586
22452.341962,0.000000,-7179.997637,0.000000
22452.342295,4663.297435,-11769.274478,5822.325785
22452.342628,5921.647536,-8660.409521,5822.325785
22452.342961,2886.803174,-11843.295072,7277.907231
22452.343294,2368.659014,-5403.503377,2221.676944
22452.343627,4811.338623,-7994.224174,2374.896044
22452.343960,2368.659014,-7179.997637,1072.533697
22452.344292,-2368.659014,-7179.997637,-4290.134789
22452.344625,-3552.988522,-9548.656652,-4903.011187
22452.344958,-666.185348,-11843.295072,-2528.115143
22452.345291,-6587.832884,-11843.295072,-2221.676944
22452.345624,2368.659014,-4663.297435,-536.266849
22452.345957,-4293.194464,-14211.954086,1302.362347
22452.346290,3923.091493,-7105.977043,3830.477490
22452.346623,1480.411884,-8586.388927,4826.401637
22452.346956,-74.020594,-11547.212695,3600.648841
22452.347289,5921.647536,-3034.844362,5439.278036
22452.347622,2294.638420,-13027.624579,-76.609550
22452.347954,4737.318029,-3627.009116,612.876398
22452.348287,-5625.565159,-16062.468941,-4596.572988
22452.348620,1110.308913,-11547.212695,-4213.525239
22452.348953,-74.020594,-8734.430116,-1455.581446
22452.349286,1036.288319,-10140.821405,-766.095498
22452.349619,1776.494261,-8882.471304,3217.601092
22452.349952,-5107.421000,-8364.327145,-3600.648841
22452.350285,2368.659014,-6291.750507,4826.401637
22452.350618,1702.473667,-11251.130318,4673.182538
22452.350951,3256.906145,-6587.832884,5515.887586
22452.351283,1776.494261,-6883.915261,7201.297681
22452.351616,0.000000,-5403.503377,-3677.258390
22452.351949,-2146.597232,-11843.295072,-4596.572988
22452.352282,0.000000,-8586.388927,-4749.792088
22452.352615,-444.123565,-12583.501014,-4749.792088
22452.352948,1998.556043,-11473.192101,-3370.820191
22452.353281,-2368.659014,-14211.954086,995.924147
22452.353614,0.000000,-6143.709319,1455.581446
22452.353947,2294.638420,-8734.430116,5745.716235
22452.354280,5847.626942,-5921.647536,7277.907231
22452.354612,1110.308913,-9918.759623,4213.525239
22452.354945,3256.906145,-3182.885551,2451.505594
22452.355278,1702.473667,-13619.789333,2374.896044
22452.355611,814.226536,-7994.224174,0.000000
22452.355944,0.000000,-9696.697840,1378.971896
22452.356277,-5699.585753,-8956.491898,-8580.269578
22452.356610,-2442.679609,-11991.336260,-5209.449386
22452.356943,-9326.594869,-13693.809927,-7201.297681
22452.357276,-370.102971,-7698.141797,-1685.410096
22452.357609,-3034.844362,-7179.997637,0.000000
22452.357942,7698.141797,-4145.153275,6665.030833
22452.358274,1110.308913,-9474.636058,5745.716235
22452.358607,2960.823768,-7179.997637,5056.230287
22452.358940,4071.132681,-14211.954086,6052.154434
22452.359273,4145.153275,-7920.203579,3677.258390
22452.359606,5847.626942,-7994.224174,2451.505594
22452.359939,-3775.050304,-11843.295072,-842.705048
22452.360272,-2220.617826,-5403.503377,-8580.269578
22452.360605,-8364.327145,-11325.150913,-9806.022374
22452.360938,-74.020594,-9474.636058,-7431.126331
22452.361271,-4145.153275,-10140.821405,0.000000
22452.361603,-3997.112087,-8364.327145,3370.820191
22452.361936,1776.494261,-1258.350101,0.000000
22452.362269,-3923.091493,-14211.954086,5745.716235
22452.362602,9104.533087,518.144159,4290.134789
22452.362935,2368.659014,-11843.295072,4213.525239
22452.363268,7920.203579,-12879.583391,1762.019645
22452.363601,1184.329507,-13693.809927,5362.668486
22452.363934,-666.185348,-8290.306550,-2834.553343
22452.364267,2368.659014,-7179.997637,-1838.629195
22452.364600,-74.020594,-9474.636058,-76.609550
22452.364932,-74.020594,-9474.636058,-2834.553343
22452.365265,-666.185348,-6513.812290,0.000000
22452.365598,-5403.503377,-12879.583391,-4060.306139
22452.365931,-2294.638420,-9474.636058,383.047749
22452.366264,0.000000,-7179.997637,3983.696590
22452.366597,5255.462188,-6513.812290,2374.896044
22452.366930,296.082377,-8660.409521,4290.134789
22452.367263,-3552.988522,-13841.851115,-76.609550
22452.367596,3182.885551,-5625.565159,-1225.752797
22452.367929,-1776.494261,-10140.821405,612.876398
22452.368261,8216.285956,-2664.741391,2374.896044
22452.368594,-2072.576638,-8142.265362,-1532.190996
22452.368927,-2886.803174,-12213.398043,-4060.306139
22452.369260,-3552.988522,-9548.656652,-4903.011187
22452.369593,-1258.350101,-12731.542202,-4673.182538
22452.369926,6365.771101,-9104.533087,1149.143247
22452.370259,1036.288319,-13767.830521,6818.249932
22452.370592,6439.791695,-6957.935855,4290.134789
22452.370925,444.123565,-5995.668130,3677.258390
22452.371258,2812.782580,-8586.388927,3294.210641
22452.371591,1702.473667,-4811.338623,306.438199
22452.371923,-296.082377,-11251.130318,4826.401637
22452.372256,-296.082377,-5255.462188,-919.314598
22452.372589,-8068.244768,-8956.491898,-7354.516781
22452.372922,-2220.617826,-6957.935855,-4366.744339
22452.373255,-3849.070898,-8660.409521,-4749.792088
22452.373588,1924.535449,-9844.739029,-76.609550
22452.373921,0.000000,-11917.315666,0.000000
22452.374254,-74.020594,-16580.613101,-229.828649
22452.374587,4145.153275,-6587.832884,5592.497135
22452.374920,2960.823768,-8364.327145,7354.516781
22452.375252,11769.274478,-8290.306550,9116.536426
22452.375585,2368.659014,-5107.421000,5822.325785
22452.375918,0.000000,-7846.182985,-919.314598
22452.376251,-4589.276840,-10658.965565,-4519.963438
22452.376584,-1480.411884,-9326.594869,-4596.572988
22452.376917,-1850.514855,-11251.130318,-1302.362347
22452.377250,-74.020594,-7105.977043,-4366.744339
22452.377583,-7105.977043,-10732.986159,-3447.429741
22452.377916,-4811.338623,-10807.006753,-1915.238745
22452.378249,-74.020594,-6809.894666,1455.581446
22452.378581,5255.462188,-8882.471304,6665.030833
22452.378914,814.226536,-12361.439231,8044.002729
22452.379247,1998.556043,-3627.009116,2604.724693
22452.379580,-1480.411884,-12139.377449,-689.485948
22452.379913,4959.379811,-7698.141797,1302.362347
22452.380246,5033.400406,-8364.327145,0.000000
22452.380579,0.000000,-10955.047942,-76.609550
22452.380912,-74.020594,-9474.636058,-4213.525239
22452.381245,-9548.656652,-12435.459826,-9806.022374
22452.381578,6365.771101,-7994.224174,-76.609550
22452.381910,-1110.308913,-11325.150913,5515.887586
22452.382243,7476.080014,-6143.709319,5439.278036
22452.382576,-1110.308913,-11177.109724,8044.002729
22452.382909,-2664.741391,-4515.256246,2987.772442
22452.383242,2664.741391,-2886.803174,1608.800546
22452.383575,-962.267725,-14508.036463,2987.772442
22452.383908,3627.009116,-5847.626942,-1685.410096
22452.384241,-5847.626942,-14211.954086,-2528.115143
22452.384574,-2442.679609,-14211.954086,-5592.497135
22452.384907,-4811.338623,-9548.656652,-7354.516781
22452.385240,592.164754,-8660.409521,-612.876398
22452.385572,8216.285956,-8290.306550,4826.401637
22452.385905,1184.329507,-8956.491898,3677.258390
22452.386238,4811.338623,-9474.636058,4519.963438
22452.386571,1480.411884,-9622.677246,6281.983084
22452.386904,5773.606348,-7624.121203,3753.867940
22452.387237,4959.379811,-10510.924376,4826.401637
22452.387570,1776.494261,-10140.821405,2911.162892
22452.387903,-2442.679609,-9992.780217,-5362.668486
22452.388236,-5921.647536,-9844.739029,-6128.763984
22452.388569,-3552.988522,-11621.233289,-4366.744339
22452.388901,-4219.173869,-10362.883188,-4366.744339
22452.389234,-2146.597232,-7550.100608,-76.609550
22452.389567,-518.144159,-6365.771101,-76.609550
22452.389900,-3256.906145,-7476.080014,995.924147
22452.390233,3108.864956,-5921.647536,3983.696590
22452.390566,7031.956449,-9474.636058,6665.030833
22452.390899,5625.565159,-10288.862594,9729.412825
22452.391232,3478.967927,-10362.883188,-2221.676944
22452.391565,-2960.823768,-15766.386565,-1532.190996
22452.391898,2368.659014,-10732.986159,-1838.629195
22452.392230,2294.638420,-12435.459826,3140.991542
22452.392563,3923.091493,-2960.823768,0.000000
22452.392896,-2442.679609,-10288.862594,-2374.896044
22452.393229,-4589.276840,-8364.327145,-1455.581446
22452.393562,-4663.297435,-6587.832884,-4060.306139
22452.393895,-1184.329507,-8882.471304,4826.401637
22452.394228,-1258.350101,-9474.636058,-76.609550
22452.394561,-4737.318029,-7772.162391,4903.011187
22452.394894,2886.803174,-9474.636058,6971.469032
22452.395227,2368.659014,-5107.421000,766.095498
22452.395559,4071.132681,-11547.212695,1149.143247
22452.395892,3108.864956,-9326.594869,-76.609550
22452.396225,740.205942,-12065.356855,-3294.210641
22452.396558,1480.411884,-13101.645173,-2451.505594
22452.396891,-74.020594,-18949.272115,1149.143247
22452.397224,2368.659014,-1554.432478,-1225.752797
22452.397557,0.000000,-11029.068536,5132.839837
22452.397890,4663.297435,-4737.318029,1149.143247
22452.398223,-2072.576638,-8956.491898,1378.971896
22452.398556,-518.144159,-7402.059420,2068.457845
22452.398889,1036.288319,-5921.647536,1072.533697
22452.399221,296.082377,-12805.562797,3907.087040
22452.399554,4737.318029,-5995.668130,3983.696590
22452.399887,-3997.112087,-16506.592507,-1072.533697
22452.400220,-962.267725,370.102971,-6128.763984
22452.400553,-3923.091493,-18727.210333,-4443.353888
22452.400886,-74.020594,-9474.636058,-3140.991542
22452.401219,296.082377,5847.626942,-3064.381992
22452.401552,-7550.100608,-23094.425390,-76.609550
22452.401885,-5403.503377,-26055.249158,1608.800546
22452.402218,2664.741391,4737.318029,383.047749
22452.402550,14137.933492,3552.988522,2987.772442
22452.402883,8290.306550,-8068.244768,14709.033562
22452.403216,-2886.803174,-14804.118840,4443.353888
22452.403549,-2368.659014,-14211.954086,4519.963438
22452.403882,-3552.988522,-13693.809927,-2451.505594
22452.404215,0.000000,-9548.656652,-6128.763984
22452.404548,3478.967927,-8290.306550,-7584.345430
22452.404881,0.000000,-6365.771101,-9729.412825
22452.405214,-7105.977043,-8956.491898,-3064.381992
22452.405547,-5921.647536,-6587.832884,-2298.286494
22452.405879,-1776.494261,-4589.276840,5286.058936
22452.406212,-296.082377,-1554.432478,7890.783629
22452.406545,6735.874072,-1554.432478,8656.879127
22452.406878,2886.803174,-7698.141797,9729.412825
22452.407211,1184.329507,-4811.338623,6052.154434
22452.407544,1702.473667,-9178.553681,-4519.963438
22452.407877,3552.988522,-19319.375086,3677.258390
22452.408210,4737.318029,-17098.757260,4826.401637
22452.408543,2072.576638,-13397.727550,-1838.629195
22452.408876,-6291.750507,-15840.407159,-7354.516781
22452.409208,-4589.276840,-11473.192101,-7890.783629
22452.409541,4071.132681,-6735.874072,-383.047749
22452.409874,740.205942,-8290.306550,1838.629195
22452.410207,4219.173869,-9474.636058,2374.896044
22452.410540,-5625.565159,-8364.327145,-3294.210641
22452.410873,296.082377,-7772.162391,612.876398
22452.411206,5847.626942,-8734.430116,842.705048
22452.411539,5551.544565,-9696.697840,229.828649
22452.411872,4811.338623,-8808.450710,-1225.752797
22452.412205,-3552.988522,-12731.542202,-4979.620737
22452.412538,-2146.597232,-9770.718434,-6205.373534
22452.412870,-5921.647536,-6883.915261,-4290.134789
22452.413203,1702.473667,-6513.812290,-5898.935335
22452.413536,-2368.659014,-9252.574275,2374.896044
22452.413869,-4145.153275,-11029.068536,-76.609550
22452.414202,-3034.844362,-3182.885551,0.000000
22452.414535,148.041188,-6957.935855,4826.401637
22452.414868,5847.626942,-9104.533087,4903.011187
22452.415201,6883.915261,-8956.491898,10342.289223
22452.415534,0.000000,-7550.100608,2757.943793
22452.415867,1480.411884,-8364.327145,4903.011187
22452.416199,-666.185348,-9030.512492,1532.190996
22452.416532,7031.956449,-6587.832884,3370.820191
22452.416865,-148.041188,-8438.347739,3677.258390
22452.417198,-1406.391290,-6365.771101,-2374.896044
22452.417531,-8290.306550,-7179.997637,-3064.381992
22452.417864,-3627.009116,-6809.894666,-6358.592633
22452.418197,-3108.864956,-5403.503377,0.000000
22452.418530,1258.350101,-9474.636058,3294.210641
22452.418863,2146.597232,-9474.636058,4213.525239
22452.419196,0.000000,-11029.068536,5515.887586
22452.419528,5403.503377,-8586.388927,4290.134789
22452.419861,4811.338623,-8586.388927,5822.325785
22452.420194,9178.553681,-6587.832884,3217.601092
22452.420527,4071.132681,-13027.624579,2068.457845
22452.420860,-74.020594,-12435.459826,-4903.011187
22452.421193,-2516.700203,-12287.418637,-3830.477490
22452.421526,-666.185348,-11843.295072,-2834.553343
22452.421859,-1258.350101,-7476.080014,-4060.306139
22452.422192,-1480.411884,-12953.603985,-76.609550
22452.422525,-3997.112087,-9696.697840,-2451.505594
22452.422857,-962.267725,-10436.903782,-76.609550
22452.423190,1406.391290,-9400.615463,3600.648841
22452.423523,1110.308913,-9474.636058,2374.896044
22452.423856,4071.132681,-5995.668130,3677.258390
22452.424189,2886.803174,-10362.883188,1762.019645
22452.424522,-1258.350101,-6513.812290,-4366.744339
22452.424855,-2072.576638,-7179.997637,-2298.286494
22452.425188,-666.185348,-10584.944971,-6971.469032
22452.425521,2664.741391,-10584.944971,-1915.238745
22452.425854,-5773.606348,-13693.809927,-6358.592633
22452.426187,-444.123565,-8068.244768,-2987.772442
22452.426519,-2960.823768,-8364.327145,2451.505594
22452.426852,5921.647536,-7328.038826,8120.612279
22452.427185,9400.615463,-7105.977043,10955.165621
22452.427518,-2368.659014,-7179.997637,4903.011187
22452.427851,592.164754,-7179.997637,8197.221829
22452.428184,-2442.679609,-7994.224174,1302.362347
22452.428517,3034.844362,-4885.359217,-1455.581446
22452.428850,-2368.659014,-10066.800811,-76.609550
22452.429183,-4589.276840,-8142.265362,-7814.174080
22452.429516,-6809.894666,-9252.574275,-6741.640382
22452.429848,-4219.173869,-13027.624579,-6205.373534
22452.430181,3182.885551,-11399.171507,2681.334243
22452.430514,148.041188,-9548.656652,5669.106685
22452.430847,7624.121203,-8290.306550,4826.401637
22452.431180,592.164754,-12139.377449,8427.050478
22452.431513,4737.318029,-5995.668130,9193.145976
22452.431846,7328.038826,-6809.894666,8503.660028
22452.432179,5255.462188,-6365.771101,3447.429741
22452.432512,-74.020594,-9252.574275,-2681.334243
22452.432845,-3034.844362,-11251.130318,-6205.373534
22452.433178,-7105.977043,-11547.212695,-10418.898773
22452.433511,-4885.359217,-13101.645173,-6818.249932
22452.433843,-1258.350101,-9770.718434,-2374.896044
22452.434176,-1258.350101,-9474.636058,-1302.362347
22452.434509,-7105.977043,-13101.645173,1378.971896
22452.434842,962.267725,-8290.306550,1149.143247
22452.435175,2294.638420,-5921.647536,4826.401637
22452.435508,5329.482782,-7179.997637,6128.763984
22452.435841,9400.615463,-8142.265362,4903.011187
22452.436174,2960.823768,-11547.212695,2987.772442
22452.436507,666.185348,-9548.656652,-2451.505594
22452.436840,1850.514855,-10658.965565,-3753.867940
22452.437173,-1184.329507,-10732.986159,-3524.039291
22452.437506,1998.556043,-10658.965565,-4366.744339
22452.437839,-3627.009116,-8512.368333,-7048.078582
22452.438172,-7105.977043,-11325.150913,-4979.620737
22452.438505,2886.803174,-10658.965565,-76.609550
22452.438838,0.000000,-8956.491898,9806.022374
22452.439171,4737.318029,-3923.091493,6741.640382
22452.439504,-74.020594,-9474.636058,5898.935335
22452.439836,592.164754,-7402.059420,2221.676944
22452.440169,444.123565,-7772.162391,2451.505594
22452.440502,-74.020594,-7031.956449,0.000000
22452.440835,740.205942,-8364.327145,0.000000
22452.441168,-4737.318029,-10436.903782,-689.485948
22452.441501,-3923.091493,-6513.812290,-10035.851024
22452.441834,-3849.070898,-11251.130318,-4366.744339
22452.442167,-888.247130,-6439.791695,-3217.601092
22452.442500,5773.606348,-7105.977043,2911.162892
22452.442833,3404.947333,-15100.201217,6971.469032
22452.443166,8216.285956,-7994.224174,3907.087040
22452.443499,0.000000,-13101.645173,7354.516781
22452.443832,8808.450710,-9474.636058,7277.907231
22452.444165,7994.224174,-5403.503377,3217.601092
22452.444498,0.000000,-9548.656652,4903.011187
22452.444831,1702.473667,-7105.977043,-5592.497135
22452.445164,-10362.883188,-11621.233289,-6741.640382
22452.445497,-2368.659014,-7179.997637,-5286.058936
22452.445829,-2368.659014,-6587.832884,-2145.067394
22452.446162,-1554.432478,-5625.565159,-1302.362347
22452.446495,-5625.565159,-9918.759623,-1838.629195
22452.446828,-4367.215058,-12361.439231,76.609550
22452.447161,0.000000,-10510.924376,4826.401637
22452.447494,1184.329507,-9548.656652,7354.516781
22452.447827,7254.018232,-7105.977043,4213.525239
22452.448160,3034.844362,-5995.668130,1225.752797
22452.448493,-2960.823768,-13101.645173,2604.724693
22452.448826,7920.203579,-5921.647536,-995.924147
22452.449159,-2812.782580,-12509.480420,-4596.572988
22452.449492,666.185348,-10288.862594,-6205.373534
22452.449825,-1554.432478,-8882.471304,153.219100
22452.450158,-2368.659014,-7994.224174,-1378.971896
22452.450491,3478.967927,-9474.636058,6052.154434
22452.450824,-1184.329507,-8290.306550,3294.210641
22452.451157,296.082377,-4811.338623,3677.258390
22452.451490,0.000000,-8364.327145,8580.269578
22452.451822,1702.473667,-7105.977043,-3140.991542
22452.452155,-4811.338623,-14063.912898,1685.410096
22452.452488,-74.020594,-9326.594869,-3753.867940
22452.452821,370.102971,-10140.821405,-2451.505594
22452.453154,1184.329507,-10881.027347,306.438199
22452.453487,-2960.823768,-6291.750507,-3677.258390
22452.453820,-1332.370696,-8290.306550,-1915.238745
22452.454153,-2072.576638,-7772.162391,0.000000
22452.454486,6217.729913,-6661.853478,3600.648841
22452.454819,5847.626942,-11843.295072,4826.401637
22452.455152,6291.750507,-7920.203579,6971.469032
22452.455485,592.164754,-10436.903782,229.828649
22452.455818,2516.700203,-11769.274478,3753.867940
22452.456151,2664.741391,-13841.851115,2145.067394
22452.456484,3552.988522,-9844.739029,1532.190996
22452.456817,-3627.009116,-12879.583391,-3830.477490
22452.457150,-2442.679609,-8882.471304,-4979.620737
22452.457483,-3627.009116,-9474.636058,-6205.373534
22452.457815,-3552.988522,-3034.844362,-612.876398
22452.458148,0.000000,-6587.832884,306.438199
22452.458481,-3552.988522,-9030.512492,1685.410096
22452.458814,-2664.741391,-10658.965565,-76.609550
22452.459147,222.061783,-7402.059420,1608.800546
22452.459480,5033.400406,-11251.130318,4826.401637
22452.459813,0.000000,-12509.480420,4903.011187
22452.460146,9400.615463,-8290.306550,1915.238745
22452.460479,148.041188,-12213.398043,536.266849
22452.460812,1480.411884,-7179.997637,536.266849
22452.461145,2368.659014,-6809.894666,-1838.629195
22452.461478,-592.164754,-11769.274478,-306.438199
22452.461811,2516.700203,-5403.503377,-612.876398
22452.462144,-6291.750507,-11769.274478,-919.314598
22452.462477,-4219.173869,-10658.965565,-3753.867940
22452.462810,-5921.647536,-8956.491898,1838.629195
22452.463143,814.226536,-7772.162391,2987.772442
22452.463476,6735.874072,-666.185348,3907.087040
22452.463808,74.020594,-10584.944971,536.266849
22452.464141,2294.638420,-9474.636058,-76.609550
22452.464474,-1776.494261,-13101.645173,1225.752797
22452.464807,7031.956449,-10658.965565,-76.609550
22452.465140,0.000000,-11325.150913,306.438199
22452.465473,444.123565,-9474.636058,2374.896044
22452.465806,-148.041188,-5921.647536,-2068.457845
22452.466139,-1184.329507,-7402.059420,0.000000
22452.466472,-1184.329507,-8068.244768,-689.485948
22452.466805,1628.453072,-6291.750507,1991.848295
22452.467138,-1184.329507,-9548.656652,2604.724693
22452.467471,0.000000,-8364.327145,1838.629195
22452.467804,-3034.844362,-14804.118840,1762.019645
22452.468137,1702.473667,-6661.853478,-2145.067394
22452.468470,4737.318029,-11769.274478,4213.525239
22452.468803,3182.885551,-6513.812290,0.000000
22452.469136,-2442.679609,-10214.842000,-536.266849
22452.469469,-5181.441594,-3256.906145,-6128.763984
22452.469801,-3701.029710,-11473.192101,-4979.620737
22452.470134,2590.720797,-8956.491898,0.000000
22452.470467,3256.906145,-10214.842000,2374.896044
22452.470800,-4959.379811,-10732.986159,612.876398
22452.471133,1776.494261,-8808.450710,2451.505594
22452.471466,-74.020594,-11843.295072,842.705048
22452.471799,4737.318029,-7772.162391,5515.887586
22452.472132,4663.297435,-5921.647536,2757.943793
22452.472465,3034.844362,-11473.192101,2987.772442
22452.472798,0.000000,-10658.965565,-536.266849
22452.473131,-74.020594,-12287.418637,-76.609550
22452.473464,-370.102971,-8882.471304,-76.609550
22452.473797,-3034.844362,-5107.421000,-3370.820191
22452.474130,-4737.318029,-6735.874072,-7048.078582
22452.474463,-3627.009116,-12139.377449,-4366.744339
22452.474796,-1850.514855,-11251.130318,-2528.115143
22452.475129,2442.679609,-8068.244768,1838.629195
22452.475461,3923.091493,-15248.242405,7890.783629
22452.475794,8216.285956,-6217.729913,8350.440928
22452.476127,592.164754,-9548.656652,3983.696590
22452.476460,5551.544565,-5625.565159,2451.505594
22452.476793,1776.494261,-9104.533087,1225.752797
22452.477126,4663.297435,-8882.471304,-76.609550
22452.477459,0.000000,-8364.327145,-2451.505594
22452.477792,-5403.503377,-13323.706956,-3753.867940
22452.478125,-4737.318029,-9030.512492,-3677.258390
22452.478458,-7624.121203,-11251.130318,-5669.106685
22452.478791,2072.576638,-7550.100608,-229.828649
22452.479124,0.000000,-6291.750507,2451.505594
22452.479457,222.061783,-9326.594869,3064.381992
22452.479790,2294.638420,-3182.885551,2681.334243
22452.480123,2590.720797,-8808.450710,3447.429741
22452.480456,7179.997637,-7402.059420,5362.668486
22452.480789,2072.576638,-10140.821405,3600.648841
22452.481122,3330.926739,-13027.624579,-4979.620737
22452.481454,-5625.565159,-11917.315666,-1225.752797
22452.481787,1702.473667,-8142.265362,-1302.362347
22452.482120,2886.803174,-8882.471304,842.705048
22452.482453,0.000000,-7179.997637,1838.629195
22452.482786,-2886.803174,-7179.997637,-2911.162892
22452.483119,-3627.009116,-11103.089130,1072.533697
22452.483452,148.041188,-9548.656652,3064.381992
22452.483785,592.164754,-8882.471304,6128.763984
22452.484118,4071.132681,-6291.750507,4903.011187
22452.484451,2960.823768,-5995.668130,3600.648841
22452.484784,-2738.761985,-11251.130318,-3447.429741
22452.485117,-814.226536,-5403.503377,-5439.278036
22452.485450,-2146.597232,-14211.954086,-4060.306139
22452.485783,888.247130,-11399.171507,-2451.505594
22452.486116,-3997.112087,-12509.480420,612.876398
22452.486449,-4959.379811,-7772.162391,-3064.381992
22452.486782,-2442.679609,-10658.965565,1149.143247
22452.487115,-4737.318029,-4811.338623,3064.381992
22452.487447,-74.020594,-9474.636058,5439.278036
22452.487780,-5551.544565,-5403.503377,4903.011187
22452.488113,-3552.988522,-8956.491898,4290.134789
22452.488446,-5995.668130,-9770.718434,3140.991542
22452.488779,-3701.029710,-7105.977043,3447.429741
22452.489112,-3182.885551,-4589.276840,-612.876398
22452.489445,-5255.462188,-8808.450710,-1149.143247
22452.489778,-10807.006753,-9548.656652,-7967.393179
22452.490111,-10658.965565,-10732.986159,-2528.115143
22452.490444,-9548.656652,-10658.965565,-6741.640382
22452.490777,-7105.977043,-11325.150913,0.000000
22452.491110,-6513.812290,-11029.068536,2451.505594
22452.491443,-1258.350101,-6439.791695,1225.752797
22452.491776,-7402.059420,-12509.480420,3677.258390
22452.492109,2146.597232,-6143.709319,8120.612279
22452.492442,-1184.329507,-8734.430116,6435.202183
22452.492775,0.000000,-6587.832884,4596.572988
22452.493108,-4441.235652,-7254.018232,536.266849
22452.493440,-7031.956449,-6587.832884,-4213.525239
22452.493773,-8142.265362,-12139.377449,-3753.867940
22452.494106,-7179.997637,-9474.636058,-5592.497135
22452.494439,-8364.327145,-7698.141797,-8273.831378
22452.494772,-11843.295072,-10732.986159,-3983.696590
22452.495105,-4811.338623,-10955.047942,-76.609550
22452.495438,-3923.091493,-8290.306550,995.924147
22452.495771,-1998.556043,-11103.089130,7507.735880
22452.496104,-2516.700203,-7328.038826,4596.572988
22452.496437,-3108.864956,-12583.501014,4366.744339
22452.496770,-1628.453072,-10066.800811,2451.505594
22452.497103,-5699.585753,-11621.233289,3447.429741
22452.497436,-3182.885551,-7179.997637,-1838.629195
22452.497769,-7105.977043,-13915.871710,-76.609550
22452.498102,-9622.677246,-4219.173869,-4596.572988
22452.498435,-11251.130318,-5403.503377,-2451.505594
22452.498768,-9844.739029,-6809.894666,-2221.676944
22452.499101,-10658.965565,-9548.656652,-919.314598
22452.499433,-11029.068536,-10288.862594,-383.047749
22452.499766,-6735.874072,-9622.677246,2374.896044
22452.500099,-9474.636058,-9844.739029,1838.629195
22452.500432,-5403.503377,-9770.718434,612.876398
22452.500765,-5995.668130,-11843.295072,4826.401637
22452.501098,-9548.656652,-10510.924376,-1302.362347
22452.501431,-10066.800811,-7476.080014,0.000000
22452.501764,-7105.977043,-7179.997637,612.876398
22452.502097,-10732.986159,-8290.306550,-229.828649
22452.502430,-10436.903782,-6439.791695,-2374.896044
22452.502763,-11843.295072,-7476.080014,-1915.238745
22452.503096,-9992.780217,-10362.883188,-2528.115143
22452.503429,-8290.306550,-9844.739029,4903.011187
22452.503762,-7179.997637,-9622.677246,2145.067394
22452.504095,-5995.668130,-8438.347739,-2451.505594
22452.504428,-10658.965565,-15322.262999,1762.019645
22452.504761,-5995.668130,-11843.295072,2374.896044
22452.505094,-9104.533087,-9474.636058,2374.896044
22452.505426,-11621.233289,-9548.656652,612.876398
22452.505759,-12731.542202,-7772.162391,766.095498
22452.506092,-13693.809927,-5773.606348,-1915.238745
22452.506425,-9844.739029,-7994.224174,2374.896044
22452.506758,-15470.304188,-4811.338623,-2451.505594
22452.507091,-11103.089130,-8142.265362,-76.609550
22452.507424,-9548.656652,-11251.130318,-1302.362347
22452.507757,-9548.656652,-13027.624579,-689.485948
22452.508090,-7920.203579,-11547.212695,1149.143247
22452.508423,-7994.224174,-10584.944971,1302.362347
22452.508756,-6143.709319,-7624.121203,3064.381992
22452.509089,-6883.915261,-9178.553681,2068.457845
22452.509422,-8586.388927,-11547.212695,-76.609550
22452.509755,-9992.780217,-9474.636058,229.828649
22452.510088,-10066.800811,-8586.388927,-1608.800546
22452.510421,-8586.388927,-7920.203579,1378.971896
22452.510754,-11547.212695,-5403.503377,-2145.067394
22452.511087,-8068.244768,-9474.636058,-76.609550
22452.511419,-7920.203579,-9474.636058,1149.143247
22452.511752,-8882.471304,-7179.997637,612.876398
22452.512085,-6809.894666,-10807.006753,1915.238745
22452.512418,-4811.338623,-10510.924376,-1378.971896
22452.512751,-7994.224174,-10584.944971,-306.438199
22452.513084,-9622.677246,-11251.130318,-76.609550
22452.513417,-8882.471304,-9474.636058,-383.047749
22452.513750,-13915.871710,-10140.821405,-1225.752797
22452.514083,-10362.883188,-8882.471304,-1302.362347
22452.514416,-12435.459826,-5403.503377,-1225.752797
22452.514749,-11843.295072,-5403.503377,1532.190996
22452.515082,-7772.162391,-8586.388927,1149.143247
22452.515415,-10584.944971,-8956.491898,1225.752797
22452.515748,-6883.915261,-10658.965565,1378.971896
22452.516081,-6587.832884,-11177.109724,2221.676944
22452.516414,-5921.647536,-9844.739029,1532.190996
22452.516747,-6291.750507,-12435.459826,-76.609550
22452.517080,-8660.409521,-13027.624579,-76.609550
22452.517412,-13027.624579,-9548.656652,-2145.067394
22452.517745,-9548.656652,-9474.636058,-76.609550
22452.518078,-9548.656652,-9474.636058,-76.609550
22452.518411,-10140.821405,-5921.647536,-76.609550
22452.518744,-13915.871710,-7179.997637,-1072.533697
22452.519077,-10881.027347,-6957.935855,-689.485948
22452.519410,-9548.656652,-10658.965565,2221.676944
22452.519743,-8290.306550,-8660.409521,3064.381992
22452.520076,-7179.997637,-8586.388927,0.000000
22452.520409,-12435.459826,-9548.656652,0.000000
22452.520742,-6587.832884,-11251.130318,-76.609550
22452.521075,-10584.944971,-8882.471304,-1608.800546
22452.521408,-10288.862594,-9030.512492,-842.705048
22452.521741,-11991.336260,-9918.759623,-1149.143247
22452.522074,-10807.006753,-8882.471304,-766.095498
22452.522407,-9474.636058,-6735.874072,306.438199
22452.522740,-5995.668130,-7550.100608,2987.772442
22452.523072,-8882.471304,-5403.503377,2451.505594
22452.523405,-7179.997637,-10362.883188,1149.143247
22452.523738,-8364.327145,-10510.924376,0.000000
22452.524071,-10066.800811,-12213.398043,1455.581446
22452.524404,-9178.553681,-11029.068536,-689.485948
22452.524737,-7698.141797,-11177.109724,1991.848295
22452.525070,-7476.080014,-7476.080014,1225.752797
22452.525403,-7920.203579,-6661.853478,995.924147
22452.525736,-7772.162391,-8290.306550,-76.609550
22452.526069,-12435.459826,-8068.244768,-1838.629195
22452.526402,-13619.789333,-9696.697840,-2221.676944
22452.526735,-14434.015869,-11251.130318,-2681.334243
22452.527068,-14137.933492,-10658.965565,-919.314598
22452.527401,-9178.553681,-11769.274478,3677.258390
22452.527734,-6513.812290,-7476.080014,4903.011187
22452.528067,-3182.885551,-8882.471304,6052.154434
22452.528400,-4367.215058,-6143.709319,2451.505594
22452.528733,-4663.297435,-7550.100608,0.000000
22452.529065,-3627.009116,-11473.192101,536.266849
22452.529398,-7254.018232,-11325.150913,-2145.067394
22452.529731,-11621.233289,-12139.377449,-5975.544884
22452.530064,-14878.139434,-13027.624579,-6894.859482
22452.530397,-14878.139434,-11251.130318,-6205.373534
22452.530730,-16580.613101,-10732.986159,-76.609550
22452.531063,-11325.150913,-9474.636058,4519.963438
22452.531396,-8956.491898,-5255.462188,4903.011187
22452.531729,-5921.647536,-4811.338623,11031.775171
22452.532062,-1258.350101,-3552.988522,9346.365076
22452.532395,-666.185348,-4737.318029,6588.421283
22452.532728,-962.267725,-7328.038826,1915.238745
22452.533061,-4071.132681,-10362.883188,-4290.134789
22452.533394,-8290.306550,-11917.315666,-9806.022374
22452.533726,-9474.636058,-16580.613101,-9882.631924
22452.534059,-9548.656652,-15100.201217,-10189.070123
22452.534392,-7772.162391,-11029.068536,-6894.859482
22452.534725,-6513.812290,-10658.965565,-76.609550
22452.535058,-4737.318029,-6883.915261,5209.449386
22452.535391,-1258.350101,-5921.647536,9576.193725
22452.535724,1998.556043,-6513.812290,12640.575717
22452.536057,0.000000,-4811.338623,12257.527968
22452.536389,2220.617826,-8438.347739,9652.803275
22452.536722,-1480.411884,-7772.162391,1225.752797
22452.537055,-3552.988522,-11325.150913,995.924147
22452.537388,-2442.679609,-11251.130318,-3753.867940
22452.537721,-7179.997637,-9548.656652,-8503.660028
22452.538054,-9474.636058,-11917.315666,-5132.839837
22452.538387,-9178.553681,-9548.656652,-4290.134789
22452.538720,-7624.121203,-7328.038826,-459.657299
22452.539053,-5477.523971,-8290.306550,4213.525239
22452.539385,-3923.091493,-8586.388927,8503.660028
22452.539718,-2146.597232,-7476.080014,9499.584175
22452.540051,-370.102971,-8142.265362,11108.384721
22452.540384,592.164754,-9770.718434,10418.898773
22452.540717,0.000000,-9548.656652,7354.516781
22452.541050,0.000000,-9548.656652,7660.954980
22452.541383,-74.020594,-10658.965565,4213.525239
22452.541716,-3552.988522,-7179.997637,0.000000
22452.542049,-5625.565159,-9696.697840,2451.505594
22452.542381,-6365.771101,-9770.718434,3294.210641
22452.542714,-6513.812290,-8512.368333,6128.763984
22452.543047,-7031.956449,-9030.512492,9499.584175
22452.543380,-6439.791695,-8068.244768,12104.308868
22452.543713,-2368.659014,-9252.574275,18845.949251
22452.544046,370.102971,-6587.832884,20454.749797
22452.544379,2294.638420,-8882.471304,18922.558801
22452.544712,0.000000,-8364.327145,19612.044749
22452.545045,2072.576638,-9918.759623,19535.435199
22452.545377,-1406.391290,-8808.450710,15321.909960
22452.545710,-2146.597232,-8512.368333,13100.233016
22452.546043,-5329.482782,-8142.265362,12563.966167
22452.546376,-4663.297435,-6661.853478,13559.890315
22452.546709,-1554.432478,-4737.318029,16471.053207
22452.547042,-2368.659014,-3627.009116,20837.797546
22452.547375,-1702.473667,-3034.844362,17160.539155
22452.547708,0.000000,-7772.162391,22599.817191
22452.548040,518.144159,-7772.162391,19612.044749
22452.548373,814.226536,-11843.295072,21986.940793
22452.548706,2294.638420,-12139.377449,21986.940793
22452.549039,1702.473667,-9992.780217,22523.207641
22452.549372,814.226536,-6809.894666,21986.940793
22452.549705,1258.350101,-4663.297435,19612.044749
22452.550038,3478.967927,-4737.318029,21680.502593
22452.550371,592.164754,-2442.679609,22063.550342
22452.550704,3849.070898,-3627.009116,21374.064394
22452.551036,-666.185348,-3552.988522,12793.794817
22452.551369,0.000000,-2442.679609,11031.775171
22452.551702,-666.185348,-9770.718434,12257.527968
22452.552035,-74.020594,-11547.212695,14632.424012
22452.552368,-888.247130,-14063.912898,16011.395908
22452.552701,-1480.411884,-11103.089130,16854.100956
22452.553034,1110.308913,-7772.162391,15092.081311
22452.553367,3552.988522,-8956.491898,24438.446386
22452.553700,4367.215058,-5921.647536,18922.558801
22452.554032,-1924.535449,-2442.679609,14709.033562
22452.554365,-3552.988522,-4811.338623,10112.460574
22452.554698,-3923.091493,-7402.059420,7967.393179
22452.555031,-4293.194464,-7550.100608,8503.660028
22452.555364,-4219.173869,-6735.874072,6205.373534
22452.555697,-1332.370696,-7402.059420,7201.297681
22452.556030,1406.391290,-7476.080014,6281.983084
22452.556363,1924.535449,-10510.924376,10035.851024
22452.556696,148.041188,-11843.295072,10112.460574
22452.557028,444.123565,-11991.336260,11414.822920
22452.557361,2738.761985,-10510.924376,12793.794817
22452.557694,3182.885551,-7846.182985,7890.783629
22452.558027,0.000000,-5995.668130,3677.258390
22452.558360,0.000000,-9992.780217,6052.154434
22452.558693,-962.267725,-9474.636058,2528.115143
22452.559026,-4737.318029,-7179.997637,2451.505594
22452.559359,-666.185348,-8290.306550,1915.238745
22452.559691,2072.576638,-9548.656652,4673.182538
22452.560024,3108.864956,-9252.574275,4903.011187
22452.560357,2294.638420,-9474.636058,2987.772442
22452.560690,1702.473667,-8142.265362,1532.190996
22452.561023,2960.823768,-11251.130318,7277.907231
22452.561356,3182.885551,-13027.624579,7277.907231
22452.561689,1702.473667,-11695.253884,5515.887586
22452.562022,-74.020594,-10066.800811,4826.401637
22452.562355,-1998.556043,-4811.338623,0.000000
22452.562687,296.082377,-5403.503377,1225.752797
22452.563020,-74.020594,-8290.306550,1455.581446
22452.563353,-3552.988522,-9844.739029,0.000000
22452.563686,-1554.432478,-12065.356855,0.000000
22452.564019,1554.432478,-9474.636058,2374.896044
22452.564352,1998.556043,-2738.761985,306.438199
22452.564685,2960.823768,-7328.038826,4213.525239
22452.565018,2590.720797,-8956.491898,2987.772442
22452.565351,2886.803174,-15396.283594,6665.030833
22452.565683,666.185348,-14137.933492,7201.297681
22452.566016,-1332.370696,-10732.986159,4903.011187
22452.566349,-74.020594,-7994.224174,5439.278036
22452.566682,-3552.988522,-7179.997637,4903.011187
22452.567015,-666.185348,-8290.306550,1762.019645
22452.567348,-5921.647536,-4811.338623,766.095498
22452.567681,-74.020594,-13619.789333,4213.525239
22452.568014,1332.370696,-11843.295072,10418.898773
22452.568346,962.267725,-8290.306550,9882.631924
22452.568679,1110.308913,-7476.080014,8350.440928
22452.569012,1776.494261,-9252.574275,8886.707777
22452.569345,3182.885551,-12139.377449,9959.241474
22452.569678,4663.297435,-14211.954086,14632.424012
22452.570011,-2072.576638,-7179.997637,8580.269578
22452.570344,-4737.318029,-7179.997637,9193.145976
22452.570677,-74.020594,-7550.100608,8963.317327
22452.571010,-1258.350101,-10436.903782,13176.842566
22452.571342,-1554.432478,-11251.130318,12793.794817
22452.571675,444.123565,-7476.080014,14249.376263
22452.572008,1998.556043,-3997.112087,16164.615008
22452.572341,888.247130,-4441.235652,17083.929605
22452.572674,4071.132681,-7698.141797,19535.435199
22452.573007,1776.494261,-6735.874072,17926.634653
22452.573340,3182.885551,-7994.224174,18003.244203
22452.573673,2738.761985,-8290.306550,18233.072852
22452.574006,1702.473667,-7698.141797,17390.367805
22452.574338,888.247130,-7105.977043,21374.064394
22452.574671,-74.020594,-6513.812290,14938.862211
22452.575004,-3404.947333,-7179.997637,17160.539155
22452.575337,-2368.659014,-6143.709319,15934.786358
22452.575670,-666.185348,-5329.482782,15551.738609
22452.576003,148.041188,-3552.988522,16011.395908
22452.576336,-740.205942,-4885.359217,16011.395908
22452.576669,1406.391290,-8734.430116,19612.044749
22452.577002,592.164754,-8364.327145,22063.550342
22452.577334,2294.638420,-8882.471304,17083.929605
22452.577667,0.000000,-2812.782580,11108.384721
22452.578000,0.000000,-6587.832884,12257.527968
22452.578333,1258.350101,-9474.636058,12180.918418
22452.578666,-1776.494261,-9548.656652,12870.404366
22452.578999,-1036.288319,-10214.842000,12180.918418
22452.579332,-3552.988522,-6661.853478,9806.022374
22452.579665,-2146.597232,-7031.956449,8350.440928
22452.579997,1776.494261,-9178.553681,13559.890315
22452.580330,4071.132681,-8882.471304,12180.918418
22452.580663,1184.329507,-8956.491898,15628.348159
22452.580996,4663.297435,-11843.295072,19228.997000
22452.581329,1406.391290,-10214.842000,13636.499864
22452.581662,2368.659014,-6809.894666,16317.834107
22452.581995,-1110.308913,962.267725,3753.867940
22452.582328,-814.226536,-4959.379811,1455.581446
22452.582661,666.185348,-11325.150913,4826.401637
22452.582993,-370.102971,-13027.624579,4213.525239
22452.583326,-3627.009116,-8364.327145,1838.629195
22452.583659,-4737.318029,-12213.398043,1762.019645
22452.583992,1998.556043,-10066.800811,6052.154434
22452.584325,2442.679609,-3627.009116,2451.505594
22452.584658,5921.647536,-9992.780217,6052.154434
22452.584991,4219.173869,-11843.295072,5209.449386
22452.585324,3478.967927,-9770.718434,4366.744339
22452.585657,3182.885551,-8290.306550,4213.525239
22452.585989,1258.350101,-9474.636058,229.828649
22452.586322,-1480.411884,-10955.047942,-1072.533697
22452.586655,-2738.761985,-7402.059420,-4213.525239
22452.586988,-1036.288319,-5107.421000,-8963.317327
22452.587321,-1184.329507,-7328.038826,-7048.078582
22452.587654,1702.473667,-11251.130318,-3140.991542
22452.587987,-74.020594,-12139.377449,-5592.497135
22452.588320,-5921.647536,-13101.645173,-7354.516781
22452.588652,0.000000,-12065.356855,-5745.716235
22452.588985,4145.153275,-10732.986159,-919.314598
22452.589318,5181.441594,-7328.038826,-383.047749
22452.589651,3627.009116,-6587.832884,-6052.154434
22452.589984,-1258.350101,-12657.521608,-5975.544884
22452.590317,-666.185348,-13027.624579,-8044.002729
22452.590650,-2368.659014,-7179.997637,-8580.269578
22452.590983,1110.308913,-3627.009116,-12257.527968
22452.591316,592.164754,-8068.244768,-10648.727422
22452.591648,0.000000,-11917.315666,-5439.278036
22452.591981,1702.473667,-17764.942608,-3753.867940
22452.592314,1628.453072,-16506.592507,-76.609550
22452.592647,-296.082377,-5625.565159,-6205.373534
22452.592980,-74.020594,-5921.647536,-9576.193725
22452.593313,1332.370696,-12065.356855,-3753.867940
22452.593646,4663.297435,-10658.965565,-2528.115143
22452.593979,592.164754,-2442.679609,-11031.775171
22452.594312,-2368.659014,-13397.727550,-11031.775171
22452.594644,-74.020594,-22206.178260,-4979.620737
22452.594977,-3256.906145,-5403.503377,-6741.640382
22452.595310,-1258.350101,-5921.647536,-10572.117872
22452.595643,2516.700203,-3923.091493,-9652.803275
22452.595976,2368.659014,-11029.068536,-5515.887586
22452.596309,2590.720797,-18801.230927,2834.553343
22452.596642,370.102971,-10658.965565,383.047749
22452.596975,592.164754,-9474.636058,1762.019645
22452.597308,3478.967927,-4737.318029,-76.609550
22452.597640,2738.761985,-6291.750507,1532.190996
22452.597973,3552.988522,-14137.933492,5286.058936
22452.598306,-1554.432478,-5995.668130,-3677.258390
22452.598639,-222.061783,-9178.553681,-2528.115143
22452.598972,-2590.720797,-9474.636058,-1608.800546
22452.599305,-2960.823768,-12583.501014,306.438199
22452.599638,-4737.318029,-11917.315666,0.000000
22452.599971,-74.020594,-7698.141797,-76.609550
22452.600303,1406.391290,-8660.409521,2451.505594
22452.600636,2368.659014,-8364.327145,11338.213370
22452.600969,4071.132681,-15396.283594,13406.671215
22452.601302,3552.988522,-7920.203579,15934.786358
22452.601635,-1850.514855,-3034.844362,7660.954980
22452.601968,1776.494261,-4663.297435,5822.325785
22452.602301,1998.556043,-2886.803174,4979.620737
22452.602634,-2960.823768,-10732.986159,4290.134789
22452.602967,1110.308913,-11251.130318,7354.516781
22452.603299,-5847.626942,-10584.944971,3753.867940
22452.603632,-666.185348,-4737.318029,3907.087040
22452.603965,-74.020594,-3552.988522,4213.525239
22452.604298,0.000000,-8660.409521,5286.058936
22452.604631,2220.617826,-13619.789333,9729.412825
22452.604964,-370.102971,-12509.480420,9806.022374
22452.605297,2664.741391,-8438.347739,13100.233016
22452.605630,1702.473667,-5625.565159,13406.671215
22452.605963,3108.864956,-2294.638420,9499.584175
22452.606295,222.061783,-5033.400406,6205.373534
22452.606628,-1258.350101,-7994.224174,2068.457845
22452.606961,-2072.576638,-6587.832884,2451.505594
22452.607294,0.000000,-9548.656652,8810.098227
22452.607627,-74.020594,-12213.398043,8273.831378
22452.607960,-1184.329507,-7179.997637,10265.679673
22452.608293,-2368.659014,-2738.761985,5745.716235
22452.608626,2294.638420,-4737.318029,1762.019645
22452.608959,3552.988522,-9474.636058,7277.907231
22452.609291,2960.823768,-11769.274478,10418.898773
22452.609624,3775.050304,-7550.100608,7890.783629
22452.609957,-888.247130,-11843.295072,6128.763984
22452.610290,-74.020594,-9104.533087,1225.752797
22452.610623,2294.638420,-8290.306550,2374.896044
22452.610956,-370.102971,-1850.514855,-3677.258390
22452.611289,592.164754,-6957.935855,-4596.572988
22452.611622,-2146.597232,-15396.283594,-1225.752797
22452.611954,-2812.782580,-14508.036463,1532.190996
22452.612287,-2220.617826,-9474.636058,1532.190996
22452.612620,148.041188,-3478.967927,-2451.505594
22452.612953,2294.638420,-8882.471304,-1302.362347
22452.613286,592.164754,-11917.315666,3370.820191
22452.613619,740.205942,-10732.986159,1838.629195
22452.613952,0.000000,-7179.997637,0.000000
22452.614285,4071.132681,-13619.789333,-689.485948
22452.614618,666.185348,-4811.338623,-689.485948
22452.614950,-3034.844362,-7105.977043,-7277.907231
22452.615283,-3330.926739,-10732.986159,-7737.564530
22452.615616,814.226536,-4145.153275,-11108.384721
22452.615949,-1110.308913,-17098.757260,-6741.640382
22452.616282,5551.544565,-17098.757260,1762.019645
22452.616615,148.041188,-12509.480420,0.000000
22452.616948,3256.906145,-10658.965565,4826.401637
22452.617281,-74.020594,0.000000,-8963.317327
22452.617614,0.000000,-4811.338623,-12257.527968
22452.617946,6883.915261,-14804.118840,-3753.867940
22452.618279,3330.926739,-17542.880825,-1302.362347
22452.618612,-3256.906145,-10732.986159,-3370.820191
22452.618945,-5403.503377,-3034.844362,-12870.404366
22452.619278,-3034.844362,-7105.977043,-14172.766713
22452.619611,-2146.597232,-4071.132681,-13636.499864
22452.619944,0.000000,-12213.398043,-11797.870669
22452.620277,2442.679609,-19171.333898,-4443.353888
22452.620609,0.000000,-11325.150913,-3677.258390
22452.620942,-74.020594,-15396.283594,-76.609550
22452.621275,4441.235652,-14211.954086,7277.907231
22452.621608,1184.329507,-9548.656652,5515.887586
22452.621941,5847.626942,0.000000,-2528.115143
22452.622274,666.185348,-5699.585753,-8580.269578
22452.622607,1554.432478,-11695.253884,-2528.115143
22452.622940,296.082377,-10584.944971,2374.896044
22452.623273,-666.185348,-7105.977043,-306.438199
22452.623605,-3034.844362,-6809.894666,-4366.744339
22452.623938,-3923.091493,-10362.883188,-10495.508323
22452.624271,-3552.988522,-13101.645173,0.000000
22452.624604,592.164754,-10732.986159,5515.887586
22452.624937,4663.297435,-10362.883188,3907.087040
22452.625270,1184.329507,-9548.656652,9499.584175
22452.625603,-1850.514855,-6957.935855,4290.134789
22452.625936,-2516.700203,-4959.379811,1915.238745
22452.626269,-3997.112087,-8734.430116,-4903.011187
22452.626601,740.205942,-9918.759623,229.828649
