#time,accel_x,accel_y,accel_z
22095.729566,5847.626942,-7994.224174,2374.896044
22095.729900,7920.203579,-8586.388927,2681.334243
22095.730234,8438.347739,-8438.347739,3677.258390
22095.730568,8808.450710,-7994.224174,2374.896044
22095.730902,9474.636058,-9474.636058,2987.772442
22095.731236,7624.121203,-7476.080014,-2451.505594
22095.731570,5921.647536,-10584.944971,-995.924147
22095.731904,5847.626942,-11843.295072,-3140.991542
22095.732238,5551.544565,-9474.636058,-4366.744339
22095.732572,5329.482782,-9326.594869,-2834.553343
22095.732906,7920.203579,-9104.533087,-612.876398
22095.733240,10510.924376,-8660.409521,3217.601092
22095.733574,10658.965565,-6291.750507,4903.011187
22095.733908,14137.933492,-8882.471304,3600.648841
22095.734242,11843.295072,-8364.327145,3677.258390
22095.734576,12731.542202,-10658.965565,3907.087040
22095.734910,7179.997637,-9548.656652,0.000000
22095.735245,2368.659014,-11325.150913,-3677.258390
22095.735579,-1184.329507,-12509.480420,-5362.668486
22095.735913,-1036.288319,-11843.295072,-3677.258390
22095.736247,1850.514855,-8956.491898,-1149.143247
22095.736581,5255.462188,-8882.471304,3600.648841
22095.736915,4959.379811,-3627.009116,2451.505594
22095.737249,10510.924376,-7105.977043,8503.660028
22095.737583,12361.439231,-5921.647536,6971.469032
22095.737917,10066.800811,-4811.338623,5515.887586
22095.738251,10955.047942,-8364.327145,1532.190996
22095.738585,9918.759623,-8364.327145,-1685.410096
22095.738919,8956.491898,-10362.883188,-4136.915689
22095.739253,7698.141797,-12361.439231,-5286.058936
22095.739587,5625.565159,-14804.118840,-4979.620737
22095.739921,2738.761985,-12509.480420,-6128.763984
22095.740255,5255.462188,-11103.089130,-2834.553343
22095.740589,6735.874072,-9622.677246,612.876398
22095.740923,9696.697840,-6883.915261,4213.525239
22095.741257,14804.118840,-5551.544565,9806.022374
22095.741591,15914.427753,-4737.318029,9116.536426
22095.741925,13841.851115,-3627.009116,6741.640382
22095.742259,11843.295072,-9252.574275,4826.401637
22095.742593,8512.368333,-8290.306550,-1915.238745
22095.742927,2368.659014,-10732.986159,-3370.820191
22095.743261,2220.617826,-10807.006753,-7354.516781
22095.743595,1406.391290,-11547.212695,-7660.954980
22095.743929,4589.276840,-10584.944971,-4366.744339
22095.744263,9400.615463,-9474.636058,1762.019645
22095.744597,11769.274478,-7402.059420,0.000000
22095.744931,10362.883188,-8956.491898,1225.752797
22095.745265,12879.583391,-9474.636058,3600.648841
22095.745599,12657.521608,-7328.038826,2451.505594
22095.745933,14137.933492,-8290.306550,3294.210641
22095.746267,11325.150913,-10807.006753,2298.286494
22095.746601,10436.903782,-10955.047942,1455.581446
22095.746935,9400.615463,-9918.759623,842.705048
22095.747269,11473.192101,-6513.812290,383.047749
22095.747603,10584.944971,-3923.091493,0.000000
22095.747937,13619.789333,-8882.471304,1455.581446
22095.748271,12361.439231,-8882.471304,-1302.362347
22095.748605,9474.636058,-8364.327145,-2451.505594
22095.748939,8808.450710,-13619.789333,-5745.716235
22095.749273,6957.935855,-13915.871710,-4366.744339
22095.749608,8438.347739,-11621.233289,-1608.800546
22095.749942,12213.398043,-9474.636058,3140.991542
22095.750276,16284.530724,-5995.668130,6128.763984
22095.750610,15100.201217,-7179.997637,7354.516781
22095.750944,16506.592507,-7698.141797,6971.469032
22095.751278,11917.315666,-7402.059420,2145.067394
22095.751612,7105.977043,-9548.656652,1685.410096
22095.751946,9400.615463,-9474.636058,-2451.505594
22095.752280,8142.265362,-7846.182985,-2681.334243
22095.752614,9696.697840,-8438.347739,-4366.744339
22095.752948,9770.718434,-9474.636058,-3447.429741
22095.753282,10658.965565,-10881.027347,-2145.067394
22095.753616,9252.574275,-13397.727550,1762.019645
22095.753950,7994.224174,-10066.800811,306.438199
22095.754284,9474.636058,-9104.533087,1838.629195
22095.754618,14508.036463,-9178.553681,6665.030833
22095.754952,14137.933492,-7698.141797,8503.660028
22095.755286,12287.418637,-3330.926739,3983.696590
22095.755620,8586.388927,-13323.706956,6435.202183
22095.755954,7624.121203,-7105.977043,-1915.238745
22095.756287,6439.791695,-9474.636058,-2681.334243
22095.756621,8142.265362,-6513.812290,-4519.963438
22095.756954,6587.832884,-8512.368333,-6358.592633
22095.757288,6069.688724,-11325.150913,-4596.572988
22095.757621,8438.347739,-9992.780217,-1149.143247
22095.757955,8586.388927,-12805.562797,1225.752797
22095.758288,13471.748144,-6587.832884,2451.505594
22095.758622,12435.459826,-9548.656652,6741.640382
22095.758955,14137.933492,-8734.430116,4213.525239
22095.759289,13545.768739,-8734.430116,1762.019645
22095.759622,11769.274478,-11843.295072,2374.896044
22095.759956,13767.830521,-7105.977043,3600.648841
22095.760289,6883.915261,-10584.944971,1532.190996
22095.760623,3775.050304,-6513.812290,-6588.421283
22095.760956,814.226536,-12731.542202,-8044.002729
22095.761290,5921.647536,-6587.832884,-1991.848295
22095.761623,9474.636058,-5995.668130,3064.381992
22095.761957,13545.768739,-6513.812290,2681.334243
22095.762290,10066.800811,-8660.409521,612.876398
22095.762624,10584.944971,-13471.748144,2757.943793
22095.762957,14063.912898,-7698.141797,2834.553343
22095.763291,13323.706956,-9400.615463,4136.915689
22095.763624,9918.759623,-6291.750507,-1532.190996
22095.763958,4885.359217,-8956.491898,-4596.572988
22095.764291,7105.977043,-12509.480420,995.924147
22095.764625,11473.192101,-8290.306550,-76.609550
22095.764958,7920.203579,-10214.842000,-2221.676944
22095.765292,8068.244768,-10066.800811,-76.609550
22095.765625,5329.482782,-8956.491898,919.314598
22095.765959,7328.038826,-9030.512492,842.705048
22095.766292,11029.068536,-6439.791695,3370.820191
22095.766626,8068.244768,-8290.306550,2834.553343
22095.766959,7402.059420,-9252.574275,3064.381992
22095.767293,4663.297435,-10658.965565,-76.609550
22095.767626,4071.132681,-11103.089130,-3830.477490
22095.767960,1480.411884,-8364.327145,-3064.381992
22095.768293,814.226536,-13323.706956,-76.609550
22095.768627,1184.329507,-6883.915261,-2451.505594
22095.768960,1406.391290,-8882.471304,-689.485948
22095.769294,4589.276840,-6513.812290,76.609550
22095.769627,5181.441594,-11029.068536,3830.477490
22095.769961,5921.647536,-8660.409521,2451.505594
22095.770294,3923.091493,-8882.471304,689.485948
22095.770628,4737.318029,-8438.347739,306.438199
22095.770961,6217.729913,-9252.574275,1149.143247
22095.771295,4071.132681,-10658.965565,-76.609550
22095.771628,3478.967927,-11251.130318,0.000000
22095.771962,1776.494261,-7031.956449,-689.485948
22095.772295,-74.020594,-15396.283594,-76.609550
22095.772629,5255.462188,-4293.194464,-1532.190996
22095.772962,3478.967927,-10362.883188,-76.609550
22095.773296,2590.720797,-7920.203579,153.219100
22095.773629,4367.215058,-9474.636058,-76.609550
22095.773962,4589.276840,-11917.315666,3600.648841
22095.774296,4737.318029,-7179.997637,4903.011187
22095.774629,6735.874072,-7772.162391,76.609550
22095.774963,4737.318029,-9474.636058,4826.401637
22095.775296,2294.638420,-6069.688724,-2451.505594
22095.775630,0.000000,-7179.997637,-1225.752797
22095.775963,592.164754,-6883.915261,-2528.115143
22095.776297,592.164754,-9696.697840,-1302.362347
22095.776630,-666.185348,-9992.780217,-1762.019645
22095.776964,0.000000,-10510.924376,-2221.676944
22095.777297,1184.329507,-10658.965565,2987.772442
22095.777631,2294.638420,-5403.503377,612.876398
22095.777964,8216.285956,-8290.306550,3600.648841
22095.778298,3478.967927,-8142.265362,0.000000
22095.778631,3701.029710,-9474.636058,2145.067394
22095.778965,5699.585753,-12435.459826,612.876398
22095.779298,7254.018232,-9474.636058,2987.772442
22095.779632,1184.329507,-13249.686362,0.000000
22095.779965,1998.556043,-9326.594869,76.609550
22095.780299,222.061783,-8882.471304,-2834.553343
22095.780632,0.000000,-7476.080014,-459.657299
22095.780966,2294.638420,-9474.636058,536.266849
22095.781299,-666.185348,-5995.668130,-3370.820191
22095.781633,2516.700203,-12879.583391,3600.648841
22095.781966,-74.020594,-7105.977043,-76.609550
22095.782300,3330.926739,-11177.109724,919.314598
22095.782633,1110.308913,-8882.471304,4979.620737
22095.782967,4663.297435,-6809.894666,3907.087040
22095.783300,-1110.308913,-7846.182985,842.705048
22095.783634,2960.823768,-8882.471304,-76.609550
22095.783967,-6439.791695,-10140.821405,-6435.202183
22095.784301,-1406.391290,-12435.459826,1991.848295
22095.784634,-3627.009116,-10658.965565,-3140.991542
22095.784968,-4811.338623,-9326.594869,-2528.115143
22095.785301,-2146.597232,-6513.812290,-689.485948
22095.785635,-666.185348,-7105.977043,1072.533697
22095.785968,2664.741391,-10436.903782,5056.230287
22095.786302,2812.782580,-6143.709319,6052.154434
22095.786635,888.247130,-12139.377449,2987.772442
22095.786969,1110.308913,-8216.285956,3064.381992
22095.787302,74.020594,-9474.636058,-1685.410096
22095.787636,2294.638420,-11103.089130,-76.609550
22095.787969,-2220.617826,-10732.986159,1225.752797
22095.788303,-3997.112087,-8364.327145,-1838.629195
22095.788636,-74.020594,-11843.295072,-76.609550
22095.788970,-3923.091493,-7994.224174,-4290.134789
22095.789303,296.082377,-7624.121203,689.485948
22095.789637,-1850.514855,-10066.800811,-612.876398
22095.789970,3108.864956,-6735.874072,3600.648841
22095.790304,-1480.411884,-6883.915261,3370.820191
22095.790637,2738.761985,-6957.935855,2068.457845
22095.790971,2368.659014,-8364.327145,2451.505594
22095.791304,0.000000,-12657.521608,2987.772442
22095.791638,3182.885551,-8808.450710,-2451.505594
22095.791971,-1924.535449,-8364.327145,-2451.505594
22095.792305,370.102971,-11547.212695,-2528.115143
22095.792638,-1628.453072,-8364.327145,-2451.505594
22095.792972,2294.638420,-11251.130318,-1149.143247
22095.793305,1332.370696,-10658.965565,0.000000
22095.793638,2368.659014,-9548.656652,3524.039291
22095.793972,4663.297435,-7105.977043,3600.648841
22095.794305,3775.050304,-13619.789333,7277.907231
22095.794639,962.267725,-5403.503377,612.876398
22095.794972,2664.741391,-7772.162391,3677.258390
22095.795306,2664.741391,-10066.800811,4213.525239
22095.795639,3108.864956,-7476.080014,2068.457845
22095.795973,-2960.823768,-10732.986159,-3370.820191
22095.796306,-2590.720797,-9252.574275,-4136.915689
22095.796640,-1332.370696,-9326.594869,-5515.887586
22095.796973,-2368.659014,-11917.315666,-2298.286494
22095.797307,-74.020594,-7994.224174,-1302.362347
22095.797640,-3330.926739,-8364.327145,0.000000
22095.797974,4663.297435,-9474.636058,2681.334243
22095.798307,-1258.350101,-11547.212695,2834.553343
22095.798641,7105.977043,-5921.647536,6358.592633
22095.798974,4515.256246,-10288.862594,7201.297681
22095.799308,4367.215058,-5477.523971,4290.134789
22095.799641,370.102971,-9030.512492,76.609550
22095.799975,-4145.153275,-9548.656652,-3370.820191
22095.800308,-2590.720797,-8364.327145,-6128.763984
22095.800642,-3034.844362,-13915.871710,-1915.238745
22095.800975,-666.185348,-9474.636058,-3140.991542
22095.801309,-7698.141797,-7476.080014,-4290.134789
22095.801642,-1924.535449,-11843.295072,-689.485948
22095.801976,2960.823768,-7772.162391,3983.696590
22095.802309,2960.823768,-8216.285956,5669.106685
22095.802643,4145.153275,-6735.874072,4136.915689
22095.802976,0.000000,-12731.542202,3830.477490
22095.803310,0.000000,-7179.997637,1532.190996
22095.803643,814.226536,-6883.915261,-689.485948
22095.803977,-3256.906145,-15026.180623,-1149.143247
22095.804310,74.020594,-7624.121203,153.219100
22095.804644,-5921.647536,-11029.068536,-3370.820191
22095.804977,-74.020594,-4737.318029,-3753.867940
22095.805311,-5329.482782,-9548.656652,-919.314598
22095.805644,2294.638420,-7994.224174,3524.039291
22095.805978,3478.967927,-9474.636058,2987.772442
22095.806311,1184.329507,-9326.594869,4826.401637
22095.806645,1332.370696,-7624.121203,459.657299
22095.806978,74.020594,-9992.780217,2451.505594
22095.807312,2146.597232,-8438.347739,689.485948
22095.807645,-666.185348,-12435.459826,-689.485948
22095.807979,-2960.823768,-7772.162391,0.000000
22095.808312,-2368.659014,-9252.574275,-1608.800546
22095.808646,-666.185348,-11103.089130,-995.924147
22095.808979,-2368.659014,-4811.338623,-2451.505594
22095.809313,2294.638420,-10658.965565,-383.047749
22095.809646,1776.494261,-7179.997637,76.609550
22095.809980,888.247130,-11251.130318,1378.971896
22095.810313,3552.988522,-6291.750507,1149.143247
22095.810647,3182.885551,-11103.089130,2374.896044
22095.810980,592.164754,-8364.327145,5209.449386
22095.811314,4071.132681,-7105.977043,1762.019645
22095.811647,-74.020594,-9400.615463,-2451.505594
22095.811981,0.000000,-13101.645173,1838.629195
22095.812314,-2442.679609,-9770.718434,-2911.162892
22095.812648,-4663.297435,-10066.800811,-2374.896044
22095.812981,1998.556043,-6217.729913,-1685.410096
22095.813314,-1702.473667,-7920.203579,919.314598
22095.813648,2664.741391,-4219.173869,3064.381992
22095.813981,0.000000,-10732.986159,6052.154434
22095.814315,1702.473667,-6069.688724,0.000000
22095.814648,-1776.494261,-10288.862594,0.000000
22095.814982,4737.318029,-8734.430116,4826.401637
22095.815315,1110.308913,-7328.038826,306.438199
22095.815649,-518.144159,-9178.553681,-459.657299
22095.815982,-1998.556043,-10584.944971,-2451.505594
22095.816316,-3997.112087,-11547.212695,-1455.581446
22095.816649,-2368.659014,-8364.327145,-2145.067394
22095.816983,-1036.288319,-6809.894666,-2221.676944
22095.817316,-2886.803174,-10066.800811,-1378.971896
22095.817650,1554.432478,-5033.400406,-842.705048
22095.817983,4367.215058,-13619.789333,2987.772442
22095.818317,5847.626942,-9474.636058,3447.429741
22095.818650,3552.988522,-8364.327145,6741.640382
22095.818984,4367.215058,-11843.295072,4519.963438
22095.819317,4367.215058,-8512.368333,2068.457845
22095.819651,-148.041188,-9030.512492,919.314598
22095.819984,1998.556043,-10362.883188,-76.609550
22095.820318,-4071.132681,-9992.780217,-3140.991542
22095.820651,-5329.482782,-13545.768739,-4596.572988
22095.820985,-6587.832884,-8734.430116,-2757.943793
22095.821318,-2442.679609,-7105.977043,-3753.867940
22095.821652,-3552.988522,-7772.162391,1838.629195
22095.821985,3478.967927,-7105.977043,6052.154434
22095.822319,5847.626942,-6365.771101,4826.401637
22095.822652,1702.473667,-4737.318029,2528.115143
22095.822986,2442.679609,-10658.965565,1149.143247
22095.823319,1924.535449,-9474.636058,229.828649
22095.823653,962.267725,-11695.253884,766.095498
22095.823986,0.000000,-10140.821405,-919.314598
22095.824320,-2442.679609,-11843.295072,-5362.668486
22095.824653,-74.020594,-12731.542202,-1302.362347
22095.824987,-3182.885551,-13027.624579,-383.047749
22095.825320,-1184.329507,-5995.668130,-1838.629195
22095.825654,-2368.659014,-10732.986159,1838.629195
22095.825987,592.164754,-7550.100608,3294.210641
22095.826321,5255.462188,-4441.235652,8503.660028
22095.826654,2368.659014,-6883.915261,5515.887586
22095.826988,5847.626942,-5773.606348,6665.030833
22095.827321,-3256.906145,-8364.327145,0.000000
22095.827655,3478.967927,-8882.471304,-1455.581446
22095.827988,-3627.009116,-9548.656652,-3677.258390
22095.828322,-3552.988522,-13471.748144,-4060.306139
22095.828655,-2442.679609,-12731.542202,-5132.839837
22095.828989,-5921.647536,-11621.233289,-3753.867940
22095.829322,-1258.350101,-9400.615463,-2451.505594
22095.829656,-1850.514855,-9104.533087,3983.696590
22095.829989,2590.720797,-5625.565159,2987.772442
22095.830323,4145.153275,-7031.956449,7277.907231
22095.830656,5551.544565,-5699.585753,3064.381992
22095.830990,5921.647536,-7772.162391,3677.258390
22095.831323,6143.709319,-11843.295072,4826.401637
22095.831657,6439.791695,-9474.636058,1149.143247
22095.831990,2368.659014,-13619.789333,-76.609550
22095.832324,-1184.329507,-9844.739029,-2528.115143
22095.832657,-2220.617826,-12435.459826,-5669.106685
22095.832990,-4071.132681,-10584.944971,-4749.792088
22095.833324,-2072.576638,-13619.789333,-229.828649
22095.833657,-5477.523971,-11399.171507,-1532.190996
22095.833991,-1628.453072,-6809.894666,2221.676944
22095.834324,814.226536,-4663.297435,3524.039291
22095.834658,4663.297435,-3997.112087,6665.030833
22095.834991,4737.318029,-4515.256246,6818.249932
22095.835325,4663.297435,-8882.471304,3294.210641
22095.835658,-1776.494261,-8364.327145,-1225.752797
22095.835992,1480.411884,-10955.047942,-3217.601092
22095.836325,-2442.679609,-14804.118840,-5898.935335
22095.836659,-2368.659014,-10510.924376,-4903.011187
22095.836992,-4515.256246,-13767.830521,-995.924147
22095.837326,-1110.308913,-8068.244768,-3983.696590
22095.837659,2294.638420,-15692.365970,2068.457845
22095.837993,1480.411884,-6587.832884,1838.629195
22095.838326,2368.659014,-8660.409521,6358.592633
22095.838660,2886.803174,-7105.977043,7277.907231
22095.838993,5255.462188,-5033.400406,1225.752797
22095.839327,4663.297435,-8068.244768,4673.182538
22095.839660,4885.359217,-7254.018232,536.266849
22095.839994,444.123565,-10510.924376,0.000000
22095.840327,1184.329507,-7920.203579,-2298.286494
22095.840661,-2220.617826,-11917.315666,-2145.067394
22095.840994,-3627.009116,-9918.759623,-6741.640382
22095.841328,-2368.659014,-12731.542202,-3753.867940
22095.841661,-5995.668130,-15100.201217,-2528.115143
22095.841995,-666.185348,-6069.688724,-3524.039291
22095.842328,-1184.329507,-7994.224174,4826.401637
22095.842662,1776.494261,-4959.379811,6971.469032
22095.842995,5107.421000,-2960.823768,4213.525239
22095.843329,3552.988522,-8438.347739,4826.401637
22095.843662,5033.400406,-6883.915261,3677.258390
22095.843996,1628.453072,-7179.997637,0.000000
22095.844329,3478.967927,-14211.954086,-1915.238745
22095.844663,0.000000,-10732.986159,-4903.011187
22095.844996,0.000000,-12583.501014,-7048.078582
22095.845330,296.082377,-14285.974681,-3064.381992
22095.845663,-2442.679609,-13323.706956,-1915.238745
22095.845997,0.000000,-10732.986159,459.657299
22095.846330,-1924.535449,-9400.615463,5362.668486
22095.846664,-74.020594,-5921.647536,4213.525239
22095.846997,592.164754,-3923.091493,8503.660028
22095.847331,2886.803174,-3997.112087,4903.011187
22095.847664,2960.823768,-666.185348,4903.011187
22095.847998,1998.556043,-7105.977043,-76.609550
22095.848331,-1480.411884,-8364.327145,-6128.763984
22095.848665,-4811.338623,-13323.706956,-6971.469032
22095.848998,-5921.647536,-14063.912898,-8580.269578
22095.849332,-740.205942,-11177.109724,-5286.058936
22095.849665,-4219.173869,-15988.448347,-3753.867940
22095.849999,-1184.329507,-11177.109724,1149.143247
22095.850332,-1258.350101,-10288.862594,842.705048
22095.850666,5921.647536,-6957.935855,7354.516781
22095.850999,5255.462188,-5625.565159,9116.536426
22095.851333,5847.626942,-8882.471304,9116.536426
22095.851666,2960.823768,-3923.091493,3677.258390
22095.852000,814.226536,-8290.306550,-76.609550
22095.852333,444.123565,-7179.997637,-3370.820191
22095.852666,-4737.318029,-9548.656652,-4596.572988
22095.853000,-814.226536,-12435.459826,-3753.867940
22095.853333,-5773.606348,-11769.274478,-5822.325785
22095.853667,-2072.576638,-12065.356855,-1532.190996
22095.854000,-4145.153275,-9548.656652,-3217.601092
22095.854334,-1332.370696,-10732.986159,919.314598
22095.854667,0.000000,-8734.430116,6665.030833
22095.855001,1702.473667,-8290.306550,6665.030833
22095.855334,3775.050304,-4811.338623,6435.202183
22095.855668,3552.988522,-5255.462188,8503.660028
22095.856001,5551.544565,-3182.885551,0.000000
22095.856335,3478.967927,-8290.306550,919.314598
22095.856668,-1702.473667,-9844.739029,-5132.839837
22095.857002,-1554.432478,-11473.192101,-5515.887586
22095.857335,-2368.659014,-13101.645173,-4903.011187
22095.857668,2886.803174,-14211.954086,-2528.115143
22095.858002,1702.473667,-10807.006753,-1302.362347
22095.858335,4663.297435,-14211.954086,2068.457845
22095.858669,2368.659014,-7402.059420,4213.525239
22095.859002,2368.659014,-12657.521608,9729.412825
22095.859335,5255.462188,-2960.823768,4903.011187
22095.859669,-1184.329507,-7328.038826,3447.429741
22095.860002,3923.091493,-3182.885551,3830.477490
22095.860336,814.226536,-7550.100608,-995.924147
22095.860669,-2146.597232,-7179.997637,-4826.401637
22095.861002,-2368.659014,-8068.244768,-4443.353888
22095.861336,-3627.009116,-14211.954086,-5592.497135
22095.861669,-4219.173869,-9918.759623,-8580.269578
22095.862003,-3552.988522,-12213.398043,-3753.867940
22095.862336,888.247130,-12065.356855,1225.752797
22095.862669,4071.132681,-8512.368333,4979.620737
22095.863003,3997.112087,-10658.965565,6358.592633
22095.863336,3478.967927,-7994.224174,6052.154434
22095.863669,3256.906145,-5773.606348,6741.640382
22095.864003,2072.576638,-7254.018232,4443.353888
22095.864336,3775.050304,-6439.791695,3140.991542
22095.864670,-5921.647536,-8956.491898,-3064.381992
22095.865003,-2368.659014,-6291.750507,-1991.848295
22095.865336,-2442.679609,-9474.636058,-7507.735880
22095.865670,-4145.153275,-13101.645173,-3677.258390
22095.866003,-1184.329507,-8364.327145,-2604.724693
22095.866337,-6513.812290,-14285.974681,-1225.752797
22095.866670,-1184.329507,-7476.080014,-459.657299
22095.867003,-1628.453072,-9622.677246,2298.286494
22095.867337,74.020594,-9844.739029,6052.154434
22095.867670,6439.791695,-6513.812290,8503.660028
22095.868004,-1258.350101,-8364.327145,5745.716235
22095.868337,4663.297435,-4737.318029,2987.772442
22095.868670,-2960.823768,-6291.750507,536.266849
22095.869004,0.000000,-8364.327145,-459.657299
22095.869337,-74.020594,-9474.636058,-689.485948
22095.869671,148.041188,-6957.935855,-1608.800546
22095.870004,-1406.391290,-12953.603985,-4213.525239
22095.870337,0.000000,-11177.109724,-2451.505594
22095.870671,1332.370696,-11177.109724,-3064.381992
22095.871004,2960.823768,-11325.150913,4213.525239
22095.871338,2368.659014,-9548.656652,2451.505594
22095.871671,2960.823768,-9548.656652,6052.154434
22095.872004,4663.297435,-9622.677246,6052.154434
22095.872338,1110.308913,-5033.400406,383.047749
22095.872671,7031.956449,-7105.977043,4213.525239
22095.873005,-592.164754,-6883.915261,1455.581446
22095.873338,2664.741391,-6957.935855,-2528.115143
22095.873671,-6365.771101,-10881.027347,-5286.058936
22095.874005,-2442.679609,-12731.542202,-7431.126331
22095.874338,-3552.988522,-11325.150913,-306.438199
22095.874671,592.164754,-9548.656652,3294.210641
22095.875005,4367.215058,-9770.718434,1302.362347
22095.875338,0.000000,-7476.080014,4903.011187
22095.875672,2590.720797,-10658.965565,2298.286494
22095.876005,1184.329507,-9770.718434,3370.820191
22095.876338,3404.947333,-10066.800811,1991.848295
22095.876672,814.226536,-8586.388927,2068.457845
22095.877005,-666.185348,-6587.832884,-1838.629195
22095.877339,592.164754,-7476.080014,-76.609550
22095.877672,-1258.350101,-11843.295072,-1608.800546
22095.878005,-2442.679609,-5995.668130,-4903.011187
22095.878339,-2368.659014,-9548.656652,-1838.629195
22095.878672,-148.041188,-10214.842000,0.000000
22095.879006,-296.082377,-8438.347739,2298.286494
22095.879339,1702.473667,-7920.203579,2298.286494
22095.879672,1554.432478,-12213.398043,4903.011187
22095.880006,2294.638420,-5403.503377,2451.505594
22095.880339,-888.247130,-11251.130318,2221.676944
22095.880673,-1258.350101,-9696.697840,842.705048
22095.881006,-5329.482782,-8438.347739,-2374.896044
22095.881339,-2590.720797,-7698.141797,-2834.553343
22095.881673,-74.020594,-6439.791695,-3677.258390
22095.882006,-2368.659014,-8364.327145,0.000000
22095.882340,592.164754,-9696.697840,1762.019645
22095.882673,1406.391290,-7994.224174,612.876398
22095.883006,0.000000,-10732.986159,1991.848295
22095.883340,3182.885551,-9992.780217,1915.238745
22095.883673,4737.318029,-8068.244768,3294.210641
22095.884007,1332.370696,-11177.109724,2221.676944
22095.884340,2294.638420,-10362.883188,-76.609550
22095.884673,2294.638420,-9178.553681,-1532.190996
22095.885007,-4145.153275,-12139.377449,-229.828649
22095.885340,-74.020594,-9474.636058,-689.485948
22095.885673,-962.267725,-8290.306550,0.000000
22095.886007,1702.473667,-5625.565159,1455.581446
22095.886340,2072.576638,-5699.585753,-1608.800546
22095.886674,-1184.329507,-10066.800811,2374.896044
22095.887007,1924.535449,-6809.894666,-2911.162892
22095.887340,1332.370696,-11917.315666,1991.848295
22095.887674,4071.132681,-9548.656652,0.000000
22095.888007,2664.741391,-11547.212695,1762.019645
22095.888341,2886.803174,-11695.253884,1149.143247
22095.888674,518.144159,-8956.491898,-3064.381992
22095.889007,-1184.329507,-9548.656652,-1915.238745
22095.889341,148.041188,-9030.512492,1455.581446
22095.889674,-2368.659014,-8586.388927,-1072.533697
22095.890008,-1850.514855,-5773.606348,-3294.210641
22095.890341,2220.617826,-9474.636058,3830.477490
22095.890674,2368.659014,-2442.679609,4290.134789
22095.891008,5847.626942,-9474.636058,3600.648841
22095.891341,2294.638420,-7179.997637,306.438199
22095.891675,1184.329507,-12435.459826,-306.438199
22095.892008,-592.164754,-13027.624579,-1838.629195
22095.892341,222.061783,-12287.418637,-4596.572988
22095.892675,-3552.988522,-14582.057057,-2451.505594
22095.893008,-2960.823768,-9696.697840,-1838.629195
22095.893342,814.226536,-8734.430116,536.266849
22095.893675,-2072.576638,-10658.965565,4826.401637
22095.894008,-4737.318029,-1258.350101,612.876398
22095.894342,-3552.988522,-4811.338623,2451.505594
22095.894675,2294.638420,-9474.636058,1838.629195
22095.895009,2960.823768,-6587.832884,6128.763984
22095.895342,-962.267725,-6809.894666,229.828649
22095.895675,-592.164754,-10658.965565,-229.828649
22095.896009,-1628.453072,-8364.327145,-2911.162892
22095.896342,518.144159,-13323.706956,-2221.676944
22095.896676,2072.576638,-9474.636058,842.705048
22095.897009,-4737.318029,-15026.180623,-3064.381992
22095.897342,-1406.391290,-11695.253884,-1149.143247
22095.897676,-1110.308913,-9474.636058,2911.162892
22095.898009,-1258.350101,-7105.977043,-1302.362347
22095.898342,2960.823768,-3627.009116,2451.505594
22095.898676,-74.020594,-14211.954086,4213.525239
22095.899009,7105.977043,2294.638420,3830.477490
22095.899343,-3256.906145,-9548.656652,2451.505594
22095.899676,3478.967927,-4959.379811,-1225.752797
22095.900009,2294.638420,-11769.274478,1149.143247
22095.900343,2516.700203,-12287.418637,-383.047749
22095.900676,2960.823768,-11917.315666,-689.485948
22095.901010,-6513.812290,-11917.315666,-7354.516781
22095.901343,4367.215058,-11843.295072,-689.485948
22095.901676,-2738.761985,-13027.624579,-1302.362347
22095.902010,3552.988522,-7179.997637,1225.752797
22095.902343,-74.020594,-11695.253884,6052.154434
22095.902677,-74.020594,-5995.668130,0.000000
22095.903010,5255.462188,-4589.276840,4826.401637
22095.903343,4071.132681,-7105.977043,6052.154434
22095.903677,8290.306550,-2442.679609,7660.954980
22095.904010,2368.659014,-8512.368333,3370.820191
22095.904344,4071.132681,-15396.283594,-689.485948
22095.904677,-3552.988522,-11103.089130,-4136.915689
22095.905010,-4737.318029,-11325.150913,-6128.763984
22095.905344,-3182.885551,-14508.036463,-2834.553343
22095.905677,-5921.647536,-12435.459826,-1378.971896
22095.906011,-2294.638420,-7476.080014,-1838.629195
22095.906344,-5551.544565,-14137.933492,153.219100
22095.906677,2590.720797,-1924.535449,3907.087040
22095.907011,1702.473667,-4737.318029,9422.974625
22095.907344,5847.626942,1702.473667,2528.115143
22095.907678,2368.659014,-9104.533087,8427.050478
22095.908011,4663.297435,-6661.853478,1762.019645
22095.908344,2590.720797,-8364.327145,-1838.629195
22095.908678,-2368.659014,-14582.057057,-1608.800546
22095.909011,-1110.308913,-10510.924376,-7048.078582
22095.909344,-7698.141797,-16506.592507,-6128.763984
22095.909678,-3701.029710,-10140.821405,-6435.202183
22095.910011,-7476.080014,-15988.448347,-2834.553343
22095.910345,0.000000,-8364.327145,2911.162892
22095.910678,0.000000,-5403.503377,8120.612279
22095.911011,2220.617826,-3330.926739,8580.269578
22095.911345,3849.070898,-2442.679609,9806.022374
22095.911678,0.000000,-5551.544565,7124.688131
22095.912012,7624.121203,-2368.659014,-2604.724693
22095.912345,-2368.659014,-11917.315666,-3677.258390
22095.912678,3404.947333,-7476.080014,-1532.190996
22095.913012,-5921.647536,-16654.633695,-6128.763984
22095.913345,-888.247130,-13101.645173,-6281.983084
22095.913679,-5329.482782,-15470.304188,-4596.572988
22095.914012,-1776.494261,-13397.727550,-919.314598
22095.914345,1850.514855,-6513.812290,-76.609550
22095.914679,-1184.329507,-10732.986159,6358.592633
22095.915012,6439.791695,-3478.967927,7354.516781
22095.915346,2960.823768,-3701.029710,9729.412825
22095.915679,5847.626942,-7105.977043,3600.648841
22095.916012,3478.967927,-4441.235652,2374.896044
22095.916346,1110.308913,-7920.203579,-1072.533697
22095.916679,2368.659014,-5255.462188,-3447.429741
22095.917013,-2886.803174,-15396.283594,-5286.058936
22095.917346,0.000000,-11621.233289,-7277.907231
22095.917679,-1258.350101,-15100.201217,-3753.867940
22095.918013,592.164754,-14211.954086,-919.314598
22095.918346,-1406.391290,-16284.530724,-689.485948
22095.918680,-962.267725,-8068.244768,0.000000
22095.919013,1184.329507,-7772.162391,3983.696590
22095.919346,4959.379811,-3997.112087,8044.002729
22095.919680,5255.462188,-3923.091493,8656.879127
22095.920013,5699.585753,-3182.885551,5132.839837
22095.920346,2516.700203,-7994.224174,5132.839837
22095.920680,0.000000,-4811.338623,-4826.401637
22095.921013,1406.391290,-14211.954086,-76.609550
22095.921347,-2442.679609,-14211.954086,-4979.620737
22095.921680,-3404.947333,-9844.739029,-6741.640382
22095.922013,-3330.926739,-14211.954086,-3140.991542
22095.922347,-6439.791695,-12953.603985,-5056.230287
22095.922680,-2442.679609,-10362.883188,-689.485948
22095.923014,-814.226536,-11103.089130,4979.620737
22095.923347,4219.173869,-3627.009116,5898.935335
22095.923680,2368.659014,-5107.421000,10112.460574
22095.924014,6735.874072,-3552.988522,3600.648841
22095.924347,2368.659014,-5699.585753,4903.011187
22095.924681,2368.659014,-7179.997637,2068.457845
22095.925014,3478.967927,-11843.295072,-4979.620737
22095.925347,-4737.318029,-13249.686362,-2374.896044
22095.925681,-3997.112087,-13027.624579,-8963.317327
22095.926014,-3552.988522,-12953.603985,-3983.696590
22095.926348,-3923.091493,-12287.418637,-3677.258390
22095.926681,-2072.576638,-9844.739029,995.924147
22095.927014,-1036.288319,-8956.491898,4903.011187
22095.927348,1702.473667,-6735.874072,3907.087040
22095.927681,1628.453072,-5255.462188,6741.640382
22095.928015,4071.132681,-3552.988522,6665.030833
22095.928348,2368.659014,-4219.173869,6741.640382
22095.928681,3701.029710,-4589.276840,2374.896044
22095.929015,-1258.350101,-10288.862594,-6741.640382
22095.929348,-3256.906145,-10584.944971,-6511.811733
22095.929682,-1850.514855,-15988.448347,-5898.935335
22095.930015,-740.205942,-13841.851115,-3830.477490
22095.930348,0.000000,-11399.171507,-2451.505594
22095.930682,1628.453072,-13767.830521,842.705048
22095.931015,1480.411884,-7772.162391,2451.505594
22095.931348,0.000000,-8364.327145,4903.011187
22095.931682,5847.626942,-6513.812290,4673.182538
22095.932015,3552.988522,-3627.009116,3677.258390
22095.932349,1184.329507,-6587.832884,4596.572988
22095.932682,2960.823768,-2812.782580,1762.019645
22095.933015,-1480.411884,-10510.924376,-229.828649
22095.933349,666.185348,-6587.832884,-3294.210641
22095.933682,-1850.514855,-11177.109724,-3753.867940
22095.934016,-3108.864956,-11473.192101,-4443.353888
22095.934349,-5921.647536,-10732.986159,-2528.115143
22095.934682,-2442.679609,-11843.295072,-4366.744339
22095.935016,1480.411884,-7179.997637,766.095498
22095.935349,1776.494261,-13471.748144,5439.278036
22095.935683,5329.482782,-8068.244768,5515.887586
22095.936016,3034.844362,-7624.121203,3217.601092
22095.936349,4071.132681,-8142.265362,4596.572988
22095.936683,5181.441594,-4663.297435,4749.792088
22095.937016,2886.803174,-10658.965565,229.828649
22095.937350,2960.823768,-8512.368333,-76.609550
22095.937683,-3478.967927,-13027.624579,-4979.620737
22095.938016,-3108.864956,-11325.150913,-4290.134789
22095.938350,-592.164754,-9474.636058,-76.609550
22095.938683,-3034.844362,-11843.295072,-4060.306139
22095.939017,148.041188,-6587.832884,766.095498
22095.939350,-2516.700203,-9844.739029,1302.362347
22095.939683,0.000000,-7624.121203,2451.505594
22095.940017,592.164754,-6883.915261,4290.134789
22095.940350,2294.638420,-8142.265362,2987.772442
22095.940684,2368.659014,-7328.038826,2987.772442
22095.941017,2886.803174,-10658.965565,2374.896044
22095.941350,-2960.823768,-5995.668130,-4290.134789
22095.941684,-5329.482782,-8364.327145,-7354.516781
22095.942017,-740.205942,-11769.274478,-4366.744339
22095.942351,-1850.514855,-11251.130318,-3140.991542
22095.942684,0.000000,-10140.821405,-1225.752797
22095.943017,2294.638420,-12435.459826,3600.648841
22095.943351,3775.050304,-6735.874072,1532.190996
22095.943684,2960.823768,-13027.624579,7277.907231
22095.944017,2960.823768,-6291.750507,4903.011187
22095.944351,2590.720797,-9992.780217,5132.839837
22095.944684,2960.823768,-7105.977043,6358.592633
22095.945018,-1258.350101,-7920.203579,1225.752797
22095.945351,-3552.988522,-6587.832884,-1915.238745
22095.945684,-1258.350101,-10658.965565,-4060.306139
22095.946018,-1628.453072,-5403.503377,-4749.792088
22095.946351,-3330.926739,-13027.624579,-2528.115143
22095.946685,-2664.741391,-7994.224174,-5056.230287
22095.947018,-2368.659014,-12583.501014,-383.047749
22095.947351,-1110.308913,-7550.100608,1991.848295
22095.947685,5255.462188,-6809.894666,5439.278036
22095.948018,-2072.576638,-7772.162391,4903.011187
22095.948352,5551.544565,-8290.306550,4213.525239
22095.948685,3478.967927,-9474.636058,842.705048
22095.949018,3552.988522,-12657.521608,5975.544884
22095.949352,2294.638420,-5921.647536,-2528.115143
22095.949685,666.185348,-11399.171507,-1302.362347
22095.950019,-592.164754,-8660.409521,-3447.429741
22095.950352,-1924.535449,-10436.903782,-3370.820191
22095.950685,-1184.329507,-7772.162391,-2145.067394
22095.951019,0.000000,-9548.656652,3677.258390
22095.951352,2294.638420,-9474.636058,1762.019645
22095.951686,4959.379811,-3627.009116,1762.019645
22095.952019,0.000000,-13397.727550,3677.258390
22095.952352,1998.556043,-7179.997637,4290.134789
22095.952686,-962.267725,-8808.450710,842.705048
22095.953019,666.185348,-9770.718434,1915.238745
22095.953353,-2886.803174,-7476.080014,-1991.848295
22095.953686,-2738.761985,-9326.594869,-1378.971896
22095.954019,-1628.453072,-5921.647536,-76.609550
22095.954353,-1850.514855,-8290.306550,-6358.592633
22095.954686,-2812.782580,-9548.656652,-2145.067394
22095.955019,-2368.659014,-7476.080014,1072.533697
22095.955353,1776.494261,-11769.274478,2757.943793
22095.955686,3404.947333,-8364.327145,4060.306139
22095.956020,2220.617826,-12509.480420,3064.381992
22095.956353,3034.844362,-8660.409521,3600.648841
22095.956687,2442.679609,-7698.141797,1455.581446
22095.957020,-74.020594,-13619.789333,-76.609550
22095.957353,-1184.329507,-5995.668130,-2145.067394
22095.957687,-4737.318029,-11917.315666,0.000000
22095.958020,-1554.432478,-7105.977043,-1302.362347
22095.958354,-2368.659014,-9548.656652,-995.924147
22095.958687,-1554.432478,-7105.977043,-995.924147
22095.959020,-1110.308913,-6587.832884,-1225.752797
22095.959354,814.226536,-8586.388927,1685.410096
22095.959687,-518.144159,-9918.759623,2681.334243
22095.960021,1998.556043,-8142.265362,-229.828649
22095.960354,3108.864956,-10881.027347,3064.381992
22095.960688,0.000000,-11621.233289,1762.019645
22095.961021,666.185348,-10807.006753,1149.143247
22095.961354,-3034.844362,-10658.965565,-1302.362347
22095.961688,2886.803174,-11251.130318,-76.609550
22095.962021,1110.308913,-7179.997637,-3370.820191
22095.962355,2368.659014,-10436.903782,2451.505594
22095.962688,-1776.494261,-8956.491898,1532.190996
22095.963022,1702.473667,-5995.668130,1225.752797
22095.963355,3330.926739,-5847.626942,3064.381992
22095.963688,4367.215058,-8586.388927,3447.429741
22095.964022,3552.988522,-10732.986159,3830.477490
22095.964355,0.000000,-7179.997637,-1838.629195
22095.964689,1702.473667,-11843.295072,-1915.238745
22095.965022,-1258.350101,-10955.047942,-3524.039291
22095.965356,-3256.906145,-10881.027347,-2528.115143
22095.965689,-1406.391290,-11843.295072,-2528.115143
22095.966022,0.000000,-8808.450710,0.000000
22095.966356,-1702.473667,-9770.718434,995.924147
22095.966689,2812.782580,-2664.741391,2987.772442
22095.967023,2368.659014,-6735.874072,3140.991542
22095.967356,2960.823768,-6587.832884,1378.971896
22095.967690,5847.626942,-8290.306550,-1685.410096
22095.968023,1184.329507,-11917.315666,0.000000
22095.968356,6069.688724,-10658.965565,3600.648841
22095.968690,1110.308913,-11473.192101,-689.485948
22095.969023,4441.235652,-12657.521608,1072.533697
22095.969357,-2442.679609,-11325.150913,-1838.629195
22095.969690,-2960.823768,-9252.574275,-3447.429741
22095.970023,-2886.803174,-10140.821405,-995.924147
22095.970357,-1850.514855,-9474.636058,-76.609550
22095.970690,-3034.844362,-3034.844362,0.000000
22095.971024,-1480.411884,-7550.100608,2987.772442
22095.971357,-74.020594,-9178.553681,2374.896044
22095.971691,-2368.659014,-3627.009116,1225.752797
22095.972024,2886.803174,-7698.141797,1149.143247
22095.972357,444.123565,-10807.006753,536.266849
22095.972691,888.247130,-9178.553681,766.095498
22095.973024,370.102971,-10066.800811,-2451.505594
22095.973358,-74.020594,-16580.613101,-76.609550
22095.973691,-4145.153275,-11917.315666,-2528.115143
22095.974025,-4219.173869,-11843.295072,-1608.800546
22095.974358,-1554.432478,-9252.574275,0.000000
22095.974691,-3256.906145,-7179.997637,2451.505594
22095.975025,-444.123565,-4737.318029,4213.525239
22095.975358,3182.885551,-1998.556043,2834.553343
22095.975692,0.000000,-7179.997637,5515.887586
22095.976025,5255.462188,-6809.894666,3294.210641
22095.976359,0.000000,-7179.997637,0.000000
22095.976692,740.205942,-9548.656652,-1762.019645
22095.977025,-592.164754,-12287.418637,-4673.182538
22095.977359,-740.205942,-13545.768739,-1838.629195
22095.977692,-74.020594,-13915.871710,-383.047749
22095.978026,-2812.782580,-13619.789333,-1302.362347
22095.978359,-3997.112087,-9548.656652,0.000000
22095.978693,-962.267725,-9474.636058,2374.896044
22095.979026,2886.803174,-5921.647536,3600.648841
22095.979359,1776.494261,-5551.544565,3677.258390
22095.979693,7624.121203,-4219.173869,5592.497135
22095.980026,2072.576638,-6143.709319,5132.839837
22095.980360,4441.235652,-4293.194464,229.828649
22095.980693,1110.308913,-9178.553681,-4673.182538
22095.981026,1628.453072,-17172.777854,-383.047749
22095.981360,0.000000,-8364.327145,-4903.011187
22095.981693,-74.020594,-18357.107362,-2528.115143
22095.982027,-74.020594,-14211.954086,-3447.429741
22095.982360,-1776.494261,-10881.027347,-4136.915689
22095.982694,814.226536,-10584.944971,1225.752797
22095.983027,0.000000,-8956.491898,4596.572988
22095.983360,3627.009116,-3182.885551,6128.763984
22095.983694,3552.988522,-3330.926739,8273.831378
22095.984027,3478.967927,-4737.318029,2604.724693
22095.984361,2960.823768,-4885.359217,2451.505594
22095.984694,1406.391290,-10658.965565,1762.019645
22095.985028,1702.473667,-6883.915261,-3064.381992
22095.985361,-3552.988522,-13101.645173,-2451.505594
22095.985694,-3701.029710,-13175.665768,-6971.469032
22095.986028,-3923.091493,-12805.562797,-6588.421283
22095.986361,-5773.606348,-16580.613101,-3140.991542
22095.986695,-74.020594,-9474.636058,-383.047749
22095.987028,-4737.318029,-8364.327145,3677.258390
22095.987362,2294.638420,-8290.306550,6052.154434
22095.987695,1480.411884,-74.020594,4903.011187
22095.988028,2738.761985,-7105.977043,7277.907231
22095.988362,6513.812290,-4219.173869,5286.058936
22095.988695,2072.576638,-8290.306550,4979.620737
22095.989029,370.102971,-7994.224174,-919.314598
22095.989362,-888.247130,-9992.780217,-5209.449386
22095.989696,-6883.915261,-18949.272115,-9882.631924
22095.990029,-1776.494261,-10732.986159,-4519.963438
22095.990362,-5107.421000,-14285.974681,-1991.848295
22095.990696,-2886.803174,-12509.480420,-1685.410096
22095.991029,-3701.029710,-7179.997637,1302.362347
22095.991363,-666.185348,-10658.965565,4826.401637
22095.991696,3404.947333,-3034.844362,8273.831378
22095.992029,3552.988522,-2442.679609,10648.727422
22095.992363,4071.132681,-6143.709319,3830.477490
22095.992696,1480.411884,-5403.503377,4903.011187
22095.993030,296.082377,-4737.318029,-1915.238745
22095.993363,-592.164754,-13027.624579,-5975.544884
22095.993697,-666.185348,-13915.871710,-4673.182538
22095.994030,-1924.535449,-12287.418637,-7660.954980
22095.994363,518.144159,-14508.036463,-5286.058936
22095.994697,-2812.782580,-13101.645173,-1838.629195
22095.995030,1702.473667,-11843.295072,-76.609550
22095.995364,4663.297435,-9178.553681,2068.457845
22095.995697,3256.906145,-10732.986159,8580.269578
22095.996031,8216.285956,0.000000,8503.660028
22095.996364,3108.864956,-5699.585753,6971.469032
22095.996697,5773.606348,-2812.782580,4366.744339
22095.997031,-2072.576638,-9918.759623,1149.143247
22095.997364,3701.029710,-2442.679609,-2451.505594
22095.997698,-4737.318029,-12213.398043,-612.876398
22095.998031,-2442.679609,-11843.295072,-8503.660028
22095.998365,-2368.659014,-10732.986159,-8580.269578
22095.998698,-6513.812290,-15470.304188,-5898.935335
22095.999031,0.000000,-10732.986159,-3524.039291
22095.999365,-3627.009116,-12583.501014,0.000000
22095.999698,4885.359217,-7105.977043,5745.716235
22096.000032,2072.576638,-5255.462188,6741.640382
22096.000365,5255.462188,-7994.224174,10648.727422
22096.000699,4145.153275,-2960.823768,8503.660028
22096.001032,7031.956449,-5921.647536,5439.278036
22096.001365,2960.823768,-4811.338623,1532.190996
22096.001699,-2368.659014,-12509.480420,-689.485948
22096.002032,-1184.329507,-9548.656652,-5975.544884
22096.002366,-5773.606348,-15544.324782,-6128.763984
22096.002699,-2590.720797,-12065.356855,-6358.592633
22096.003032,-4737.318029,-11917.315666,-4136.915689
22096.003366,-3404.947333,-13027.624579,-1608.800546
22096.003699,-74.020594,-9474.636058,842.705048
22096.004033,-2220.617826,-8956.491898,4903.011187
22096.004366,5477.523971,-6217.729913,11874.480219
22096.004700,3923.091493,-1850.514855,8886.707777
22096.005033,6513.812290,-3034.844362,7890.783629
22096.005366,-370.102971,-6883.915261,1991.848295
22096.005700,-1850.514855,-7920.203579,-1608.800546
22096.006033,-3997.112087,-8142.265362,-8120.612279
22096.006367,-6587.832884,-14804.118840,-8580.269578
22096.006700,-1850.514855,-13027.624579,-7124.688131
22096.007034,-6513.812290,-13323.706956,-6511.811733
22096.007367,-74.020594,-12139.377449,-2298.286494
22096.007700,0.000000,-12361.439231,3600.648841
22096.008034,4663.297435,-7105.977043,8197.221829
22096.008367,8216.285956,-7698.141797,11568.042020
22096.008701,5847.626942,-4515.256246,6435.202183
22096.009034,7698.141797,-5107.421000,3677.258390
22096.009368,4145.153275,-11029.068536,2451.505594
22096.009701,2442.679609,-8808.450710,0.000000
22096.010034,-3997.112087,-10658.965565,-5362.668486
22096.010368,-3034.844362,-10732.986159,-6205.373534
22096.010701,-4367.215058,-10510.924376,-6818.249932
22096.011035,-4145.153275,-10732.986159,-7354.516781
22096.011368,-666.185348,-11251.130318,-1608.800546
22096.011702,1110.308913,-7550.100608,0.000000
22096.012035,888.247130,-10140.821405,6665.030833
22096.012368,4071.132681,-8290.306550,6665.030833
22096.012702,3552.988522,-6291.750507,6281.983084
22096.013035,518.144159,-7846.182985,5592.497135
22096.013369,6217.729913,-4515.256246,1762.019645
22096.013702,3404.947333,-7846.182985,1455.581446
22096.014035,1406.391290,-11251.130318,-1762.019645
22096.014369,-74.020594,-11325.150913,-6128.763984
22096.014702,-2294.638420,-11917.315666,-6128.763984
22096.015036,-1776.494261,-14211.954086,-2528.115143
22096.015369,888.247130,-9770.718434,689.485948
22096.015703,3775.050304,-8882.471304,1149.143247
22096.016036,1850.514855,-10658.965565,5439.278036
22096.016369,0.000000,-6365.771101,4443.353888
22096.016703,3404.947333,-7254.018232,3983.696590
22096.017036,1110.308913,-9474.636058,4826.401637
22096.017370,0.000000,-3627.009116,0.000000
22096.017703,-2072.576638,-8512.368333,-689.485948
22096.018037,-74.020594,-9474.636058,-2528.115143
22096.018370,-5921.647536,-7179.997637,-4903.011187
22096.018703,-74.020594,-7698.141797,-383.047749
22096.019037,-3108.864956,-9844.739029,-4903.011187
22096.019370,-2368.659014,-11621.233289,-2681.334243
22096.019704,-1554.432478,-11399.171507,-842.705048
22096.020037,-74.020594,-11843.295072,-76.609550
22096.020371,2960.823768,-7920.203579,3524.039291
22096.020704,2738.761985,-11843.295072,5132.839837
22096.021037,5773.606348,-7105.977043,7890.783629
22096.021371,592.164754,-6587.832884,3064.381992
22096.021704,2294.638420,-10362.883188,-76.609550
22096.022038,2072.576638,-7179.997637,-3064.381992
22096.022371,-3552.988522,-13101.645173,3524.039291
22096.022705,1110.308913,-4737.318029,-4213.525239
22096.023038,-7105.977043,-9548.656652,-5515.887586
22096.023371,-2442.679609,-10658.965565,-4060.306139
22096.023705,-1850.514855,-8438.347739,-1378.971896
22096.024038,148.041188,-8956.491898,1838.629195
22096.024372,4367.215058,-8734.430116,4213.525239
22096.024705,222.061783,-13027.624579,5745.716235
22096.025038,0.000000,-4811.338623,0.000000
22096.025372,592.164754,-11843.295072,4596.572988
22096.025705,2294.638420,-8882.471304,-76.609550
22096.026039,444.123565,-7550.100608,0.000000
22096.026372,3478.967927,-7846.182985,-1149.143247
22096.026706,1998.556043,-10066.800811,-842.705048
22096.027039,-1702.473667,-8364.327145,-2374.896044
22096.027372,666.185348,-7254.018232,-2681.334243
22096.027706,444.123565,-14211.954086,2374.896044
22096.028039,0.000000,-5995.668130,2451.505594
22096.028373,-592.164754,-10510.924376,1149.143247
22096.028706,1406.391290,-9474.636058,2068.457845
22096.029040,0.000000,-6513.812290,-229.828649
22096.029373,3256.906145,-11769.274478,4136.915689
22096.029706,2812.782580,-6513.812290,3370.820191
22096.030040,-2590.720797,-10732.986159,-1302.362347
22096.030373,0.000000,-8364.327145,-2145.067394
22096.030707,-74.020594,-9474.636058,-4366.744339
22096.031040,592.164754,-9548.656652,-1838.629195
22096.031374,592.164754,-8734.430116,1608.800546
22096.031707,1406.391290,-9104.533087,0.000000
22096.032040,296.082377,-8364.327145,2451.505594
22096.032374,1258.350101,-9474.636058,3140.991542
22096.032707,3404.947333,-7698.141797,919.314598
22096.033041,2294.638420,-10658.965565,3447.429741
22096.033374,1998.556043,-11843.295072,3600.648841
22096.033708,-2220.617826,-5403.503377,0.000000
22096.034041,-1850.514855,-11251.130318,-3140.991542
22096.034374,-962.267725,-8290.306550,-3140.991542
22096.034708,-3256.906145,-7179.997637,-2911.162892
22096.035041,2960.823768,-11029.068536,842.705048
22096.035375,-444.123565,-9252.574275,2298.286494
22096.035708,444.123565,-5995.668130,0.000000
22096.036041,1702.473667,-9474.636058,2451.505594
22096.036375,1702.473667,-9474.636058,2374.896044
22096.036708,1184.329507,-7328.038826,1225.752797
22096.037042,1850.514855,-9104.533087,1149.143247
22096.037375,-1332.370696,-10140.821405,-612.876398
22096.037709,-2146.597232,-11695.253884,-689.485948
22096.038042,-2442.679609,-12731.542202,-76.609550
22096.038375,-3849.070898,-10732.986159,-1532.190996
22096.038709,-2368.659014,-7179.997637,1915.238745
22096.039042,1406.391290,-6513.812290,-76.609550
22096.039376,-444.123565,-3627.009116,0.000000
22096.039709,592.164754,-9400.615463,3600.648841
22096.040043,962.267725,-10362.883188,3983.696590
22096.040376,1702.473667,-6661.853478,2681.334243
22096.040709,518.144159,-13027.624579,2374.896044
22096.041043,1110.308913,-8290.306550,-2221.676944
22096.041376,0.000000,-11029.068536,0.000000
22096.041710,-74.020594,-13619.789333,-1915.238745
22096.042043,-74.020594,-10066.800811,-2834.553343
22096.042377,-3552.988522,-11621.233289,-612.876398
22096.042710,-2442.679609,-11103.089130,-2221.676944
22096.043043,-2886.803174,-7179.997637,-1455.581446
22096.043377,-1184.329507,-4589.276840,1532.190996
22096.043710,3923.091493,-5107.421000,4826.401637
22096.044044,3552.988522,-4811.338623,8580.269578
22096.044377,0.000000,-2442.679609,3983.696590
22096.044711,2294.638420,-9474.636058,-383.047749
22096.045044,888.247130,-9548.656652,0.000000
22096.045377,0.000000,-10436.903782,-995.924147
22096.045711,1110.308913,-10140.821405,-3677.258390
22096.046044,-4441.235652,-15692.365970,-2451.505594
22096.046378,-74.020594,-8586.388927,-4366.744339
22096.046711,-2146.597232,-13989.892304,1762.019645
22096.047044,3775.050304,-5625.565159,3524.039291
22096.047378,0.000000,-5699.585753,3294.210641
22096.047711,3478.967927,-5921.647536,536.266849
22096.048045,4737.318029,-7920.203579,4519.963438
22096.048378,4071.132681,-11843.295072,2374.896044
22096.048712,3552.988522,-7179.997637,5669.106685
22096.049045,4367.215058,-9326.594869,689.485948
22096.049378,1332.370696,-10140.821405,229.828649
22096.049712,-1332.370696,-10214.842000,-1915.238745
22096.050045,-1554.432478,-10066.800811,-5898.935335
22096.050379,-2442.679609,-14211.954086,-3753.867940
22096.050712,-2368.659014,-9548.656652,-2451.505594
22096.051046,-4737.318029,-10140.821405,1378.971896
22096.051379,-74.020594,-7105.977043,3294.210641
22096.051712,0.000000,-4811.338623,1532.190996
22096.052046,3775.050304,-7328.038826,5132.839837
22096.052379,3552.988522,-6661.853478,4826.401637
22096.052713,3034.844362,-5625.565159,383.047749
22096.053046,0.000000,-12731.542202,612.876398
22096.053380,2886.803174,-9474.636058,-383.047749
22096.053713,962.267725,-11473.192101,-1685.410096
22096.054046,-2072.576638,-10881.027347,-3217.601092
22096.054380,-3034.844362,-13027.624579,-2528.115143
22096.054713,-4811.338623,-11843.295072,-2834.553343
22096.055047,-2368.659014,-10140.821405,2374.896044
22096.055380,-4811.338623,-7698.141797,-689.485948
22096.055714,0.000000,-3034.844362,1838.629195
22096.056047,0.000000,-6735.874072,5515.887586
22096.056380,1702.473667,-6587.832884,6818.249932
22096.056714,814.226536,-2294.638420,4519.963438
22096.057047,1702.473667,-7031.956449,76.609550
22096.057380,3256.906145,-10288.862594,1378.971896
22096.057713,-1776.494261,-11917.315666,-2451.505594
22096.058047,-74.020594,-11843.295072,-6511.811733
22096.058380,-3627.009116,-11917.315666,-8580.269578
22096.058713,-4737.318029,-16210.510130,-4979.620737
22096.059047,-370.102971,-11843.295072,-689.485948
22096.059380,-4145.153275,-9992.780217,3140.991542
22096.059713,2146.597232,-4811.338623,2757.943793
22096.060047,2738.761985,-5773.606348,9729.412825
22096.060380,6365.771101,-2072.576638,8197.221829
22096.060713,7550.100608,-5329.482782,8733.488677
22096.061047,4663.297435,-9474.636058,2068.457845
22096.061380,2516.700203,-5403.503377,-1225.752797
22096.061713,0.000000,-12805.562797,-2528.115143
22096.062046,-74.020594,-16284.530724,-8886.707777
22096.062380,-2072.576638,-14211.954086,-2834.553343
22096.062713,-3552.988522,-12805.562797,-4596.572988
22096.063046,148.041188,-9474.636058,-4519.963438
22096.063380,-6069.688724,-13545.768739,-1685.410096
22096.063713,4071.132681,-4737.318029,1149.143247
22096.064046,296.082377,-5403.503377,5515.887586
22096.064380,5921.647536,-4219.173869,10418.898773
22096.064713,5847.626942,-5921.647536,6052.154434
22096.065046,4071.132681,-3627.009116,2451.505594
22096.065379,5625.565159,-7698.141797,-76.609550
22096.065713,1406.391290,-11029.068536,-1225.752797
22096.066046,1776.494261,-13027.624579,-3447.429741
22096.066379,-3923.091493,-13323.706956,-7431.126331
22096.066713,-4219.173869,-16580.613101,-7584.345430
22096.067046,-2960.823768,-12361.439231,-2374.896044
22096.067379,-2812.782580,-10214.842000,-1072.533697
22096.067713,1480.411884,-7846.182985,3064.381992
22096.068046,296.082377,-7179.997637,7354.516781
22096.068379,2294.638420,-4737.318029,7277.907231
22096.068713,3478.967927,-2960.823768,3983.696590
22096.069046,2072.576638,-7328.038826,4903.011187
22096.069379,3330.926739,-8882.471304,2068.457845
22096.069712,-1776.494261,-9548.656652,306.438199
22096.070046,-4589.276840,-10807.006753,-4443.353888
22096.070379,-4293.194464,-10881.027347,-7048.078582
22096.070712,-2738.761985,-11547.212695,-5056.230287
22096.071046,-1258.350101,-14211.954086,-689.485948
22096.071379,-4737.318029,-11325.150913,842.705048
22096.071712,-2442.679609,-7402.059420,-3370.820191
22096.072046,-4441.235652,-10732.986159,2528.115143
22096.072379,4663.297435,-5921.647536,7277.907231
22096.072712,2886.803174,-5329.482782,6052.154434
22096.073045,5033.400406,-6809.894666,6971.469032
22096.073379,2368.659014,-6661.853478,4213.525239
22096.073712,962.267725,-7698.141797,306.438199
22096.074045,1480.411884,-8956.491898,-919.314598
22096.074379,-296.082377,-12139.377449,-3753.867940
22096.074712,-4145.153275,-13101.645173,-7354.516781
22096.075045,-4441.235652,-13989.892304,-3830.477490
22096.075379,-3034.844362,-11843.295072,-4596.572988
22096.075712,-2664.741391,-8438.347739,-3064.381992
22096.076045,222.061783,-9622.677246,383.047749
22096.076378,3108.864956,-9326.594869,6511.811733
22096.076712,2886.803174,-4663.297435,5286.058936
22096.077045,5255.462188,-3478.967927,5515.887586
22096.077378,2886.803174,-8882.471304,3600.648841
22096.077712,5921.647536,-5403.503377,4596.572988
22096.078045,2072.576638,-11621.233289,-76.609550
22096.078378,1110.308913,-8068.244768,-6741.640382
22096.078712,-2368.659014,-11325.150913,-5515.887586
22096.079045,-1628.453072,-13249.686362,-4596.572988
22096.079378,-1184.329507,-11325.150913,-4060.306139
22096.079712,-1554.432478,-12509.480420,-1608.800546
22096.080045,-1850.514855,-11325.150913,1532.190996
22096.080378,0.000000,-3034.844362,2451.505594
22096.080711,6143.709319,-9178.553681,8503.660028
22096.081045,5107.421000,-3627.009116,7967.393179
22096.081378,1184.329507,-3627.009116,6128.763984
22096.081711,4737.318029,-7920.203579,3677.258390
22096.082045,2738.761985,-10140.821405,-2145.067394
22096.082378,-1258.350101,-11251.130318,-2451.505594
22096.082711,-444.123565,-9918.759623,-5669.106685
22096.083045,-3552.988522,-14508.036463,-4060.306139
22096.083378,-6143.709319,-9548.656652,-5515.887586
22096.083711,-1258.350101,-9474.636058,-4213.525239
22096.084044,-2146.597232,-11917.315666,2604.724693
22096.084378,0.000000,-8290.306550,4136.915689
22096.084711,1110.308913,-7105.977043,6971.469032
22096.085044,2294.638420,-5107.421000,5515.887586
22096.085378,2368.659014,-3627.009116,2451.505594
22096.085711,3478.967927,-11251.130318,3907.087040
22096.086044,2590.720797,-6291.750507,1225.752797
22096.086378,-3256.906145,-10732.986159,-1455.581446
22096.086711,-3034.844362,-11029.068536,-5056.230287
22096.087044,-2294.638420,-11991.336260,-3140.991542
22096.087378,-3627.009116,-11251.130318,-4979.620737
22096.087711,296.082377,-9770.718434,-1149.143247
22096.088044,-74.020594,-7772.162391,0.000000
22096.088377,4145.153275,-8882.471304,6052.154434
22096.088711,2886.803174,-9474.636058,6665.030833
22096.089044,1258.350101,-6735.874072,3677.258390
22096.089377,2590.720797,-7105.977043,4826.401637
22096.089711,1184.329507,-7179.997637,2298.286494
22096.090044,1406.391290,-7920.203579,-842.705048
22096.090377,-1110.308913,-10510.924376,-2451.505594
22096.090711,-4441.235652,-8364.327145,-6741.640382
22096.091044,-4219.173869,-10436.903782,-7354.516781
22096.091377,814.226536,-11251.130318,-3140.991542
22096.091710,-666.185348,-10955.047942,-1378.971896
22096.092044,518.144159,-7179.997637,0.000000
22096.092377,2368.659014,-6587.832884,2911.162892
22096.092710,2368.659014,-8956.491898,4596.572988
22096.093044,3034.844362,-8216.285956,6052.154434
22096.093377,2812.782580,-6957.935855,2911.162892
22096.093710,3478.967927,-11843.295072,3294.210641
22096.094044,1332.370696,-7179.997637,3217.601092
22096.094377,-370.102971,-9474.636058,-3753.867940
22096.094710,0.000000,-9548.656652,0.000000
22096.095044,-518.144159,-9474.636058,-2451.505594
22096.095377,-222.061783,-10658.965565,-3677.258390
22096.095710,-1628.453072,-10732.986159,-2604.724693
22096.096043,-1924.535449,-8142.265362,-1072.533697
22096.096377,1554.432478,-7994.224174,229.828649
22096.096710,1924.535449,-10140.821405,5056.230287
22096.097043,5773.606348,-10658.965565,9116.536426
22096.097377,2072.576638,-3775.050304,3677.258390
22096.097710,0.000000,-8364.327145,5209.449386
22096.098043,-814.226536,-8290.306550,-1302.362347
22096.098377,-3627.009116,-9770.718434,0.000000
22096.098710,-3330.926739,-7105.977043,-2834.553343
22096.099043,-518.144159,-7254.018232,-3064.381992
22096.099376,-2294.638420,-10658.965565,-3524.039291
22096.099710,-4737.318029,-8660.409521,-5515.887586
22096.100043,-74.020594,-10658.965565,-3140.991542
22096.100376,-1554.432478,-15100.201217,842.705048
22096.100710,4367.215058,-7105.977043,2528.115143
22096.101043,518.144159,-11103.089130,2987.772442
22096.101376,3182.885551,-8586.388927,2987.772442
22096.101710,4737.318029,-8734.430116,9116.536426
22096.102043,5847.626942,-8290.306550,2374.896044
22096.102376,3552.988522,-9548.656652,4903.011187
22096.102710,-2368.659014,-10140.821405,1685.410096
22096.103043,-74.020594,-6883.915261,-4596.572988
22096.103376,-3627.009116,-10066.800811,76.609550
22096.103709,-1184.329507,-3775.050304,-4903.011187
22096.104043,444.123565,-9178.553681,-2451.505594
22096.104376,-2368.659014,-9548.656652,-2451.505594
22096.104709,3182.885551,-11843.295072,-689.485948
22096.105043,-3552.988522,-11843.295072,-1302.362347
22096.105376,2368.659014,-9548.656652,2451.505594
22096.105709,2886.803174,-13619.789333,4826.401637
22096.106043,3552.988522,-5699.585753,3064.381992
22096.106376,3775.050304,-9548.656652,2451.505594
22096.106709,2960.823768,-9548.656652,2451.505594
22096.107042,2590.720797,-5847.626942,1225.752797
22096.107376,592.164754,-10066.800811,-383.047749
22096.107709,-74.020594,-11843.295072,-3140.991542
22096.108042,-4145.153275,-9548.656652,-2451.505594
22096.108376,0.000000,-7772.162391,1072.533697
22096.108709,3478.967927,-9474.636058,-76.609550
22096.109042,1776.494261,-8882.471304,3524.039291
22096.109376,1406.391290,-8660.409521,919.314598
22096.109709,1480.411884,-9474.636058,1991.848295
22096.110042,-2220.617826,-12731.542202,-76.609550
22096.110376,-1850.514855,-10066.800811,-4673.182538
22096.110709,-2220.617826,-11325.150913,0.000000
22096.111042,0.000000,-7920.203579,4826.401637
22096.111375,1702.473667,-7105.977043,1455.581446
22096.111709,-1258.350101,-3034.844362,0.000000
22096.112042,-592.164754,-8734.430116,-1302.362347
22096.112375,-2294.638420,-9696.697840,0.000000
22096.112709,-148.041188,-10510.924376,842.705048
22096.113042,-3256.906145,-11473.192101,0.000000
22096.113375,3182.885551,-7105.977043,536.266849
22096.113709,0.000000,-8808.450710,-1225.752797
22096.114042,1258.350101,-9992.780217,766.095498
22096.114375,-444.123565,-10288.862594,-76.609550
22096.114708,-4145.153275,-13101.645173,0.000000
22096.115042,-1776.494261,-9548.656652,1991.848295
22096.115375,-74.020594,-7698.141797,0.000000
22096.115708,148.041188,-4811.338623,0.000000
22096.116042,2072.576638,-6365.771101,3600.648841
22096.116375,1184.329507,-7772.162391,1838.629195
22096.116708,3627.009116,-8068.244768,4213.525239
22096.117042,3627.009116,-9252.574275,3907.087040
22096.117375,1258.350101,-13323.706956,-1302.362347
22096.117708,1110.308913,-11547.212695,-1915.238745
22096.118042,-1480.411884,-8660.409521,-4290.134789
22096.118375,-1258.350101,-11917.315666,-4903.011187
22096.118708,-1184.329507,-10881.027347,-689.485948
22096.119041,-2442.679609,-15248.242405,-76.609550
22096.119375,2294.638420,-6291.750507,1915.238745
22096.119708,1776.494261,-5625.565159,3447.429741
22096.120041,3997.112087,-3478.967927,5669.106685
22096.120375,2516.700203,-4515.256246,3907.087040
22096.120708,2516.700203,-7179.997637,2451.505594
22096.121041,1184.329507,-9252.574275,1762.019645
22096.121375,592.164754,-11917.315666,0.000000
22096.121708,2072.576638,-13027.624579,-76.609550
22096.122041,1110.308913,-10658.965565,-4366.744339
22096.122374,-1184.329507,-12213.398043,-3983.696590
22096.122708,-1258.350101,-13027.624579,-2528.115143
22096.123041,-2738.761985,-12065.356855,-2145.067394
22096.123374,-888.247130,-9252.574275,306.438199
22096.123708,-1036.288319,-8290.306550,2834.553343
22096.124041,3478.967927,-2368.659014,4519.963438
22096.124374,2368.659014,-5995.668130,8810.098227
22096.124708,4663.297435,-8882.471304,6052.154434
22096.125041,-1258.350101,-5107.421000,1225.752797
22096.125374,1184.329507,-11325.150913,4290.134789
22096.125708,2146.597232,-8512.368333,-766.095498
22096.126041,-2516.700203,-14211.954086,-995.924147
22096.126374,-962.267725,-11621.233289,-3753.867940
22096.126707,-5477.523971,-12287.418637,-7431.126331
22096.127041,-4293.194464,-11917.315666,-5822.325785
22096.127374,-2368.659014,-9622.677246,1149.143247
22096.127707,-2738.761985,-7846.182985,0.000000
22096.128041,-3256.906145,-4219.173869,1225.752797
22096.128374,0.000000,-7179.997637,5056.230287
22096.128707,6291.750507,-2590.720797,6128.763984
22096.129041,4885.359217,-4663.297435,7814.174080
22096.129374,1924.535449,-6883.915261,2374.896044
22096.129707,1850.514855,-9178.553681,1302.362347
22096.130040,-1850.514855,-11621.233289,-2911.162892
22096.130374,4145.153275,-9770.718434,-2068.457845
22096.130707,-3552.988522,-14656.077652,-4749.792088
22096.131040,-1850.514855,-12213.398043,-6665.030833
22096.131374,-3627.009116,-14211.954086,-3753.867940
22096.131707,1702.473667,-12953.603985,-1378.971896
22096.132040,0.000000,-9548.656652,4903.011187
22096.132374,4885.359217,-4441.235652,8503.660028
22096.132707,5699.585753,-4663.297435,7048.078582
22096.133040,4737.318029,-222.061783,8044.002729
22096.133374,2812.782580,-6291.750507,3294.210641
22096.133707,1332.370696,-5995.668130,766.095498
22096.134040,-962.267725,-11177.109724,-2528.115143
22096.134373,-3627.009116,-13619.789333,-7431.126331
22096.134707,-3034.844362,-11251.130318,-8427.050478
22096.135040,-7550.100608,-13841.851115,-7124.688131
22096.135373,-2442.679609,-11843.295072,-4979.620737
22096.135707,-2738.761985,-9696.697840,-2145.067394
22096.136040,2294.638420,-8882.471304,4213.525239
22096.136373,1184.329507,-7179.997637,7967.393179
22096.136707,5107.421000,-5033.400406,8197.221829
22096.137040,4589.276840,-7105.977043,7277.907231
22096.137373,4145.153275,-5403.503377,4903.011187
22096.137706,6439.791695,-5699.585753,0.000000
22096.138040,3775.050304,-12435.459826,-76.609550
22096.138373,-222.061783,-11917.315666,-2145.067394
22096.138706,-5181.441594,-9844.739029,-5975.544884
22096.139040,-3478.967927,-12213.398043,-6052.154434
22096.139373,-5329.482782,-13175.665768,-3600.648841
22096.139706,-5181.441594,-9548.656652,-2451.505594
22096.140040,-6513.812290,-8438.347739,153.219100
22096.140373,-74.020594,-7105.977043,5362.668486
22096.140706,0.000000,-5107.421000,8120.612279
22096.141040,4367.215058,-4737.318029,6052.154434
22096.141373,1184.329507,-4811.338623,4903.011187
22096.141706,4071.132681,-10066.800811,2681.334243
22096.142039,4145.153275,-6735.874072,612.876398
22096.142373,2294.638420,-10066.800811,-3753.867940
22096.142706,74.020594,-13027.624579,-5898.935335
22096.143039,-2738.761985,-15840.407159,-6358.592633
22096.143373,-1554.432478,-12879.583391,-3677.258390
22096.143706,2072.576638,-11843.295072,-76.609550
22096.144039,74.020594,-7328.038826,0.000000
22096.144373,0.000000,-8364.327145,4443.353888
22096.144706,3478.967927,-5773.606348,3294.210641
22096.145039,2368.659014,-8512.368333,4903.011187
22096.145372,4071.132681,-6513.812290,3907.087040
22096.145706,3997.112087,-8068.244768,4903.011187
22096.146039,666.185348,-5625.565159,306.438199
22096.146372,592.164754,-6587.832884,-4213.525239
22096.146706,666.185348,-14656.077652,-3140.991542
22096.147039,-740.205942,-12509.480420,-2145.067394
22096.147372,-1332.370696,-8882.471304,-4213.525239
22096.147706,-3034.844362,-13323.706956,-2528.115143
22096.148039,-3627.009116,-8882.471304,-2528.115143
22096.148372,-1184.329507,-9474.636058,4596.572988
22096.148706,2294.638420,-9474.636058,4519.963438
22096.149039,2368.659014,-5107.421000,7967.393179
22096.149372,592.164754,-6587.832884,4903.011187
22096.149705,4663.297435,-7846.182985,3600.648841
22096.150039,2442.679609,-8142.265362,1149.143247
22096.150372,2516.700203,-7920.203579,-689.485948
22096.150705,0.000000,-10658.965565,-2757.943793
22096.151039,-2368.659014,-10732.986159,-6741.640382
22096.151372,-74.020594,-13619.789333,-2528.115143
22096.151705,-1850.514855,-10658.965565,-4979.620737
22096.152039,-962.267725,-7772.162391,-2451.505594
22096.152372,-74.020594,-16580.613101,2987.772442
22096.152705,0.000000,-8364.327145,3064.381992
22096.153038,222.061783,-6809.894666,4519.963438
22096.153372,1776.494261,-5625.565159,1608.800546
22096.153705,2368.659014,-9030.512492,3830.477490
22096.154038,3552.988522,-7476.080014,7201.297681
22096.154372,4663.297435,-9474.636058,2374.896044
22096.154705,-2368.659014,-8364.327145,306.438199
22096.155038,-3552.988522,-10140.821405,-2604.724693
22096.155372,-3034.844362,-11843.295072,-5286.058936
22096.155705,-4145.153275,-11991.336260,-3294.210641
22096.156038,-3997.112087,-11029.068536,-2528.115143
22096.156371,-2960.823768,-11177.109724,1149.143247
22096.156705,-1258.350101,-6957.935855,2681.334243
22096.157038,1110.308913,-8882.471304,2374.896044
22096.157371,4071.132681,-4811.338623,2834.553343
22096.157704,2368.659014,-8364.327145,9422.974625
22096.158037,4071.132681,-5921.647536,2374.896044
22096.158371,2368.659014,-7179.997637,2451.505594
22096.158704,1480.411884,-9918.759623,-76.609550
22096.159037,1850.514855,-10510.924376,-3830.477490
22096.159370,2738.761985,-13471.748144,-3140.991542
22096.159703,-2368.659014,-11325.150913,-459.657299
22096.160036,-1258.350101,-10658.965565,-4060.306139
22096.160370,-2960.823768,-11769.274478,-2145.067394
22096.160703,-3701.029710,-9696.697840,-1302.362347
22096.161036,222.061783,-6439.791695,2911.162892
22096.161369,0.000000,-5995.668130,3677.258390
22096.161702,2368.659014,-5403.503377,8044.002729
22096.162036,2294.638420,-4737.318029,4213.525239
22096.162369,1184.329507,-5403.503377,0.000000
22096.162702,3108.864956,-9474.636058,-76.609550
22096.163035,-2664.741391,-10140.821405,-7048.078582
22096.163368,-2812.782580,-12953.603985,-4749.792088
22096.163701,-1332.370696,-10807.006753,-6205.373534
22096.164035,-1924.535449,-15470.304188,-2451.505594
22096.164368,3478.967927,-11547.212695,2068.457845
22096.164701,1850.514855,-5551.544565,4826.401637
22096.165034,3478.967927,-8142.265362,459.657299
22096.165367,2368.659014,-9844.739029,6588.421283
22096.165701,3552.988522,-8438.347739,7584.345430
22096.166034,4663.297435,-6513.812290,5515.887586
22096.166367,1628.453072,-8586.388927,4213.525239
22096.166700,-1702.473667,-8438.347739,-3370.820191
22096.167033,0.000000,-9918.759623,-1532.190996
22096.167367,-3478.967927,-8438.347739,-5669.106685
22096.167700,-2960.823768,-11325.150913,-4366.744339
22096.168033,-5255.462188,-12435.459826,-4903.011187
22096.168366,-2294.638420,-8364.327145,0.000000
22096.168699,814.226536,-8882.471304,3600.648841
22096.169032,2886.803174,-9474.636058,5439.278036
22096.169366,3478.967927,-3849.070898,4673.182538
22096.169699,1332.370696,-7402.059420,4826.401637
22096.170032,1554.432478,-6587.832884,766.095498
22096.170365,296.082377,-10362.883188,1915.238745
22096.170698,-74.020594,-11547.212695,-2528.115143
22096.171032,-2368.659014,-8364.327145,-2298.286494
22096.171365,-4737.318029,-13101.645173,-2221.676944
22096.171698,2294.638420,-9474.636058,-3447.429741
22096.172031,-4145.153275,-9548.656652,-2451.505594
22096.172364,296.082377,-9548.656652,-1685.410096
22096.172697,1480.411884,-9326.594869,3983.696590
22096.173031,4145.153275,-6291.750507,4596.572988
22096.173364,4367.215058,-6883.915261,2911.162892
22096.173697,-370.102971,-12583.501014,2451.505594
22096.174030,2960.823768,-9474.636058,5745.716235
22096.174363,518.144159,-6365.771101,1072.533697
22096.174697,-2368.659014,-5995.668130,0.000000
22096.175030,-5329.482782,-8068.244768,-4443.353888
22096.175363,-4219.173869,-8216.285956,-4596.572988
22096.175696,-3108.864956,-11843.295072,-3217.601092
22096.176029,-3404.947333,-10214.842000,-3064.381992
22096.176363,-2368.659014,-9474.636058,-1378.971896
22096.176696,814.226536,-8068.244768,-1225.752797
22096.177029,4367.215058,-7624.121203,3294.210641
22096.177362,888.247130,-11473.192101,3830.477490
22096.177695,3997.112087,-7920.203579,4903.011187
22096.178028,2590.720797,-7105.977043,3907.087040
22096.178362,4367.215058,-6661.853478,0.000000
22096.178695,3552.988522,-11029.068536,2451.505594
22096.179028,1554.432478,-9474.636058,-689.485948
22096.179361,-740.205942,-8364.327145,-4903.011187
22096.179694,-4145.153275,-10140.821405,-1072.533697
22096.180028,-1258.350101,-8956.491898,-3830.477490
22096.180361,-370.102971,-8216.285956,-995.924147
22096.180694,-1258.350101,-12287.418637,-2528.115143
22096.181027,2886.803174,-9474.636058,3600.648841
22096.181360,5255.462188,-3849.070898,4903.011187
22096.181694,3552.988522,-9918.759623,6052.154434
22096.182027,4663.297435,-7698.141797,6971.469032
22096.182360,-4219.173869,-7179.997637,-2451.505594
22096.182693,3478.967927,-9474.636058,-76.609550
22096.183026,-4589.276840,-11917.315666,-1762.019645
22096.183359,-2664.741391,-9030.512492,-4366.744339
22096.183693,-1628.453072,-8364.327145,-2451.505594
22096.184026,-2368.659014,-8364.327145,-3370.820191
22096.184359,1110.308913,-9844.739029,-4290.134789
22096.184692,2812.782580,-11251.130318,4826.401637
22096.185025,4663.297435,-9770.718434,766.095498
22096.185359,2368.659014,-8364.327145,4903.011187
22096.185692,6513.812290,-10732.986159,5132.839837
22096.186025,5033.400406,-5921.647536,3524.039291
22096.186358,2368.659014,-9696.697840,229.828649
22096.186691,-2442.679609,-13619.789333,-1149.143247
22096.187024,-74.020594,-8882.471304,-1915.238745
22096.187358,-7105.977043,-10140.821405,-2451.505594
22096.187691,-1258.350101,-8290.306550,-3140.991542
22096.188024,-7254.018232,-7772.162391,-2451.505594
22096.188357,-888.247130,-5847.626942,1225.752797
22096.188690,-74.020594,-7105.977043,3217.601092
22096.189024,-592.164754,-5921.647536,2068.457845
22096.189357,592.164754,-9326.594869,229.828649
22096.189690,-518.144159,-13619.789333,2374.896044
22096.190023,1332.370696,-8142.265362,-536.266849
22096.190356,3849.070898,-11843.295072,3600.648841
22096.190690,1850.514855,-7772.162391,0.000000
22096.191023,-4441.235652,-10732.986159,1225.752797
22096.191356,-74.020594,-11251.130318,-1915.238745
22096.191689,-74.020594,-9696.697840,-919.314598
22096.192022,518.144159,-9178.553681,1072.533697
22096.192355,-740.205942,-8734.430116,2451.505594
22096.192689,-2294.638420,-8808.450710,3524.039291
22096.193022,666.185348,-1554.432478,-1608.800546
22096.193355,5255.462188,-9474.636058,1149.143247
22096.193688,2294.638420,-12287.418637,4136.915689
22096.194021,2960.823768,-6217.729913,1762.019645
22096.194355,-3256.906145,-13545.768739,-1608.800546
22096.194688,-74.020594,-10066.800811,-2528.115143
22096.195021,-3552.988522,-10658.965565,-1838.629195
22096.195354,-74.020594,-13619.789333,-689.485948
22096.195687,-1184.329507,-5995.668130,0.000000
22096.196021,-2368.659014,-10732.986159,306.438199
22096.196354,2294.638420,-7698.141797,1149.143247
22096.196687,2812.782580,-5255.462188,3370.820191
22096.197020,2220.617826,-9104.533087,3370.820191
22096.197353,5181.441594,-6217.729913,5439.278036
22096.197686,1332.370696,-6291.750507,-2451.505594
22096.198020,5625.565159,-13027.624579,-76.609550
22096.198353,2738.761985,-13027.624579,-76.609550
22096.198686,0.000000,-8364.327145,-4290.134789
22096.199019,3478.967927,-13619.789333,-1302.362347
22096.199352,-2886.803174,-13841.851115,-3370.820191
22096.199686,-148.041188,-8808.450710,766.095498
22096.200019,-518.144159,-8586.388927,1915.238745
22096.200352,1406.391290,-7254.018232,2604.724693
22096.200685,0.000000,-8364.327145,3983.696590
22096.201018,7624.121203,-4737.318029,5439.278036
22096.201351,0.000000,-5995.668130,4290.134789
22096.201685,2368.659014,-8734.430116,4519.963438
22096.202018,814.226536,-8216.285956,-2145.067394
22096.202351,-2072.576638,-11325.150913,-1072.533697
22096.202684,296.082377,-11621.233289,-3370.820191
22096.203017,-3849.070898,-14137.933492,-3217.601092
22096.203351,-2812.782580,-10732.986159,-3370.820191
22096.203684,-3034.844362,-12879.583391,-1302.362347
22096.204017,-74.020594,-8290.306550,-76.609550
22096.204350,-3552.988522,-9548.656652,4903.011187
22096.204683,3182.885551,-4441.235652,5132.839837
22096.205017,1998.556043,-1258.350101,612.876398
22096.205350,2960.823768,-9252.574275,7584.345430
22096.205683,2516.700203,-4367.215058,2757.943793
22096.206016,-666.185348,-6587.832884,-1838.629195
22096.206349,-74.020594,-11695.253884,-1915.238745
22096.206682,-4219.173869,-11547.212695,-3140.991542
22096.207016,-6291.750507,-13989.892304,-7354.516781
22096.207349,-1332.370696,-9622.677246,-3370.820191
22096.207682,-4515.256246,-12139.377449,-3830.477490
22096.208015,0.000000,-9844.739029,1225.752797
22096.208348,-6513.812290,-9548.656652,4290.134789
22096.208682,2294.638420,-7105.977043,1762.019645
22096.209015,0.000000,-4811.338623,3677.258390
22096.209348,4737.318029,-3627.009116,6741.640382
22096.209681,3552.988522,-4811.338623,3294.210641
22096.210014,2368.659014,-7476.080014,3370.820191
22096.210347,2664.741391,-7920.203579,-306.438199
22096.210681,1628.453072,-11325.150913,-1455.581446
22096.211014,3182.885551,-14211.954086,-1608.800546
22096.211347,-3997.112087,-12065.356855,-8044.002729
22096.211680,-74.020594,-14211.954086,-4366.744339
22096.212013,-5773.606348,-9548.656652,0.000000
22096.212347,2368.659014,-6587.832884,-459.657299
22096.212680,4515.256246,-12731.542202,5209.449386
22096.213013,3552.988522,-6587.832884,9729.412825
22096.213346,4959.379811,-4219.173869,5592.497135
22096.213679,4811.338623,-8512.368333,7584.345430
22096.214013,5255.462188,-4737.318029,1762.019645
22096.214346,1480.411884,-5403.503377,2757.943793
22096.214679,1924.535449,-5403.503377,-3677.258390
22096.215012,-1480.411884,-12583.501014,-4519.963438
22096.215345,-2738.761985,-11843.295072,-6818.249932
22096.215678,-3034.844362,-10066.800811,-7431.126331
22096.216012,-4219.173869,-14804.118840,-5822.325785
22096.216345,-3627.009116,-13249.686362,-2528.115143
22096.216678,-3182.885551,-10955.047942,459.657299
22096.217011,3330.926739,-6217.729913,3907.087040
22096.217344,7624.121203,-8882.471304,9729.412825
22096.217678,3552.988522,-4219.173869,8580.269578
22096.218011,9400.615463,-8290.306550,9116.536426
22096.218344,740.205942,-4219.173869,1225.752797
22096.218677,592.164754,-7772.162391,-3064.381992
22096.219010,-2442.679609,-12583.501014,-4903.011187
22096.219344,-2442.679609,-12583.501014,-7967.393179
22096.219677,-2072.576638,-11843.295072,-6128.763984
22096.220010,-4145.153275,-12879.583391,-3447.429741
22096.220343,-2738.761985,-8586.388927,-995.924147
22096.220676,-6513.812290,-11029.068536,4519.963438
22096.221009,-222.061783,-7105.977043,2374.896044
22096.221343,-222.061783,-4811.338623,3677.258390
22096.221676,2960.823768,-1850.514855,10418.898773
22096.222009,1702.473667,-3330.926739,5515.887586
22096.222342,3256.906145,-4219.173869,4366.744339
22096.222675,-2812.782580,-11399.171507,-2374.896044
22096.223009,74.020594,-9104.533087,-4290.134789
22096.223342,-3034.844362,-11843.295072,-9576.193725
22096.223675,-1850.514855,-12287.418637,-6128.763984
22096.224008,-3701.029710,-15026.180623,-3907.087040
22096.224341,-1776.494261,-12583.501014,-1455.581446
22096.224674,1258.350101,-10510.924376,4749.792088
22096.225008,2294.638420,-6809.894666,3294.210641
22096.225341,4737.318029,-4811.338623,6741.640382
22096.225674,3552.988522,-5403.503377,8503.660028
22096.226007,5255.462188,-11843.295072,3447.429741
22096.226340,3552.988522,-3034.844362,3677.258390
22096.226674,1406.391290,-11769.274478,-2528.115143
22096.227007,3627.009116,-7105.977043,-1991.848295
22096.227340,-4145.153275,-10732.986159,-7431.126331
22096.227673,-666.185348,-12435.459826,-6818.249932
22096.228006,-370.102971,-10658.965565,-5669.106685
22096.228340,-1480.411884,-13027.624579,-3140.991542
22096.228673,4367.215058,-11547.212695,3600.648841
22096.229006,-370.102971,-8290.306550,4519.963438
22096.229339,1998.556043,-9030.512492,6052.154434
22096.229672,592.164754,-5255.462188,5056.230287
22096.230005,518.144159,-10658.965565,4826.401637
22096.230339,5477.523971,-2072.576638,4596.572988
22096.230672,3108.864956,-7179.997637,5362.668486
22096.231005,5551.544565,-3627.009116,0.000000
22096.231338,1110.308913,-12731.542202,-1302.362347
22096.231671,-2146.597232,-9992.780217,-8733.488677
22096.232005,-1776.494261,-13101.645173,-4903.011187
22096.232338,-5181.441594,-14211.954086,-6205.373534
22096.232671,444.123565,-13619.789333,-3983.696590
22096.233004,-3330.926739,-11843.295072,3370.820191
22096.233337,592.164754,-5699.585753,6435.202183
22096.233670,3552.988522,-5551.544565,8963.317327
22096.234004,2368.659014,-5107.421000,6741.640382
22096.234337,4071.132681,-9474.636058,6052.154434
22096.234670,-74.020594,-6439.791695,1991.848295
22096.235003,-592.164754,-8364.327145,-2451.505594
22096.235336,-2368.659014,-9548.656652,-4290.134789
22096.235670,-3182.885551,-9326.594869,-6818.249932
22096.236003,-2886.803174,-12657.521608,-7354.516781
22096.236336,-4071.132681,-10807.006753,-6435.202183
22096.236669,-1258.350101,-11843.295072,-2528.115143
22096.237002,-1776.494261,-11473.192101,3600.648841
22096.237336,2886.803174,-7179.997637,4903.011187
22096.237669,0.000000,-7179.997637,6128.763984
22096.238002,5847.626942,-5921.647536,7277.907231
22096.238335,1480.411884,-6735.874072,2757.943793
22096.238668,4885.359217,-6217.729913,4749.792088
22096.239001,1184.329507,-6883.915261,2987.772442
22096.239335,1258.350101,-8586.388927,-3907.087040
22096.239668,-1850.514855,-14804.118840,-3140.991542
22096.240001,-4293.194464,-11103.089130,-5745.716235
22096.240334,-3552.988522,-10732.986159,-4903.011187
22096.240667,-2146.597232,-9770.718434,-2221.676944
22096.241001,592.164754,-10881.027347,919.314598
22096.241334,1702.473667,-8586.388927,3600.648841
22096.241667,3552.988522,-9918.759623,6741.640382
22096.242000,2220.617826,-10510.924376,5439.278036
22096.242333,1184.329507,-6587.832884,4290.134789
22096.242667,3552.988522,-8956.491898,5515.887586
22096.243000,4663.297435,-7105.977043,0.000000
22096.243333,-888.247130,-9992.780217,-2298.286494
22096.243666,1480.411884,-5699.585753,-3677.258390
22096.243999,-1258.350101,-9548.656652,-4903.011187
22096.244332,296.082377,-9548.656652,-2145.067394
22096.244666,1702.473667,-11251.130318,-1302.362347
22096.244999,-2220.617826,-12435.459826,-689.485948
22096.245332,1036.288319,-7772.162391,1225.752797
22096.245665,2294.638420,-11251.130318,1762.019645
22096.245998,1480.411884,-9548.656652,6741.640382
22096.246332,1628.453072,-7328.038826,5592.497135
22096.246665,2960.823768,-7476.080014,4213.525239
22096.246998,0.000000,-8290.306550,2987.772442
22096.247331,-1776.494261,-8068.244768,842.705048
22096.247664,3478.967927,-3552.988522,-3753.867940
22096.247997,-3552.988522,-14878.139434,459.657299
22096.248331,2368.659014,-8364.327145,-689.485948
22096.248664,-4811.338623,-12731.542202,-4366.744339
22096.248997,-888.247130,-10436.903782,-1608.800546
22096.249330,-1110.308913,-12139.377449,-76.609550
22096.249663,2812.782580,-10584.944971,3983.696590
22096.249997,4367.215058,-11103.089130,5286.058936
22096.250330,2886.803174,-8586.388927,3294.210641
22096.250663,74.020594,-9548.656652,612.876398
22096.250996,1480.411884,-5995.668130,3830.477490
22096.251329,1110.308913,-7624.121203,-1302.362347
22096.251663,-370.102971,-7179.997637,-3064.381992
22096.251996,0.000000,-7994.224174,2374.896044
22096.252329,-3478.967927,-5329.482782,-4290.134789
22096.252662,-2886.803174,-10658.965565,-1608.800546
22096.252995,-2886.803174,-7920.203579,-2528.115143
22096.253328,-74.020594,-9474.636058,1149.143247
22096.253662,-1998.556043,-9844.739029,0.000000
22096.253995,0.000000,-11473.192101,1608.800546
22096.254328,-1258.350101,-9326.594869,1072.533697
22096.254661,1776.494261,-7772.162391,3064.381992
22096.254994,2960.823768,-9252.574275,4826.401637
22096.255328,2294.638420,-8290.306550,0.000000
22096.255661,-1184.329507,-7179.997637,-2451.505594
22096.255994,-888.247130,-9030.512492,-383.047749
22096.256327,0.000000,-7179.997637,0.000000
22096.256660,-1184.329507,-9992.780217,-76.609550
22096.256994,1554.432478,-9548.656652,-153.219100
22096.257327,888.247130,-10362.883188,1762.019645
22096.257660,3923.091493,-11251.130318,2374.896044
22096.257993,0.000000,-9844.739029,1762.019645
22096.258326,2294.638420,-7476.080014,0.000000
22096.258659,296.082377,-11769.274478,2451.505594
22096.258993,2294.638420,-11251.130318,-76.609550
22096.259326,-1258.350101,-11843.295072,-2911.162892
22096.259659,-296.082377,-9474.636058,1762.019645
22096.259992,-888.247130,-4885.359217,-536.266849
22096.260325,1406.391290,-6587.832884,2451.505594
22096.260659,296.082377,-5625.565159,1838.629195
22096.260992,0.000000,-8512.368333,1225.752797
22096.261325,-1110.308913,-6587.832884,0.000000
22096.261658,1184.329507,-10140.821405,2374.896044
22096.261991,-666.185348,-11695.253884,-1532.190996
22096.262325,-2072.576638,-8660.409521,919.314598
22096.262658,1998.556043,-11251.130318,-76.609550
22096.262991,1258.350101,-7772.162391,0.000000
22096.263324,-888.247130,-11843.295072,459.657299
22096.263657,1554.432478,-7254.018232,612.876398
22096.263991,-1850.514855,-10658.965565,-76.609550
22096.264324,0.000000,-9548.656652,1225.752797
22096.264657,-74.020594,-8882.471304,-76.609550
22096.264990,-370.102971,-7179.997637,0.000000
22096.265323,5033.400406,-7698.141797,4826.401637
22096.265657,1702.473667,-7179.997637,306.438199
22096.265990,6069.688724,-9400.615463,-76.609550
22096.266323,740.205942,-12879.583391,3294.210641
22096.266656,1924.535449,-8512.368333,0.000000
22096.266990,-2960.823768,-13397.727550,0.000000
22096.267323,1776.494261,-6735.874072,2987.772442
22096.267656,-4663.297435,-6587.832884,-4903.011187
22096.267989,-2294.638420,-9474.636058,-76.609550
22096.268322,-74.020594,-11843.295072,-76.609550
22096.268656,-4737.318029,-8956.491898,-1225.752797
22096.268989,3627.009116,-4959.379811,2451.505594
22096.269322,148.041188,-7920.203579,1378.971896
22096.269655,4071.132681,-8438.347739,2681.334243
22096.269988,2368.659014,-6587.832884,153.219100
22096.270322,3330.926739,-10807.006753,1532.190996
22096.270655,2738.761985,-7994.224174,0.000000
22096.270988,1036.288319,-13175.665768,229.828649
22096.271321,-74.020594,-10658.965565,-2834.553343
22096.271654,-3034.844362,-12583.501014,-4826.401637
22096.271988,-3552.988522,-11325.150913,-76.609550
22096.272321,-74.020594,-8290.306550,-76.609550
22096.272654,-3256.906145,-7772.162391,1838.629195
22096.272987,1998.556043,-6365.771101,4826.401637
22096.273320,814.226536,-6439.791695,3907.087040
22096.273654,3108.864956,-6143.709319,2528.115143
22096.273987,1036.288319,-9844.739029,3294.210641
22096.274320,296.082377,-6143.709319,1608.800546
22096.274653,2590.720797,-8660.409521,-3064.381992
22096.274986,-1480.411884,-14211.954086,-76.609550
22096.275320,-666.185348,-8586.388927,-7354.516781
22096.275653,-4737.318029,-10140.821405,-2451.505594
22096.275986,-2886.803174,-9474.636058,-5132.839837
22096.276319,-5181.441594,-13101.645173,-2911.162892
22096.276652,-740.205942,-10807.006753,1838.629195
22096.276986,-888.247130,-7846.182985,2068.457845
22096.277319,3552.988522,-4811.338623,7048.078582
22096.277652,5847.626942,-5773.606348,5209.449386
22096.277985,5773.606348,-10362.883188,9116.536426
22096.278318,4663.297435,-6809.894666,995.924147
22096.278652,592.164754,-9548.656652,-2145.067394
22096.278985,296.082377,-11917.315666,-2911.162892
22096.279318,1184.329507,-10362.883188,-3524.039291
22096.279651,-1332.370696,-13767.830521,-4903.011187
22096.279985,-2886.803174,-10658.965565,-5362.668486
22096.280318,-4811.338623,-13619.789333,-76.609550
22096.280651,-3256.906145,-3627.009116,0.000000
22096.280984,-666.185348,-8808.450710,2451.505594
22096.281317,3478.967927,-1258.350101,5515.887586
22096.281651,2960.823768,-4663.297435,6511.811733
22096.281984,5847.626942,-7105.977043,4826.401637
22096.282317,2368.659014,-10881.027347,1915.238745
22096.282650,1998.556043,-8882.471304,-1378.971896
22096.282983,2368.659014,-10584.944971,76.609550
22096.283317,-666.185348,-10955.047942,-5669.106685
22096.283650,-1184.329507,-15174.221811,-3140.991542
22096.283983,-3034.844362,-8364.327145,-6128.763984
22096.284316,-2368.659014,-11177.109724,-4903.011187
22096.284649,-74.020594,-14211.954086,1762.019645
22096.284983,2294.638420,-9474.636058,4213.525239
22096.285316,-518.144159,-8586.388927,5132.839837
22096.285649,3923.091493,-3182.885551,7354.516781
22096.285982,3552.988522,-5625.565159,5669.106685
22096.286315,5181.441594,-7624.121203,6435.202183
22096.286649,2960.823768,-8290.306550,2681.334243
22096.286982,-3552.988522,-11621.233289,-6511.811733
22096.287315,-1628.453072,-11399.171507,-6741.640382
22096.287648,-6513.812290,-15100.201217,-7890.783629
22096.287981,814.226536,-7772.162391,-7660.954980
22096.288315,-6587.832884,-16580.613101,-76.609550
22096.288648,-666.185348,-8882.471304,1762.019645
22096.288981,-3034.844362,-7179.997637,2757.943793
22096.289314,4293.194464,-5033.400406,8503.660028
22096.289647,4663.297435,-4441.235652,6971.469032
22096.289981,1036.288319,-6809.894666,6741.640382
22096.290314,2368.659014,-6439.791695,2451.505594
22096.290647,-814.226536,-9770.718434,-689.485948
22096.290980,0.000000,-10732.986159,-2451.505594
22096.291313,-1036.288319,-12213.398043,-3753.867940
22096.291647,-3997.112087,-10732.986159,-8427.050478
22096.291980,-5921.647536,-11917.315666,-3677.258390
22096.292313,1110.308913,-9178.553681,-689.485948
22096.292646,-1776.494261,-8364.327145,0.000000
22096.292980,-74.020594,-11695.253884,2681.334243
22096.293313,370.102971,-7846.182985,5898.935335
22096.293646,3552.988522,-4737.318029,7814.174080
22096.293979,6143.709319,-4367.215058,9729.412825
22096.294312,3478.967927,-9474.636058,2374.896044
22096.294646,4219.173869,-7772.162391,0.000000
22096.294979,666.185348,-13027.624579,4213.525239
22096.295312,2812.782580,-8290.306550,-4366.744339
22096.295645,-2368.659014,-13101.645173,-1991.848295
22096.295978,-2516.700203,-10732.986159,-6128.763984
22096.296312,-444.123565,-10658.965565,-1991.848295
22096.296645,0.000000,-10584.944971,-229.828649
22096.296978,0.000000,-7476.080014,-1225.752797
22096.297311,-370.102971,-9474.636058,3447.429741
22096.297644,1184.329507,-4811.338623,3064.381992
22096.297978,2294.638420,-9474.636058,6052.154434
22096.298311,-2368.659014,-9474.636058,919.314598
22096.298644,370.102971,-9474.636058,2987.772442
22096.298977,1480.411884,-5995.668130,842.705048
22096.299310,3404.947333,-8438.347739,1149.143247
22096.299644,2442.679609,-5033.400406,-1915.238745
22096.299977,-2368.659014,-11325.150913,-3524.039291
22096.300310,-3923.091493,-10140.821405,-7967.393179
22096.300643,-444.123565,-15100.201217,-689.485948
22096.300976,-2442.679609,-13027.624579,-3753.867940
22096.301310,0.000000,-9548.656652,2221.676944
22096.301643,-1258.350101,-13027.624579,4826.401637
22096.301976,4293.194464,-3034.844362,6588.421283
22096.302309,2368.659014,-7550.100608,7048.078582
22096.302642,3404.947333,-8734.430116,7354.516781
22096.302976,0.000000,-6291.750507,1838.629195
22096.303309,-888.247130,-7772.162391,-612.876398
22096.303642,-1258.350101,-9178.553681,-4060.306139
22096.303975,-3330.926739,-11843.295072,-3907.087040
22096.304308,-444.123565,-8808.450710,-2987.772442
22096.304642,-4737.318029,-9548.656652,-5515.887586
22096.304975,-74.020594,-11843.295072,-2528.115143
22096.305308,-1480.411884,-7179.997637,1225.752797
22096.305641,-74.020594,-11547.212695,3524.039291
22096.305975,4663.297435,-7105.977043,5439.278036
22096.306308,1184.329507,-10288.862594,8503.660028
22096.306641,3775.050304,-5329.482782,3830.477490
22096.306974,592.164754,-7550.100608,2911.162892
22096.307307,1776.494261,-7550.100608,-1762.019645
22096.307641,2294.638420,-11547.212695,-383.047749
22096.307974,-2220.617826,-8068.244768,0.000000
22096.308307,0.000000,-8660.409521,-3370.820191
22096.308640,-666.185348,-13027.624579,-2528.115143
22096.308973,-2368.659014,-8364.327145,-3677.258390
22096.309307,1406.391290,-11843.295072,1762.019645
22096.309640,3552.988522,-7254.018232,3217.601092
22096.309973,2442.679609,-8882.471304,3600.648841
22096.310306,1184.329507,-9104.533087,3983.696590
22096.310639,3478.967927,-7105.977043,3600.648841
22096.310973,-2368.659014,-7179.997637,2451.505594
22096.311306,1110.308913,-10066.800811,-76.609550
22096.311639,2294.638420,-9474.636058,-1608.800546
22096.311972,-2960.823768,-7179.997637,-3370.820191
22096.312305,-962.267725,-9030.512492,-4519.963438
22096.312639,74.020594,-9474.636058,-1915.238745
22096.312972,-666.185348,-12139.377449,-1302.362347
22096.313305,962.267725,-10584.944971,919.314598
22096.313638,0.000000,-8364.327145,0.000000
22096.313971,2368.659014,-10140.821405,7277.907231
22096.314305,1110.308913,-8956.491898,1225.752797
22096.314638,2960.823768,-9548.656652,4903.011187
22096.314971,3256.906145,-10658.965565,5439.278036
22096.315304,-2146.597232,-5699.585753,-1838.629195
22096.315637,-2442.679609,-9474.636058,-1302.362347
22096.315971,-3849.070898,-7550.100608,-2987.772442
22096.316304,-518.144159,-5699.585753,-1915.238745
22096.316637,-1332.370696,-8660.409521,1302.362347
22096.316970,370.102971,-9548.656652,-1915.238745
22096.317303,-1850.514855,-12731.542202,1532.190996
22096.317637,74.020594,-8290.306550,2374.896044
22096.317970,4663.297435,-10658.965565,4213.525239
22096.318303,1702.473667,-11843.295072,4060.306139
22096.318636,0.000000,-8660.409521,1991.848295
22096.318970,3478.967927,-8882.471304,-76.609550
22096.319303,74.020594,-8364.327145,0.000000
22096.319636,-740.205942,-9474.636058,-1838.629195
22096.319969,-2146.597232,-8290.306550,-1915.238745
22096.320302,-666.185348,-6957.935855,-689.485948
22096.320636,370.102971,-6143.709319,-4366.744339
22096.320969,74.020594,-9178.553681,-995.924147
22096.321302,296.082377,-10881.027347,-2911.162892
22096.321635,2368.659014,-8956.491898,3064.381992
22096.321968,2886.803174,-12879.583391,1149.143247
22096.322302,4959.379811,-9548.656652,1838.629195
22096.322635,3775.050304,-9326.594869,2221.676944
22096.322968,5847.626942,-7624.121203,1915.238745
22096.323301,5033.400406,-9548.656652,2221.676944
22096.323634,1998.556043,-9400.615463,2451.505594
22096.323968,0.000000,-7772.162391,-1072.533697
22096.324301,-3627.009116,-11251.130318,-5745.716235
22096.324634,-74.020594,-11251.130318,-76.609550
22096.324967,-3034.844362,-8808.450710,-4366.744339
22096.325300,296.082377,-7179.997637,0.000000
22096.325634,1184.329507,-7772.162391,612.876398
22096.325967,888.247130,-10807.006753,4213.525239
22096.326300,1406.391290,-7994.224174,383.047749
22096.326633,2442.679609,-10955.047942,2145.067394
22096.326966,1110.308913,-11843.295072,-76.609550
22096.327300,0.000000,-9548.656652,1225.752797
22096.327633,-74.020594,-8586.388927,-3140.991542
22096.327966,-2368.659014,-7179.997637,-3064.381992
22096.328299,0.000000,-9400.615463,2374.896044
22096.328632,-74.020594,-9474.636058,1149.143247
22096.328966,-592.164754,-5921.647536,306.438199
22096.329299,-1924.535449,-11325.150913,-1149.143247
22096.329632,2368.659014,-7624.121203,3140.991542
22096.329965,2146.597232,-9474.636058,3907.087040
22096.330298,2664.741391,-11325.150913,3907.087040
22096.330632,-666.185348,-9696.697840,-3064.381992
22096.330965,-1036.288319,-12879.583391,4290.134789
22096.331298,-74.020594,-9474.636058,-689.485948
22096.331631,-1998.556043,-10214.842000,-76.609550
22096.331964,-2220.617826,-8882.471304,-76.609550
22096.332298,-2960.823768,-5403.503377,-383.047749
22096.332631,-1406.391290,-8438.347739,1991.848295
22096.332964,-1332.370696,-5773.606348,536.266849
22096.333297,-1776.494261,-8882.471304,2681.334243
22096.333631,666.185348,-4219.173869,-459.657299
22096.333964,0.000000,-11103.089130,-229.828649
22096.334297,1776.494261,-10955.047942,383.047749
22096.334630,4663.297435,-9622.677246,383.047749
22096.334963,3849.070898,-11843.295072,1762.019645
22096.335297,3182.885551,-13027.624579,-76.609550
22096.335630,-2294.638420,-9844.739029,-3064.381992
22096.335963,888.247130,-7328.038826,-842.705048
22096.336296,-74.020594,-10658.965565,-1302.362347
22096.336629,2368.659014,-8512.368333,2987.772442
22096.336963,0.000000,-5847.626942,766.095498
22096.337296,1776.494261,-8290.306550,-383.047749
22096.337629,-1776.494261,-11917.315666,1225.752797
22096.337962,1184.329507,-6883.915261,6971.469032
22096.338295,3182.885551,-7476.080014,919.314598
22096.338629,2442.679609,-6587.832884,3064.381992
22096.338962,1110.308913,-10362.883188,-1378.971896
22096.339295,1702.473667,-7179.997637,-3064.381992
22096.339628,-962.267725,-11695.253884,-2681.334243
22096.339961,-2072.576638,-10362.883188,-5745.716235
22096.340295,-1258.350101,-11251.130318,-1302.362347
22096.340628,-592.164754,-10436.903782,-1378.971896
22096.340961,1998.556043,-11843.295072,2374.896044
22096.341294,-1998.556043,-7476.080014,1532.190996
22096.341627,5773.606348,-7105.977043,7967.393179
22096.341961,4589.276840,-6365.771101,6665.030833
22096.342294,1480.411884,-7476.080014,2451.505594
22096.342627,2368.659014,-12361.439231,3217.601092
22096.342960,888.247130,-9622.677246,-842.705048
22096.343293,3182.885551,-9548.656652,153.219100
22096.343627,-1850.514855,-10658.965565,-1915.238745
22096.343960,-1258.350101,-11251.130318,-6205.373534
22096.344293,-4811.338623,-11325.150913,-5822.325785
22096.344626,-4737.318029,-10140.821405,0.000000
22096.344959,1184.329507,-7698.141797,4213.525239
22096.345293,-74.020594,-9474.636058,5745.716235
22096.345626,888.247130,-5255.462188,5515.887586
22096.345959,1184.329507,-4959.379811,6128.763984
22096.346292,0.000000,-7994.224174,5286.058936
22096.346626,0.000000,-6587.832884,0.000000
22096.346959,-74.020594,-8364.327145,-3983.696590
22096.347292,-74.020594,-13027.624579,-76.609550
22096.347625,-74.020594,-8882.471304,-6818.249932
22096.347958,-4737.318029,-11325.150913,-4903.011187
22096.348292,-74.020594,-13027.624579,-1915.238745
22096.348625,-2664.741391,-9992.780217,-1225.752797
22096.348958,814.226536,-9474.636058,1608.800546
22096.349291,1110.308913,-7031.956449,3217.601092
22096.349624,2960.823768,-5995.668130,6435.202183
22096.349958,7179.997637,-5551.544565,6281.983084
22096.350291,6217.729913,-9548.656652,5439.278036
22096.350624,2590.720797,-10066.800811,4366.744339
22096.350957,888.247130,-8660.409521,-1915.238745
22096.351290,-1628.453072,-11029.068536,-3983.696590
22096.351624,-4515.256246,-9548.656652,-8580.269578
22096.351957,-2960.823768,-10362.883188,-4060.306139
22096.352290,-3923.091493,-8586.388927,-4519.963438
22096.352623,-2442.679609,-11103.089130,-76.609550
22096.352956,0.000000,-5995.668130,1762.019645
22096.353290,-2442.679609,-8364.327145,1225.752797
22096.353623,2516.700203,-8142.265362,3447.429741
22096.353956,2812.782580,-7550.100608,6435.202183
22096.354289,6809.894666,-7698.141797,5515.887586
22096.354622,4589.276840,-7328.038826,3677.258390
22096.354956,0.000000,-10140.821405,1225.752797
22096.355289,6439.791695,-11251.130318,-76.609550
22096.355622,-666.185348,-9622.677246,-5056.230287
22096.355955,-2294.638420,-15396.283594,-4979.620737
22096.356288,-5477.523971,-11473.192101,-4673.182538
22096.356622,-3627.009116,-9474.636058,-2451.505594
22096.356955,-1258.350101,-7846.182985,-689.485948
22096.357288,-74.020594,-10362.883188,6052.154434
22096.357621,0.000000,-1850.514855,9806.022374
22096.357954,-74.020594,-9178.553681,3600.648841
22096.358288,3478.967927,-3627.009116,3064.381992
22096.358621,-4737.318029,-10732.986159,-1225.752797
22096.358954,3478.967927,-7105.977043,0.000000
22096.359287,-2886.803174,-10362.883188,-2068.457845
22096.359620,2072.576638,-7698.141797,-3370.820191
22096.359954,-1850.514855,-11843.295072,-2757.943793
22096.360287,-1480.411884,-8660.409521,-4749.792088
22096.360620,-2368.659014,-9548.656652,-76.609550
22096.360953,-2442.679609,-11547.212695,-2374.896044
22096.361286,2368.659014,-8586.388927,2987.772442
22096.361620,-3552.988522,-4811.338623,4903.011187
22096.361953,4959.379811,-5995.668130,6128.763984
22096.362286,2294.638420,-8290.306550,2987.772442
22096.362619,3330.926739,-7179.997637,1838.629195
22096.362952,5255.462188,-8734.430116,2068.457845
22096.363285,0.000000,-14285.974681,1225.752797
22096.363619,2738.761985,-4293.194464,-3447.429741
22096.363952,-2368.659014,-11843.295072,-2757.943793
22096.364285,444.123565,-9178.553681,-3907.087040
22096.364618,-74.020594,-11251.130318,-1915.238745
22096.364951,-74.020594,-10214.842000,-1149.143247
22096.365284,-3256.906145,-10140.821405,-1302.362347
22096.365618,-3627.009116,-16580.613101,-76.609550
22096.365951,74.020594,-6587.832884,1838.629195
22096.366284,1702.473667,-9474.636058,6665.030833
22096.366617,4663.297435,-4737.318029,4519.963438
22096.366950,2664.741391,-8956.491898,6358.592633
22096.367283,3701.029710,-5551.544565,4060.306139
22096.367617,1184.329507,-3627.009116,0.000000
22096.367950,-74.020594,-10510.924376,-4903.011187
22096.368283,2294.638420,-11843.295072,-2528.115143
22096.368616,-4219.173869,-11621.233289,-5515.887586
22096.368949,814.226536,-9696.697840,-4903.011187
22096.369282,-4219.173869,-10510.924376,-4060.306139
22096.369616,-3997.112087,-13397.727550,459.657299
22096.369949,1702.473667,-5625.565159,2451.505594
22096.370282,-666.185348,-10658.965565,2068.457845
22096.370615,3552.988522,-8660.409521,5515.887586
22096.370948,2590.720797,-7550.100608,2451.505594
22096.371282,5847.626942,-11843.295072,6052.154434
22096.371615,3330.926739,-666.185348,1225.752797
22096.371948,518.144159,-10066.800811,-76.609550
22096.372281,518.144159,-8808.450710,-3064.381992
22096.372614,-4441.235652,-10955.047942,-6588.421283
22096.372947,-3923.091493,-13545.768739,-4519.963438
22096.373281,-4589.276840,-11769.274478,-3753.867940
22096.373614,-1998.556043,-11843.295072,-76.609550
22096.373947,-2368.659014,-8364.327145,4290.134789
22096.374280,1110.308913,-7105.977043,3600.648841
22096.374613,2294.638420,-5107.421000,3370.820191
22096.374946,2516.700203,-9474.636058,6665.030833
22096.375280,5847.626942,-7105.977043,6665.030833
22096.375613,3552.988522,-6661.853478,4213.525239
22096.375946,2294.638420,-4737.318029,-1685.410096
22096.376279,-814.226536,-10881.027347,-6818.249932
22096.376612,-1258.350101,-14359.995275,-5822.325785
22096.376945,-74.020594,-13915.871710,-3140.991542
22096.377279,-1258.350101,-11325.150913,-4903.011187
22096.377612,-1184.329507,-12509.480420,0.000000
22096.377945,-74.020594,-11843.295072,2374.896044
22096.378278,2294.638420,-8290.306550,6052.154434
22096.378611,3478.967927,-8290.306550,6052.154434
22096.378945,4811.338623,-6365.771101,8733.488677
22096.379278,1554.432478,-7105.977043,4749.792088
22096.379611,2738.761985,-5181.441594,1378.971896
22096.379944,-74.020594,-9178.553681,-995.924147
22096.380277,-2368.659014,-8734.430116,-4749.792088
22096.380610,-1702.473667,-9770.718434,-4213.525239
22096.380944,-3108.864956,-10732.986159,-6128.763984
22096.381277,-1110.308913,-9548.656652,-4903.011187
22096.381610,-888.247130,-11399.171507,-76.609550
22096.381943,3478.967927,-12731.542202,4213.525239
22096.382276,222.061783,-8512.368333,2451.505594
22096.382609,4071.132681,-9326.594869,3140.991542
22096.382943,4071.132681,-9474.636058,4596.572988
22096.383276,2368.659014,-7105.977043,4290.134789
22096.383609,3478.967927,-7105.977043,1378.971896
22096.383942,2664.741391,-11251.130318,4366.744339
22096.384275,0.000000,-7328.038826,0.000000
22096.384608,-5921.647536,-10510.924376,-1915.238745
22096.384942,-4441.235652,-4811.338623,-9499.584175
22096.385275,-7105.977043,-12509.480420,-3983.696590
22096.385608,-74.020594,-11251.130318,-1608.800546
22096.385941,-2294.638420,-9548.656652,0.000000
22096.386274,-74.020594,-8142.265362,536.266849
22096.386607,-1776.494261,-13989.892304,2681.334243
22096.386941,2368.659014,-5995.668130,4136.915689
22096.387274,3478.967927,-9474.636058,7277.907231
22096.387607,3478.967927,-9474.636058,4519.963438
22096.387940,1184.329507,-4811.338623,3677.258390
22096.388273,-74.020594,-8882.471304,-76.609550
22096.388607,1406.391290,-6291.750507,-2451.505594
22096.388940,-3552.988522,-9844.739029,-2221.676944
22096.389273,370.102971,-9548.656652,-3983.696590
22096.389606,-814.226536,-9844.739029,-1378.971896
22096.389939,2146.597232,-11473.192101,-1608.800546
22096.390272,0.000000,-11473.192101,229.828649
22096.390606,2886.803174,-9178.553681,842.705048
22096.390939,-1184.329507,-9844.739029,2451.505594
22096.391272,3997.112087,-8882.471304,6052.154434
22096.391605,962.267725,-6069.688724,995.924147
22096.391938,518.144159,-8882.471304,3600.648841
22096.392271,1924.535449,-4811.338623,-306.438199
22096.392605,-1480.411884,-9104.533087,-612.876398
22096.392938,1036.288319,-5921.647536,-1991.848295
22096.393271,-6513.812290,-10732.986159,-4903.011187
22096.393604,-4515.256246,-10140.821405,-4903.011187
22096.393937,888.247130,-13323.706956,0.000000
22096.394270,7624.121203,-11251.130318,4519.963438
22096.394604,2664.741391,-9844.739029,4903.011187
22096.394937,3108.864956,-7698.141797,3600.648841
22096.395270,-1036.288319,-10955.047942,1378.971896
22096.395603,962.267725,-8734.430116,2374.896044
22096.395936,962.267725,-8734.430116,2068.457845
22096.396270,-888.247130,-9696.697840,-1225.752797
22096.396603,1332.370696,-8438.347739,1225.752797
22096.396936,1258.350101,-4441.235652,2451.505594
22096.397269,1406.391290,-8216.285956,383.047749
22096.397602,-4071.132681,-7994.224174,229.828649
22096.397935,-5329.482782,-9548.656652,-7354.516781
22096.398269,-370.102971,-11843.295072,-3447.429741
22096.398602,-1776.494261,-11917.315666,2451.505594
22096.398935,1406.391290,-10658.965565,2374.896044
22096.399268,-74.020594,-10658.965565,2987.772442
22096.399601,-3256.906145,-7920.203579,842.705048
22096.399934,-1258.350101,-8956.491898,-612.876398
22096.400268,1924.535449,-6291.750507,2374.896044
22096.400601,148.041188,-11177.109724,2604.724693
22096.400934,3478.967927,-5921.647536,2068.457845
22096.401267,74.020594,-7179.997637,1225.752797
22096.401600,-3552.988522,-8364.327145,919.314598
22096.401933,5847.626942,-6513.812290,-2528.115143
22096.402267,-1776.494261,-15174.221811,612.876398
22096.402600,7031.956449,-8882.471304,3600.648841
22096.402933,1258.350101,-10658.965565,-1685.410096
22096.403266,1036.288319,-13767.830521,536.266849
22096.403599,0.000000,-7772.162391,-1991.848295
22096.403932,-1406.391290,-9474.636058,-689.485948
22096.404266,-2368.659014,-6587.832884,612.876398
22096.404599,-3330.926739,-10658.965565,-76.609550
22096.404932,-74.020594,-5921.647536,0.000000
22096.405265,1184.329507,-6587.832884,3677.258390
22096.405598,4367.215058,-5329.482782,919.314598
22096.405932,3108.864956,-7254.018232,3217.601092
22096.406265,1258.350101,-10140.821405,0.000000
22096.406598,0.000000,-12065.356855,-2068.457845
22096.406931,-4737.318029,-14878.139434,-3677.258390
22096.407264,4737.318029,-8364.327145,3600.648841
22096.407597,2886.803174,-10066.800811,3294.210641
22096.407931,3108.864956,-4811.338623,0.000000
22096.408264,592.164754,-10436.903782,4596.572988
22096.408597,-666.185348,-7328.038826,-3064.381992
22096.408930,-222.061783,-9474.636058,-1915.238745
22096.409263,-3330.926739,-11251.130318,-1378.971896
22096.409596,2294.638420,-7994.224174,-3140.991542
22096.409930,-2960.823768,-8364.327145,2145.067394
22096.410263,1702.473667,-9474.636058,3600.648841
22096.410596,370.102971,-7179.997637,3064.381992
22096.410929,1480.411884,-6883.915261,1532.190996
22096.411262,3182.885551,-11547.212695,1762.019645
22096.411595,-74.020594,-10955.047942,1762.019645
22096.411929,-2368.659014,-7920.203579,-536.266849
22096.412262,-1258.350101,-11547.212695,-76.609550
22096.412595,-2442.679609,-7920.203579,-3064.381992
22096.412928,296.082377,-8734.430116,0.000000
22096.413261,-2146.597232,-10658.965565,76.609550
22096.413595,-74.020594,-6957.935855,-2068.457845
22096.413928,-370.102971,-12435.459826,229.828649
22096.414261,2590.720797,-8290.306550,2528.115143
22096.414594,4441.235652,-8956.491898,4060.306139
22096.414927,3552.988522,-6143.709319,2987.772442
22096.415260,3478.967927,-9548.656652,-1532.190996
22096.415594,-1554.432478,-10732.986159,2451.505594
22096.415927,4219.173869,-8290.306550,1762.019645
22096.416260,-4219.173869,-3330.926739,-4903.011187
22096.416593,-2146.597232,-15100.201217,-3447.429741
22096.416926,-5033.400406,-3849.070898,-3447.429741
22096.417259,-2368.659014,-7772.162391,0.000000
22096.417593,-4811.338623,-23686.590144,-1302.362347
22096.417926,5847.626942,-13027.624579,6052.154434
22096.418259,8512.368333,11547.212695,0.000000
22096.418592,4737.318029,-5107.421000,4903.011187
22096.418925,888.247130,-12213.398043,2757.943793
22096.419258,-2960.823768,-15840.407159,2757.943793
22096.419592,222.061783,-13915.871710,306.438199
22096.419925,2294.638420,-11103.089130,-4443.353888
22096.420258,1110.308913,-11251.130318,-7124.688131
22096.420591,444.123565,-4811.338623,-8580.269578
22096.420924,-74.020594,-11843.295072,-1915.238745
22096.421257,3478.967927,-7105.977043,-383.047749
22096.421591,-3552.988522,-10436.903782,7048.078582
22096.421924,2886.803174,-4737.318029,7890.783629
22096.422257,1406.391290,-5255.462188,7890.783629
22096.422590,5181.441594,-5181.441594,8810.098227
22096.422923,3478.967927,-6661.853478,4060.306139
22096.423257,-888.247130,-7846.182985,1149.143247
22096.423590,592.164754,-12213.398043,-76.609550
22096.423923,-3034.844362,-16062.468941,-3677.258390
22096.424256,592.164754,-13249.686362,-2451.505594
22096.424589,-1850.514855,-15248.242405,-4979.620737
22096.424922,-1850.514855,-14211.954086,-2528.115143
22096.425256,-2886.803174,-8216.285956,-2374.896044
22096.425589,-3701.029710,-9400.615463,-1532.190996
22096.425922,-2368.659014,-8734.430116,1915.238745
22096.426255,2590.720797,-7698.141797,2834.553343
22096.426588,2960.823768,-10066.800811,6358.592633
22096.426921,5107.421000,-6513.812290,4213.525239
22096.427255,1110.308913,-10362.883188,-919.314598
22096.427588,5625.565159,-8068.244768,-1762.019645
22096.427921,1702.473667,-11251.130318,-4979.620737
22096.428254,296.082377,-10732.986159,-5056.230287
22096.428587,-666.185348,-14211.954086,-6205.373534
22096.428920,-3330.926739,-10732.986159,-6128.763984
22096.429254,-2072.576638,-8364.327145,383.047749
22096.429587,-74.020594,-8290.306550,2068.457845
22096.429920,0.000000,-5995.668130,5822.325785
22096.430253,-296.082377,-4959.379811,5056.230287
22096.430586,3256.906145,-2960.823768,6358.592633
22096.430919,0.000000,-6291.750507,3983.696590
22096.431253,2368.659014,-7179.997637,7124.688131
22096.431586,1110.308913,-6513.812290,536.266849
22096.431919,-962.267725,-9548.656652,-4290.134789
22096.432252,-296.082377,-12731.542202,-1302.362347
22096.432585,-370.102971,-9548.656652,-7354.516781
22096.432919,2220.617826,-11177.109724,-1762.019645
22096.433252,-888.247130,-11917.315666,612.876398
22096.433585,1628.453072,-7476.080014,2604.724693
22096.433918,296.082377,-7994.224174,6435.202183
22096.434251,3330.926739,-9474.636058,7277.907231
22096.434584,1184.329507,-5107.421000,7967.393179
22096.434918,6439.791695,-6513.812290,7890.783629
22096.435251,4663.297435,-6513.812290,2834.553343
22096.435584,-2072.576638,-8364.327145,3064.381992
22096.435917,-814.226536,-7402.059420,-4290.134789
22096.436250,-814.226536,-10955.047942,-4213.525239
22096.436583,-3478.967927,-13323.706956,-5975.544884
22096.436917,-4219.173869,-13175.665768,-6818.249932
22096.437250,-4219.173869,-15988.448347,-3140.991542
22096.437583,-2960.823768,-7179.997637,0.000000
22096.437916,1036.288319,-12731.542202,3600.648841
22096.438249,2960.823768,-5921.647536,6511.811733
22096.438582,814.226536,-8734.430116,5439.278036
22096.438916,2590.720797,-4663.297435,3830.477490
22096.439249,4145.153275,-8364.327145,1762.019645
22096.439582,2886.803174,-11325.150913,2374.896044
22096.439915,2368.659014,-9548.656652,-1225.752797
22096.440248,-3627.009116,-10732.986159,-6741.640382
22096.440582,-1850.514855,-11251.130318,-8580.269578
22096.440915,-2812.782580,-13027.624579,-4366.744339
22096.441248,-1406.391290,-8364.327145,-3677.258390
22096.441581,-1258.350101,-8882.471304,-1302.362347
22096.441914,-3775.050304,-10955.047942,459.657299
22096.442247,0.000000,-7624.121203,3217.601092
22096.442581,1184.329507,-6587.832884,7354.516781
22096.442914,3849.070898,-4219.173869,4903.011187
22096.443247,2368.659014,-9696.697840,6435.202183
22096.443580,2738.761985,-7254.018232,4443.353888
22096.443913,1110.308913,-7031.956449,1378.971896
22096.444246,148.041188,-8734.430116,1608.800546
22096.444580,0.000000,-2442.679609,-4443.353888
22096.444913,-3034.844362,-10658.965565,-4979.620737
22096.445246,-3256.906145,-8364.327145,-2451.505594
22096.445579,-1850.514855,-10658.965565,-3064.381992
22096.445912,-74.020594,-14211.954086,-76.609550
22096.446245,-1184.329507,-11029.068536,2757.943793
22096.446579,2590.720797,-9622.677246,4979.620737
22096.446912,2072.576638,-9104.533087,5975.544884
22096.447245,3701.029710,-8142.265362,5515.887586
22096.447578,3997.112087,-9992.780217,5515.887586
22096.447911,4219.173869,-5995.668130,3677.258390
22096.448244,0.000000,-5995.668130,612.876398
22096.448578,1998.556043,-7698.141797,-4366.744339
22096.448911,-3997.112087,-8364.327145,-4903.011187
22096.449244,-1258.350101,-9474.636058,-5592.497135
22096.449577,-2812.782580,-11103.089130,-4366.744339
22096.449910,-1110.308913,-11177.109724,-2604.724693
22096.450244,-2442.679609,-12805.562797,-1991.848295
22096.450577,1110.308913,-11251.130318,2374.896044
22096.450910,0.000000,-9548.656652,3677.258390
22096.451243,1406.391290,-12435.459826,6281.983084
22096.451576,7624.121203,-8290.306550,6665.030833
22096.451909,2368.659014,-5995.668130,4903.011187
22096.452243,5255.462188,-4737.318029,4673.182538
22096.452576,-3552.988522,-5403.503377,-2221.676944
22096.452909,-1702.473667,-6291.750507,-6205.373534
22096.453242,-3256.906145,-11769.274478,-5592.497135
22096.453575,-4737.318029,-11621.233289,-7354.516781
22096.453908,-7105.977043,-11325.150913,-2911.162892
22096.454242,-2886.803174,-14211.954086,-2221.676944
22096.454575,-370.102971,-7105.977043,-2834.553343
22096.454908,0.000000,-9548.656652,4903.011187
22096.455241,3478.967927,-9474.636058,4826.401637
22096.455574,5773.606348,-5773.606348,8044.002729
22096.455907,1850.514855,-8512.368333,5822.325785
22096.456241,6365.771101,-4071.132681,5056.230287
22096.456574,0.000000,-6291.750507,1455.581446
22096.456907,1258.350101,-7698.141797,-3753.867940
22096.457240,1332.370696,-7031.956449,-3907.087040
22096.457573,-4589.276840,-13397.727550,-7737.564530
22096.457907,2294.638420,-11843.295072,-1915.238745
22096.458240,-3627.009116,-14804.118840,-3753.867940
22096.458573,592.164754,-9548.656652,612.876398
22096.458906,-2960.823768,-9548.656652,3983.696590
22096.459239,3478.967927,-9474.636058,4826.401637
22096.459572,3552.988522,-5995.668130,4903.011187
22096.459905,2368.659014,-8512.368333,6665.030833
22096.460239,5329.482782,-6143.709319,4903.011187
22096.460572,888.247130,-6735.874072,2911.162892
22096.460905,1702.473667,-6513.812290,-3447.429741
22096.461238,-5921.647536,-9696.697840,-4903.011187
22096.461571,-3627.009116,-13027.624579,-7737.564530
22096.461904,-1776.494261,-6069.688724,-7431.126331
22096.462237,-3256.906145,-11917.315666,1225.752797
22096.462570,4293.194464,-10066.800811,2374.896044
22096.462903,2294.638420,-9844.739029,2451.505594
22096.463237,592.164754,-8512.368333,2451.505594
22096.463570,2442.679609,-11621.233289,6358.592633
22096.463903,0.000000,-7772.162391,3064.381992
22096.464236,3478.967927,-8290.306550,2987.772442
22096.464569,-592.164754,-10288.862594,2987.772442
22096.464902,-74.020594,-4737.318029,-4290.134789
22096.465235,-5329.482782,-7179.997637,-4596.572988
22096.465568,-2960.823768,-4219.173869,-1455.581446
22096.465901,-2368.659014,-5995.668130,-3983.696590
22096.466235,-3034.844362,-14804.118840,-2221.676944
22096.466568,2738.761985,-9326.594869,1149.143247
22096.466901,-74.020594,-13619.789333,1762.019645
22096.467234,2368.659014,-8364.327145,1532.190996
22096.467567,1110.308913,-10658.965565,1455.581446
22096.467900,814.226536,-10362.883188,1225.752797
22096.468233,1776.494261,-8142.265362,3907.087040
22096.468566,-74.020594,-11177.109724,1072.533697
22096.468899,0.000000,-6587.832884,76.609550
22096.469233,592.164754,-4367.215058,1608.800546
22096.469566,-2442.679609,-6587.832884,-3064.381992
22096.469899,0.000000,-7402.059420,-766.095498
22096.470232,-3552.988522,-8364.327145,-306.438199
22096.470565,4663.297435,-7105.977043,-4443.353888
22096.470898,888.247130,-17690.922014,2451.505594
22096.471231,5625.565159,-11251.130318,3600.648841
22096.471564,2294.638420,-14211.954086,2374.896044
22096.471897,2368.659014,-11325.150913,4213.525239
22096.472231,222.061783,-9326.594869,1608.800546
22096.472564,518.144159,-6883.915261,1762.019645
22096.472897,1776.494261,-6513.812290,766.095498
22096.473230,0.000000,-4959.379811,1762.019645
22096.473563,1332.370696,-7179.997637,766.095498
22096.473896,-666.185348,-4441.235652,-459.657299
22096.474229,-3034.844362,-12065.356855,-3217.601092
22096.474562,1110.308913,-8586.388927,-3447.429741
22096.474895,0.000000,-13101.645173,919.314598
22096.475229,3182.885551,-11843.295072,2374.896044
22096.475562,3478.967927,-10510.924376,919.314598
22096.475895,296.082377,-7772.162391,1149.143247
22096.476228,2294.638420,-14211.954086,4826.401637
22096.476561,1480.411884,-6217.729913,3600.648841
22096.476894,-1998.556043,-9548.656652,0.000000
22096.477227,-1406.391290,-7328.038826,-229.828649
22096.477560,0.000000,-4367.215058,-3064.381992
22096.477893,-2960.823768,-8364.327145,1225.752797
22096.478227,1110.308913,-5329.482782,-2757.943793
22096.478560,-4589.276840,-9548.656652,-1225.752797
22096.478893,0.000000,-11177.109724,306.438199
22096.479226,-74.020594,-10732.986159,153.219100
22096.479559,0.000000,-10658.965565,842.705048
22096.479892,2664.741391,-8660.409521,919.314598
22096.480225,0.000000,-13027.624579,4903.011187
22096.480558,3849.070898,-5255.462188,3217.601092
22096.480892,-1480.411884,-11621.233289,4826.401637
22096.481225,-1850.514855,-4515.256246,-4290.134789
22096.481558,-4737.318029,-8068.244768,-3677.258390
22096.481891,-1184.329507,-9770.718434,-536.266849
22096.482224,-1184.329507,-7179.997637,0.000000
22096.482557,74.020594,-10732.986159,612.876398
22096.482890,1258.350101,-10214.842000,306.438199
22096.483223,0.000000,-7994.224174,1378.971896
22096.483556,1702.473667,-11843.295072,-76.609550
22096.483890,6143.709319,-9474.636058,4826.401637
22096.484223,-740.205942,-9548.656652,2451.505594
22096.484556,2072.576638,-6809.894666,-76.609550
22096.484889,-370.102971,-12731.542202,-76.609550
22096.485222,-1258.350101,-9992.780217,-1302.362347
22096.485555,1480.411884,-7476.080014,459.657299
22096.485888,-1184.329507,-9252.574275,0.000000
22096.486221,2812.782580,-7698.141797,-919.314598
22096.486554,592.164754,-7476.080014,612.876398
22096.486888,5255.462188,-10658.965565,3677.258390
22096.487221,6513.812290,-5995.668130,5515.887586
22096.487554,5255.462188,-14211.954086,3294.210641
22096.487887,3701.029710,-7179.997637,3064.381992
22096.488220,-666.185348,-12361.439231,-76.609550
22096.488553,-2368.659014,-10436.903782,-3677.258390
22096.488886,-3478.967927,-9696.697840,-3600.648841
22096.489219,-2294.638420,-10140.821405,-2374.896044
22096.489552,592.164754,-3330.926739,612.876398
22096.489886,-3034.844362,-9696.697840,0.000000
22096.490219,-888.247130,-4515.256246,-1455.581446
22096.490552,-222.061783,-8882.471304,919.314598
22096.490885,1998.556043,-9992.780217,2451.505594
22096.491218,4145.153275,-5403.503377,3677.258390
22096.491551,2294.638420,-13027.624579,2374.896044
22096.491884,740.205942,-9548.656652,2451.505594
22096.492217,1406.391290,-9474.636058,2604.724693
22096.492550,3404.947333,-10658.965565,-766.095498
22096.492884,-2368.659014,-9844.739029,-3064.381992
22096.493217,-5699.585753,-13767.830521,-2911.162892
22096.493550,-5773.606348,-8216.285956,-3907.087040
22096.493883,-3256.906145,-9992.780217,306.438199
22096.494216,-2960.823768,-8956.491898,0.000000
22096.494549,3182.885551,-4811.338623,1225.752797
22096.494882,0.000000,-5995.668130,7354.516781
22096.495215,5551.544565,-4737.318029,4213.525239
22096.495548,-666.185348,-8882.471304,2374.896044
22096.495882,1924.535449,-10214.842000,2068.457845
22096.496215,-1628.453072,-11103.089130,0.000000
22096.496548,0.000000,-9252.574275,-1685.410096
22096.496881,-3552.988522,-10214.842000,-3447.429741
22096.497214,-5403.503377,-9474.636058,-3140.991542
22096.497547,-5403.503377,-4219.173869,-7354.516781
22096.497880,-5181.441594,-10140.821405,-4903.011187
22096.498213,592.164754,-9474.636058,2374.896044
22096.498546,0.000000,-6587.832884,2451.505594
22096.498880,7031.956449,-7698.141797,6665.030833
22096.499213,7105.977043,-7550.100608,7201.297681
22096.499546,5773.606348,-9548.656652,4290.134789
22096.499879,7476.080014,-8586.388927,1225.752797
22096.500212,2960.823768,-12583.501014,-1762.019645
22096.500545,1184.329507,-9548.656652,0.000000
22096.500878,222.061783,-13027.624579,-3217.601092
22096.501211,-3627.009116,-11843.295072,-5592.497135
22096.501544,-8290.306550,-7179.997637,-4903.011187
22096.501878,-1850.514855,-7994.224174,-2374.896044
22096.502211,296.082377,-5995.668130,2757.943793
22096.502544,-1036.288319,-9252.574275,3753.867940
22096.502877,5995.668130,-3775.050304,5669.106685
22096.503210,444.123565,-8290.306550,2987.772442
22096.503543,4959.379811,-10436.903782,2221.676944
22096.503876,888.247130,-12509.480420,689.485948
22096.504209,1702.473667,-12879.583391,-3294.210641
22096.504542,-3552.988522,-13545.768739,-3140.991542
22096.504876,-666.185348,-11251.130318,-5592.497135
22096.505209,0.000000,-6587.832884,919.314598
22096.505542,4145.153275,-7031.956449,3600.648841
22096.505875,2886.803174,-9622.677246,2145.067394
22096.506208,-4219.173869,-4811.338623,-1838.629195
22096.506541,148.041188,-10214.842000,1149.143247
22096.506874,-370.102971,-10510.924376,3447.429741
22096.507207,5699.585753,-10066.800811,4903.011187
22096.507540,5699.585753,-9474.636058,2987.772442
22096.507874,2516.700203,-10436.903782,4826.401637
22096.508207,3478.967927,-4885.359217,-2757.943793
22096.508540,0.000000,-7179.997637,689.485948
22096.508873,-3552.988522,-10584.944971,-3753.867940
22096.509206,-1332.370696,-11399.171507,-1685.410096
22096.509539,-5921.647536,-9400.615463,-2911.162892
22096.509872,-3849.070898,-8142.265362,-1991.848295
22096.510205,-4811.338623,-8142.265362,383.047749
22096.510539,-3256.906145,-4589.276840,-1302.362347
22096.510872,0.000000,-8956.491898,2374.896044
22096.511205,0.000000,-8364.327145,612.876398
22096.511538,1184.329507,-11029.068536,4903.011187
22096.511871,5255.462188,-10658.965565,5745.716235
22096.512204,5551.544565,-8882.471304,3140.991542
22096.512537,3997.112087,-9400.615463,4213.525239
22096.512870,3256.906145,-6513.812290,-229.828649
22096.513203,-74.020594,-7994.224174,-4979.620737
22096.513537,-2368.659014,-13619.789333,-4826.401637
22096.513870,-74.020594,-14211.954086,-1302.362347
22096.514203,-5921.647536,-10140.821405,0.000000
22096.514536,-5921.647536,-10140.821405,-76.609550
22096.514869,-1258.350101,-7105.977043,1378.971896
22096.515202,0.000000,-5403.503377,3677.258390
22096.515535,4663.297435,-4737.318029,5515.887586
22096.515868,1924.535449,-9400.615463,5362.668486
22096.516201,2960.823768,-5403.503377,3370.820191
22096.516535,0.000000,-9252.574275,2604.724693
22096.516868,1258.350101,-7476.080014,-5286.058936
22096.517201,-5921.647536,-12509.480420,-3140.991542
22096.517534,-3330.926739,-9400.615463,-8197.221829
22096.517867,222.061783,-10436.903782,-4903.011187
22096.518200,0.000000,-6587.832884,-1225.752797
22096.518533,222.061783,-9548.656652,0.000000
22096.518866,444.123565,-8586.388927,2834.553343
22096.519199,4663.297435,-9622.677246,5898.935335
22096.519533,2368.659014,-10140.821405,5822.325785
22096.519866,4663.297435,-9104.533087,3983.696590
22096.520199,3478.967927,-7846.182985,842.705048
22096.520532,2812.782580,-7179.997637,3677.258390
22096.520865,4811.338623,-5255.462188,919.314598
