#time,accel_x,accel_y,accel_z
21152.698002,7031.956449,-7476.080014,1685.410096
21152.698336,7105.977043,-7772.162391,3064.381992
21152.698670,11473.192101,-10362.883188,3600.648841
21152.699003,8660.409521,-7179.997637,2451.505594
21152.699337,9474.636058,-9844.739029,1991.848295
21152.699671,6809.894666,-9696.697840,-1302.362347
21152.700004,6809.894666,-10066.800811,-2374.896044
21152.700338,8216.285956,-9474.636058,-689.485948
21152.700672,9400.615463,-11843.295072,-76.609550
21152.701005,8216.285956,-8142.265362,-2451.505594
21152.701339,9474.636058,-8660.409521,1225.752797
21152.701673,12361.439231,-9474.636058,4519.963438
21152.702007,11399.171507,-8068.244768,3140.991542
21152.702340,11103.089130,-10584.944971,3217.601092
21152.702674,8364.327145,-11399.171507,2221.676944
21152.703008,4071.132681,-11399.171507,-689.485948
21152.703341,2442.679609,-9474.636058,-2068.457845
21152.703675,2886.803174,-10658.965565,-689.485948
21152.704009,2886.803174,-5995.668130,-1302.362347
21152.704342,2664.741391,-5403.503377,1838.629195
21152.704676,8216.285956,-7994.224174,2374.896044
21152.705010,7031.956449,-7105.977043,1762.019645
21152.705344,9178.553681,-7031.956449,2681.334243
21152.705677,11917.315666,-8068.244768,3524.039291
21152.706011,10436.903782,-8882.471304,76.609550
21152.706345,10066.800811,-10288.862594,-1225.752797
21152.706678,9992.780217,-10288.862594,-3370.820191
21152.707012,9474.636058,-11621.233289,-2451.505594
21152.707346,8290.306550,-13471.748144,-1302.362347
21152.707679,5847.626942,-12435.459826,-4213.525239
21152.708013,4663.297435,-11843.295072,-689.485948
21152.708347,7994.224174,-7550.100608,2681.334243
21152.708681,10214.842000,-5773.606348,4290.134789
21152.709014,10955.047942,-4959.379811,4673.182538
21152.709348,11843.295072,-6291.750507,6741.640382
21152.709682,11029.068536,-6957.935855,3677.258390
21152.710015,7846.182985,-8956.491898,1149.143247
21152.710349,5255.462188,-10732.986159,-2604.724693
21152.710683,4885.359217,-11103.089130,-2834.553343
21152.711016,3552.988522,-9548.656652,-4213.525239
21152.711350,9400.615463,-12435.459826,-1302.362347
21152.711684,7624.121203,-9548.656652,-1838.629195
21152.712018,8290.306550,-7772.162391,0.000000
21152.712351,11769.274478,-8734.430116,2374.896044
21152.712685,9770.718434,-8068.244768,1072.533697
21152.713019,9030.512492,-6735.874072,-1225.752797
21152.713352,10214.842000,-8290.306550,0.000000
21152.713686,10807.006753,-10066.800811,1915.238745
21152.714020,9474.636058,-12213.398043,2451.505594
21152.714354,9400.615463,-11177.109724,229.828649
21152.714687,9474.636058,-8364.327145,3064.381992
21152.715021,13323.706956,-8290.306550,5745.716235
21152.715355,12361.439231,-6217.729913,2528.115143
21152.715688,8290.306550,-9104.533087,-76.609550
21152.716022,7328.038826,-7624.121203,-2987.772442
21152.716356,5773.606348,-10881.027347,-2604.724693
21152.716689,5403.503377,-10510.924376,-3677.258390
21152.717023,2294.638420,-14211.954086,-4979.620737
21152.717357,-222.061783,-9548.656652,-4903.011187
21152.717691,5773.606348,-11251.130318,3370.820191
21152.718024,11769.274478,-7105.977043,4826.401637
21152.718358,9474.636058,-3627.009116,7354.516781
21152.718692,10288.862594,-7105.977043,6588.421283
21152.719025,7772.162391,-8882.471304,4136.915689
21152.719359,5403.503377,-8734.430116,919.314598
21152.719693,3923.091493,-10658.965565,-1915.238745
21152.720026,888.247130,-8586.388927,-5286.058936
21152.720360,-1184.329507,-8364.327145,-4903.011187
21152.720694,1184.329507,-11251.130318,-3907.087040
21152.721028,2294.638420,-12435.459826,-3140.991542
21152.721361,1480.411884,-7179.997637,0.000000
21152.721695,4367.215058,-10658.965565,3600.648841
21152.722029,4885.359217,-7772.162391,5056.230287
21152.722362,7179.997637,-6735.874072,6665.030833
21152.722696,9696.697840,-6291.750507,7277.907231
21152.723030,9844.739029,-4737.318029,6052.154434
21152.723363,7179.997637,-8586.388927,2374.896044
21152.723697,2590.720797,-12139.377449,-2834.553343
21152.724031,-2220.617826,-12213.398043,-5822.325785
21152.724365,-2368.659014,-11325.150913,-6665.030833
21152.724698,-1184.329507,-10732.986159,-3830.477490
21152.725032,-962.267725,-6291.750507,-6128.763984
21152.725366,0.000000,-5995.668130,-1532.190996
21152.725699,6439.791695,-11843.295072,2374.896044
21152.726033,3552.988522,-10288.862594,3677.258390
21152.726367,4071.132681,-10658.965565,6205.373534
21152.726700,7105.977043,-7476.080014,8503.660028
21152.727034,8142.265362,-6661.853478,8120.612279
21152.727368,8216.285956,-5329.482782,4826.401637
21152.727702,4811.338623,-10510.924376,-76.609550
21152.728035,-4737.318029,-11917.315666,-6128.763984
21152.728369,-5921.647536,-13693.809927,-7354.516781
21152.728703,-5403.503377,-13323.706956,-6511.811733
21152.729036,-2738.761985,-11547.212695,-4979.620737
21152.729370,-1554.432478,-7179.997637,-3677.258390
21152.729704,1850.514855,-7105.977043,1762.019645
21152.730038,2368.659014,-8882.471304,5286.058936
21152.730371,2072.576638,-7476.080014,5822.325785
21152.730705,5551.544565,-9474.636058,7890.783629
21152.731039,3108.864956,-5995.668130,6128.763984
21152.731372,5329.482782,-5773.606348,4749.792088
21152.731706,1702.473667,-8290.306550,-1915.238745
21152.732040,-1036.288319,-9844.739029,-3294.210641
21152.732373,-1998.556043,-10584.944971,-3294.210641
21152.732707,-814.226536,-12287.418637,-2834.553343
21152.733041,-222.061783,-9844.739029,-2451.505594
21152.733375,-1184.329507,-11473.192101,-3064.381992
21152.733708,-666.185348,-9030.512492,-3677.258390
21152.734042,592.164754,-10436.903782,3217.601092
21152.734376,2368.659014,-10362.883188,4673.182538
21152.734709,3330.926739,-4811.338623,6128.763984
21152.735043,2960.823768,-8068.244768,8120.612279
21152.735377,2368.659014,-5107.421000,3064.381992
21152.735710,518.144159,-6883.915261,-842.705048
21152.736044,-2664.741391,-13323.706956,-229.828649
21152.736378,-1998.556043,-9474.636058,-1302.362347
21152.736712,-5921.647536,-9548.656652,-3524.039291
21152.737045,-518.144159,-9178.553681,-1608.800546
21152.737379,-1258.350101,-9474.636058,-3753.867940
21152.737713,0.000000,-8068.244768,-1532.190996
21152.738046,1184.329507,-13545.768739,1532.190996
21152.738380,1258.350101,-11473.192101,229.828649
21152.738714,4145.153275,-9548.656652,4213.525239
21152.739047,1184.329507,-10584.944971,5822.325785
21152.739381,2294.638420,-4737.318029,1455.581446
21152.739715,-3552.988522,-7179.997637,306.438199
21152.740049,-962.267725,-10362.883188,-76.609550
21152.740382,-3775.050304,-8142.265362,-689.485948
21152.740716,-1258.350101,-8142.265362,459.657299
21152.741050,-74.020594,-9178.553681,2374.896044
21152.741383,-1258.350101,-7105.977043,-2987.772442
21152.741717,0.000000,-7179.997637,-1225.752797
21152.742051,-666.185348,-14211.954086,-1915.238745
21152.742384,-1036.288319,-11325.150913,-2911.162892
21152.742718,1776.494261,-10955.047942,2374.896044
21152.743052,1850.514855,-9770.718434,4136.915689
21152.743386,2590.720797,-5995.668130,1225.752797
21152.743719,-74.020594,-10140.821405,766.095498
21152.744053,1998.556043,-8586.388927,842.705048
21152.744387,-2368.659014,-7179.997637,1225.752797
21152.744720,3478.967927,-8882.471304,2374.896044
21152.745054,2294.638420,-8142.265362,306.438199
21152.745388,0.000000,-6735.874072,-459.657299
21152.745722,2886.803174,-9178.553681,-2528.115143
21152.746055,-962.267725,-12435.459826,-842.705048
21152.746389,-962.267725,-10584.944971,-2757.943793
21152.746723,1184.329507,-10066.800811,1149.143247
21152.747056,0.000000,-7772.162391,0.000000
21152.747390,-2368.659014,-6587.832884,0.000000
21152.747724,1702.473667,-9474.636058,-76.609550
21152.748057,-962.267725,-7772.162391,0.000000
21152.748391,0.000000,-8808.450710,3600.648841
21152.748725,814.226536,-4811.338623,306.438199
21152.749059,814.226536,-8882.471304,-842.705048
21152.749392,592.164754,-8216.285956,-1072.533697
21152.749726,740.205942,-9992.780217,-995.924147
21152.750060,1702.473667,-12435.459826,842.705048
21152.750393,2072.576638,-9992.780217,3447.429741
21152.750727,4663.297435,-12731.542202,2374.896044
21152.751061,1480.411884,-8364.327145,2757.943793
21152.751394,4071.132681,-10658.965565,-76.609550
21152.751728,-2220.617826,-10140.821405,0.000000
21152.752062,-1406.391290,-9992.780217,-766.095498
21152.752396,-962.267725,-9252.574275,1455.581446
21152.752729,962.267725,-7254.018232,2221.676944
21152.753063,518.144159,-7105.977043,153.219100
21152.753397,1110.308913,-7698.141797,-2221.676944
21152.753730,-814.226536,-10658.965565,-76.609550
21152.754064,0.000000,-7179.997637,1225.752797
21152.754398,2442.679609,-9474.636058,4826.401637
21152.754731,1776.494261,-8808.450710,4290.134789
21152.755065,1702.473667,-7550.100608,229.828649
21152.755399,-2368.659014,-10066.800811,-3524.039291
21152.755733,-2146.597232,-12879.583391,-3677.258390
21152.756066,-3034.844362,-11251.130318,-1991.848295
21152.756399,-518.144159,-8586.388927,-76.609550
21152.756733,1332.370696,-7402.059420,1991.848295
21152.757066,-370.102971,-8586.388927,536.266849
21152.757399,592.164754,-6809.894666,-153.219100
21152.757733,1702.473667,-11843.295072,2987.772442
21152.758066,592.164754,-9844.739029,6971.469032
21152.758400,444.123565,-7476.080014,1838.629195
21152.758733,2590.720797,-6513.812290,1455.581446
21152.759066,0.000000,-5403.503377,0.000000
21152.759400,0.000000,-9548.656652,-1225.752797
21152.759733,-370.102971,-12287.418637,-2911.162892
21152.760067,-4441.235652,-12953.603985,-2911.162892
21152.760400,-4663.297435,-9474.636058,-2911.162892
21152.760733,-4441.235652,-7476.080014,-2757.943793
21152.761067,-1258.350101,-8290.306550,-76.609550
21152.761400,1702.473667,-4737.318029,-1455.581446
21152.761733,1184.329507,-10436.903782,4596.572988
21152.762067,4663.297435,-9474.636058,6665.030833
21152.762400,2664.741391,-8438.347739,5362.668486
21152.762734,4145.153275,-9178.553681,4826.401637
21152.763067,3923.091493,-7402.059420,0.000000
21152.763400,2664.741391,-9474.636058,-1302.362347
21152.763734,1776.494261,-11917.315666,-1225.752797
21152.764067,-666.185348,-13027.624579,-6128.763984
21152.764400,-4145.153275,-11917.315666,-4903.011187
21152.764734,-2368.659014,-11399.171507,1762.019645
21152.765067,-1554.432478,-5625.565159,-2528.115143
21152.765401,444.123565,-7624.121203,1762.019645
21152.765734,-370.102971,-8882.471304,3983.696590
21152.766067,370.102971,-4663.297435,3907.087040
21152.766401,2738.761985,-6217.729913,5669.106685
21152.766734,4663.297435,-8882.471304,5898.935335
21152.767068,2294.638420,-3627.009116,0.000000
21152.767401,-74.020594,-11547.212695,-1915.238745
21152.767734,-1258.350101,-13619.789333,-5286.058936
21152.768068,-4959.379811,-8956.491898,-6741.640382
21152.768401,-370.102971,-12731.542202,-1915.238745
21152.768734,-740.205942,-10658.965565,-2145.067394
21152.769068,-2738.761985,-9844.739029,-3677.258390
21152.769401,-1406.391290,-10955.047942,-1302.362347
21152.769735,1702.473667,-11843.295072,6052.154434
21152.770068,2368.659014,-6291.750507,6281.983084
21152.770401,4293.194464,-6661.853478,7354.516781
21152.770735,5255.462188,-7105.977043,6665.030833
21152.771068,888.247130,-3034.844362,0.000000
21152.771402,1184.329507,-10362.883188,1149.143247
21152.771735,-1258.350101,-10140.821405,-4290.134789
21152.772068,-7105.977043,-10732.986159,-2451.505594
21152.772402,-3404.947333,-10658.965565,-5286.058936
21152.772735,-4219.173869,-10658.965565,-6818.249932
21152.773068,-4737.318029,-9696.697840,-5362.668486
21152.773402,-666.185348,-11177.109724,-689.485948
21152.773735,1998.556043,-10436.903782,5132.839837
21152.774069,4737.318029,-7328.038826,8580.269578
21152.774402,5329.482782,-7476.080014,12793.794817
21152.774735,5551.544565,-7105.977043,5209.449386
21152.775069,2960.823768,-3034.844362,612.876398
21152.775402,2664.741391,-9474.636058,1149.143247
21152.775735,0.000000,-8660.409521,-3677.258390
21152.776069,-3034.844362,-10658.965565,-4366.744339
21152.776402,-2516.700203,-10584.944971,-3294.210641
21152.776736,-2072.576638,-10066.800811,-3140.991542
21152.777069,-1850.514855,-9474.636058,-4366.744339
21152.777402,-2368.659014,-12805.562797,-76.609550
21152.777736,-1850.514855,-10140.821405,0.000000
21152.778069,1184.329507,-6587.832884,4903.011187
21152.778403,4145.153275,-8364.327145,9422.974625
21152.778736,6439.791695,-7105.977043,8503.660028
21152.779069,3923.091493,-5329.482782,3600.648841
21152.779403,-222.061783,-9770.718434,1072.533697
21152.779736,-518.144159,-7698.141797,-3217.601092
21152.780069,-4441.235652,-9548.656652,-4136.915689
21152.780403,1406.391290,-10658.965565,-1915.238745
21152.780736,-4145.153275,-8364.327145,-6128.763984
21152.781070,-3552.988522,-9844.739029,-4673.182538
21152.781403,-1554.432478,-13619.789333,-3753.867940
21152.781736,-1554.432478,-11325.150913,612.876398
21152.782070,3701.029710,-6957.935855,4979.620737
21152.782403,3923.091493,-8660.409521,7354.516781
21152.782736,5477.523971,-5255.462188,5975.544884
21152.783070,3552.988522,-7031.956449,3983.696590
21152.783403,4367.215058,-7254.018232,919.314598
21152.783737,1776.494261,-9474.636058,1762.019645
21152.784070,-370.102971,-11843.295072,-689.485948
21152.784403,-3627.009116,-7179.997637,-4596.572988
21152.784737,-5921.647536,-7179.997637,-6435.202183
21152.785070,-4145.153275,-9548.656652,-5362.668486
21152.785404,-2886.803174,-12287.418637,-3064.381992
21152.785737,-740.205942,-11843.295072,1378.971896
21152.786070,3108.864956,-7179.997637,6894.859482
21152.786404,3182.885551,-7624.121203,4903.011187
21152.786737,4515.256246,-5995.668130,5286.058936
21152.787070,2812.782580,-7402.059420,2911.162892
21152.787404,1628.453072,-9178.553681,1532.190996
21152.787737,0.000000,-8956.491898,0.000000
21152.788071,-74.020594,-7698.141797,-3370.820191
21152.788404,-3997.112087,-9548.656652,-2451.505594
21152.788737,-1258.350101,-9474.636058,-4979.620737
21152.789071,-3034.844362,-12435.459826,-4979.620737
21152.789404,-4737.318029,-11325.150913,-2451.505594
21152.789737,296.082377,-9696.697840,0.000000
21152.790071,2442.679609,-9992.780217,4826.401637
21152.790404,4737.318029,-8216.285956,7277.907231
21152.790738,4663.297435,-6809.894666,6052.154434
21152.791071,2294.638420,-7698.141797,1685.410096
21152.791404,2590.720797,-7920.203579,2451.505594
21152.791738,2886.803174,-9474.636058,-76.609550
21152.792071,0.000000,-6587.832884,0.000000
21152.792405,-222.061783,-11251.130318,-1915.238745
21152.792738,-1850.514855,-7846.182985,-5209.449386
21152.793071,-2738.761985,-12139.377449,-4826.401637
21152.793405,-3627.009116,-13175.665768,-2834.553343
21152.793738,-222.061783,-10658.965565,-76.609550
21152.794071,3182.885551,-6291.750507,2451.505594
21152.794405,6439.791695,-8290.306550,7277.907231
21152.794738,4367.215058,-4737.318029,2374.896044
21152.795072,2664.741391,-8364.327145,6128.763984
21152.795405,4071.132681,-7698.141797,1149.143247
21152.795738,1184.329507,-8808.450710,1532.190996
21152.796072,-888.247130,-7476.080014,-2451.505594
21152.796405,-2664.741391,-10436.903782,-4596.572988
21152.796739,-5181.441594,-8660.409521,-7660.954980
21152.797072,-4145.153275,-13397.727550,-3064.381992
21152.797405,-1554.432478,-14211.954086,-689.485948
21152.797739,-1850.514855,-8956.491898,1225.752797
21152.798072,1184.329507,-8660.409521,9193.145976
21152.798405,4663.297435,-6809.894666,5898.935335
21152.798739,3923.091493,-6069.688724,4826.401637
21152.799072,4071.132681,-7476.080014,4443.353888
21152.799406,2294.638420,-8512.368333,1991.848295
21152.799739,0.000000,-7772.162391,0.000000
21152.800072,-1998.556043,-9548.656652,-1608.800546
21152.800406,-4219.173869,-9252.574275,-6281.983084
21152.800739,-5403.503377,-9474.636058,-7431.126331
21152.801072,-2442.679609,-13619.789333,-4979.620737
21152.801406,-3627.009116,-13619.789333,-2528.115143
21152.801739,0.000000,-7179.997637,2451.505594
21152.802073,4293.194464,-8660.409521,6128.763984
21152.802406,5033.400406,-7476.080014,7890.783629
21152.802739,4663.297435,-8290.306550,4213.525239
21152.803073,3552.988522,-9104.533087,3140.991542
21152.803406,1924.535449,-9770.718434,1532.190996
21152.803740,2812.782580,-6587.832884,1072.533697
21152.804073,1702.473667,-8290.306550,76.609550
21152.804406,-2368.659014,-8660.409521,-3217.601092
21152.804740,-7105.977043,-9548.656652,-4903.011187
21152.805073,-3627.009116,-14211.954086,-6818.249932
21152.805406,-4737.318029,-10140.821405,-4136.915689
21152.805740,-1258.350101,-10066.800811,2374.896044
21152.806073,3478.967927,-9474.636058,6971.469032
21152.806407,4145.153275,-5255.462188,6818.249932
21152.806740,3997.112087,-4367.215058,4596.572988
21152.807073,4959.379811,-10288.862594,4826.401637
21152.807407,3182.885551,-8882.471304,2987.772442
21152.807740,0.000000,-10362.883188,2374.896044
21152.808073,-1554.432478,-9474.636058,-3753.867940
21152.808407,-5921.647536,-8364.327145,-6741.640382
21152.808740,-4737.318029,-9548.656652,-5822.325785
21152.809074,-3034.844362,-10732.986159,-3677.258390
21152.809407,-2960.823768,-11029.068536,-2145.067394
21152.809740,222.061783,-11103.089130,3294.210641
21152.810074,4219.173869,-8290.306550,6511.811733
21152.810407,2664.741391,-3627.009116,3753.867940
21152.810741,4959.379811,-9178.553681,4826.401637
21152.811074,3997.112087,-10658.965565,3294.210641
21152.811407,0.000000,-6587.832884,1838.629195
21152.811741,4663.297435,-10658.965565,2987.772442
21152.812074,0.000000,-8068.244768,-2298.286494
21152.812407,-2442.679609,-10658.965565,-5592.497135
21152.812741,-3330.926739,-9474.636058,-6435.202183
21152.813074,-3849.070898,-13323.706956,-4519.963438
21152.813408,-4145.153275,-11917.315666,-1838.629195
21152.813741,3478.967927,-9474.636058,1762.019645
21152.814074,3627.009116,-7772.162391,5515.887586
21152.814408,1184.329507,-4811.338623,7354.516781
21152.814741,7031.956449,-9474.636058,7277.907231
21152.815074,3552.988522,-8068.244768,5362.668486
21152.815408,2220.617826,-7994.224174,3064.381992
21152.815741,3256.906145,-7105.977043,842.705048
21152.816075,74.020594,-9696.697840,-2068.457845
21152.816408,-4737.318029,-7772.162391,-6128.763984
21152.816741,-3182.885551,-11103.089130,-6511.811733
21152.817075,-4071.132681,-13175.665768,-4060.306139
21152.817408,-2960.823768,-10658.965565,-2068.457845
21152.817742,-74.020594,-9178.553681,1149.143247
21152.818075,1332.370696,-7920.203579,4903.011187
21152.818408,4071.132681,-5921.647536,7048.078582
21152.818742,5847.626942,-8882.471304,4213.525239
21152.819075,4145.153275,-8956.491898,6818.249932
21152.819408,2294.638420,-10214.842000,4826.401637
21152.819742,296.082377,-7328.038826,766.095498
21152.820075,-666.185348,-8068.244768,-3524.039291
21152.820409,-3701.029710,-10140.821405,-7048.078582
21152.820742,-4737.318029,-9844.739029,-8427.050478
21152.821075,-6513.812290,-11325.150913,-4290.134789
21152.821409,-1258.350101,-11251.130318,-3140.991542
21152.821742,518.144159,-11843.295072,2374.896044
21152.822076,1776.494261,-7179.997637,6894.859482
21152.822409,4219.173869,-5329.482782,3907.087040
21152.822742,4219.173869,-8586.388927,6128.763984
21152.823076,4367.215058,-7550.100608,5515.887586
21152.823409,3330.926739,-7920.203579,4673.182538
21152.823742,3256.906145,-8512.368333,3370.820191
21152.824076,-2368.659014,-8364.327145,-2451.505594
21152.824409,-3034.844362,-9178.553681,-8810.098227
21152.824743,-6365.771101,-11029.068536,-6128.763984
21152.825076,-6217.729913,-12065.356855,-4903.011187
21152.825409,-4441.235652,-9326.594869,-2451.505594
21152.825743,-148.041188,-10066.800811,2374.896044
21152.826076,1480.411884,-6809.894666,5439.278036
21152.826409,3182.885551,-6217.729913,5209.449386
21152.826743,4663.297435,-8290.306550,6052.154434
21152.827076,3552.988522,-9548.656652,7890.783629
21152.827410,3478.967927,-5921.647536,2374.896044
21152.827743,1184.329507,-7179.997637,2451.505594
21152.828076,1036.288319,-10362.883188,-1915.238745
21152.828410,-1554.432478,-10066.800811,-5592.497135
21152.828743,-5403.503377,-13989.892304,-7660.954980
21152.829077,-4219.173869,-12657.521608,-4596.572988
21152.829410,-2738.761985,-10140.821405,-2221.676944
21152.829743,0.000000,-8364.327145,1991.848295
21152.830077,5551.544565,-8290.306550,4826.401637
21152.830410,1776.494261,-5995.668130,6128.763984
21152.830743,4737.318029,-8956.491898,8503.660028
21152.831077,5255.462188,-6883.915261,4596.572988
21152.831410,6291.750507,-8142.265362,4596.572988
21152.831744,2960.823768,-9548.656652,383.047749
21152.832077,-962.267725,-8808.450710,-4673.182538
21152.832410,-4219.173869,-11843.295072,-7584.345430
21152.832744,-5921.647536,-11917.315666,-4903.011187
21152.833077,-4219.173869,-11103.089130,-4979.620737
21152.833410,-2738.761985,-9918.759623,-153.219100
21152.833744,370.102971,-8882.471304,3753.867940
21152.834077,1332.370696,-7476.080014,5439.278036
21152.834411,2590.720797,-4219.173869,2604.724693
21152.834744,4145.153275,-9474.636058,7277.907231
21152.835077,3478.967927,-6513.812290,1762.019645
21152.835411,3256.906145,-8808.450710,4826.401637
21152.835744,3775.050304,-9474.636058,2681.334243
21152.836078,-1258.350101,-7179.997637,-5515.887586
21152.836411,-2516.700203,-12139.377449,-5898.935335
21152.836744,-4293.194464,-14137.933492,-4290.134789
21152.837078,-3627.009116,-11695.253884,-2298.286494
21152.837411,-3552.988522,-8956.491898,0.000000
21152.837744,2294.638420,-9474.636058,1762.019645
21152.838078,592.164754,-4811.338623,1225.752797
21152.838411,2960.823768,-8956.491898,7277.907231
21152.838745,3478.967927,-8290.306550,4826.401637
21152.839078,1480.411884,-7179.997637,6128.763984
21152.839411,2294.638420,-7772.162391,3524.039291
21152.839745,2220.617826,-7179.997637,0.000000
21152.840078,-2072.576638,-7994.224174,-4979.620737
21152.840411,-1702.473667,-13027.624579,-4979.620737
21152.840745,-74.020594,-14211.954086,-4979.620737
21152.841078,-4737.318029,-10732.986159,-3524.039291
21152.841412,-1184.329507,-12213.398043,2221.676944
21152.841745,1110.308913,-7179.997637,0.000000
21152.842078,2368.659014,-9474.636058,3600.648841
21152.842412,3256.906145,-7846.182985,5286.058936
21152.842745,4737.318029,-7031.956449,5669.106685
21152.843079,4959.379811,-6883.915261,5898.935335
21152.843412,4663.297435,-7105.977043,5439.278036
21152.843745,2812.782580,-4811.338623,0.000000
21152.844079,-148.041188,-11843.295072,-2528.115143
21152.844412,-2886.803174,-10436.903782,-8427.050478
21152.844745,-5921.647536,-12213.398043,-6741.640382
21152.845079,-2146.597232,-12435.459826,-3753.867940
21152.845412,-2368.659014,-11029.068536,-153.219100
21152.845746,-888.247130,-9030.512492,689.485948
21152.846079,962.267725,-7179.997637,2374.896044
21152.846412,2146.597232,-8808.450710,4826.401637
21152.846746,2368.659014,-7476.080014,4290.134789
21152.847079,2294.638420,-7254.018232,5515.887586
21152.847413,2664.741391,-5995.668130,4903.011187
21152.847746,2960.823768,-7179.997637,1225.752797
21152.848079,-888.247130,-9696.697840,-689.485948
21152.848413,-1850.514855,-11251.130318,-6128.763984
21152.848746,-5921.647536,-12213.398043,-3677.258390
21152.849079,-3627.009116,-11547.212695,-4366.744339
21152.849413,-4145.153275,-11917.315666,-2451.505594
21152.849746,-1776.494261,-9252.574275,-459.657299
21152.850080,-962.267725,-9400.615463,1991.848295
21152.850413,1924.535449,-8808.450710,4366.744339
21152.850746,4071.132681,-9326.594869,6052.154434
21152.851080,2886.803174,-4811.338623,7277.907231
21152.851413,4663.297435,-3034.844362,3064.381992
21152.851746,3997.112087,-7105.977043,2068.457845
21152.852080,-666.185348,-10658.965565,-4979.620737
21152.852413,-1258.350101,-12435.459826,-3600.648841
21152.852747,-3997.112087,-13471.748144,-4060.306139
21152.853080,-3404.947333,-11399.171507,-4366.744339
21152.853413,-2368.659014,-11029.068536,-1838.629195
21152.853747,-1628.453072,-8660.409521,-1378.971896
21152.854080,1776.494261,-8660.409521,4673.182538
21152.854414,148.041188,-7179.997637,2451.505594
21152.854747,4441.235652,-9474.636058,6971.469032
21152.855080,4663.297435,-6291.750507,6128.763984
21152.855414,2664.741391,-5921.647536,4290.134789
21152.855747,3182.885551,-6217.729913,76.609550
21152.856080,-740.205942,-9918.759623,-3830.477490
21152.856414,-2368.659014,-11473.192101,-4596.572988
21152.856747,-6217.729913,-11695.253884,-4903.011187
21152.857080,-74.020594,-11843.295072,-4060.306139
21152.857413,-4737.318029,-13101.645173,306.438199
21152.857747,-3552.988522,-7772.162391,612.876398
21152.858080,1554.432478,-9178.553681,1455.581446
21152.858413,0.000000,-8364.327145,4903.011187
21152.858746,4663.297435,-1850.514855,3064.381992
21152.859080,3256.906145,-8734.430116,6971.469032
21152.859413,6883.915261,-4959.379811,3983.696590
21152.859746,0.000000,-10066.800811,-1225.752797
21152.860079,-148.041188,-9548.656652,-6971.469032
21152.860413,-3552.988522,-14285.974681,-2834.553343
21152.860746,-4219.173869,-12435.459826,-5286.058936
21152.861079,-74.020594,-6883.915261,-4136.915689
21152.861413,-2368.659014,-10732.986159,1225.752797
21152.861746,1110.308913,-6439.791695,0.000000
21152.862079,370.102971,-9770.718434,3600.648841
21152.862412,3256.906145,-8068.244768,5132.839837
21152.862746,1702.473667,-7105.977043,3830.477490
21152.863079,2886.803174,-7031.956449,3370.820191
21152.863412,1184.329507,-6661.853478,995.924147
21152.863745,-1184.329507,-7846.182985,-1915.238745
21152.864079,-2220.617826,-11251.130318,-4060.306139
21152.864412,-2590.720797,-12805.562797,-383.047749
21152.864745,-3182.885551,-9548.656652,-4290.134789
21152.865078,0.000000,-9252.574275,0.000000
21152.865412,-74.020594,-11695.253884,1762.019645
21152.865745,814.226536,-6143.709319,-1225.752797
21152.866078,2368.659014,-7772.162391,4903.011187
21152.866411,3701.029710,-9104.533087,4596.572988
21152.866745,5699.585753,-7698.141797,4673.182538
21152.867078,3627.009116,-8438.347739,4749.792088
21152.867411,3478.967927,-8290.306550,-76.609550
21152.867745,-74.020594,-5995.668130,-6741.640382
21152.868078,-1184.329507,-14211.954086,-3140.991542
21152.868411,-74.020594,-13027.624579,-2528.115143
21152.868744,-1628.453072,-8956.491898,-2451.505594
21152.869078,4663.297435,-9474.636058,2374.896044
21152.869411,1776.494261,-9622.677246,1915.238745
21152.869744,3108.864956,-7772.162391,536.266849
21152.870077,3627.009116,-10510.924376,2221.676944
21152.870411,1776.494261,-8068.244768,459.657299
21152.870744,4071.132681,-7772.162391,0.000000
21152.871077,5255.462188,-11251.130318,4826.401637
21152.871410,4071.132681,-6587.832884,0.000000
21152.871744,0.000000,-10436.903782,153.219100
21152.872077,148.041188,-11843.295072,-689.485948
21152.872410,-3997.112087,-10288.862594,-2528.115143
21152.872743,-3034.844362,-9474.636058,-1149.143247
21152.873077,-1036.288319,-7624.121203,-1378.971896
21152.873410,-2368.659014,-10436.903782,459.657299
21152.873743,-3552.988522,-5995.668130,0.000000
21152.874076,-74.020594,-11251.130318,3600.648841
21152.874410,-74.020594,-8142.265362,1225.752797
21152.874743,592.164754,-6883.915261,2451.505594
21152.875076,0.000000,-9548.656652,3370.820191
21152.875410,-1258.350101,-6291.750507,459.657299
21152.875743,-1702.473667,-8734.430116,-2911.162892
21152.876076,-3404.947333,-14359.995275,-383.047749
21152.876409,-2442.679609,-9474.636058,-1302.362347
21152.876743,-4737.318029,-12805.562797,1762.019645
21152.877076,-1850.514855,-6291.750507,-1225.752797
21152.877409,-5921.647536,-6587.832884,0.000000
21152.877742,-74.020594,-9178.553681,-689.485948
21152.878076,-888.247130,-8364.327145,306.438199
21152.878409,-1258.350101,-9178.553681,2987.772442
21152.878742,2886.803174,-6957.935855,4060.306139
21152.879075,2812.782580,-7402.059420,5209.449386
21152.879409,3478.967927,-5921.647536,1149.143247
21152.879742,0.000000,-8438.347739,-1455.581446
21152.880075,-1702.473667,-13915.871710,-2834.553343
21152.880408,-2442.679609,-11695.253884,-3294.210641
21152.880742,-1998.556043,-10732.986159,-1838.629195
21152.881075,1110.308913,-11695.253884,-76.609550
21152.881408,-2812.782580,-8364.327145,-2451.505594
21152.881742,-888.247130,-10362.883188,-76.609550
21152.882075,1998.556043,-6883.915261,1532.190996
21152.882408,1184.329507,-5995.668130,4903.011187
21152.882741,6439.791695,-5921.647536,4213.525239
21152.883075,5551.544565,-9696.697840,5898.935335
21152.883408,3552.988522,-7254.018232,995.924147
21152.883741,3775.050304,-11251.130318,-919.314598
21152.884074,222.061783,-12065.356855,-3294.210641
21152.884408,-592.164754,-13027.624579,-1302.362347
21152.884741,-666.185348,-12435.459826,-1915.238745
21152.885074,-74.020594,-8956.491898,-2145.067394
21152.885407,-1776.494261,-9252.574275,-76.609550
21152.885741,518.144159,-7179.997637,-1225.752797
21152.886074,2442.679609,-9770.718434,3907.087040
21152.886407,2368.659014,-6143.709319,4060.306139
21152.886740,3478.967927,-5033.400406,4596.572988
21152.887074,0.000000,-8364.327145,1225.752797
21152.887407,4367.215058,-9474.636058,-76.609550
21152.887740,148.041188,-9548.656652,-2451.505594
21152.888074,-3552.988522,-13101.645173,-1838.629195
21152.888407,-3034.844362,-11843.295072,-4366.744339
21152.888740,-4441.235652,-13989.892304,-2145.067394
21152.889073,592.164754,-8956.491898,153.219100
21152.889407,-888.247130,-8586.388927,766.095498
21152.889740,2220.617826,-6957.935855,1225.752797
21152.890073,4811.338623,-8660.409521,7048.078582
21152.890406,7031.956449,-6513.812290,4826.401637
21152.890740,4737.318029,-4811.338623,6205.373534
21152.891073,3552.988522,-9474.636058,4826.401637
21152.891406,-74.020594,-8290.306550,-5592.497135
21152.891739,-4145.153275,-12509.480420,-5132.839837
21152.892073,-1554.432478,-12805.562797,-4519.963438
21152.892406,-740.205942,-9918.759623,-1302.362347
21152.892739,1776.494261,-10362.883188,2221.676944
21152.893072,3627.009116,-9178.553681,2451.505594
21152.893406,814.226536,-8364.327145,919.314598
21152.893739,814.226536,-8586.388927,689.485948
21152.894072,1776.494261,-7179.997637,1225.752797
21152.894406,2442.679609,-6587.832884,1685.410096
21152.894739,2368.659014,-3627.009116,3677.258390
21152.895072,4367.215058,-10658.965565,2374.896044
21152.895405,1036.288319,-4811.338623,-4290.134789
21152.895739,148.041188,-15840.407159,2374.896044
21152.896072,-2442.679609,-10066.800811,-3140.991542
21152.896405,-3775.050304,-9104.533087,-1838.629195
21152.896738,-4737.318029,-11251.130318,-3064.381992
21152.897072,-1850.514855,-8660.409521,-919.314598
21152.897405,-5329.482782,-9548.656652,0.000000
21152.897738,-1258.350101,-8882.471304,612.876398
21152.898071,-74.020594,-9474.636058,2374.896044
21152.898405,-592.164754,-5995.668130,3677.258390
21152.898738,2368.659014,-5551.544565,4673.182538
21152.899071,-1776.494261,-7179.997637,0.000000
21152.899404,-1036.288319,-8512.368333,-2068.457845
21152.899738,-2886.803174,-12361.439231,-459.657299
21152.900071,-1258.350101,-11695.253884,-2068.457845
21152.900404,-1258.350101,-11251.130318,-76.609550
21152.900738,-3404.947333,-10140.821405,0.000000
21152.901071,1110.308913,-7105.977043,-1302.362347
21152.901404,-2368.659014,-8512.368333,0.000000
21152.901737,1406.391290,-9474.636058,2987.772442
21152.902071,1998.556043,-9474.636058,2987.772442
21152.902404,962.267725,-8216.285956,4213.525239
21152.902737,3256.906145,-6069.688724,3140.991542
21152.903070,296.082377,-7179.997637,842.705048
21152.903404,1776.494261,-8438.347739,-229.828649
21152.903737,0.000000,-11325.150913,2068.457845
21152.904070,-1110.308913,-8660.409521,-2451.505594
21152.904403,-962.267725,-7179.997637,0.000000
21152.904737,518.144159,-12435.459826,1762.019645
21152.905070,-1406.391290,-8142.265362,-2681.334243
21152.905403,-2590.720797,-10510.924376,-2834.553343
21152.905736,-1776.494261,-9252.574275,0.000000
21152.906070,-518.144159,-7105.977043,919.314598
21152.906403,3182.885551,-7550.100608,3370.820191
21152.906736,5551.544565,-8882.471304,4826.401637
21152.907070,0.000000,-8364.327145,2451.505594
21152.907403,4663.297435,-8734.430116,689.485948
21152.907736,1110.308913,-11029.068536,-1838.629195
21152.908069,0.000000,-10955.047942,0.000000
21152.908403,-74.020594,-9474.636058,-1302.362347
21152.908736,-2368.659014,-10510.924376,-1149.143247
21152.909069,-962.267725,-7476.080014,-3447.429741
21152.909402,-1258.350101,-11251.130318,-919.314598
21152.909736,2886.803174,-9474.636058,1455.581446
21152.910069,888.247130,-8290.306550,3753.867940
21152.910402,2294.638420,-6291.750507,5515.887586
21152.910735,814.226536,-5255.462188,2374.896044
21152.911069,-1776.494261,-7179.997637,0.000000
21152.911402,3256.906145,-8734.430116,-76.609550
21152.911735,-2442.679609,-11029.068536,-3140.991542
21152.912068,-592.164754,-10955.047942,-76.609550
21152.912402,-3034.844362,-11547.212695,-2604.724693
21152.912735,-2442.679609,-9548.656652,-3983.696590
21152.913068,518.144159,-7698.141797,-1608.800546
21152.913401,0.000000,-10362.883188,153.219100
21152.913735,2812.782580,-8512.368333,1915.238745
21152.914068,5033.400406,-8364.327145,6741.640382
21152.914401,9400.615463,-7698.141797,7277.907231
21152.914735,3182.885551,-5995.668130,2757.943793
21152.915068,1184.329507,-8364.327145,919.314598
21152.915401,1702.473667,-11843.295072,-3370.820191
21152.915734,296.082377,-9548.656652,0.000000
21152.916068,2886.803174,-10807.006753,-383.047749
21152.916401,1998.556043,-11251.130318,383.047749
21152.916734,740.205942,-9400.615463,-766.095498
21152.917067,-666.185348,-10066.800811,-1608.800546
21152.917401,2294.638420,-9474.636058,-1915.238745
21152.917734,-3552.988522,-8364.327145,0.000000
21152.918067,2516.700203,-9178.553681,4213.525239
21152.918400,5847.626942,-5625.565159,4826.401637
21152.918734,3478.967927,-8660.409521,4060.306139
21152.919067,4885.359217,-6291.750507,1608.800546
21152.919400,1036.288319,-14211.954086,536.266849
21152.919733,-666.185348,-10955.047942,-383.047749
21152.920067,-2960.823768,-7772.162391,-2451.505594
21152.920400,-2442.679609,-10955.047942,-3983.696590
21152.920733,-4145.153275,-9548.656652,-153.219100
21152.921067,-2442.679609,-10658.965565,-1915.238745
21152.921400,-4145.153275,-8882.471304,-1608.800546
21152.921733,-4737.318029,-7402.059420,-76.609550
21152.922066,444.123565,-6365.771101,3064.381992
21152.922400,1184.329507,-6809.894666,5515.887586
21152.922733,814.226536,-6217.729913,2068.457845
21152.923066,0.000000,-8956.491898,1225.752797
21152.923399,-4145.153275,-10140.821405,0.000000
21152.923733,-1850.514855,-11843.295072,-76.609550
21152.924066,-74.020594,-9474.636058,-2528.115143
21152.924399,-4145.153275,-11917.315666,612.876398
21152.924732,-2146.597232,-7328.038826,-1608.800546
21152.925066,-1480.411884,-9326.594869,-842.705048
21152.925399,-518.144159,-11325.150913,1225.752797
21152.925732,0.000000,-7179.997637,1378.971896
21152.926065,1776.494261,-9400.615463,5209.449386
21152.926399,2368.659014,-6291.750507,5056.230287
21152.926732,2294.638420,-4737.318029,1378.971896
21152.927065,592.164754,-9844.739029,383.047749
21152.927399,1258.350101,-10362.883188,-76.609550
21152.927732,-1184.329507,-11473.192101,0.000000
21152.928065,0.000000,-7179.997637,-3064.381992
21152.928398,0.000000,-11621.233289,2068.457845
21152.928732,-2442.679609,-8882.471304,-3753.867940
21152.929065,-2442.679609,-9178.553681,-3140.991542
21152.929398,148.041188,-10214.842000,842.705048
21152.929731,1258.350101,-7179.997637,2068.457845
21152.930065,4219.173869,-5403.503377,4596.572988
21152.930398,5699.585753,-7994.224174,4826.401637
21152.930731,4663.297435,-8290.306550,-76.609550
21152.931064,1184.329507,-11325.150913,919.314598
21152.931398,3849.070898,-12435.459826,-76.609550
21152.931731,1702.473667,-10732.986159,-1838.629195
21152.932064,0.000000,-9548.656652,0.000000
21152.932397,-74.020594,-11843.295072,-1608.800546
21152.932731,-1332.370696,-9326.594869,-1685.410096
21152.933064,0.000000,-9400.615463,0.000000
21152.933397,518.144159,-11103.089130,2374.896044
21152.933731,1110.308913,-5699.585753,689.485948
21152.934064,0.000000,-8364.327145,5822.325785
21152.934397,1998.556043,-5329.482782,4213.525239
21152.934730,1110.308913,-4811.338623,-3064.381992
21152.935064,1184.329507,-11029.068536,-76.609550
21152.935397,370.102971,-11251.130318,0.000000
21152.935730,-1184.329507,-9326.594869,229.828649
21152.936063,-74.020594,-11843.295072,536.266849
21152.936397,-1110.308913,-10140.821405,-612.876398
21152.936730,-2220.617826,-7772.162391,-3677.258390
21152.937063,-592.164754,-11473.192101,2374.896044
21152.937396,-1258.350101,-7476.080014,0.000000
21152.937730,-2072.576638,-8586.388927,3983.696590
21152.938063,4663.297435,-7698.141797,6052.154434
21152.938396,2294.638420,-3034.844362,1838.629195
21152.938729,2146.597232,-8290.306550,-842.705048
21152.939063,2072.576638,-10955.047942,-76.609550
21152.939396,1850.514855,-11251.130318,459.657299
21152.939729,1776.494261,-8364.327145,0.000000
21152.940063,4441.235652,-12731.542202,3217.601092
21152.940396,1258.350101,-11103.089130,-1455.581446
21152.940729,-1184.329507,-10732.986159,-2374.896044
21152.941062,-74.020594,-10658.965565,-1608.800546
21152.941396,-370.102971,-10288.862594,-2451.505594
21152.941729,296.082377,-7772.162391,3600.648841
21152.942062,4663.297435,-9474.636058,6052.154434
21152.942395,2886.803174,-4663.297435,2834.553343
21152.942729,3478.967927,-7031.956449,4213.525239
21152.943062,1554.432478,-10140.821405,1455.581446
21152.943395,370.102971,-9252.574275,229.828649
21152.943728,-1850.514855,-10362.883188,-1762.019645
21152.944062,592.164754,-7179.997637,-2911.162892
21152.944395,-1850.514855,-12213.398043,-4826.401637
21152.944728,-1184.329507,-11843.295072,-1302.362347
21152.945061,-3034.844362,-13619.789333,-1302.362347
21152.945395,-1554.432478,-9178.553681,-2987.772442
21152.945728,-2220.617826,-8142.265362,995.924147
21152.946061,888.247130,-5107.421000,3983.696590
21152.946395,2220.617826,-6661.853478,4826.401637
21152.946728,0.000000,-4811.338623,612.876398
21152.947061,1184.329507,-11029.068536,2757.943793
21152.947394,-666.185348,-9178.553681,-766.095498
21152.947728,1184.329507,-7476.080014,4213.525239
21152.948061,-1258.350101,-10214.842000,-2451.505594
21152.948394,-2368.659014,-8364.327145,-4903.011187
21152.948727,-3256.906145,-9844.739029,-4290.134789
21152.949061,-2960.823768,-13545.768739,-1838.629195
21152.949394,-444.123565,-8956.491898,-459.657299
21152.949727,-2146.597232,-10140.821405,995.924147
21152.950060,4663.297435,-8290.306550,4213.525239
21152.950394,296.082377,-4811.338623,4903.011187
21152.950727,4663.297435,-7698.141797,2987.772442
21152.951060,814.226536,-7179.997637,1225.752797
21152.951393,2072.576638,-9178.553681,2681.334243
21152.951727,5551.544565,-8290.306550,4213.525239
21152.952060,3108.864956,-9400.615463,2528.115143
21152.952393,-2812.782580,-10807.006753,-3294.210641
21152.952726,-5773.606348,-10214.842000,-6818.249932
21152.953060,-3330.926739,-13323.706956,-4673.182538
21152.953393,-2368.659014,-11325.150913,-76.609550
21152.953726,-74.020594,-7476.080014,0.000000
21152.954060,740.205942,-6587.832884,1225.752797
21152.954393,4663.297435,-8290.306550,2987.772442
21152.954726,4071.132681,-8290.306550,3447.429741
21152.955059,4959.379811,-9474.636058,4826.401637
21152.955393,2886.803174,-9622.677246,3600.648841
21152.955726,2738.761985,-8364.327145,1378.971896
21152.956059,518.144159,-10881.027347,0.000000
21152.956392,-2368.659014,-10955.047942,-2681.334243
21152.956725,-1702.473667,-11177.109724,-4136.915689
21152.957058,-4441.235652,-13397.727550,-1991.848295
21152.957392,-1998.556043,-8586.388927,-1838.629195
21152.957725,-3034.844362,-9474.636058,76.609550
21152.958058,-2072.576638,-7031.956449,1608.800546
21152.958391,2294.638420,-7994.224174,3600.648841
21152.958724,74.020594,-6587.832884,2451.505594
21152.959057,2368.659014,-7772.162391,4519.963438
21152.959391,2294.638420,-8882.471304,3600.648841
21152.959724,5255.462188,-10362.883188,4826.401637
21152.960057,2516.700203,-6883.915261,842.705048
21152.960390,-962.267725,-11029.068536,-4290.134789
21152.960723,-1776.494261,-10140.821405,-4749.792088
21152.961056,-2368.659014,-14434.015869,-1302.362347
21152.961389,-1332.370696,-9548.656652,-3677.258390
21152.961723,1110.308913,-6587.832884,0.000000
21152.962056,592.164754,-7328.038826,1149.143247
21152.962389,1702.473667,-5403.503377,0.000000
21152.962722,4219.173869,-8808.450710,2987.772442
21152.963055,4441.235652,-9770.718434,4213.525239
21152.963388,6069.688724,-7031.956449,6281.983084
21152.963721,7328.038826,-8882.471304,6052.154434
21152.964055,4663.297435,-11547.212695,2987.772442
21152.964388,-1480.411884,-9548.656652,-3677.258390
21152.964721,-222.061783,-11843.295072,-4903.011187
21152.965054,-1776.494261,-14211.954086,-2834.553343
21152.965387,-2368.659014,-10732.986159,-1838.629195
21152.965720,-1850.514855,-10140.821405,0.000000
21152.966054,296.082377,-8290.306550,995.924147
21152.966387,888.247130,-6735.874072,2145.067394
21152.966720,1110.308913,-8882.471304,5132.839837
21152.967053,2294.638420,-8290.306550,3600.648841
21152.967386,0.000000,-3627.009116,3064.381992
21152.967719,2368.659014,-8216.285956,4673.182538
21152.968052,3478.967927,-9474.636058,-76.609550
21152.968386,-74.020594,-11843.295072,-2528.115143
21152.968719,-3701.029710,-13619.789333,-3447.429741
21152.969052,-4663.297435,-11621.233289,-4060.306139
21152.969385,-3330.926739,-11695.253884,-2834.553343
21152.969718,-2072.576638,-7179.997637,-1225.752797
21152.970051,-3034.844362,-8660.409521,-1838.629195
21152.970384,296.082377,-7698.141797,3524.039291
21152.970718,2294.638420,-11843.295072,3294.210641
21152.971051,0.000000,-6291.750507,4596.572988
21152.971384,4071.132681,-7105.977043,6665.030833
21152.971717,1184.329507,-7179.997637,4596.572988
21152.972050,2220.617826,-5921.647536,459.657299
21152.972383,-2886.803174,-10436.903782,-3294.210641
21152.972717,-2368.659014,-11325.150913,-3677.258390
21152.973050,-4515.256246,-11769.274478,-4749.792088
21152.973383,-2146.597232,-12139.377449,-1991.848295
21152.973716,-1924.535449,-10436.903782,-1072.533697
21152.974049,-1406.391290,-9622.677246,-612.876398
21152.974382,592.164754,-7476.080014,919.314598
21152.974715,3478.967927,-11843.295072,4826.401637
21152.975049,3182.885551,-5625.565159,3677.258390
21152.975382,1776.494261,-8364.327145,6128.763984
21152.975715,6439.791695,-5921.647536,5439.278036
21152.976048,-1184.329507,-8364.327145,1915.238745
21152.976381,-518.144159,-6661.853478,-3447.429741
21152.976714,-2960.823768,-11917.315666,-4673.182538
21152.977047,-3404.947333,-10510.924376,-4366.744339
21152.977381,666.185348,-10881.027347,-612.876398
21152.977714,-2516.700203,-9696.697840,-2451.505594
21152.978047,0.000000,-7476.080014,-1838.629195
21152.978380,592.164754,-12435.459826,1149.143247
21152.978713,4071.132681,-7698.141797,1762.019645
21152.979046,4219.173869,-9178.553681,5745.716235
21152.979380,7254.018232,-7402.059420,6894.859482
21152.979713,5551.544565,-6439.791695,5515.887586
21152.980046,3775.050304,-7254.018232,919.314598
21152.980379,2886.803174,-10658.965565,-1915.238745
21152.980712,-2960.823768,-10732.986159,-2451.505594
21152.981045,-1628.453072,-13619.789333,-2451.505594
21152.981378,-74.020594,-11251.130318,-1915.238745
21152.981712,-4737.318029,-10732.986159,-4290.134789
21152.982045,-1554.432478,-7698.141797,-5132.839837
21152.982378,-296.082377,-12287.418637,1608.800546
21152.982711,666.185348,-8142.265362,4443.353888
21152.983044,3330.926739,-6513.812290,6052.154434
21152.983377,2886.803174,-5107.421000,6435.202183
21152.983711,3552.988522,-4811.338623,8580.269578
21152.984044,-74.020594,-6809.894666,-76.609550
21152.984377,0.000000,-8068.244768,-3447.429741
21152.984710,-5921.647536,-11325.150913,-3677.258390
21152.985043,-1850.514855,-11251.130318,-5745.716235
21152.985376,-1184.329507,-8808.450710,-1532.190996
21152.985709,-4737.318029,-9326.594869,-3983.696590
21152.986043,-1554.432478,-8660.409521,-5592.497135
21152.986376,-2072.576638,-10732.986159,-229.828649
21152.986709,3256.906145,-8068.244768,4519.963438
21152.987042,3849.070898,-6809.894666,6281.983084
21152.987375,7328.038826,-8290.306550,8963.317327
21152.987708,4515.256246,-9474.636058,6665.030833
21152.988041,4663.297435,-6513.812290,842.705048
21152.988375,888.247130,-9548.656652,-919.314598
21152.988708,-592.164754,-12953.603985,-1302.362347
21152.989041,-1258.350101,-10955.047942,-3983.696590
21152.989374,-2960.823768,-10140.821405,-4290.134789
21152.989707,-1628.453072,-9474.636058,-4519.963438
21152.990040,-3256.906145,-10881.027347,-3217.601092
21152.990374,888.247130,-11251.130318,1378.971896
21152.990707,-962.267725,-10658.965565,2374.896044
21152.991040,3256.906145,-4737.318029,4213.525239
21152.991373,592.164754,-7772.162391,7967.393179
21152.991706,4663.297435,-6513.812290,6665.030833
21152.992039,4367.215058,-5329.482782,1149.143247
21152.992372,1110.308913,-13619.789333,-76.609550
21152.992706,148.041188,-10140.821405,-3983.696590
21152.993039,-4145.153275,-13619.789333,-2681.334243
21152.993372,-666.185348,-9252.574275,-2374.896044
21152.993705,-4737.318029,-7772.162391,-4903.011187
21152.994038,-2442.679609,-11843.295072,-3140.991542
21152.994371,-4145.153275,-10140.821405,4136.915689
21152.994704,-148.041188,-8290.306550,3907.087040
21152.995038,962.267725,-4737.318029,3907.087040
21152.995371,2368.659014,-6587.832884,7967.393179
21152.995704,-592.164754,-6513.812290,2374.896044
21152.996037,-592.164754,-6587.832884,-919.314598
21152.996370,-518.144159,-10140.821405,-1225.752797
21152.996703,-2442.679609,-12287.418637,-1608.800546
21152.997037,-1776.494261,-8364.327145,-2451.505594
21152.997370,-1998.556043,-11843.295072,-3140.991542
21152.997703,-1850.514855,-9918.759623,-6128.763984
21152.998036,-2368.659014,-10732.986159,-1225.752797
21152.998369,2294.638420,-12435.459826,2987.772442
21152.998702,2368.659014,-7994.224174,4596.572988
21152.999035,4515.256246,-6439.791695,5898.935335
21152.999369,3775.050304,-9474.636058,8503.660028
21152.999702,1184.329507,-5551.544565,3983.696590
21153.000035,3330.926739,-8882.471304,2374.896044
21153.000368,-962.267725,-8660.409521,-2451.505594
21153.000701,0.000000,-9030.512492,-2451.505594
21153.001034,-1258.350101,-11843.295072,-2528.115143
21153.001367,-74.020594,-9474.636058,-3907.087040
21153.001701,-2590.720797,-12139.377449,-4366.744339
21153.002034,-1776.494261,-12805.562797,-2834.553343
21153.002367,1406.391290,-11547.212695,153.219100
21153.002700,1184.329507,-8290.306550,3907.087040
21153.003033,5921.647536,-7031.956449,7124.688131
21153.003366,3849.070898,-7772.162391,7660.954980
21153.003700,4219.173869,-4811.338623,2834.553343
21153.004033,1480.411884,-8586.388927,1685.410096
21153.004366,0.000000,-8364.327145,0.000000
21153.004699,-74.020594,-11695.253884,-1608.800546
21153.005032,-2590.720797,-8290.306550,-4366.744339
21153.005365,-4145.153275,-9252.574275,-4749.792088
21153.005698,-3775.050304,-11251.130318,-6971.469032
21153.006032,-4219.173869,-11991.336260,-5975.544884
21153.006365,-1998.556043,-10140.821405,0.000000
21153.006698,962.267725,-8216.285956,4213.525239
21153.007031,3552.988522,-6661.853478,8197.221829
21153.007364,5847.626942,-8734.430116,9422.974625
21153.007697,5847.626942,-3552.988522,4213.525239
21153.008031,2368.659014,-7772.162391,5209.449386
21153.008364,4663.297435,-12435.459826,2374.896044
21153.008697,-444.123565,-9104.533087,-3370.820191
21153.009030,-4737.318029,-10436.903782,-2757.943793
21153.009363,-2960.823768,-9178.553681,-4979.620737
21153.009696,-2960.823768,-9844.739029,-7354.516781
21153.010029,-2812.782580,-14582.057057,-4673.182538
21153.010363,2294.638420,-9474.636058,-76.609550
21153.010696,2294.638420,-10362.883188,2374.896044
21153.011029,5921.647536,-5995.668130,9269.755526
21153.011362,6957.935855,-10066.800811,9729.412825
21153.011695,7031.956449,-5329.482782,4826.401637
21153.012028,6587.832884,-8882.471304,6052.154434
21153.012361,0.000000,-10288.862594,995.924147
21153.012695,814.226536,-8290.306550,-1608.800546
21153.013028,-2442.679609,-10732.986159,-2987.772442
21153.013361,-3552.988522,-8660.409521,-5515.887586
21153.013694,-4811.338623,-9548.656652,-7354.516781
21153.014027,-4737.318029,-14137.933492,-1608.800546
21153.014360,-2738.761985,-10510.924376,-1838.629195
21153.014694,-592.164754,-7179.997637,2451.505594
21153.015027,2368.659014,-5995.668130,5439.278036
21153.015360,2220.617826,-6809.894666,5822.325785
21153.015693,2590.720797,-6439.791695,4213.525239
21153.016026,1850.514855,-8882.471304,3140.991542
21153.016359,4663.297435,-11251.130318,3600.648841
21153.016692,0.000000,-8364.327145,306.438199
21153.017026,-74.020594,-10658.965565,-3524.039291
21153.017359,-2738.761985,-7846.182985,-7814.174080
21153.017692,-3552.988522,-12509.480420,-4366.744339
21153.018025,-2738.761985,-12953.603985,-3907.087040
21153.018358,-3256.906145,-9992.780217,0.000000
21153.018691,1184.329507,-7031.956449,3983.696590
21153.019024,2590.720797,-7698.141797,6435.202183
21153.019358,4367.215058,-7105.977043,6665.030833
21153.019691,2368.659014,-6587.832884,4596.572988
21153.020024,2590.720797,-8142.265362,3140.991542
21153.020357,2812.782580,-8734.430116,1762.019645
21153.020690,-518.144159,-8068.244768,-1149.143247
21153.021023,-296.082377,-11547.212695,-2451.505594
21153.021357,-4441.235652,-9548.656652,-9193.145976
21153.021690,-1628.453072,-14211.954086,-4979.620737
21153.022023,-3627.009116,-13323.706956,-3600.648841
21153.022356,-2738.761985,-9326.594869,-766.095498
21153.022689,1628.453072,-9178.553681,4673.182538
21153.023022,3034.844362,-6291.750507,7354.516781
21153.023355,4367.215058,-5477.523971,5592.497135
21153.023689,5773.606348,-5403.503377,6511.811733
21153.024022,4071.132681,-8290.306550,3600.648841
21153.024355,0.000000,-6587.832884,1685.410096
21153.024688,2146.597232,-11103.089130,-76.609550
21153.025021,-1850.514855,-10066.800811,-5745.716235
21153.025354,-4737.318029,-8364.327145,-7354.516781
21153.025687,-3627.009116,-13915.871710,-7814.174080
21153.026021,-3552.988522,-13693.809927,-3983.696590
21153.026354,-1332.370696,-9548.656652,-306.438199
21153.026687,2664.741391,-9030.512492,6052.154434
21153.027020,4663.297435,-4811.338623,6128.763984
21153.027353,2368.659014,-5995.668130,7660.954980
21153.027686,5551.544565,-6957.935855,4826.401637
21153.028020,3478.967927,-6661.853478,2451.505594
21153.028353,4663.297435,-8512.368333,3524.039291
21153.028686,1406.391290,-9104.533087,-1072.533697
21153.029019,-2664.741391,-10288.862594,-5439.278036
21153.029352,-3923.091493,-11103.089130,-8503.660028
21153.029685,-4589.276840,-14359.995275,-6971.469032
21153.030018,-4145.153275,-12509.480420,-4903.011187
21153.030352,-74.020594,-13619.789333,3600.648841
21153.030685,3478.967927,-6661.853478,5056.230287
21153.031018,4737.318029,-6143.709319,9806.022374
21153.031351,5551.544565,-7698.141797,8503.660028
21153.031684,3775.050304,-4959.379811,4903.011187
21153.032017,1406.391290,-9400.615463,4060.306139
21153.032350,666.185348,-7772.162391,612.876398
21153.032684,-2442.679609,-8882.471304,-3140.991542
21153.033017,-4441.235652,-10140.821405,-5822.325785
21153.033350,-3775.050304,-9400.615463,-6511.811733
21153.033683,-3478.967927,-14211.954086,-4596.572988
21153.034016,-2590.720797,-10732.986159,-2068.457845
21153.034349,-1258.350101,-11843.295072,-76.609550
21153.034683,2294.638420,-7550.100608,2451.505594
21153.035016,1184.329507,-5551.544565,6205.373534
21153.035349,2516.700203,-6587.832884,5132.839837
21153.035682,5255.462188,-7698.141797,4366.744339
21153.036015,1702.473667,-9474.636058,4519.963438
21153.036348,2368.659014,-6143.709319,2374.896044
21153.036681,-370.102971,-9622.677246,-766.095498
21153.037015,-1258.350101,-10288.862594,-4749.792088
21153.037348,-3034.844362,-10658.965565,-6971.469032
21153.037681,-2664.741391,-13101.645173,-5745.716235
21153.038014,-3552.988522,-10732.986159,-1302.362347
21153.038347,-74.020594,-10362.883188,2374.896044
21153.038680,5551.544565,-7698.141797,4213.525239
21153.039014,1110.308913,-7698.141797,4673.182538
21153.039347,1406.391290,-7105.977043,1225.752797
21153.039680,2886.803174,-9992.780217,2374.896044
21153.040013,2072.576638,-7920.203579,3677.258390
21153.040346,1776.494261,-5995.668130,2451.505594
21153.040679,3182.885551,-9474.636058,0.000000
21153.041012,1998.556043,-12731.542202,-76.609550
21153.041346,-1554.432478,-9252.574275,-6971.469032
21153.041679,-2368.659014,-11917.315666,-4213.525239
21153.042012,-4145.153275,-10436.903782,-3370.820191
21153.042345,592.164754,-9992.780217,536.266849
21153.042678,1702.473667,-9400.615463,3907.087040
21153.043011,2442.679609,-5921.647536,2987.772442
21153.043344,3478.967927,-8882.471304,4519.963438
21153.043678,2294.638420,-8660.409521,3677.258390
21153.044011,3478.967927,-9474.636058,4213.525239
21153.044344,1998.556043,-3923.091493,0.000000
21153.044677,1184.329507,-11843.295072,-76.609550
21153.045010,-1258.350101,-9178.553681,-3447.429741
21153.045343,-2960.823768,-10510.924376,-4060.306139
21153.045677,-3034.844362,-12139.377449,-3753.867940
21153.046010,-3108.864956,-10807.006753,-2834.553343
21153.046343,-1184.329507,-10436.903782,1225.752797
21153.046676,2368.659014,-7772.162391,7277.907231
21153.047009,3478.967927,-5625.565159,1838.629195
21153.047342,2664.741391,-7772.162391,3677.258390
21153.047675,5847.626942,-9474.636058,2987.772442
21153.048009,2368.659014,-8956.491898,4290.134789
21153.048342,4441.235652,-8586.388927,3447.429741
21153.048675,-518.144159,-10436.903782,-689.485948
21153.049008,-2072.576638,-7994.224174,-4903.011187
21153.049341,-2886.803174,-12213.398043,-4443.353888
21153.049674,-3552.988522,-12139.377449,-1915.238745
21153.050007,-3923.091493,-8586.388927,-2528.115143
21153.050341,-2368.659014,-9548.656652,-1378.971896
21153.050674,1110.308913,-7920.203579,2528.115143
21153.051007,1702.473667,-6809.894666,1762.019645
21153.051340,4737.318029,-7179.997637,5669.106685
21153.051673,5921.647536,-12805.562797,9729.412825
21153.052006,2294.638420,-5403.503377,2451.505594
21153.052340,2664.741391,-9178.553681,2987.772442
21153.052673,-74.020594,-11547.212695,-1608.800546
21153.053006,-1702.473667,-9178.553681,-5515.887586
21153.053339,-3330.926739,-13323.706956,-4673.182538
21153.053672,-2812.782580,-12583.501014,-2528.115143
21153.054005,-6513.812290,-7772.162391,-3064.381992
21153.054338,-1776.494261,-7772.162391,2757.943793
21153.054672,1998.556043,-7105.977043,3294.210641
21153.055005,3182.885551,-4885.359217,1225.752797
21153.055338,1480.411884,-8956.491898,5132.839837
21153.055671,1998.556043,-7179.997637,306.438199
21153.056004,3552.988522,-7698.141797,4290.134789
21153.056337,3627.009116,-9326.594869,3600.648841
21153.056670,1406.391290,-9326.594869,-1608.800546
21153.057003,-3256.906145,-11029.068536,-4903.011187
21153.057336,-3552.988522,-15840.407159,-3753.867940
21153.057669,-4219.173869,-11325.150913,-5822.325785
21153.058003,-2368.659014,-8364.327145,0.000000
21153.058336,2664.741391,-8808.450710,4749.792088
21153.058669,2368.659014,-4811.338623,4903.011187
21153.059002,3478.967927,-6513.812290,3677.258390
21153.059335,3108.864956,-8216.285956,4596.572988
21153.059668,4663.297435,-7105.977043,1915.238745
21153.060001,3478.967927,-9474.636058,3294.210641
21153.060334,5329.482782,-11547.212695,3600.648841
21153.060667,-1406.391290,-8956.491898,-4903.011187
21153.061000,-1332.370696,-11843.295072,-4596.572988
21153.061333,-370.102971,-14211.954086,-4979.620737
21153.061666,-3034.844362,-12657.521608,-2068.457845
21153.061999,-1184.329507,-8216.285956,-1072.533697
21153.062332,222.061783,-9622.677246,2451.505594
21153.062665,296.082377,-7105.977043,3753.867940
21153.062999,0.000000,-3627.009116,2451.505594
21153.063332,2294.638420,-7698.141797,2451.505594
21153.063665,3552.988522,-6957.935855,6741.640382
21153.063998,5847.626942,-8290.306550,4213.525239
21153.064331,1184.329507,-7179.997637,2451.505594
21153.064664,-1850.514855,-11843.295072,-2528.115143
21153.064997,-4737.318029,-11917.315666,-7201.297681
21153.065330,-3256.906145,-13249.686362,-5592.497135
21153.065663,-3256.906145,-12139.377449,-3064.381992
21153.065996,-2368.659014,-8660.409521,0.000000
21153.066329,74.020594,-7328.038826,766.095498
21153.066662,2368.659014,-6883.915261,3140.991542
21153.066995,4219.173869,-6143.709319,3677.258390
21153.067328,5255.462188,-9918.759623,6665.030833
21153.067662,1850.514855,-6809.894666,4443.353888
21153.067995,3478.967927,-9474.636058,2374.896044
21153.068328,-2368.659014,-6587.832884,0.000000
21153.068661,-370.102971,-9474.636058,-4979.620737
21153.068994,-3404.947333,-10140.821405,-6741.640382
21153.069327,-4737.318029,-13101.645173,-3064.381992
21153.069660,-3923.091493,-10807.006753,-4136.915689
21153.069993,-1850.514855,-9770.718434,842.705048
21153.070326,0.000000,-8142.265362,1838.629195
21153.070659,2368.659014,-5403.503377,2451.505594
21153.070992,4663.297435,-5329.482782,1991.848295
21153.071325,1184.329507,-8364.327145,5515.887586
21153.071658,4589.276840,-9178.553681,4826.401637
21153.071991,3478.967927,-6957.935855,1149.143247
21153.072324,2368.659014,-9992.780217,2221.676944
21153.072658,-1332.370696,-9770.718434,-3753.867940
21153.072991,-2960.823768,-12139.377449,-5515.887586
21153.073324,-4441.235652,-13619.789333,-3753.867940
21153.073657,-1702.473667,-10066.800811,-76.609550
21153.073990,-1554.432478,-7179.997637,0.000000
21153.074323,-1628.453072,-7179.997637,0.000000
21153.074656,1998.556043,-9474.636058,-76.609550
21153.074989,0.000000,-5995.668130,2451.505594
21153.075322,4959.379811,-7698.141797,4826.401637
21153.075655,3330.926739,-7772.162391,4443.353888
21153.075988,4441.235652,-6883.915261,3064.381992
21153.076321,2738.761985,-9918.759623,689.485948
21153.076654,-1554.432478,-11547.212695,-4366.744339
21153.076987,-3256.906145,-10140.821405,-4903.011187
21153.077321,-3997.112087,-15544.324782,-1685.410096
21153.077654,-74.020594,-11843.295072,-1302.362347
21153.077987,-4145.153275,-7179.997637,0.000000
21153.078320,2294.638420,-8290.306550,2374.896044
21153.078653,2886.803174,-5921.647536,3830.477490
21153.078986,2220.617826,-5995.668130,4903.011187
21153.079319,1776.494261,-7254.018232,3064.381992
21153.079652,2294.638420,-8882.471304,2987.772442
21153.079985,2590.720797,-7698.141797,919.314598
21153.080318,-518.144159,-11621.233289,-2604.724693
21153.080651,-2294.638420,-11251.130318,-6435.202183
21153.080984,-5921.647536,-15470.304188,-3677.258390
21153.081317,-2442.679609,-12953.603985,-229.828649
21153.081650,-962.267725,-6291.750507,0.000000
21153.081983,-1406.391290,-6587.832884,2451.505594
21153.082317,2294.638420,-8290.306550,4213.525239
21153.082650,0.000000,-4811.338623,2451.505594
21153.082983,3849.070898,-6661.853478,4443.353888
21153.083316,592.164754,-7254.018232,2834.553343
21153.083649,888.247130,-8290.306550,1149.143247
21153.083982,2294.638420,-9326.594869,-76.609550
21153.084315,0.000000,-11843.295072,-1915.238745
21153.084648,-3552.988522,-10732.986159,-3677.258390
21153.084981,-2812.782580,-14063.912898,-1915.238745
21153.085314,-2442.679609,-12435.459826,-3753.867940
21153.085647,-666.185348,-10362.883188,612.876398
21153.085980,1110.308913,-7772.162391,1762.019645
21153.086313,2072.576638,-6365.771101,3830.477490
21153.086646,296.082377,-5551.544565,3140.991542
21153.086980,2146.597232,-5625.565159,2681.334243
21153.087313,4219.173869,-8290.306550,3907.087040
21153.087646,0.000000,-7772.162391,4903.011187
21153.087979,5551.544565,-8882.471304,-76.609550
21153.088312,-1184.329507,-9548.656652,-4903.011187
21153.088645,-222.061783,-14063.912898,-4979.620737
21153.088978,-3775.050304,-13101.645173,-4903.011187
21153.089311,-2886.803174,-12731.542202,-2834.553343
21153.089644,1110.308913,-9252.574275,842.705048
21153.089977,0.000000,-9844.739029,3064.381992
21153.090310,2294.638420,-4441.235652,383.047749
21153.090643,2368.659014,-7994.224174,6128.763984
21153.090976,5699.585753,-7994.224174,4519.963438
21153.091309,2368.659014,-4811.338623,3677.258390
21153.091642,2368.659014,-8364.327145,2757.943793
21153.091976,2664.741391,-7920.203579,536.266849
21153.092309,-1776.494261,-9992.780217,-3294.210641
21153.092642,-1036.288319,-12213.398043,-4136.915689
21153.092975,-2442.679609,-15396.283594,-3753.867940
21153.093308,-6143.709319,-9548.656652,-4903.011187
21153.093641,-814.226536,-11547.212695,-383.047749
21153.093974,-666.185348,-8290.306550,-76.609550
21153.094307,0.000000,-5699.585753,3907.087040
21153.094640,2368.659014,-7476.080014,3370.820191
21153.094973,3552.988522,-6143.709319,5439.278036
21153.095306,2368.659014,-5995.668130,4290.134789
21153.095639,3478.967927,-7920.203579,2987.772442
21153.095972,3478.967927,-9178.553681,1762.019645
21153.096305,-2368.659014,-9548.656652,-3524.039291
21153.096638,-1554.432478,-13027.624579,-6052.154434
21153.096972,-4367.215058,-14656.077652,-4596.572988
21153.097305,-3330.926739,-11177.109724,-3064.381992
21153.097638,1924.535449,-9326.594869,3294.210641
21153.097971,-1998.556043,-7179.997637,306.438199
21153.098304,-2368.659014,-5107.421000,1225.752797
21153.098637,2590.720797,-9178.553681,3600.648841
21153.098970,2072.576638,-5403.503377,3677.258390
21153.099303,4737.318029,-7328.038826,6511.811733
21153.099636,3923.091493,-9548.656652,4443.353888
21153.099969,2442.679609,-8364.327145,1225.752797
21153.100302,-1628.453072,-10436.903782,-2681.334243
21153.100635,518.144159,-12435.459826,-4213.525239
21153.100968,-3182.885551,-11917.315666,-3064.381992
21153.101301,-666.185348,-11251.130318,-76.609550
21153.101635,-74.020594,-9474.636058,-76.609550
21153.101968,-3552.988522,-7476.080014,306.438199
21153.102301,1702.473667,-6809.894666,-383.047749
21153.102634,-740.205942,-7254.018232,3600.648841
21153.102967,2590.720797,-5995.668130,3370.820191
21153.103300,1776.494261,-5699.585753,3600.648841
21153.103633,1480.411884,-6587.832884,2451.505594
21153.103966,0.000000,-5995.668130,1225.752797
21153.104299,-74.020594,-11843.295072,-2834.553343
21153.104632,-1258.350101,-12731.542202,-4979.620737
21153.104965,-6217.729913,-13101.645173,-4290.134789
21153.105298,-1554.432478,-9400.615463,-4136.915689
21153.105631,-370.102971,-11103.089130,-536.266849
21153.105964,-592.164754,-8290.306550,995.924147
21153.106297,1258.350101,-6587.832884,1532.190996
21153.106631,3552.988522,-7772.162391,7048.078582
21153.106964,5255.462188,-6513.812290,8503.660028
21153.107297,4663.297435,-5329.482782,2068.457845
21153.107630,1776.494261,-8956.491898,4443.353888
21153.107963,2664.741391,-9178.553681,-76.609550
21153.108296,1702.473667,-8364.327145,-4290.134789
21153.108629,-370.102971,-13471.748144,-2987.772442
21153.108962,-4145.153275,-12583.501014,-5898.935335
21153.109295,-2368.659014,-11695.253884,-2834.553343
21153.109628,-592.164754,-11473.192101,306.438199
21153.109961,0.000000,-9400.615463,459.657299
21153.110294,74.020594,-6883.915261,1072.533697
21153.110627,74.020594,-8512.368333,3753.867940
21153.110960,3182.885551,-5625.565159,5132.839837
21153.111294,2664.741391,-2442.679609,4673.182538
21153.111627,1184.329507,-7179.997637,5515.887586
21153.111960,4071.132681,-6513.812290,-995.924147
21153.112293,-666.185348,-12213.398043,-3064.381992
21153.112626,1702.473667,-11843.295072,-2834.553343
21153.112959,-3034.844362,-12731.542202,-4366.744339
21153.113292,-2220.617826,-11843.295072,-4366.744339
21153.113625,-1628.453072,-10955.047942,-1302.362347
21153.113958,-2664.741391,-10066.800811,-919.314598
21153.114291,1110.308913,-10658.965565,2374.896044
21153.114624,0.000000,-7179.997637,6894.859482
21153.114957,3478.967927,-3997.112087,3677.258390
21153.115290,4737.318029,-5403.503377,6741.640382
21153.115623,2664.741391,-6291.750507,3677.258390
21153.115956,1998.556043,-5847.626942,-1991.848295
21153.116290,-1110.308913,-11399.171507,-3830.477490
21153.116623,-444.123565,-13027.624579,-3907.087040
21153.116956,-3404.947333,-13027.624579,-4213.525239
21153.117289,-1554.432478,-9622.677246,-3140.991542
21153.117622,-74.020594,-13027.624579,-76.609550
21153.117955,1110.308913,-9474.636058,-689.485948
21153.118288,-1036.288319,-7179.997637,1532.190996
21153.118621,2368.659014,-9104.533087,6588.421283
21153.118954,3849.070898,-3034.844362,6128.763984
21153.119287,4589.276840,-5921.647536,6588.421283
21153.119620,4145.153275,-7328.038826,5362.668486
21153.119953,2664.741391,-5995.668130,-153.219100
21153.120286,-2072.576638,-12509.480420,-2451.505594
21153.120619,-74.020594,-13027.624579,-5592.497135
21153.120953,-5995.668130,-11547.212695,-6818.249932
21153.121286,-3552.988522,-10732.986159,-1838.629195
21153.121619,-1258.350101,-10066.800811,-689.485948
21153.121952,-3552.988522,-9030.512492,-2528.115143
21153.122285,-740.205942,-9622.677246,1072.533697
21153.122618,592.164754,-7328.038826,4060.306139
21153.122951,4737.318029,-6809.894666,7201.297681
21153.123284,7031.956449,-5921.647536,9729.412825
21153.123617,3478.967927,-6735.874072,0.000000
21153.123950,2368.659014,-8364.327145,1149.143247
21153.124283,3478.967927,-14211.954086,-76.609550
21153.124616,-666.185348,-13323.706956,-4366.744339
21153.124949,-2960.823768,-12435.459826,-1915.238745
21153.125282,-3404.947333,-12509.480420,-2604.724693
21153.125615,-2294.638420,-9770.718434,-995.924147
21153.125949,-1480.411884,-7846.182985,-842.705048
21153.126282,1036.288319,-9252.574275,3600.648841
21153.126615,518.144159,-6587.832884,4443.353888
21153.126948,3256.906145,-4367.215058,5669.106685
21153.127281,3404.947333,-5033.400406,5209.449386
21153.127614,888.247130,-7179.997637,0.000000
21153.127947,1184.329507,-9548.656652,-689.485948
21153.128280,-74.020594,-13323.706956,-2987.772442
21153.128613,-3256.906145,-10140.821405,-3064.381992
21153.128946,-3256.906145,-13619.789333,-2757.943793
21153.129279,-1850.514855,-11843.295072,-1915.238745
21153.129612,-1702.473667,-10584.944971,-536.266849
21153.129945,888.247130,-7105.977043,536.266849
21153.130278,592.164754,-9474.636058,4060.306139
21153.130612,2368.659014,-5107.421000,6128.763984
21153.130945,3552.988522,-5107.421000,9576.193725
21153.131278,4663.297435,-6217.729913,2987.772442
21153.131611,1184.329507,-5995.668130,0.000000
21153.131944,962.267725,-11251.130318,-1302.362347
21153.132277,-888.247130,-11621.233289,-4903.011187
21153.132610,-1924.535449,-11843.295072,-4060.306139
21153.132943,-592.164754,-12065.356855,-2604.724693
21153.133276,-1258.350101,-12361.439231,-459.657299
21153.133609,-74.020594,-9474.636058,-76.609550
21153.133942,-1776.494261,-9252.574275,3600.648841
21153.134275,-74.020594,-6365.771101,995.924147
21153.134608,1184.329507,-6143.709319,5515.887586
21153.134941,4663.297435,-6809.894666,7277.907231
21153.135274,4071.132681,-5921.647536,5975.544884
21153.135608,222.061783,-7772.162391,-612.876398
21153.135941,1702.473667,-8882.471304,-995.924147
21153.136274,-1850.514855,-12953.603985,-3140.991542
21153.136607,-888.247130,-10436.903782,-4673.182538
21153.136940,-148.041188,-14211.954086,-1915.238745
21153.137273,-2368.659014,-11325.150913,-2911.162892
21153.137606,0.000000,-7476.080014,1455.581446
21153.137939,-666.185348,-11251.130318,-383.047749
21153.138272,-666.185348,-7698.141797,-383.047749
21153.138605,0.000000,-7476.080014,3677.258390
21153.138938,4145.153275,-4663.297435,6128.763984
21153.139271,4737.318029,-5403.503377,5669.106685
21153.139604,2960.823768,-7772.162391,3677.258390
21153.139937,4367.215058,-8290.306550,-842.705048
21153.140270,-2368.659014,-13101.645173,-76.609550
21153.140604,-1184.329507,-10140.821405,-1608.800546
21153.140937,-2442.679609,-12435.459826,-4366.744339
21153.141270,-2146.597232,-10214.842000,-3524.039291
21153.141603,-3552.988522,-9548.656652,-2451.505594
21153.141936,-2146.597232,-9622.677246,-1072.533697
21153.142269,-1406.391290,-7994.224174,2145.067394
21153.142602,1184.329507,-6883.915261,4903.011187
21153.142935,4663.297435,-4145.153275,6128.763984
21153.143268,3034.844362,-5625.565159,5209.449386
21153.143601,1628.453072,-7328.038826,383.047749
21153.143934,1554.432478,-10732.986159,0.000000
21153.144267,0.000000,-11917.315666,0.000000
21153.144600,1110.308913,-10658.965565,-2834.553343
21153.144933,-962.267725,-9548.656652,-3064.381992
21153.145267,-1036.288319,-14211.954086,-1915.238745
21153.145600,-1258.350101,-11843.295072,-2528.115143
21153.145933,-4737.318029,-9548.656652,0.000000
21153.146266,-1998.556043,-6587.832884,229.828649
21153.146599,1406.391290,-6809.894666,3524.039291
21153.146932,4071.132681,-5773.606348,6971.469032
21153.147265,4515.256246,-5329.482782,6052.154434
21153.147598,3478.967927,-7105.977043,-536.266849
21153.147931,2368.659014,-11325.150913,612.876398
21153.148264,2146.597232,-13619.789333,-76.609550
21153.148597,740.205942,-8364.327145,-2911.162892
21153.148930,0.000000,-14063.912898,-995.924147
21153.149263,-2812.782580,-12509.480420,-4136.915689
21153.149596,-2812.782580,-10955.047942,-2681.334243
21153.149929,-1998.556043,-9770.718434,-1225.752797
21153.150263,-1258.350101,-9474.636058,842.705048
21153.150596,3182.885551,-4811.338623,1378.971896
21153.150929,3552.988522,-5477.523971,8503.660028
21153.151262,5255.462188,-5921.647536,7277.907231
21153.151595,1702.473667,-7254.018232,1072.533697
21153.151928,2294.638420,-10658.965565,1302.362347
21153.152261,74.020594,-9474.636058,-842.705048
21153.152594,592.164754,-10510.924376,-689.485948
21153.152927,-962.267725,-11399.171507,-3677.258390
21153.153260,-4737.318029,-12213.398043,-5515.887586
21153.153593,-4737.318029,-10732.986159,-6128.763984
21153.153926,-3404.947333,-12805.562797,-76.609550
21153.154259,-1554.432478,-7994.224174,0.000000
21153.154592,1554.432478,-4811.338623,3677.258390
21153.154926,4071.132681,-7105.977043,6665.030833
21153.155259,3404.947333,-4145.153275,3830.477490
21153.155592,2960.823768,-7920.203579,3140.991542
21153.155925,2960.823768,-8364.327145,2451.505594
21153.156258,0.000000,-10436.903782,0.000000
21153.156591,1036.288319,-9992.780217,-995.924147
21153.156924,-1184.329507,-12805.562797,-2911.162892
21153.157257,-2220.617826,-12361.439231,-4136.915689
21153.157590,-74.020594,-12287.418637,-1302.362347
21153.157923,-370.102971,-11843.295072,-1915.238745
21153.158257,-370.102971,-7402.059420,-1838.629195
21153.158590,1776.494261,-8068.244768,2451.505594
21153.158923,4737.318029,-7550.100608,7124.688131
21153.159256,4737.318029,-5255.462188,5209.449386
21153.159589,3627.009116,-8586.388927,2987.772442
21153.159922,1776.494261,-10362.883188,2451.505594
21153.160255,-74.020594,-9918.759623,536.266849
21153.160588,-74.020594,-7920.203579,-3064.381992
21153.160922,-3997.112087,-10732.986159,-1838.629195
21153.161255,-370.102971,-11547.212695,-4366.744339
21153.161588,-3034.844362,-11251.130318,-3983.696590
21153.161921,-4145.153275,-8364.327145,-2451.505594
21153.162254,-518.144159,-11547.212695,1762.019645
21153.162587,1850.514855,-9400.615463,3907.087040
21153.162920,3552.988522,-4367.215058,5515.887586
21153.163253,962.267725,-6735.874072,2911.162892
21153.163587,1480.411884,-8364.327145,1225.752797
21153.163920,-74.020594,-12731.542202,3294.210641
21153.164253,0.000000,-9548.656652,0.000000
21153.164586,2960.823768,-9992.780217,4213.525239
21153.164919,-666.185348,-11547.212695,-1608.800546
21153.165252,-2812.782580,-7179.997637,-4903.011187
21153.165585,-2738.761985,-10658.965565,-4443.353888
21153.165918,-2072.576638,-10436.903782,-3370.820191
21153.166251,-444.123565,-7328.038826,-536.266849
21153.166585,222.061783,-9770.718434,2221.676944
21153.166918,1628.453072,-5921.647536,2068.457845
21153.167251,1184.329507,-7772.162391,4060.306139
21153.167584,4071.132681,-11843.295072,2374.896044
21153.167917,2072.576638,-6883.915261,3677.258390
21153.168250,3701.029710,-10658.965565,4673.182538
21153.168583,3256.906145,-7476.080014,2451.505594
21153.168916,0.000000,-10288.862594,-842.705048
21153.169250,-666.185348,-10584.944971,-4136.915689
21153.169583,-1554.432478,-12065.356855,-2145.067394
21153.169916,-3552.988522,-8364.327145,-3677.258390
21153.170249,-74.020594,-9474.636058,-2528.115143
21153.170582,-666.185348,-9104.533087,919.314598
21153.170915,0.000000,-5107.421000,4290.134789
21153.171248,2072.576638,-7994.224174,2834.553343
21153.171581,1184.329507,-8956.491898,1991.848295
21153.171914,814.226536,-9992.780217,3140.991542
21153.172248,1998.556043,-8734.430116,2528.115143
21153.172581,2812.782580,-8364.327145,2681.334243
21153.172914,-1406.391290,-8364.327145,-1838.629195
21153.173247,962.267725,-9918.759623,-3064.381992
21153.173580,-1628.453072,-11029.068536,-2987.772442
21153.173913,-370.102971,-11547.212695,-3447.429741
21153.174246,-370.102971,-12435.459826,-383.047749
21153.174579,0.000000,-8734.430116,1838.629195
21153.174913,0.000000,-7772.162391,3677.258390
21153.175246,4071.132681,-7105.977043,1149.143247
21153.175579,0.000000,-8660.409521,3217.601092
21153.175912,3478.967927,-8808.450710,4826.401637
21153.176245,1850.514855,-7772.162391,3677.258390
21153.176578,1776.494261,-8142.265362,1455.581446
21153.176911,-814.226536,-8364.327145,-1378.971896
21153.177244,-3849.070898,-9548.656652,-6128.763984
21153.177578,-3627.009116,-10732.986159,-4903.011187
21153.177911,-2590.720797,-13471.748144,-3907.087040
21153.178244,-74.020594,-12435.459826,-76.609550
21153.178577,2294.638420,-8438.347739,1532.190996
21153.178910,1998.556043,-8290.306550,2987.772442
21153.179243,3256.906145,-7920.203579,4136.915689
21153.179576,2590.720797,-9400.615463,4060.306139
21153.179909,1924.535449,-8734.430116,3217.601092
21153.180242,888.247130,-8808.450710,3830.477490
21153.180576,74.020594,-5995.668130,1225.752797
21153.180909,-74.020594,-9474.636058,-2528.115143
21153.181242,-1184.329507,-7179.997637,-2451.505594
21153.181575,-3108.864956,-9844.739029,-3064.381992
21153.181908,-2812.782580,-9548.656652,-4903.011187
21153.182241,-2442.679609,-9770.718434,-2911.162892
21153.182574,-1258.350101,-10658.965565,-612.876398
21153.182907,518.144159,-7698.141797,842.705048
21153.183241,1702.473667,-10658.965565,2374.896044
21153.183574,592.164754,-9104.533087,3294.210641
21153.183907,3182.885551,-9474.636058,3600.648841
21153.184240,2664.741391,-5107.421000,6128.763984
21153.184573,5551.544565,-8882.471304,4519.963438
21153.184906,962.267725,-9178.553681,-689.485948
21153.185239,-1554.432478,-11769.274478,-3677.258390
21153.185572,-4441.235652,-11769.274478,-3600.648841
21153.185905,-1184.329507,-8882.471304,-3677.258390
21153.186239,-1776.494261,-7772.162391,-1838.629195
21153.186572,2294.638420,-10658.965565,-76.609550
21153.186905,-1776.494261,-8068.244768,0.000000
21153.187238,4663.297435,-12065.356855,6665.030833
21153.187571,962.267725,-7254.018232,1225.752797
21153.187904,3478.967927,-8142.265362,4826.401637
21153.188237,2886.803174,-8734.430116,4519.963438
21153.188570,1850.514855,-7994.224174,2145.067394
21153.188904,-1850.514855,-7994.224174,-2451.505594
21153.189237,-3997.112087,-9548.656652,-3983.696590
21153.189570,-962.267725,-9474.636058,-3294.210641
21153.189903,-2220.617826,-10881.027347,-995.924147
21153.190236,-1628.453072,-9622.677246,-153.219100
21153.190569,-2886.803174,-9474.636058,-995.924147
21153.190902,-1850.514855,-7254.018232,-2911.162892
21153.191235,1924.535449,-10658.965565,4826.401637
21153.191568,1702.473667,-7402.059420,919.314598
21153.191902,2368.659014,-7624.121203,5592.497135
21153.192235,2960.823768,-8290.306550,4903.011187
21153.192568,3330.926739,-7031.956449,1225.752797
21153.192901,1406.391290,-8808.450710,-153.219100
21153.193234,-1332.370696,-11843.295072,-2834.553343
21153.193567,-2812.782580,-11547.212695,-3370.820191
21153.193900,-2368.659014,-9548.656652,-3677.258390
21153.194233,-74.020594,-11843.295072,-1608.800546
21153.194567,-1110.308913,-8290.306550,-1302.362347
21153.194900,0.000000,-5995.668130,306.438199
21153.195233,4367.215058,-9474.636058,2987.772442
21153.195566,1184.329507,-7772.162391,2757.943793
21153.195899,4811.338623,-7476.080014,3830.477490
21153.196232,6069.688724,-8808.450710,3983.696590
21153.196565,6143.709319,-9178.553681,2068.457845
21153.196898,4145.153275,-12287.418637,-76.609550
21153.197232,5847.626942,-11843.295072,-3140.991542
21153.197565,0.000000,-11325.150913,-3677.258390
21153.197898,0.000000,-12509.480420,0.000000
21153.198231,3182.885551,-12435.459826,1149.143247
21153.198564,0.000000,-8364.327145,842.705048
21153.198897,0.000000,-7624.121203,919.314598
21153.199230,296.082377,-8956.491898,2604.724693
21153.199563,222.061783,-7031.956449,2987.772442
21153.199896,1702.473667,-5921.647536,4519.963438
21153.200230,1036.288319,-4811.338623,1608.800546
21153.200563,0.000000,-7328.038826,2987.772442
21153.200896,-666.185348,-9474.636058,-3294.210641
21153.201229,-4293.194464,-7179.997637,-6741.640382
21153.201562,-5625.565159,-13027.624579,-3140.991542
21153.201895,-3108.864956,-9844.739029,-3294.210641
21153.202228,-3923.091493,-11251.130318,-2068.457845
21153.202561,-740.205942,-8290.306550,-1685.410096
21153.202895,-666.185348,-11251.130318,1762.019645
21153.203228,74.020594,-8068.244768,3064.381992
21153.203561,444.123565,-8660.409521,3524.039291
21153.203894,2294.638420,-6809.894666,6052.154434
21153.204227,1776.494261,-7179.997637,4903.011187
21153.204560,0.000000,-6291.750507,2374.896044
21153.204893,2294.638420,-9178.553681,-2298.286494
21153.205226,-4737.318029,-12213.398043,-4903.011187
21153.205559,-1702.473667,-10510.924376,-1915.238745
21153.205893,-4441.235652,-10140.821405,-4903.011187
21153.206226,-3552.988522,-10881.027347,-2528.115143
21153.206559,-2516.700203,-8290.306550,-3140.991542
21153.206892,0.000000,-10140.821405,919.314598
21153.207225,4663.297435,-8216.285956,5745.716235
21153.207558,1110.308913,-5995.668130,6052.154434
21153.207891,5847.626942,-5477.523971,3064.381992
21153.208224,2368.659014,-8512.368333,6205.373534
21153.208558,4663.297435,-8882.471304,-76.609550
21153.208891,-592.164754,-12361.439231,-919.314598
21153.209224,-1184.329507,-10584.944971,-2757.943793
21153.209557,-1776.494261,-11769.274478,-3677.258390
21153.209890,370.102971,-8882.471304,0.000000
21153.210223,444.123565,-9474.636058,-2451.505594
21153.210556,-2368.659014,-9548.656652,-1378.971896
21153.210889,0.000000,-8364.327145,-2451.505594
21153.211223,0.000000,-10436.903782,3600.648841
21153.211556,4663.297435,-6217.729913,2374.896044
21153.211889,2886.803174,-9992.780217,4519.963438
21153.212222,4071.132681,-8290.306550,4213.525239
21153.212555,2220.617826,-7105.977043,2451.505594
21153.212888,1036.288319,-10584.944971,0.000000
21153.213221,-592.164754,-8364.327145,-2221.676944
21153.213554,-666.185348,-13619.789333,-383.047749
21153.213887,-3256.906145,-8956.491898,-919.314598
21153.214221,-1184.329507,-10510.924376,-76.609550
21153.214554,-2442.679609,-8808.450710,-5975.544884
21153.214887,0.000000,-8364.327145,0.000000
21153.215220,-1850.514855,-8956.491898,766.095498
21153.215553,814.226536,-7476.080014,1378.971896
21153.215886,2664.741391,-9548.656652,5975.544884
21153.216219,3182.885551,-6587.832884,4136.915689
21153.216552,3775.050304,-3478.967927,229.828649
21153.216886,0.000000,-11917.315666,2374.896044
21153.217219,1110.308913,-8142.265362,-2068.457845
21153.217552,-74.020594,-10955.047942,-1225.752797
21153.217885,0.000000,-8364.327145,-1225.752797
21153.218218,-1850.514855,-8512.368333,-3217.601092
21153.218551,-3330.926739,-8882.471304,-5592.497135
21153.218884,-962.267725,-11177.109724,-3064.381992
21153.219217,-3627.009116,-11695.253884,-612.876398
21153.219550,2886.803174,-6809.894666,76.609550
21153.219884,3775.050304,-9030.512492,7048.078582
21153.220217,4959.379811,-5329.482782,4903.011187
21153.220550,4663.297435,-7105.977043,3600.648841
21153.220883,2664.741391,-9918.759623,4366.744339
21153.221216,2294.638420,-7402.059420,-2987.772442
21153.221549,-2368.659014,-10732.986159,-4290.134789
21153.221882,592.164754,-11843.295072,-842.705048
21153.222215,-4811.338623,-9992.780217,-6511.811733
21153.222549,-4441.235652,-10140.821405,-4903.011187
21153.222882,-1332.370696,-11547.212695,-689.485948
21153.223215,1184.329507,-8364.327145,3064.381992
21153.223548,2146.597232,-8734.430116,5592.497135
21153.223881,5551.544565,-7105.977043,7890.783629
21153.224214,2886.803174,-5921.647536,2374.896044
21153.224547,2368.659014,-6587.832884,3907.087040
21153.224880,3478.967927,-11843.295072,-76.609550
21153.225213,-3627.009116,-10288.862594,-4213.525239
21153.225547,-74.020594,-8956.491898,-1455.581446
21153.225880,-2812.782580,-12065.356855,-4673.182538
21153.226213,-1036.288319,-8364.327145,-5669.106685
21153.226546,-2960.823768,-13397.727550,-3064.381992
21153.226879,-1628.453072,-9548.656652,-1838.629195
21153.227212,1110.308913,-9548.656652,0.000000
21153.227545,2368.659014,-6587.832884,7201.297681
21153.227878,5847.626942,-7105.977043,5745.716235
21153.228212,2294.638420,-5995.668130,2757.943793
21153.228545,3997.112087,-7105.977043,3600.648841
21153.228878,0.000000,-10881.027347,1991.848295
21153.229211,592.164754,-7920.203579,-766.095498
21153.229544,-4071.132681,-10436.903782,-3753.867940
21153.229877,-3552.988522,-12213.398043,-5822.325785
21153.230210,-5773.606348,-8956.491898,-6741.640382
21153.230543,-2368.659014,-12805.562797,-1608.800546
21153.230877,-1258.350101,-10658.965565,-76.609550
21153.231210,-1184.329507,-7179.997637,2451.505594
21153.231543,2368.659014,-7476.080014,4903.011187
21153.231876,4367.215058,-6365.771101,7277.907231
21153.232209,4145.153275,-5699.585753,5439.278036
21153.232542,370.102971,-9030.512492,2604.724693
21153.232875,1110.308913,-8882.471304,-76.609550
21153.233208,-4737.318029,-11621.233289,-1991.848295
21153.233541,-1850.514855,-8364.327145,-4290.134789
21153.233875,-2738.761985,-7772.162391,-6128.763984
21153.234208,-1184.329507,-11843.295072,-3447.429741
21153.234541,222.061783,-10732.986159,-3294.210641
21153.234874,0.000000,-12583.501014,1915.238745
21153.235207,3923.091493,-5921.647536,3753.867940
21153.235540,3775.050304,-9104.533087,4213.525239
21153.235873,5847.626942,-9474.636058,6052.154434
21153.236206,2072.576638,-7698.141797,1762.019645
21153.236540,1924.535449,-9548.656652,995.924147
21153.236873,518.144159,-9474.636058,842.705048
21153.237206,-74.020594,-9622.677246,153.219100
21153.237539,1110.308913,-8290.306550,1762.019645
21153.237872,-4737.318029,-9548.656652,-3677.258390
21153.238205,-3404.947333,-9474.636058,-4060.306139
21153.238538,-4811.338623,-9548.656652,-5515.887586
21153.238871,-4737.318029,-8364.327145,-1532.190996
21153.239204,1702.473667,-7994.224174,2834.553343
21153.239538,2220.617826,-8586.388927,3064.381992
21153.239871,4071.132681,-8438.347739,3907.087040
21153.240204,1776.494261,-7920.203579,2451.505594
21153.240537,3478.967927,-9178.553681,1762.019645
21153.240870,296.082377,-8956.491898,2068.457845
21153.241203,2294.638420,-13027.624579,-689.485948
21153.241536,-2072.576638,-9548.656652,612.876398
21153.241869,-148.041188,-9030.512492,-1991.848295
21153.242203,-1258.350101,-6883.915261,-6435.202183
21153.242536,-148.041188,-11843.295072,-1915.238745
21153.242869,1554.432478,-9474.636058,1991.848295
21153.243202,2294.638420,-7994.224174,2911.162892
21153.243535,2960.823768,-6291.750507,2451.505594
21153.243868,3849.070898,-10658.965565,4826.401637
21153.244201,2886.803174,-6883.915261,0.000000
21153.244534,0.000000,-8364.327145,1838.629195
21153.244868,2146.597232,-11843.295072,-2528.115143
21153.245201,0.000000,-10140.821405,-1838.629195
21153.245534,-296.082377,-10362.883188,-2145.067394
21153.245867,0.000000,-9252.574275,-2221.676944
21153.246200,-592.164754,-9252.574275,-2068.457845
21153.246533,-222.061783,-10584.944971,919.314598
21153.246866,-74.020594,-11547.212695,2374.896044
21153.247199,0.000000,-7179.997637,4903.011187
21153.247532,4367.215058,-7550.100608,8503.660028
21153.247866,2886.803174,-8290.306550,2068.457845
21153.248199,1184.329507,-6735.874072,2757.943793
21153.248532,518.144159,-9474.636058,1225.752797
21153.248865,-1628.453072,-10732.986159,-1915.238745
21153.249198,-3108.864956,-10955.047942,-1302.362347
21153.249531,-4663.297435,-11547.212695,-2451.505594
21153.249864,-2294.638420,-6735.874072,-3830.477490
21153.250197,-4885.359217,-10807.006753,-2451.505594
21153.250531,-1110.308913,-6957.935855,-689.485948
21153.250864,-3627.009116,-8734.430116,0.000000
21153.251197,0.000000,-3034.844362,4290.134789
21153.251530,3330.926739,-9474.636058,4826.401637
21153.251863,-1036.288319,-5477.523971,0.000000
21153.252196,592.164754,-7179.997637,1225.752797
21153.252529,-1850.514855,-11547.212695,-76.609550
21153.252862,2072.576638,-8068.244768,0.000000
21153.253195,-1554.432478,-11695.253884,-919.314598
21153.253529,-1184.329507,-11029.068536,-3217.601092
21153.253862,-4737.318029,-8660.409521,-3677.258390
21153.254195,-74.020594,-10362.883188,-4903.011187
21153.254528,1110.308913,-11843.295072,-76.609550
21153.254861,-666.185348,-7328.038826,2451.505594
21153.255194,1406.391290,-3627.009116,4290.134789
21153.255527,3108.864956,-6143.709319,6128.763984
21153.255860,4737.318029,-6735.874072,4749.792088
21153.256194,2294.638420,-7550.100608,2068.457845
21153.256527,-740.205942,-9696.697840,-1302.362347
21153.256860,1702.473667,-12435.459826,-1302.362347
21153.257193,-1998.556043,-10732.986159,0.000000
21153.257526,-74.020594,-11843.295072,-3753.867940
21153.257859,-1480.411884,-8956.491898,-4903.011187
21153.258192,-1184.329507,-12953.603985,-1532.190996
21153.258525,-74.020594,-11547.212695,-383.047749
21153.258858,1776.494261,-8216.285956,4673.182538
21153.259192,5329.482782,-6365.771101,6435.202183
21153.259525,4885.359217,-7179.997637,6128.763984
21153.259858,4145.153275,-7179.997637,3600.648841
21153.260191,1184.329507,-9548.656652,2451.505594
21153.260524,518.144159,-7994.224174,0.000000
21153.260857,0.000000,-9548.656652,306.438199
21153.261190,814.226536,-10658.965565,-76.609550
21153.261523,-4219.173869,-9474.636058,-5132.839837
21153.261857,-3330.926739,-10066.800811,-5669.106685
21153.262190,-5699.585753,-9844.739029,-5132.839837
21153.262523,-3404.947333,-9918.759623,-1455.581446
21153.262856,-2072.576638,-7772.162391,3140.991542
21153.263189,2886.803174,-8290.306550,4826.401637
21153.263522,888.247130,-4219.173869,3064.381992
21153.263855,3478.967927,-8290.306550,4826.401637
21153.264188,4663.297435,-7179.997637,306.438199
21153.264521,1628.453072,-7846.182985,2681.334243
21153.264855,4663.297435,-11843.295072,229.828649
21153.265188,74.020594,-11399.171507,-1378.971896
21153.265521,-2590.720797,-11473.192101,-5515.887586
21153.265854,-1702.473667,-10288.862594,-6281.983084
21153.266187,-222.061783,-11251.130318,-4366.744339
21153.266520,-1776.494261,-11621.233289,-153.219100
21153.266853,2368.659014,-7105.977043,4443.353888
21153.267186,5255.462188,-5995.668130,7048.078582
21153.267520,4293.194464,-4811.338623,3217.601092
21153.267853,4293.194464,-8438.347739,4826.401637
21153.268186,2886.803174,-9474.636058,1149.143247
21153.268519,0.000000,-9548.656652,919.314598
21153.268852,1110.308913,-11251.130318,-1608.800546
21153.269185,-962.267725,-11325.150913,-5669.106685
21153.269518,-2812.782580,-11029.068536,-4366.744339
21153.269851,-2072.576638,-9992.780217,-5209.449386
21153.270184,-3552.988522,-11029.068536,-1991.848295
21153.270518,-2812.782580,-9548.656652,1838.629195
21153.270851,2664.741391,-8882.471304,5439.278036
21153.271184,1628.453072,-5995.668130,6435.202183
21153.271517,1184.329507,-3627.009116,6205.373534
21153.271850,4959.379811,-8586.388927,3907.087040
21153.272183,1184.329507,-5995.668130,1225.752797
21153.272516,-666.185348,-11991.336260,-459.657299
21153.272849,-1776.494261,-11621.233289,-842.705048
21153.273183,-3034.844362,-11029.068536,-5362.668486
21153.273516,-2442.679609,-12435.459826,-5286.058936
21153.273849,-666.185348,-13619.789333,-3753.867940
21153.274182,-5329.482782,-8364.327145,-1225.752797
21153.274515,-2960.823768,-7920.203579,0.000000
21153.274848,1036.288319,-7698.141797,5439.278036
21153.275181,3997.112087,-7179.997637,8197.221829
21153.275514,2960.823768,-4737.318029,4213.525239
21153.275847,2886.803174,-9474.636058,2374.896044
21153.276181,814.226536,-8808.450710,1072.533697
21153.276514,1184.329507,-7179.997637,0.000000
21153.276847,1702.473667,-11251.130318,-1608.800546
21153.277180,-2368.659014,-10140.821405,-4290.134789
21153.277513,-3478.967927,-13471.748144,-4979.620737
21153.277846,-666.185348,-13027.624579,-3753.867940
21153.278179,-3701.029710,-11251.130318,-1608.800546
21153.278512,-1554.432478,-9178.553681,2681.334243
21153.278845,1776.494261,-4959.379811,6358.592633
21153.279179,3923.091493,-5847.626942,7507.735880
21153.279512,5329.482782,-4441.235652,5209.449386
21153.279845,0.000000,-7179.997637,3064.381992
21153.280178,1480.411884,-8290.306550,-76.609550
21153.280511,-1258.350101,-7624.121203,-3677.258390
21153.280844,-1184.329507,-11917.315666,-1225.752797
21153.281177,-1998.556043,-8882.471304,-4366.744339
21153.281510,-4367.215058,-13471.748144,-6818.249932
21153.281844,-962.267725,-11917.315666,-4060.306139
21153.282177,-3701.029710,-12879.583391,-1915.238745
21153.282510,1184.329507,-9918.759623,1838.629195
21153.282843,2368.659014,-6143.709319,6128.763984
21153.283176,4589.276840,-7328.038826,5515.887586
21153.283509,5699.585753,-5033.400406,5362.668486
21153.283842,2590.720797,-7698.141797,3370.820191
21153.284175,2960.823768,-7179.997637,153.219100
21153.284508,2294.638420,-9474.636058,-1302.362347
21153.284842,1184.329507,-11917.315666,1762.019645
21153.285175,-1258.350101,-10362.883188,-4979.620737
21153.285508,-2442.679609,-12435.459826,-4979.620737
21153.285841,-3552.988522,-10288.862594,-4136.915689
21153.286174,-4367.215058,-10881.027347,-2911.162892
21153.286507,-1924.535449,-8216.285956,612.876398
21153.286840,-444.123565,-7994.224174,4826.401637
21153.287173,2886.803174,-5921.647536,4826.401637
21153.287507,1776.494261,-3627.009116,4290.134789
21153.287840,2368.659014,-8364.327145,6052.154434
21153.288173,4071.132681,-5773.606348,766.095498
21153.288506,0.000000,-7476.080014,1225.752797
21153.288839,5551.544565,-10658.965565,-1302.362347
21153.289172,-962.267725,-12139.377449,-4519.963438
21153.289505,-1776.494261,-12509.480420,-5209.449386
21153.289838,-1036.288319,-11843.295072,-5898.935335
21153.290171,-2442.679609,-12435.459826,-2068.457845
21153.290505,0.000000,-8364.327145,3677.258390
21153.290838,4663.297435,-5921.647536,6665.030833
21153.291171,6439.791695,-5107.421000,4903.011187
21153.291504,4737.318029,-5995.668130,7967.393179
21153.291837,4663.297435,-7105.977043,3447.429741
21153.292170,888.247130,-6587.832884,306.438199
21153.292503,1998.556043,-9844.739029,459.657299
21153.292836,666.185348,-11251.130318,-2374.896044
21153.293170,-3256.906145,-10140.821405,-7354.516781
21153.293503,-5921.647536,-12805.562797,-6358.592633
21153.293836,-3034.844362,-13619.789333,-6205.373534
21153.294169,-4737.318029,-9548.656652,-3370.820191
21153.294502,592.164754,-10510.924376,5439.278036
21153.294835,1110.308913,-6291.750507,5515.887586
21153.295168,3478.967927,-4737.318029,5132.839837
21153.295501,4663.297435,-5551.544565,5132.839837
21153.295834,4145.153275,-7772.162391,4366.744339
21153.296168,2368.659014,-9548.656652,2451.505594
21153.296501,666.185348,-10510.924376,1762.019645
21153.296834,0.000000,-10584.944971,-3064.381992
21153.297167,-4959.379811,-12879.583391,-5975.544884
21153.297500,-3034.844362,-12435.459826,-6818.249932
21153.297833,-5995.668130,-10140.821405,-6741.640382
21153.298166,-6365.771101,-10288.862594,-766.095498
21153.298499,-1776.494261,-7772.162391,5362.668486
21153.298832,-666.185348,-8142.265362,5745.716235
21153.299166,4367.215058,-3256.906145,8197.221829
21153.299499,296.082377,-5921.647536,5669.106685
21153.299832,2072.576638,-5995.668130,3217.601092
21153.300165,2294.638420,-6809.894666,2987.772442
21153.300498,0.000000,-8364.327145,-1225.752797
21153.300831,1702.473667,-11325.150913,-5822.325785
21153.301164,-3849.070898,-15988.448347,-7431.126331
21153.301497,-1924.535449,-11917.315666,-7584.345430
21153.301831,-3330.926739,-12805.562797,-4903.011187
21153.302164,-2368.659014,-8364.327145,0.000000
21153.302497,-370.102971,-7402.059420,3140.991542
21153.302830,3923.091493,-7105.977043,6358.592633
21153.303163,4737.318029,-3627.009116,9499.584175
21153.303496,4663.297435,-6439.791695,7431.126331
21153.303829,3478.967927,-4811.338623,1532.190996
21153.304162,2294.638420,-11251.130318,-76.609550
21153.304495,1628.453072,-7772.162391,0.000000
21153.304829,-74.020594,-12435.459826,-1838.629195
21153.305162,-1406.391290,-11843.295072,-7431.126331
21153.305495,-3108.864956,-14730.098246,-6281.983084
21153.305828,-2442.679609,-13471.748144,-3753.867940
21153.306161,888.247130,-9622.677246,-1838.629195
21153.306494,0.000000,-8660.409521,995.924147
21153.306827,4737.318029,-8956.491898,5439.278036
21153.307160,3182.885551,-4811.338623,4903.011187
21153.307494,2368.659014,-4811.338623,7967.393179
21153.307827,5255.462188,-7698.141797,4826.401637
21153.308160,2590.720797,-5995.668130,2757.943793
21153.308493,4663.297435,-7698.141797,2374.896044
21153.308826,148.041188,-10214.842000,-1838.629195
21153.309159,-2220.617826,-9844.739029,-7967.393179
21153.309492,-7402.059420,-14878.139434,-7354.516781
21153.309825,-3627.009116,-10362.883188,-6205.373534
21153.310158,-4145.153275,-11917.315666,1455.581446
21153.310492,-1258.350101,-8882.471304,2987.772442
21153.310825,-74.020594,-3034.844362,1838.629195
21153.311158,0.000000,-4811.338623,4903.011187
21153.311491,3478.967927,-2812.782580,3294.210641
21153.311824,296.082377,-7624.121203,4213.525239
21153.312157,3404.947333,-6587.832884,3447.429741
21153.312490,1998.556043,-9252.574275,1685.410096
21153.312823,1110.308913,-10066.800811,-4979.620737
21153.313156,518.144159,-10955.047942,-5745.716235
21153.313490,-2960.823768,-14359.995275,-5745.716235
21153.313823,-1628.453072,-11917.315666,-4673.182538
21153.314156,-2072.576638,-12583.501014,0.000000
21153.314489,1110.308913,-10066.800811,-76.609550
21153.314822,1776.494261,-5107.421000,2911.162892
21153.315155,4737.318029,-5995.668130,8580.269578
21153.315488,6439.791695,-4441.235652,6665.030833
21153.315821,1850.514855,-5107.421000,5515.887586
21153.316155,3775.050304,-6439.791695,3140.991542
21153.316488,2294.638420,-9770.718434,995.924147
21153.316821,592.164754,-9844.739029,-3447.429741
21153.317154,-1850.514855,-14804.118840,-6511.811733
21153.317487,-3627.009116,-14211.954086,-8963.317327
21153.317820,-6513.812290,-13101.645173,-3830.477490
21153.318153,-2368.659014,-12361.439231,-76.609550
21153.318486,-666.185348,-9474.636058,1455.581446
21153.318819,592.164754,-5107.421000,5209.449386
21153.319153,3775.050304,-5625.565159,5898.935335
21153.319486,3923.091493,-4589.276840,6741.640382
21153.319819,3627.009116,-7105.977043,5669.106685
21153.320152,3997.112087,-7105.977043,4826.401637
21153.320485,3330.926739,-8882.471304,-689.485948
21153.320818,0.000000,-10732.986159,-2528.115143
21153.321151,-3330.926739,-13323.706956,-7431.126331
21153.321484,-4811.338623,-13323.706956,-8810.098227
21153.321818,-4811.338623,-13027.624579,-4979.620737
21153.322151,-2738.761985,-11251.130318,-689.485948
21153.322484,-2294.638420,-9770.718434,2374.896044
21153.322817,-888.247130,-6143.709319,3753.867940
21153.323150,592.164754,-4219.173869,6281.983084
21153.323483,2886.803174,-2146.597232,4903.011187
21153.323816,2368.659014,-5699.585753,7814.174080
21153.324149,5551.544565,-6513.812290,2528.115143
21153.324482,1184.329507,-9548.656652,0.000000
21153.324816,0.000000,-10436.903782,-5898.935335
21153.325149,-3256.906145,-14359.995275,-8120.612279
21153.325482,-5107.421000,-14878.139434,-7660.954980
21153.325815,-2368.659014,-12509.480420,-3140.991542
21153.326148,1702.473667,-11843.295072,2374.896044
21153.326481,0.000000,-7772.162391,5056.230287
21153.326814,2294.638420,-4737.318029,4596.572988
21153.327147,4663.297435,-2442.679609,4903.011187
21153.327481,4885.359217,-6291.750507,9729.412825
21153.327814,3256.906145,-5551.544565,4826.401637
21153.328147,3627.009116,-7105.977043,2374.896044
21153.328480,-592.164754,-9844.739029,-2298.286494
21153.328813,592.164754,-10955.047942,-5975.544884
21153.329146,-1850.514855,-14211.954086,-6205.373534
21153.329479,-4737.318029,-13693.809927,-7277.907231
21153.329812,-2738.761985,-11917.315666,-4673.182538
21153.330145,-370.102971,-11621.233289,995.924147
21153.330479,444.123565,-7846.182985,2451.505594
21153.330812,3108.864956,-7105.977043,5515.887586
21153.331145,3552.988522,-3997.112087,4903.011187
21153.331478,6439.791695,-7105.977043,7277.907231
21153.331811,3552.988522,-4811.338623,6128.763984
21153.332144,2960.823768,-5403.503377,3064.381992
21153.332477,2590.720797,-10362.883188,-995.924147
21153.332810,666.185348,-11843.295072,-5439.278036
21153.333143,-4145.153275,-16358.551318,-6358.592633
21153.333477,-4071.132681,-14508.036463,-7584.345430
21153.333810,-2590.720797,-11843.295072,-3753.867940
21153.334143,0.000000,-9696.697840,995.924147
21153.334476,592.164754,-9474.636058,5439.278036
21153.334809,1110.308913,-4811.338623,2604.724693
21153.335142,1184.329507,-4219.173869,7354.516781
21153.335475,2294.638420,-4663.297435,4903.011187
21153.335808,2368.659014,-5847.626942,4749.792088
21153.336142,1924.535449,-8290.306550,3677.258390
21153.336475,444.123565,-9030.512492,-1225.752797
21153.336808,-2960.823768,-10732.986159,-5822.325785
21153.337141,-1776.494261,-17172.777854,-4979.620737
21153.337474,-4811.338623,-14137.933492,-5592.497135
21153.337807,-1258.350101,-8364.327145,-3677.258390
21153.338140,-74.020594,-12435.459826,1149.143247
21153.338473,0.000000,-7476.080014,2834.553343
21153.338806,962.267725,-6735.874072,4290.134789
21153.339140,1258.350101,-5625.565159,5975.544884
21153.339473,3775.050304,-5921.647536,6665.030833
21153.339806,2590.720797,-7105.977043,5745.716235
21153.340139,3182.885551,-5921.647536,229.828649
21153.340472,0.000000,-8956.491898,919.314598
21153.340805,1406.391290,-11843.295072,-3753.867940
21153.341138,-2442.679609,-11251.130318,-7890.783629
21153.341471,-7105.977043,-14285.974681,-4366.744339
21153.341805,-2294.638420,-10732.986159,-4060.306139
21153.342138,-3182.885551,-12435.459826,-995.924147
21153.342471,-444.123565,-6587.832884,0.000000
21153.342804,2294.638420,-8290.306550,4826.401637
21153.343137,2294.638420,-5847.626942,7354.516781
21153.343470,4663.297435,-2146.597232,5745.716235
21153.343803,3849.070898,-7550.100608,5822.325785
21153.344136,3701.029710,-7772.162391,2451.505594
21153.344469,592.164754,-9548.656652,0.000000
21153.344803,2294.638420,-13027.624579,-5286.058936
21153.345136,-3997.112087,-10732.986159,-9806.022374
21153.345469,-3256.906145,-14285.974681,-4366.744339
21153.345802,-1258.350101,-10140.821405,-2221.676944
21153.346135,-888.247130,-10288.862594,0.000000
21153.346468,-2664.741391,-9104.533087,383.047749
21153.346801,888.247130,-5995.668130,5209.449386
21153.347134,2960.823768,-5477.523971,9499.584175
21153.347468,4663.297435,-2146.597232,8810.098227
21153.347801,4663.297435,-4145.153275,3830.477490
21153.348134,1776.494261,-8216.285956,2987.772442
21153.348467,4663.297435,-10658.965565,-76.609550
21153.348800,0.000000,-12509.480420,-4290.134789
21153.349133,-3256.906145,-14211.954086,-5286.058936
21153.349466,-3701.029710,-12583.501014,-5132.839837
21153.349799,-1776.494261,-12213.398043,-3064.381992
21153.350132,962.267725,-10658.965565,-76.609550
21153.350466,0.000000,-7179.997637,1225.752797
21153.350799,370.102971,-5921.647536,1455.581446
21153.351132,296.082377,-4811.338623,5822.325785
21153.351465,4071.132681,-6513.812290,6052.154434
21153.351798,4071.132681,-5921.647536,5898.935335
21153.352131,2516.700203,-7402.059420,2681.334243
21153.352464,1776.494261,-8068.244768,-919.314598
21153.352797,1110.308913,-11103.089130,-4060.306139
21153.353130,-3182.885551,-13693.809927,-5286.058936
21153.353464,-1850.514855,-14063.912898,-3140.991542
21153.353797,-2960.823768,-11325.150913,-1838.629195
21153.354130,-2368.659014,-10140.821405,0.000000
21153.354463,-74.020594,-9474.636058,-76.609550
21153.354796,0.000000,-5403.503377,1225.752797
21153.355129,3182.885551,-5625.565159,3907.087040
21153.355462,3775.050304,-6439.791695,7201.297681
21153.355795,3404.947333,-6513.812290,6358.592633
21153.356129,2960.823768,-7402.059420,2681.334243
21153.356462,1702.473667,-9474.636058,-1608.800546
21153.356795,0.000000,-11917.315666,-995.924147
21153.357128,-4219.173869,-15100.201217,-995.924147
21153.357461,-222.061783,-9474.636058,-2681.334243
21153.357794,-3552.988522,-7772.162391,-2451.505594
21153.358127,-814.226536,-8586.388927,-1685.410096
21153.358460,-666.185348,-7550.100608,-995.924147
21153.358793,-1406.391290,-7550.100608,1608.800546
21153.359127,888.247130,-6291.750507,2604.724693
21153.359460,-74.020594,-8882.471304,3447.429741
21153.359793,2368.659014,-6809.894666,2681.334243
21153.360126,962.267725,-8364.327145,766.095498
21153.360459,1850.514855,-9474.636058,-1532.190996
21153.360792,0.000000,-11917.315666,0.000000
21153.361125,-1554.432478,-12731.542202,-2068.457845
21153.361459,-1628.453072,-7476.080014,-3677.258390
21153.361792,-74.020594,-11251.130318,-383.047749
21153.362125,2368.659014,-9474.636058,1532.190996
21153.362458,0.000000,-7179.997637,2451.505594
21153.362791,2294.638420,-4811.338623,0.000000
21153.363124,1184.329507,-7476.080014,2911.162892
21153.363457,2220.617826,-7772.162391,2987.772442
21153.363790,3478.967927,-11103.089130,2374.896044
21153.364124,2294.638420,-11843.295072,-383.047749
21153.364457,0.000000,-9844.739029,612.876398
21153.364790,592.164754,-13693.809927,1762.019645
21153.365123,-666.185348,-9178.553681,-2451.505594
21153.365456,0.000000,-8364.327145,1991.848295
21153.365789,1998.556043,-8068.244768,1072.533697
21153.366122,1110.308913,-7476.080014,919.314598
21153.366456,-1332.370696,-7994.224174,-919.314598
21153.366789,-1702.473667,-7624.121203,-919.314598
21153.367122,1406.391290,-7698.141797,536.266849
21153.367455,2368.659014,-10362.883188,6052.154434
21153.367788,1702.473667,-7105.977043,0.000000
21153.368121,592.164754,-8956.491898,0.000000
21153.368454,1110.308913,-12435.459826,-76.609550
21153.368787,518.144159,-11473.192101,-1225.752797
21153.369121,-2220.617826,-10955.047942,-1072.533697
21153.369454,962.267725,-8660.409521,0.000000
21153.369787,-1184.329507,-9548.656652,612.876398
21153.370120,-1258.350101,-7772.162391,-1838.629195
21153.370453,-2368.659014,-7328.038826,-76.609550
21153.370786,-2442.679609,-9474.636058,-76.609550
21153.371119,0.000000,-6809.894666,2374.896044
21153.371453,0.000000,-5403.503377,3064.381992
21153.371786,1110.308913,-8882.471304,1762.019645
21153.372119,1110.308913,-7328.038826,-1072.533697
21153.372452,592.164754,-9992.780217,-1685.410096
21153.372785,2886.803174,-11843.295072,-76.609550
21153.373118,-3552.988522,-9844.739029,-306.438199
21153.373451,-74.020594,-10658.965565,-689.485948
21153.373784,-74.020594,-8068.244768,-2145.067394
21153.374118,296.082377,-9844.739029,2374.896044
21153.374451,296.082377,-5995.668130,0.000000
21153.374784,2220.617826,-7920.203579,2681.334243
21153.375117,2294.638420,-7624.121203,4290.134789
21153.375450,3923.091493,-7994.224174,4366.744339
21153.375783,4663.297435,-8882.471304,4213.525239
21153.376116,2368.659014,-7772.162391,1072.533697
21153.376450,296.082377,-10140.821405,-1225.752797
21153.376783,-2738.761985,-10732.986159,-3294.210641
21153.377116,-1924.535449,-10214.842000,-4213.525239
21153.377449,-74.020594,-13027.624579,1455.581446
21153.377782,0.000000,-5995.668130,-4290.134789
21153.378115,1184.329507,-10510.924376,2987.772442
21153.378448,-1258.350101,-7402.059420,-1762.019645
21153.378781,592.164754,-5403.503377,1225.752797
21153.379115,3108.864956,-9178.553681,4213.525239
21153.379448,4885.359217,-8142.265362,4596.572988
21153.379781,1628.453072,-9918.759623,2145.067394
21153.380114,2368.659014,-9104.533087,76.609550
21153.380447,-74.020594,-11251.130318,-2451.505594
21153.380780,-2368.659014,-11325.150913,536.266849
21153.381113,-74.020594,-11843.295072,-1302.362347
21153.381447,-2738.761985,-8512.368333,-3064.381992
21153.381780,0.000000,-9548.656652,0.000000
21153.382113,-666.185348,-9326.594869,-2681.334243
21153.382446,-1776.494261,-8956.491898,612.876398
21153.382779,296.082377,-7105.977043,2757.943793
21153.383112,2368.659014,-8512.368333,6741.640382
21153.383445,1184.329507,-4811.338623,3677.258390
21153.383778,592.164754,-11029.068536,3600.648841
21153.384112,-74.020594,-8586.388927,-1608.800546
21153.384445,-3478.967927,-9548.656652,-2451.505594
21153.384778,-666.185348,-10658.965565,-76.609550
21153.385111,-4737.318029,-9548.656652,-2145.067394
21153.385444,-1184.329507,-9030.512492,-2451.505594
21153.385777,-2442.679609,-10436.903782,-766.095498
21153.386110,-1184.329507,-7772.162391,-229.828649
21153.386444,-1628.453072,-7772.162391,1225.752797
21153.386777,2294.638420,-9474.636058,4826.401637
21153.387110,3775.050304,-5995.668130,3064.381992
21153.387443,2960.823768,-10066.800811,6665.030833
21153.387776,5847.626942,-9474.636058,2374.896044
21153.388109,0.000000,-9548.656652,0.000000
21153.388442,-370.102971,-11029.068536,-1532.190996
21153.388775,-888.247130,-11325.150913,-842.705048
21153.389109,-1258.350101,-10658.965565,-689.485948
21153.389442,0.000000,-9548.656652,0.000000
21153.389775,-518.144159,-9326.594869,-229.828649
21153.390108,0.000000,-8068.244768,0.000000
21153.390441,-2146.597232,-8660.409521,0.000000
21153.390774,-666.185348,-8882.471304,-76.609550
21153.391107,1554.432478,-6587.832884,2451.505594
21153.391441,3256.906145,-9252.574275,4826.401637
21153.391774,3478.967927,-8290.306550,-76.609550
21153.392107,1776.494261,-8068.244768,0.000000
21153.392440,2146.597232,-10658.965565,-76.609550
21153.392773,0.000000,-11177.109724,-1225.752797
21153.393106,814.226536,-10658.965565,-1378.971896
21153.393439,1036.288319,-10584.944971,-1532.190996
21153.393772,0.000000,-8364.327145,0.000000
21153.394106,3478.967927,-9474.636058,-2451.505594
21153.394439,3182.885551,-12435.459826,1762.019645
21153.394772,1998.556043,-7772.162391,3677.258390
21153.395105,148.041188,-7476.080014,4903.011187
21153.395438,2368.659014,-5995.668130,1608.800546
21153.395771,-1776.494261,-9548.656652,0.000000
21153.396104,-518.144159,-8216.285956,-1838.629195
21153.396438,-1998.556043,-9030.512492,229.828649
21153.396771,-1628.453072,-10288.862594,842.705048
21153.397104,-370.102971,-7179.997637,-1532.190996
21153.397437,-1554.432478,-13027.624579,-383.047749
21153.397770,-1258.350101,-5699.585753,-3983.696590
21153.398103,-2146.597232,-11843.295072,-1225.752797
21153.398436,-518.144159,-9844.739029,766.095498
21153.398769,2886.803174,-8290.306550,3447.429741
21153.399103,4293.194464,-9178.553681,6052.154434
21153.399436,5033.400406,-7920.203579,4979.620737
21153.399769,3478.967927,-8142.265362,1762.019645
21153.400102,1184.329507,-8660.409521,1991.848295
21153.400435,-370.102971,-9844.739029,-1838.629195
21153.400768,-1702.473667,-8364.327145,-1838.629195
21153.401101,-1184.329507,-9770.718434,-1302.362347
21153.401435,-74.020594,-11843.295072,-76.609550
21153.401768,814.226536,-7698.141797,-1915.238745
21153.402101,888.247130,-8290.306550,1762.019645
21153.402434,-3182.885551,-7772.162391,-1225.752797
21153.402767,1850.514855,-8068.244768,1608.800546
21153.403100,1702.473667,-13619.789333,4826.401637
21153.403433,2960.823768,-4811.338623,612.876398
21153.403766,2368.659014,-11251.130318,2451.505594
21153.404100,4515.256246,-10658.965565,-689.485948
21153.404433,-74.020594,-10658.965565,-76.609550
21153.404766,1258.350101,-10066.800811,995.924147
21153.405099,0.000000,-11029.068536,-76.609550
21153.405432,-962.267725,-10510.924376,-689.485948
21153.405765,592.164754,-8586.388927,-76.609550
21153.406098,-1258.350101,-10362.883188,-76.609550
21153.406432,-444.123565,-8142.265362,689.485948
21153.406765,-592.164754,-7994.224174,1532.190996
21153.407098,444.123565,-9548.656652,2681.334243
21153.407431,0.000000,-5995.668130,0.000000
21153.407764,592.164754,-12065.356855,-76.609550
21153.408097,-74.020594,-11843.295072,-383.047749
21153.408430,0.000000,-8364.327145,4136.915689
21153.408763,1702.473667,-9474.636058,3294.210641
21153.409097,-74.020594,-6957.935855,-1838.629195
21153.409430,-1406.391290,-10214.842000,-1915.238745
21153.409763,-2886.803174,-9252.574275,-1991.848295
21153.410096,-3034.844362,-8808.450710,-1838.629195
21153.410429,-3552.988522,-8364.327145,612.876398
21153.410762,592.164754,-10066.800811,3600.648841
21153.411095,1036.288319,-6291.750507,1838.629195
21153.411428,0.000000,-7179.997637,1838.629195
21153.411762,2886.803174,-11251.130318,-76.609550
21153.412095,0.000000,-8660.409521,0.000000
21153.412428,1406.391290,-9178.553681,0.000000
21153.412761,1924.535449,-10066.800811,1149.143247
21153.413094,1554.432478,-9548.656652,612.876398
21153.413427,1702.473667,-10658.965565,-76.609550
21153.413760,1702.473667,-12435.459826,-76.609550
21153.414094,-666.185348,-7476.080014,-2298.286494
21153.414427,-2072.576638,-8660.409521,0.000000
21153.414760,2072.576638,-8734.430116,4213.525239
21153.415093,2368.659014,-9400.615463,4519.963438
21153.415426,2294.638420,-7920.203579,1378.971896
21153.415759,-370.102971,-9326.594869,76.609550
21153.416092,-666.185348,-8290.306550,-995.924147
21153.416425,0.000000,-10214.842000,-689.485948
21153.416759,2886.803174,-9474.636058,76.609550
21153.417092,-4737.318029,-9548.656652,0.000000
21153.417425,2294.638420,-10510.924376,-1302.362347
21153.417758,-2368.659014,-10658.965565,-995.924147
21153.418091,-1110.308913,-9474.636058,-76.609550
21153.418424,-296.082377,-8586.388927,1378.971896
21153.418757,1332.370696,-8586.388927,2987.772442
21153.419091,4515.256246,-7994.224174,3907.087040
21153.419424,2960.823768,-7772.162391,2604.724693
21153.419757,2442.679609,-9548.656652,0.000000
21153.420090,1628.453072,-11843.295072,2987.772442
21153.420423,1702.473667,-11843.295072,-76.609550
21153.420756,-2368.659014,-8956.491898,-919.314598
21153.421089,-2220.617826,-11251.130318,-1302.362347
21153.421422,-2738.761985,-10214.842000,-2834.553343
21153.421756,-1998.556043,-7624.121203,0.000000
21153.422089,-2368.659014,-7550.100608,-76.609550
21153.422422,-1184.329507,-6587.832884,2451.505594
21153.422755,444.123565,-6587.832884,2451.505594
21153.423088,3108.864956,-7846.182985,2451.505594
21153.423421,2812.782580,-8808.450710,1685.410096
21153.423754,888.247130,-10510.924376,-536.266849
21153.424088,1184.329507,-8660.409521,-2451.505594
21153.424421,2886.803174,-9474.636058,-689.485948
21153.424754,3552.988522,-10140.821405,4903.011187
21153.425087,1184.329507,-8364.327145,-2145.067394
21153.425420,-370.102971,-10510.924376,-1149.143247
21153.425753,592.164754,-11547.212695,-76.609550
21153.426086,0.000000,-7772.162391,919.314598
21153.426419,1554.432478,-7476.080014,2757.943793
21153.426753,1998.556043,-7550.100608,3064.381992
21153.427086,2886.803174,-8882.471304,2374.896044
21153.427419,-1776.494261,-7772.162391,0.000000
21153.427752,1184.329507,-11325.150913,2374.896044
21153.428085,-74.020594,-9178.553681,-1225.752797
21153.428418,-3552.988522,-8364.327145,0.000000
21153.428751,-74.020594,-10658.965565,536.266849
21153.429085,-1998.556043,-10214.842000,-1378.971896
21153.429418,-814.226536,-10140.821405,-536.266849
21153.429751,-1110.308913,-8438.347739,-229.828649
21153.430084,-1850.514855,-9918.759623,-689.485948
21153.430417,-2368.659014,-7179.997637,3064.381992
21153.430750,-74.020594,-9178.553681,1762.019645
21153.431083,1702.473667,-5995.668130,0.000000
21153.431416,2368.659014,-11325.150913,4366.744339
21153.431750,-1406.391290,-8734.430116,0.000000
21153.432083,814.226536,-8216.285956,612.876398
21153.432416,0.000000,-8956.491898,1225.752797
21153.432749,1850.514855,-8734.430116,-76.609550
21153.433082,-2368.659014,-10732.986159,-1838.629195
21153.433415,-1776.494261,-9844.739029,-76.609550
21153.433748,-1850.514855,-8882.471304,-2528.115143
21153.434082,-3552.988522,-8364.327145,-2374.896044
21153.434415,0.000000,-8660.409521,4290.134789
21153.434748,518.144159,-7179.997637,1225.752797
21153.435081,3182.885551,-7994.224174,2451.505594
21153.435414,1998.556043,-9400.615463,2221.676944
21153.435747,148.041188,-9474.636058,1225.752797
21153.436080,0.000000,-7179.997637,0.000000
21153.436413,2146.597232,-9992.780217,995.924147
21153.436747,2368.659014,-9844.739029,842.705048
21153.437080,-222.061783,-11843.295072,-1225.752797
21153.437413,-74.020594,-11843.295072,-1302.362347
21153.437746,-1850.514855,-6587.832884,-2451.505594
21153.438079,888.247130,-9474.636058,3294.210641
21153.438412,2886.803174,-10362.883188,4519.963438
21153.438745,-74.020594,-8364.327145,0.000000
21153.439079,1924.535449,-8290.306550,2221.676944
21153.439412,-370.102971,-8660.409521,842.705048
21153.439745,-1554.432478,-9474.636058,-459.657299
21153.440078,814.226536,-7698.141797,1072.533697
21153.440411,0.000000,-7624.121203,-612.876398
21153.440744,4071.132681,-9992.780217,-2298.286494
21153.441077,2886.803174,-14211.954086,-76.609550
21153.441410,-666.185348,-9844.739029,-3677.258390
21153.441744,-2368.659014,-7772.162391,-612.876398
21153.442077,962.267725,-10955.047942,-1302.362347
21153.442410,2220.617826,-8808.450710,2145.067394
21153.442743,1406.391290,-7920.203579,1378.971896
21153.443076,4737.318029,-7179.997637,2145.067394
21153.443409,2664.741391,-9104.533087,3677.258390
21153.443742,2294.638420,-8290.306550,842.705048
21153.444076,2368.659014,-10436.903782,4826.401637
21153.444409,1702.473667,-9474.636058,-689.485948
21153.444742,1184.329507,-6291.750507,-1838.629195
21153.445075,-2960.823768,-10732.986159,-1838.629195
21153.445408,-1184.329507,-7920.203579,-2221.676944
21153.445741,-5477.523971,-10881.027347,-2451.505594
21153.446074,-1332.370696,-9918.759623,-689.485948
21153.446407,-1258.350101,-11251.130318,-76.609550
21153.446741,0.000000,-6291.750507,1225.752797
21153.447074,5847.626942,-7105.977043,3600.648841
21153.447407,3478.967927,-7476.080014,2451.505594
21153.447740,3108.864956,-9474.636058,4826.401637
21153.448073,2294.638420,-9474.636058,3600.648841
21153.448406,2072.576638,-7254.018232,1532.190996
21153.448739,518.144159,-9992.780217,-995.924147
21153.449073,592.164754,-11251.130318,-383.047749
21153.449406,-3775.050304,-9474.636058,-4213.525239
21153.449739,-4071.132681,-11325.150913,-1302.362347
21153.450072,-1554.432478,-9474.636058,-3064.381992
21153.450405,-2368.659014,-7179.997637,-2451.505594
21153.450738,1850.514855,-11251.130318,2374.896044
21153.451071,2294.638420,-7698.141797,2374.896044
21153.451404,3404.947333,-7105.977043,4060.306139
21153.451738,1628.453072,-7031.956449,4136.915689
21153.452071,4293.194464,-8438.347739,4903.011187
21153.452404,2072.576638,-8808.450710,2528.115143
21153.452737,1480.411884,-11103.089130,-76.609550
21153.453070,-1480.411884,-12583.501014,-3524.039291
21153.453403,-3182.885551,-10658.965565,-4826.401637
21153.453736,-2442.679609,-10658.965565,-4060.306139
21153.454070,-1258.350101,-10066.800811,-1915.238745
21153.454403,-1776.494261,-9252.574275,995.924147
21153.454736,-74.020594,-10362.883188,2987.772442
21153.455069,1110.308913,-5477.523971,612.876398
21153.455402,0.000000,-8068.244768,3140.991542
21153.455735,2294.638420,-8290.306550,3294.210641
21153.456068,1924.535449,-7476.080014,5209.449386
21153.456401,2072.576638,-7772.162391,3447.429741
21153.456735,1702.473667,-7846.182985,0.000000
21153.457068,-4441.235652,-11325.150913,-3064.381992
21153.457401,-4737.318029,-10436.903782,-3140.991542
21153.457734,-4219.173869,-10732.986159,-4443.353888
21153.458067,-2368.659014,-7476.080014,-2451.505594
21153.458400,-888.247130,-9400.615463,-76.609550
21153.458733,2294.638420,-7624.121203,1225.752797
21153.459069,2294.638420,-8290.306550,3600.648841
21153.459402,1628.453072,-6883.915261,3064.381992
21153.459735,1480.411884,-9252.574275,3524.039291
21153.460068,2664.741391,-10288.862594,5822.325785
21153.460401,4663.297435,-10214.842000,4826.401637
21153.460734,962.267725,-6291.750507,0.000000
21153.461067,814.226536,-10658.965565,-76.609550
21153.461400,-1258.350101,-10658.965565,-4060.306139
21153.461734,-2368.659014,-9548.656652,-2451.505594
21153.462067,-1258.350101,-10732.986159,-2604.724693
21153.462400,518.144159,-9844.739029,-1762.019645
21153.462733,3478.967927,-11843.295072,-76.609550
21153.463066,1110.308913,-9474.636058,-76.609550
21153.463399,3404.947333,-9178.553681,4903.011187
21153.463732,4663.297435,-10658.965565,4213.525239
21153.464065,2368.659014,-6587.832884,5209.449386
21153.464398,1184.329507,-7476.080014,4826.401637
21153.464731,2886.803174,-8290.306550,-76.609550
21153.465064,-1480.411884,-8660.409521,-1991.848295
21153.465397,-2368.659014,-10362.883188,-2834.553343
21153.465730,-3108.864956,-11325.150913,-2374.896044
21153.466063,-2960.823768,-7772.162391,-2757.943793
21153.466396,-2442.679609,-9548.656652,-4903.011187
21153.466729,1036.288319,-11695.253884,1225.752797
21153.467062,3478.967927,-11251.130318,2374.896044
21153.467395,0.000000,-5995.668130,2451.505594
21153.467728,3478.967927,-10362.883188,6052.154434
21153.468061,3552.988522,-7920.203579,4979.620737
21153.468395,3701.029710,-8142.265362,4903.011187
21153.468728,1924.535449,-8364.327145,995.924147
21153.469061,-2368.659014,-7772.162391,-3677.258390
21153.469394,-4071.132681,-9474.636058,-6052.154434
21153.469727,-1998.556043,-11399.171507,-2681.334243
21153.470060,-1998.556043,-10362.883188,-1608.800546
21153.470393,-1628.453072,-9252.574275,-2221.676944
21153.470726,-2368.659014,-8660.409521,-1532.190996
21153.471059,-74.020594,-11251.130318,2987.772442
21153.471392,518.144159,-7328.038826,1532.190996
21153.471725,2960.823768,-8142.265362,5056.230287
21153.472058,6883.915261,-8290.306550,5822.325785
21153.472391,2368.659014,-7179.997637,3370.820191
21153.472724,2072.576638,-8956.491898,306.438199
21153.473057,-1184.329507,-9326.594869,-3064.381992
21153.473390,-2738.761985,-11547.212695,-3370.820191
21153.473723,-2368.659014,-11917.315666,-2451.505594
21153.474056,-1406.391290,-8660.409521,-3677.258390
21153.474389,-2294.638420,-7179.997637,-2451.505594
21153.474723,-148.041188,-11547.212695,-76.609550
21153.475056,1702.473667,-8290.306550,1762.019645
21153.475389,1776.494261,-8586.388927,5362.668486
21153.475722,3849.070898,-8068.244768,6052.154434
21153.476055,4663.297435,-7994.224174,5975.544884
21153.476388,3552.988522,-6439.791695,2834.553343
21153.476721,2886.803174,-9474.636058,2374.896044
21153.477054,-3478.967927,-5403.503377,-4903.011187
21153.477387,-1998.556043,-11695.253884,-3140.991542
21153.477720,-2442.679609,-11843.295072,-4366.744339
21153.478053,-4441.235652,-8364.327145,-3677.258390
21153.478386,-2442.679609,-11843.295072,-2834.553343
21153.478719,-1924.535449,-9844.739029,-842.705048
21153.479052,-1998.556043,-7772.162391,1455.581446
21153.479385,1850.514855,-7328.038826,5132.839837
21153.479718,4293.194464,-6513.812290,5745.716235
21153.480051,0.000000,-7179.997637,7354.516781
21153.480384,6439.791695,-7698.141797,2374.896044
21153.480717,1184.329507,-9548.656652,0.000000
21153.481051,0.000000,-7772.162391,-3677.258390
21153.481384,-74.020594,-11843.295072,-4366.744339
21153.481717,-4145.153275,-12953.603985,-4136.915689
21153.482050,-2368.659014,-10510.924376,-5592.497135
21153.482383,-1258.350101,-12435.459826,-2528.115143
21153.482716,0.000000,-9178.553681,-995.924147
21153.483049,-592.164754,-8438.347739,2451.505594
21153.483382,1036.288319,-7550.100608,5592.497135
21153.483715,3775.050304,-6661.853478,6511.811733
21153.484048,3849.070898,-7179.997637,6741.640382
21153.484381,4959.379811,-8586.388927,4213.525239
21153.484714,1036.288319,-7179.997637,0.000000
21153.485047,-2368.659014,-9548.656652,-383.047749
21153.485380,-2146.597232,-10510.924376,-4903.011187
21153.485713,-1776.494261,-10732.986159,-4290.134789
21153.486046,-962.267725,-10362.883188,-4673.182538
21153.486379,-1628.453072,-12065.356855,-3217.601092
21153.486712,-1850.514855,-10510.924376,-1991.848295
21153.487045,-74.020594,-10658.965565,2374.896044
21153.487379,3330.926739,-9474.636058,8503.660028
21153.487712,2368.659014,-4811.338623,7354.516781
21153.488045,4515.256246,-9326.594869,8503.660028
21153.488378,4071.132681,-7105.977043,2987.772442
21153.488711,-74.020594,-8290.306550,-76.609550
21153.489044,-2442.679609,-10066.800811,-5362.668486
21153.489377,-4219.173869,-13619.789333,-3447.429741
21153.489710,-3108.864956,-9030.512492,-2681.334243
