#time,accel_x,accel_y,accel_z
21936.634296,4737.318029,-8956.491898,2145.067394
21936.634630,6661.853478,-8512.368333,3294.210641
21936.634964,8142.265362,-9474.636058,4060.306139
21936.635298,7698.141797,-5995.668130,1532.190996
21936.635632,7105.977043,-5995.668130,1225.752797
21936.635966,9992.780217,-10658.965565,1762.019645
21936.636299,5847.626942,-8364.327145,-3140.991542
21936.636633,4737.318029,-9844.739029,-1838.629195
21936.636967,6439.791695,-9474.636058,-4060.306139
21936.637301,6439.791695,-11399.171507,-2528.115143
21936.637635,6217.729913,-9696.697840,-842.705048
21936.637969,8808.450710,-8512.368333,612.876398
21936.638303,11399.171507,-9252.574275,4903.011187
21936.638637,11843.295072,-7772.162391,7201.297681
21936.638971,14137.933492,-9474.636058,2221.676944
21936.639305,10362.883188,-7772.162391,3064.381992
21936.639639,8290.306550,-9548.656652,919.314598
21936.639972,4737.318029,-10732.986159,-1149.143247
21936.640306,814.226536,-11917.315666,-4443.353888
21936.640640,-518.144159,-11547.212695,-4443.353888
21936.640974,592.164754,-9992.780217,-1762.019645
21936.641308,3182.885551,-7698.141797,-76.609550
21936.641642,5551.544565,-7105.977043,1762.019645
21936.641976,7105.977043,-2738.761985,2298.286494
21936.642310,9474.636058,-5403.503377,8044.002729
21936.642644,13545.768739,-5181.441594,3907.087040
21936.642978,11843.295072,-6587.832884,3830.477490
21936.643312,11769.274478,-8364.327145,-612.876398
21936.643646,9844.739029,-9992.780217,-3907.087040
21936.643979,8882.471304,-12139.377449,-5209.449386
21936.644313,5625.565159,-12509.480420,-7124.688131
21936.644647,4811.338623,-14211.954086,-5669.106685
21936.644981,4663.297435,-12583.501014,-3294.210641
21936.645315,7179.997637,-11251.130318,-76.609550
21936.645649,8808.450710,-7846.182985,3217.601092
21936.645983,11399.171507,-4885.359217,6665.030833
21936.646317,17098.757260,-7105.977043,12180.918418
21936.646651,15026.180623,-4145.153275,7584.345430
21936.646985,11251.130318,-7179.997637,3983.696590
21936.647319,9474.636058,-10362.883188,1915.238745
21936.647653,4293.194464,-9252.574275,-4136.915689
21936.647986,2516.700203,-10436.903782,-6128.763984
21936.648320,2294.638420,-11103.089130,-7124.688131
21936.648654,3256.906145,-9844.739029,-5056.230287
21936.648988,4737.318029,-8956.491898,-2451.505594
21936.649322,10584.944971,-8882.471304,-76.609550
21936.649656,9400.615463,-7179.997637,0.000000
21936.649990,10066.800811,-9104.533087,2757.943793
21936.650324,14137.933492,-9474.636058,3294.210641
21936.650658,13767.830521,-7179.997637,4596.572988
21936.650992,12139.377449,-9696.697840,3753.867940
21936.651326,10288.862594,-11769.274478,2451.505594
21936.651660,9622.677246,-9252.574275,1762.019645
21936.651993,11769.274478,-10362.883188,3600.648841
21936.652327,12361.439231,-5403.503377,0.000000
21936.652661,11251.130318,-5995.668130,-1838.629195
21936.652995,11843.295072,-9178.553681,-76.609550
21936.653329,9696.697840,-5995.668130,-4596.572988
21936.653663,10584.944971,-11843.295072,-3140.991542
21936.653997,7624.121203,-12805.562797,-4826.401637
21936.654331,6735.874072,-13471.748144,-2681.334243
21936.654665,10066.800811,-9252.574275,-612.876398
21936.654999,11769.274478,-9474.636058,2987.772442
21936.655333,14137.933492,-3775.050304,4903.011187
21936.655667,14804.118840,-4219.173869,7507.735880
21936.656000,17098.757260,-9178.553681,7277.907231
21936.656334,11103.089130,-7476.080014,766.095498
21936.656668,11769.274478,-10362.883188,-1915.238745
21936.657002,10955.047942,-11325.150913,-1532.190996
21936.657336,10510.924376,-10658.965565,-2604.724693
21936.657670,8956.491898,-9252.574275,-2911.162892
21936.658004,9104.533087,-11843.295072,-3140.991542
21936.658338,9104.533087,-11399.171507,0.000000
21936.658672,7105.977043,-10140.821405,306.438199
21936.659006,8956.491898,-7031.956449,1072.533697
21936.659340,11251.130318,-8512.368333,5209.449386
21936.659674,14211.954086,-5995.668130,8886.707777
21936.660007,14137.933492,-5181.441594,5745.716235
21936.660341,9992.780217,-5995.668130,0.000000
21936.660675,7105.977043,-9918.759623,-766.095498
21936.661009,4737.318029,-7476.080014,-4213.525239
21936.661343,11029.068536,-8216.285956,-3447.429741
21936.661677,6365.771101,-9548.656652,-6128.763984
21936.662011,5107.421000,-12139.377449,-6511.811733
21936.662345,8808.450710,-11251.130318,-1302.362347
21936.662679,10140.821405,-13989.892304,6665.030833
21936.663013,13249.686362,-2442.679609,3064.381992
21936.663347,16136.489536,-11399.171507,9729.412825
21936.663681,16506.592507,-5921.647536,4826.401637
21936.664014,11547.212695,-10140.821405,4290.134789
21936.664348,11103.089130,-8882.471304,2528.115143
21936.664682,9030.512492,-7476.080014,0.000000
21936.665016,7179.997637,-10510.924376,-1532.190996
21936.665350,4737.318029,-7772.162391,-5056.230287
21936.665684,444.123565,-13841.851115,-7431.126331
21936.666018,4071.132681,-10362.883188,-7048.078582
21936.666352,6513.812290,-9844.739029,1378.971896
21936.666686,7698.141797,-8512.368333,5975.544884
21936.667020,7031.956449,-6513.812290,1762.019645
21936.667354,4737.318029,-11325.150913,5209.449386
21936.667687,9030.512492,-6143.709319,3294.210641
21936.668021,11251.130318,-9918.759623,8044.002729
21936.668355,7105.977043,-4219.173869,3064.381992
21936.668689,4071.132681,-10066.800811,-1915.238745
21936.669023,592.164754,-10732.986159,-2451.505594
21936.669357,2368.659014,-10288.862594,-1915.238745
21936.669691,1110.308913,-8586.388927,-3140.991542
21936.670025,1184.329507,-5699.585753,-4290.134789
21936.670359,1332.370696,-12805.562797,-689.485948
21936.670693,6143.709319,-8734.430116,1455.581446
21936.671027,4737.318029,-9770.718434,3447.429741
21936.671361,6439.791695,-9474.636058,3447.429741
21936.671694,6143.709319,-5403.503377,1225.752797
21936.672028,3552.988522,-11399.171507,3294.210641
21936.672362,8216.285956,-8882.471304,2987.772442
21936.672696,2294.638420,-7476.080014,-1225.752797
21936.673030,1184.329507,-8364.327145,-2145.067394
21936.673364,3552.988522,-9104.533087,1149.143247
21936.673698,2738.761985,-6439.791695,-1838.629195
21936.674032,3552.988522,-9474.636058,-3753.867940
21936.674366,9104.533087,-11103.089130,-76.609550
21936.674700,7105.977043,-12213.398043,1225.752797
21936.675034,9252.574275,-10066.800811,5439.278036
21936.675368,6143.709319,-10807.006753,1991.848295
21936.675701,6587.832884,-9918.759623,2374.896044
21936.676035,4737.318029,-11547.212695,1532.190996
21936.676369,4071.132681,-8660.409521,-766.095498
21936.676703,-2072.576638,-5995.668130,0.000000
21936.677037,-74.020594,-10658.965565,-689.485948
21936.677371,814.226536,-6587.832884,919.314598
21936.677705,-1184.329507,-8660.409521,2145.067394
21936.678039,2294.638420,-6735.874072,1532.190996
21936.678373,-740.205942,-8438.347739,-842.705048
21936.678707,2368.659014,-9326.594869,306.438199
21936.679041,3478.967927,-8290.306550,-76.609550
21936.679375,4663.297435,-10510.924376,0.000000
21936.679708,2812.782580,-11029.068536,0.000000
21936.680042,1332.370696,-11843.295072,-76.609550
21936.680376,2294.638420,-11029.068536,-2374.896044
21936.680710,2960.823768,-8882.471304,842.705048
21936.681044,0.000000,-9548.656652,-1455.581446
21936.681378,0.000000,-9030.512492,1455.581446
21936.681712,-1110.308913,-9548.656652,919.314598
21936.682046,0.000000,-7179.997637,76.609550
21936.682380,1702.473667,-3034.844362,2451.505594
21936.682714,4663.297435,-9474.636058,842.705048
21936.683048,4959.379811,-7698.141797,1149.143247
21936.683382,-2072.576638,-10140.821405,1225.752797
21936.683715,6439.791695,-7994.224174,-229.828649
21936.684049,370.102971,-10955.047942,383.047749
21936.684383,3108.864956,-10807.006753,-1225.752797
21936.684717,-2368.659014,-11029.068536,-2145.067394
21936.685051,-3997.112087,-10881.027347,-2451.505594
21936.685385,-3552.988522,-11029.068536,-612.876398
21936.685719,-2442.679609,-11251.130318,-1608.800546
21936.686053,-1776.494261,-7179.997637,1225.752797
21936.686387,0.000000,-7476.080014,7277.907231
21936.686721,3478.967927,-5625.565159,2145.067394
21936.687055,1184.329507,-7698.141797,5132.839837
21936.687389,2294.638420,-7105.977043,2987.772442
21936.687722,1850.514855,-7994.224174,1915.238745
21936.688056,0.000000,-6291.750507,0.000000
21936.688390,-1332.370696,-11695.253884,-3753.867940
21936.688724,-2368.659014,-11325.150913,-4366.744339
21936.689058,-3997.112087,-12583.501014,-6665.030833
21936.689392,-1554.432478,-13027.624579,-2528.115143
21936.689726,-3182.885551,-14211.954086,-76.609550
21936.690060,-2368.659014,-8364.327145,3064.381992
21936.690394,-2072.576638,-5699.585753,2451.505594
21936.690728,3478.967927,-7105.977043,4826.401637
21936.691062,4663.297435,-3997.112087,7277.907231
21936.691396,4145.153275,-7105.977043,5745.716235
21936.691729,4145.153275,-5921.647536,3907.087040
21936.692063,814.226536,-7476.080014,-1149.143247
21936.692397,666.185348,-11473.192101,-2834.553343
21936.692731,-1480.411884,-11473.192101,-5286.058936
21936.693065,-4737.318029,-12509.480420,-4903.011187
21936.693399,-1850.514855,-13027.624579,-6205.373534
21936.693733,-74.020594,-14211.954086,-3140.991542
21936.694067,-3404.947333,-8956.491898,-1762.019645
21936.694401,962.267725,-9474.636058,2451.505594
21936.694735,3849.070898,-7254.018232,5745.716235
21936.695069,4959.379811,-6291.750507,9116.536426
21936.695402,5699.585753,-5255.462188,7660.954980
21936.695736,3923.091493,-7105.977043,4519.963438
21936.696070,2960.823768,-7550.100608,6052.154434
21936.696404,2294.638420,-7105.977043,-1302.362347
21936.696738,-2368.659014,-8068.244768,-3983.696590
21936.697072,-2368.659014,-10140.821405,-5975.544884
21936.697406,-6217.729913,-15174.221811,-6128.763984
21936.697740,-1480.411884,-8512.368333,-4979.620737
21936.698074,-2516.700203,-13693.809927,-2757.943793
21936.698408,0.000000,-10807.006753,459.657299
21936.698742,1776.494261,-5995.668130,2451.505594
21936.699076,5033.400406,-9474.636058,7890.783629
21936.699409,7624.121203,-6513.812290,8503.660028
21936.699743,0.000000,-7179.997637,4903.011187
21936.700077,4071.132681,-9474.636058,3600.648841
21936.700411,1332.370696,-6587.832884,1378.971896
21936.700745,-74.020594,-9400.615463,-3677.258390
21936.701079,-2368.659014,-8660.409521,-3600.648841
21936.701413,-5107.421000,-10658.965565,-7277.907231
21936.701747,-4737.318029,-11917.315666,-5209.449386
21936.702081,-1850.514855,-13027.624579,-4366.744339
21936.702415,1776.494261,-8956.491898,0.000000
21936.702749,0.000000,-11917.315666,6511.811733
21936.703083,4663.297435,-8290.306550,3600.648841
21936.703416,1776.494261,-8068.244768,6052.154434
21936.703750,2960.823768,-8586.388927,5439.278036
21936.704084,5773.606348,-6291.750507,4290.134789
21936.704418,1480.411884,-9622.677246,1149.143247
21936.704752,0.000000,-7772.162391,-919.314598
21936.705086,-5255.462188,-11325.150913,-1532.190996
21936.705420,-1480.411884,-7772.162391,-4136.915689
21936.705754,-1554.432478,-9770.718434,-76.609550
21936.706088,-4219.173869,-8586.388927,-5592.497135
21936.706422,-2368.659014,-9548.656652,0.000000
21936.706756,-3923.091493,-10658.965565,2374.896044
21936.707090,2294.638420,-7698.141797,229.828649
21936.707423,0.000000,-6587.832884,5286.058936
21936.707757,4071.132681,-10955.047942,4213.525239
21936.708091,1924.535449,-6883.915261,4290.134789
21936.708425,0.000000,-8216.285956,919.314598
21936.708759,1184.329507,-8660.409521,0.000000
21936.709093,-2960.823768,-7476.080014,-3370.820191
21936.709427,-3552.988522,-8364.327145,-2451.505594
21936.709761,-1258.350101,-10066.800811,-4903.011187
21936.710095,-2960.823768,-8364.327145,-3370.820191
21936.710429,-1776.494261,-7476.080014,306.438199
21936.710763,-444.123565,-9548.656652,689.485948
21936.711096,4145.153275,-7031.956449,3907.087040
21936.711429,1110.308913,-11621.233289,919.314598
21936.711763,2368.659014,-8364.327145,3370.820191
21936.712096,3256.906145,-9474.636058,2298.286494
21936.712429,1110.308913,-8364.327145,1225.752797
21936.712763,4071.132681,-7994.224174,3600.648841
21936.713096,-74.020594,-9178.553681,-1378.971896
21936.713430,592.164754,-9178.553681,1149.143247
21936.713763,-74.020594,-11547.212695,-76.609550
21936.714096,-2738.761985,-7476.080014,-4903.011187
21936.714430,-1480.411884,-8956.491898,-459.657299
21936.714763,-370.102971,-9548.656652,-612.876398
21936.715096,0.000000,-8364.327145,1225.752797
21936.715430,3478.967927,-9474.636058,2374.896044
21936.715763,0.000000,-9548.656652,612.876398
21936.716097,2368.659014,-9474.636058,3600.648841
21936.716430,1332.370696,-5403.503377,1838.629195
21936.716763,2368.659014,-5995.668130,-919.314598
21936.717097,0.000000,-10510.924376,1149.143247
21936.717430,-1554.432478,-9992.780217,-2451.505594
21936.717763,-1480.411884,-11103.089130,-2451.505594
21936.718097,1184.329507,-9918.759623,919.314598
21936.718430,-666.185348,-9548.656652,-4290.134789
21936.718764,2368.659014,-10214.842000,1762.019645
21936.719097,-74.020594,-13027.624579,-76.609550
21936.719430,592.164754,-7179.997637,6741.640382
21936.719764,2960.823768,-9252.574275,5745.716235
21936.720097,3108.864956,-6291.750507,5515.887586
21936.720430,0.000000,-7846.182985,1685.410096
21936.720764,-3775.050304,-9548.656652,-1225.752797
21936.721097,-1184.329507,-7698.141797,-1149.143247
21936.721430,-4811.338623,-10288.862594,-3064.381992
21936.721764,-666.185348,-7402.059420,-3140.991542
21936.722097,-3256.906145,-10807.006753,-1378.971896
21936.722431,-3404.947333,-9326.594869,-4366.744339
21936.722764,-2368.659014,-12065.356855,0.000000
21936.723097,-74.020594,-8586.388927,0.000000
21936.723431,2368.659014,-5403.503377,4290.134789
21936.723764,5551.544565,-9474.636058,4826.401637
21936.724097,6143.709319,-7994.224174,4826.401637
21936.724431,1776.494261,-7179.997637,6435.202183
21936.724764,1998.556043,-9400.615463,-229.828649
21936.725098,814.226536,-8882.471304,-995.924147
21936.725431,-4441.235652,-11029.068536,-5822.325785
21936.725764,-3627.009116,-15988.448347,-2528.115143
21936.726098,-5107.421000,-6661.853478,-7354.516781
21936.726431,-2220.617826,-13915.871710,-1225.752797
21936.726764,2294.638420,-9474.636058,4519.963438
21936.727098,4219.173869,-4219.173869,6281.983084
21936.727431,4737.318029,-8290.306550,8810.098227
21936.727765,1776.494261,-7920.203579,3753.867940
21936.728098,3182.885551,-5329.482782,-76.609550
21936.728431,740.205942,-10732.986159,2911.162892
21936.728765,3478.967927,-7402.059420,-2068.457845
21936.729098,-1850.514855,-9548.656652,-4903.011187
21936.729431,-3034.844362,-11843.295072,-6205.373534
21936.729765,-2442.679609,-16580.613101,-3753.867940
21936.730098,-2442.679609,-9104.533087,-3677.258390
21936.730432,-666.185348,-8882.471304,-1762.019645
21936.730765,888.247130,-7179.997637,1532.190996
21936.731098,3849.070898,-5773.606348,3983.696590
21936.731432,4663.297435,-8216.285956,6511.811733
21936.731765,5033.400406,-7179.997637,5515.887586
21936.732098,5329.482782,-9622.677246,7124.688131
21936.732432,4367.215058,-12435.459826,-76.609550
21936.732765,2368.659014,-6291.750507,-2451.505594
21936.733098,-3552.988522,-14285.974681,-2987.772442
21936.733432,-74.020594,-11251.130318,-4673.182538
21936.733765,-3256.906145,-9548.656652,-3907.087040
21936.734099,-2368.659014,-11325.150913,-2451.505594
21936.734432,-1628.453072,-9030.512492,536.266849
21936.734765,-4145.153275,-10140.821405,0.000000
21936.735099,1702.473667,-4441.235652,3600.648841
21936.735432,962.267725,-8216.285956,5209.449386
21936.735765,4441.235652,-4885.359217,4749.792088
21936.736099,2294.638420,-9474.636058,4826.401637
21936.736432,1110.308913,-5921.647536,-842.705048
21936.736766,-1480.411884,-9548.656652,-2145.067394
21936.737099,-1258.350101,-14211.954086,-1915.238745
21936.737432,-74.020594,-10658.965565,-4366.744339
21936.737766,-4811.338623,-12879.583391,-3294.210641
21936.738099,1480.411884,-11103.089130,-459.657299
21936.738432,-2664.741391,-9844.739029,1685.410096
21936.738766,0.000000,-8216.285956,1838.629195
21936.739099,-1628.453072,-9918.759623,3600.648841
21936.739433,592.164754,-7031.956449,5745.716235
21936.739766,0.000000,-4811.338623,4290.134789
21936.740099,2072.576638,-10658.965565,5439.278036
21936.740433,1628.453072,-1850.514855,0.000000
21936.740766,-2146.597232,-9474.636058,459.657299
21936.741099,1110.308913,-8586.388927,-1915.238745
21936.741433,-2442.679609,-8882.471304,-4213.525239
21936.741766,-1924.535449,-13027.624579,-2528.115143
21936.742100,-1332.370696,-10214.842000,-4213.525239
21936.742433,-1850.514855,-14211.954086,-3753.867940
21936.742766,2368.659014,-11473.192101,3064.381992
21936.743100,3478.967927,-11251.130318,3600.648841
21936.743433,3997.112087,-6587.832884,3983.696590
21936.743766,0.000000,-9548.656652,6128.763984
21936.744100,1258.350101,-7179.997637,2757.943793
21936.744433,-222.061783,-5625.565159,1685.410096
21936.744766,2294.638420,-7179.997637,1608.800546
21936.745100,666.185348,-7031.956449,0.000000
21936.745433,-2294.638420,-7772.162391,-6435.202183
21936.745767,-1332.370696,-11843.295072,-4060.306139
21936.746100,-666.185348,-11547.212695,-5286.058936
21936.746433,0.000000,-13693.809927,0.000000
21936.746767,2294.638420,-9474.636058,-76.609550
21936.747100,2072.576638,-13101.645173,2681.334243
21936.747433,4071.132681,-8586.388927,4826.401637
21936.747767,4145.153275,-7698.141797,3907.087040
21936.748100,3997.112087,-7772.162391,4060.306139
21936.748434,2960.823768,-8364.327145,5056.230287
21936.748767,2294.638420,-8882.471304,-689.485948
21936.749100,0.000000,-9548.656652,2451.505594
21936.749434,1776.494261,-7920.203579,-76.609550
21936.749767,-74.020594,-11843.295072,-76.609550
21936.750100,592.164754,-7328.038826,153.219100
21936.750434,-2664.741391,-11843.295072,-3524.039291
21936.750767,-2368.659014,-7920.203579,-3753.867940
21936.751101,-2368.659014,-11843.295072,-3447.429741
21936.751434,1184.329507,-6883.915261,2451.505594
21936.751767,2072.576638,-9548.656652,2911.162892
21936.752101,2812.782580,-9030.512492,3907.087040
21936.752434,3256.906145,-8734.430116,4443.353888
21936.752767,2146.597232,-6439.791695,1149.143247
21936.753101,0.000000,-9548.656652,2451.505594
21936.753434,-2442.679609,-9178.553681,-76.609550
21936.753767,-3034.844362,-5551.544565,-4903.011187
21936.754101,-1184.329507,-9178.553681,-2528.115143
21936.754434,-74.020594,-13619.789333,-76.609550
21936.754768,-518.144159,-7772.162391,-2145.067394
21936.755101,-1554.432478,-13249.686362,2681.334243
21936.755434,444.123565,-7698.141797,-612.876398
21936.755768,-1184.329507,-9844.739029,2451.505594
21936.756101,0.000000,-6587.832884,1838.629195
21936.756434,4367.215058,-9178.553681,3294.210641
21936.756768,-1184.329507,-4811.338623,306.438199
21936.757101,1184.329507,-10584.944971,2834.553343
21936.757435,-2294.638420,-6883.915261,-1302.362347
21936.757768,-4145.153275,-11695.253884,-2987.772442
21936.758101,-2812.782580,-7550.100608,-3447.429741
21936.758435,-3701.029710,-8808.450710,0.000000
21936.758768,1110.308913,-8290.306550,1455.581446
21936.759101,0.000000,-4811.338623,3600.648841
21936.759435,-74.020594,-10658.965565,-2221.676944
21936.759768,592.164754,-8364.327145,0.000000
21936.760102,1184.329507,-10732.986159,3140.991542
21936.760435,4737.318029,-10807.006753,1838.629195
21936.760768,2886.803174,-10658.965565,2528.115143
21936.761102,3034.844362,-9326.594869,919.314598
21936.761435,814.226536,-12361.439231,153.219100
21936.761768,1702.473667,-9178.553681,-536.266849
21936.762102,0.000000,-10510.924376,-76.609550
21936.762435,-2960.823768,-7105.977043,-2834.553343
21936.762769,-3552.988522,-9548.656652,-306.438199
21936.763102,1702.473667,-7105.977043,-995.924147
21936.763435,2294.638420,-9178.553681,4060.306139
21936.763769,3552.988522,-3775.050304,1225.752797
21936.764102,2664.741391,-14063.912898,4136.915689
21936.764435,4219.173869,-7476.080014,2298.286494
21936.764769,296.082377,-10140.821405,1225.752797
21936.765102,3478.967927,-8882.471304,-2681.334243
21936.765435,-2368.659014,-13101.645173,-1225.752797
21936.765769,-592.164754,-9474.636058,-2528.115143
21936.766102,-74.020594,-8660.409521,-3370.820191
21936.766436,-962.267725,-8882.471304,-76.609550
21936.766769,-74.020594,-8216.285956,-1149.143247
21936.767102,-814.226536,-10066.800811,2681.334243
21936.767436,3330.926739,-6735.874072,5669.106685
21936.767769,-1776.494261,-5403.503377,4903.011187
21936.768102,1702.473667,-6513.812290,0.000000
21936.768436,2960.823768,-8882.471304,536.266849
21936.768769,-518.144159,-10807.006753,-229.828649
21936.769103,1924.535449,-8216.285956,-1378.971896
21936.769436,-2368.659014,-10732.986159,-2145.067394
21936.769769,-1258.350101,-13619.789333,-3140.991542
21936.770103,-2442.679609,-10955.047942,-4903.011187
21936.770436,-4145.153275,-12509.480420,-689.485948
21936.770769,-74.020594,-8290.306550,-76.609550
21936.771103,-3256.906145,-9548.656652,2451.505594
21936.771436,4515.256246,-4441.235652,5898.935335
21936.771770,3182.885551,-7179.997637,7124.688131
21936.772103,4145.153275,-7402.059420,4979.620737
21936.772436,2664.741391,-7476.080014,4903.011187
21936.772770,-74.020594,-7698.141797,-76.609550
21936.773103,-1184.329507,-8956.491898,0.000000
21936.773436,-1776.494261,-7624.121203,-2834.553343
21936.773770,-2442.679609,-15026.180623,-8120.612279
21936.774103,-5329.482782,-13249.686362,-3064.381992
21936.774437,-1776.494261,-10436.903782,-3524.039291
21936.774770,-2368.659014,-11917.315666,0.000000
21936.775103,1406.391290,-7550.100608,2221.676944
21936.775437,2294.638420,-8290.306550,3294.210641
21936.775770,5847.626942,-5921.647536,4060.306139
21936.776103,3849.070898,-6291.750507,5592.497135
21936.776437,5847.626942,-9474.636058,6052.154434
21936.776770,0.000000,-7179.997637,1838.629195
21936.777103,814.226536,-9474.636058,-2528.115143
21936.777437,-5773.606348,-13101.645173,-6818.249932
21936.777770,-1998.556043,-10066.800811,-5669.106685
21936.778104,-666.185348,-10658.965565,-1302.362347
21936.778437,0.000000,-7772.162391,-2145.067394
21936.778770,0.000000,-10140.821405,0.000000
21936.779104,-666.185348,-12435.459826,-76.609550
21936.779437,3478.967927,-6883.915261,612.876398
21936.779770,0.000000,-6587.832884,3064.381992
21936.780104,5847.626942,-9474.636058,2374.896044
21936.780437,4515.256246,-8660.409521,4443.353888
21936.780771,2664.741391,-7402.059420,4979.620737
21936.781104,4737.318029,-6735.874072,1225.752797
21936.781437,592.164754,-8956.491898,2834.553343
21936.781771,-3552.988522,-10214.842000,-5056.230287
21936.782104,-6809.894666,-11843.295072,-3753.867940
21936.782437,-6291.750507,-8660.409521,-7277.907231
21936.782771,-2368.659014,-10955.047942,-2911.162892
21936.783104,-1258.350101,-12435.459826,2374.896044
21936.783438,4071.132681,-4293.194464,0.000000
21936.783771,1184.329507,-9548.656652,6128.763984
21936.784104,666.185348,-9030.512492,2834.553343
21936.784438,1332.370696,-6883.915261,2757.943793
21936.784771,222.061783,-9030.512492,2374.896044
21936.785104,6217.729913,-7550.100608,3677.258390
21936.785438,518.144159,-11029.068536,1455.581446
21936.785771,2590.720797,-8882.471304,-1302.362347
21936.786104,-2072.576638,-10140.821405,-2451.505594
21936.786438,-4737.318029,-9548.656652,-3677.258390
21936.786771,-1850.514855,-11843.295072,-3753.867940
21936.787105,-4811.338623,-13915.871710,-1915.238745
21936.787438,2146.597232,-4441.235652,2987.772442
21936.787771,3478.967927,-8142.265362,1762.019645
21936.788105,3552.988522,-8364.327145,4290.134789
21936.788438,2664.741391,-8216.285956,4903.011187
21936.788771,3775.050304,-9178.553681,4749.792088
21936.789105,4367.215058,-8586.388927,3600.648841
21936.789438,-4441.235652,-10732.986159,-3677.258390
21936.789772,3182.885551,-9474.636058,-3753.867940
21936.790105,-4145.153275,-11917.315666,-3064.381992
21936.790438,0.000000,-7179.997637,-2757.943793
21936.790772,-2442.679609,-11251.130318,-1378.971896
21936.791105,-740.205942,-10140.821405,-2221.676944
21936.791438,-2738.761985,-8142.265362,-842.705048
21936.791772,1110.308913,-8216.285956,153.219100
21936.792105,4071.132681,-7994.224174,4826.401637
21936.792439,3552.988522,-4589.276840,6358.592633
21936.792772,4071.132681,-9474.636058,2374.896044
21936.793105,0.000000,-8364.327145,2757.943793
21936.793439,1184.329507,-11917.315666,919.314598
21936.793772,-3923.091493,-9252.574275,-3983.696590
21936.794105,-3330.926739,-12213.398043,-5515.887586
21936.794439,-2220.617826,-9844.739029,-4366.744339
21936.794772,-1332.370696,-11991.336260,0.000000
21936.795106,0.000000,-5107.421000,0.000000
21936.795439,1924.535449,-11843.295072,3600.648841
21936.795772,4663.297435,-7402.059420,3600.648841
21936.796106,-814.226536,-5995.668130,2451.505594
21936.796439,5033.400406,-9178.553681,5132.839837
21936.796772,0.000000,-9548.656652,3064.381992
21936.797106,1554.432478,-6883.915261,76.609550
21936.797439,1110.308913,-9474.636058,76.609550
21936.797772,-1184.329507,-8734.430116,-2987.772442
21936.798106,-3182.885551,-11325.150913,-3064.381992
21936.798439,-2812.782580,-8438.347739,-4903.011187
21936.798773,-3034.844362,-12435.459826,-2528.115143
21936.799106,-1554.432478,-7772.162391,-306.438199
21936.799439,2294.638420,-10066.800811,3600.648841
21936.799773,3330.926739,-5995.668130,4903.011187
21936.800106,4145.153275,-7105.977043,7890.783629
21936.800439,3478.967927,-10066.800811,3294.210641
21936.800773,-888.247130,-6291.750507,1838.629195
21936.801106,592.164754,-9104.533087,3600.648841
21936.801440,888.247130,-6365.771101,-2681.334243
21936.801773,962.267725,-11843.295072,-1532.190996
21936.802106,-370.102971,-10214.842000,-1685.410096
21936.802440,-3552.988522,-9770.718434,-5056.230287
21936.802773,-4811.338623,-11029.068536,-2451.505594
21936.803106,-2812.782580,-9474.636058,-2068.457845
21936.803440,-74.020594,-13619.789333,1762.019645
21936.803773,1850.514855,-4219.173869,3983.696590
21936.804107,4071.132681,-9474.636058,6052.154434
21936.804440,4737.318029,-3849.070898,5362.668486
21936.804773,4663.297435,-8290.306550,5132.839837
21936.805107,3404.947333,-10584.944971,3907.087040
21936.805440,0.000000,-9548.656652,0.000000
21936.805773,-4737.318029,-11325.150913,-4903.011187
21936.806107,-1258.350101,-10658.965565,-4060.306139
21936.806440,-1998.556043,-7254.018232,-2987.772442
21936.806774,0.000000,-6587.832884,-1225.752797
21936.807107,-4145.153275,-9548.656652,-4903.011187
21936.807440,148.041188,-11547.212695,-76.609550
21936.807774,814.226536,-10140.821405,612.876398
21936.808107,1924.535449,-9474.636058,5362.668486
21936.808440,4071.132681,-6957.935855,3907.087040
21936.808774,3552.988522,-8956.491898,7048.078582
21936.809107,6143.709319,-4737.318029,2681.334243
21936.809440,1480.411884,-7772.162391,1838.629195
21936.809774,1702.473667,-11843.295072,-76.609550
21936.810107,-1554.432478,-11251.130318,-3753.867940
21936.810441,-3330.926739,-11029.068536,-6511.811733
21936.810774,0.000000,-11843.295072,-3217.601092
21936.811107,-1924.535449,-13027.624579,919.314598
21936.811441,0.000000,-4219.173869,0.000000
21936.811774,1702.473667,-12435.459826,4826.401637
21936.812108,0.000000,-4811.338623,4290.134789
21936.812441,2072.576638,-9400.615463,5439.278036
21936.812774,1110.308913,-4219.173869,1838.629195
21936.813108,222.061783,-8882.471304,2374.896044
21936.813441,-2072.576638,-8364.327145,0.000000
21936.813775,-1480.411884,-7476.080014,306.438199
21936.814108,-1850.514855,-11029.068536,-3753.867940
21936.814441,-4145.153275,-10732.986159,-1838.629195
21936.814775,-2442.679609,-10362.883188,-4979.620737
21936.815108,-3034.844362,-12139.377449,-2757.943793
21936.815442,592.164754,-7772.162391,612.876398
21936.815775,1110.308913,-9622.677246,2528.115143
21936.816108,1406.391290,-3775.050304,3983.696590
21936.816442,1924.535449,-10362.883188,4213.525239
21936.816775,4071.132681,-5403.503377,3064.381992
21936.817109,1480.411884,-8586.388927,3600.648841
21936.817442,2664.741391,-9400.615463,1532.190996
21936.817775,-1406.391290,-7550.100608,-2451.505594
21936.818109,-3256.906145,-12139.377449,-4213.525239
21936.818442,-592.164754,-8512.368333,-3140.991542
21936.818776,-4071.132681,-12509.480420,-6128.763984
21936.819109,-2368.659014,-9548.656652,-1225.752797
21936.819442,-74.020594,-11251.130318,-76.609550
21936.819776,3108.864956,-8290.306550,3600.648841
21936.820109,1184.329507,-7179.997637,7354.516781
21936.820443,4663.297435,-9474.636058,4826.401637
21936.820776,2960.823768,-7179.997637,5209.449386
21936.821109,444.123565,-8290.306550,-383.047749
21936.821443,962.267725,-9918.759623,-229.828649
21936.821776,-2442.679609,-8734.430116,-4366.744339
21936.822110,-74.020594,-12435.459826,-2528.115143
21936.822443,-74.020594,-9474.636058,-4060.306139
21936.822776,0.000000,-11325.150913,612.876398
21936.823110,0.000000,-9548.656652,3907.087040
21936.823443,2294.638420,-8586.388927,-689.485948
21936.823777,2220.617826,-11325.150913,4136.915689
21936.824110,2812.782580,-5551.544565,4136.915689
21936.824443,3404.947333,-7550.100608,2834.553343
21936.824777,4515.256246,-4811.338623,-1072.533697
21936.825110,1702.473667,-14063.912898,-383.047749
21936.825444,0.000000,-5995.668130,-2451.505594
21936.825777,296.082377,-12583.501014,-1608.800546
21936.826110,-370.102971,-11621.233289,-1149.143247
21936.826444,-4737.318029,-9548.656652,-4903.011187
21936.826777,962.267725,-10658.965565,-76.609550
21936.827110,-2516.700203,-7920.203579,-919.314598
21936.827444,-296.082377,-9622.677246,-153.219100
21936.827777,2516.700203,-5329.482782,5439.278036
21936.828111,1110.308913,-7105.977043,2374.896044
21936.828444,3256.906145,-8364.327145,4596.572988
21936.828777,-2738.761985,-10436.903782,1608.800546
21936.829111,1258.350101,-7105.977043,536.266849
21936.829444,-2960.823768,-10732.986159,0.000000
21936.829778,3849.070898,-9474.636058,2374.896044
21936.830111,-3627.009116,-9474.636058,-3140.991542
21936.830444,-4145.153275,-5403.503377,-5515.887586
21936.830778,-3552.988522,-11473.192101,-383.047749
21936.831111,-5329.482782,-9844.739029,-2451.505594
21936.831445,1184.329507,-7772.162391,76.609550
21936.831778,-1850.514855,-10288.862594,3677.258390
21936.832111,2886.803174,-5699.585753,1225.752797
21936.832445,2294.638420,-8290.306550,4826.401637
21936.832778,3034.844362,-5995.668130,3217.601092
21936.833112,4071.132681,-6735.874072,-2451.505594
21936.833445,296.082377,-12065.356855,2681.334243
21936.833778,2294.638420,-10955.047942,-689.485948
21936.834112,-74.020594,-12139.377449,536.266849
21936.834445,-814.226536,-10066.800811,-1302.362347
21936.834779,-2516.700203,-11177.109724,-3064.381992
21936.835112,-1924.535449,-9548.656652,-689.485948
21936.835445,-1998.556043,-10214.842000,153.219100
21936.835779,-148.041188,-7920.203579,2987.772442
21936.836112,0.000000,-3627.009116,0.000000
21936.836446,0.000000,-8364.327145,3064.381992
21936.836779,4663.297435,-4589.276840,1762.019645
21936.837112,2072.576638,-7846.182985,2451.505594
21936.837446,5551.544565,-9178.553681,2987.772442
21936.837779,2220.617826,-10955.047942,-1455.581446
21936.838113,-444.123565,-13545.768739,-1608.800546
21936.838446,-1480.411884,-10288.862594,-3370.820191
21936.838779,1110.308913,-9474.636058,-3753.867940
21936.839113,0.000000,-11325.150913,-1302.362347
21936.839446,-1184.329507,-10881.027347,1072.533697
21936.839780,4071.132681,-5921.647536,1149.143247
21936.840113,592.164754,-8364.327145,4903.011187
21936.840446,6735.874072,-8068.244768,2451.505594
21936.840780,2812.782580,-11843.295072,4826.401637
21936.841113,3849.070898,-6439.791695,3907.087040
21936.841447,1776.494261,-7994.224174,2145.067394
21936.841780,222.061783,-8068.244768,0.000000
21936.842113,-592.164754,-10658.965565,-689.485948
21936.842447,-1554.432478,-9918.759623,-4060.306139
21936.842780,-3627.009116,-9548.656652,-6128.763984
21936.843114,-6809.894666,-11917.315666,-2451.505594
21936.843447,-3923.091493,-7328.038826,-3064.381992
21936.843780,-1628.453072,-9178.553681,1149.143247
21936.844114,-296.082377,-9474.636058,2834.553343
21936.844447,-3330.926739,-8216.285956,3753.867940
21936.844781,4071.132681,-1554.432478,2911.162892
21936.845114,5995.668130,-9474.636058,8656.879127
21936.845447,8660.409521,0.000000,5898.935335
21936.845781,1850.514855,-15396.283594,3600.648841
21936.846114,-2146.597232,-9178.553681,-2834.553343
21936.846448,-5403.503377,-13323.706956,-9729.412825
21936.846781,-5625.565159,-11621.233289,-4060.306139
21936.847114,1702.473667,-10658.965565,-3753.867940
21936.847448,-6069.688724,-13841.851115,-1838.629195
21936.847781,0.000000,-8364.327145,919.314598
21936.848115,74.020594,-7994.224174,4136.915689
21936.848448,5847.626942,-4367.215058,8810.098227
21936.848781,4959.379811,-4367.215058,7354.516781
21936.849115,6439.791695,-7105.977043,6511.811733
21936.849448,2294.638420,-4441.235652,-1225.752797
21936.849782,1480.411884,-12731.542202,2068.457845
21936.850115,-74.020594,-9474.636058,-4060.306139
21936.850448,-4219.173869,-13175.665768,-7354.516781
21936.850782,-1850.514855,-12731.542202,-5592.497135
21936.851115,-4885.359217,-11029.068536,-6052.154434
21936.851449,-4293.194464,-10288.862594,-5132.839837
21936.851782,1332.370696,-9474.636058,1072.533697
21936.852115,4145.153275,-9548.656652,7967.393179
21936.852449,5107.421000,-3627.009116,3677.258390
21936.852782,7254.018232,-9474.636058,8503.660028
21936.853116,3997.112087,-6513.812290,2757.943793
21936.853449,1184.329507,-5403.503377,612.876398
21936.853782,740.205942,-6735.874072,-1302.362347
21936.854116,1110.308913,-8882.471304,-2987.772442
21936.854449,-1110.308913,-10658.965565,-5362.668486
21936.854783,-2442.679609,-12509.480420,-7124.688131
21936.855116,-2516.700203,-16284.530724,-1532.190996
21936.855449,-2368.659014,-7179.997637,-2451.505594
21936.855783,1628.453072,-13471.748144,4826.401637
21936.856116,4071.132681,-3701.029710,2451.505594
21936.856450,5477.523971,-8068.244768,7354.516781
21936.856783,4737.318029,-9178.553681,7354.516781
21936.857116,5255.462188,-5255.462188,4443.353888
21936.857450,74.020594,-9252.574275,2528.115143
21936.857783,740.205942,-8142.265362,-919.314598
21936.858117,-3627.009116,-10584.944971,-4673.182538
21936.858450,-4737.318029,-13323.706956,-4366.744339
21936.858783,-4367.215058,-8364.327145,-5515.887586
21936.859117,-3552.988522,-9548.656652,0.000000
21936.859450,2738.761985,-7105.977043,2068.457845
21936.859784,-592.164754,-13471.748144,1838.629195
21936.860117,3034.844362,-5847.626942,3907.087040
21936.860450,0.000000,-8660.409521,3753.867940
21936.860784,444.123565,-8808.450710,3907.087040
21936.861117,2294.638420,-5625.565159,2221.676944
21936.861451,-1628.453072,-12583.501014,2374.896044
21936.861784,740.205942,-5107.421000,-2374.896044
21936.862117,-1924.535449,-13619.789333,-1149.143247
21936.862451,0.000000,-8956.491898,-1532.190996
21936.862784,-1850.514855,-10066.800811,-2528.115143
21936.863118,0.000000,-9548.656652,-2451.505594
21936.863451,-1184.329507,-11843.295072,-689.485948
21936.863784,1702.473667,-11399.171507,1838.629195
21936.864118,2368.659014,-4811.338623,2451.505594
21936.864451,1702.473667,-9474.636058,1762.019645
21936.864785,4441.235652,-6217.729913,2681.334243
21936.865118,2220.617826,-11547.212695,4213.525239
21936.865451,1628.453072,-5181.441594,612.876398
21936.865785,-2072.576638,-6143.709319,-4136.915689
21936.866118,-666.185348,-14211.954086,-1608.800546
21936.866452,-2368.659014,-7698.141797,-4060.306139
21936.866785,-4737.318029,-11325.150913,-1225.752797
21936.867118,1702.473667,-11843.295072,-76.609550
21936.867452,-3108.864956,-7772.162391,-2451.505594
21936.867785,592.164754,-8882.471304,612.876398
21936.868119,2442.679609,-6365.771101,2681.334243
21936.868452,3256.906145,-6291.750507,4213.525239
21936.868785,2664.741391,-7772.162391,-1225.752797
21936.869119,6365.771101,-14211.954086,6052.154434
21936.869452,1924.535449,-5995.668130,0.000000
21936.869786,592.164754,-11917.315666,1225.752797
21936.870119,-962.267725,-12435.459826,-1762.019645
21936.870452,0.000000,-10881.027347,-2298.286494
21936.870786,-1554.432478,-10881.027347,612.876398
21936.871119,-1258.350101,-7254.018232,-1072.533697
21936.871453,-962.267725,-8808.450710,842.705048
21936.871786,-370.102971,-7920.203579,2374.896044
21936.872119,3478.967927,-7105.977043,3600.648841
21936.872453,0.000000,-5403.503377,4596.572988
21936.872786,-74.020594,-9474.636058,2374.896044
21936.873120,-370.102971,-5625.565159,-1915.238745
21936.873453,0.000000,-9252.574275,995.924147
21936.873786,2072.576638,-9696.697840,0.000000
21936.874120,-1554.432478,-13397.727550,-383.047749
21936.874453,-740.205942,-8808.450710,-3600.648841
21936.874787,-3330.926739,-13619.789333,-2221.676944
21936.875120,-814.226536,-10288.862594,-1532.190996
21936.875453,-1628.453072,-9030.512492,1762.019645
21936.875787,-3256.906145,-9844.739029,536.266849
21936.876120,1184.329507,-1258.350101,2451.505594
21936.876453,-3404.947333,-8364.327145,2451.505594
21936.876787,9400.615463,-5921.647536,6971.469032
21936.877120,0.000000,-7179.997637,2145.067394
21936.877454,1480.411884,-8512.368333,383.047749
21936.877787,962.267725,-8438.347739,0.000000
21936.878120,-4737.318029,-13249.686362,-4903.011187
21936.878454,1110.308913,-9400.615463,-2757.943793
21936.878787,-7031.956449,-14137.933492,-3983.696590
21936.879121,1776.494261,-9474.636058,-2987.772442
21936.879454,-5403.503377,-10436.903782,-1072.533697
21936.879787,1702.473667,-9474.636058,-689.485948
21936.880121,1998.556043,-4811.338623,4903.011187
21936.880454,0.000000,-6291.750507,6435.202183
21936.880788,4589.276840,-3478.967927,3370.820191
21936.881121,296.082377,-8290.306550,3830.477490
21936.881454,4145.153275,-8364.327145,3370.820191
21936.881788,-1406.391290,-9474.636058,0.000000
21936.882121,518.144159,-12287.418637,-4366.744339
21936.882455,-2368.659014,-8956.491898,-2911.162892
21936.882788,-6365.771101,-10732.986159,-7354.516781
21936.883121,0.000000,-5699.585753,-6588.421283
21936.883455,-2442.679609,-15988.448347,-76.609550
21936.883788,4663.297435,-9326.594869,1149.143247
21936.884122,3775.050304,-10362.883188,5745.716235
21936.884455,4367.215058,-6439.791695,4903.011187
21936.884788,5921.647536,-6439.791695,4596.572988
21936.885122,3478.967927,-7624.121203,4596.572988
21936.885455,5847.626942,-10214.842000,4826.401637
21936.885789,0.000000,-6587.832884,2757.943793
21936.886122,2294.638420,-15396.283594,-76.609550
21936.886455,-1184.329507,-5699.585753,-4596.572988
21936.886789,-5921.647536,-11917.315666,-3983.696590
21936.887122,-74.020594,-8290.306550,-5515.887586
21936.887456,-2590.720797,-11843.295072,-383.047749
21936.887789,-3478.967927,-7772.162391,-2451.505594
21936.888122,296.082377,-8956.491898,1378.971896
21936.888456,-74.020594,-7402.059420,3600.648841
21936.888789,2664.741391,-4811.338623,4903.011187
21936.889123,2294.638420,-11843.295072,6665.030833
21936.889456,4663.297435,-3849.070898,919.314598
21936.889789,0.000000,-9548.656652,2451.505594
21936.890123,1702.473667,-8290.306550,0.000000
21936.890456,-3404.947333,-10584.944971,-3140.991542
21936.890790,-4589.276840,-10658.965565,-3677.258390
21936.891123,962.267725,-7105.977043,-3140.991542
21936.891456,-4811.338623,-14211.954086,-4213.525239
21936.891790,3108.864956,-7402.059420,2681.334243
21936.892123,-3627.009116,-10732.986159,459.657299
21936.892457,2442.679609,-6143.709319,2145.067394
21936.892790,0.000000,-5699.585753,2604.724693
21936.893123,3182.885551,-10658.965565,1762.019645
21936.893457,2368.659014,-8364.327145,2451.505594
21936.893790,-370.102971,-11251.130318,2987.772442
21936.894124,2368.659014,-7550.100608,1225.752797
21936.894457,-3552.988522,-8364.327145,0.000000
21936.894790,-1924.535449,-8512.368333,-2757.943793
21936.895124,-4367.215058,-9474.636058,-4060.306139
21936.895457,-2590.720797,-11251.130318,-2834.553343
21936.895791,-1258.350101,-9178.553681,-1302.362347
21936.896124,-74.020594,-10658.965565,1762.019645
21936.896457,1184.329507,-6587.832884,4749.792088
21936.896791,2368.659014,-8364.327145,5898.935335
21936.897124,4071.132681,-6439.791695,1455.581446
21936.897458,1776.494261,-8364.327145,612.876398
21936.897791,2220.617826,-11473.192101,1072.533697
21936.898124,1850.514855,-8216.285956,-2145.067394
21936.898458,296.082377,-13915.871710,-383.047749
21936.898791,-518.144159,-10066.800811,-2757.943793
21936.899125,2886.803174,-8734.430116,-3753.867940
21936.899458,-2368.659014,-14582.057057,1762.019645
21936.899791,1110.308913,-9474.636058,2068.457845
21936.900125,-666.185348,-7179.997637,1838.629195
21936.900458,3775.050304,-5921.647536,6052.154434
21936.900792,4071.132681,-3034.844362,4443.353888
21936.901125,888.247130,-7179.997637,2145.067394
21936.901458,1184.329507,-8956.491898,1762.019645
21936.901792,0.000000,-7772.162391,0.000000
21936.902125,518.144159,-10732.986159,-1991.848295
21936.902459,-4145.153275,-10732.986159,-2145.067394
21936.902792,-74.020594,-12731.542202,-3140.991542
21936.903125,-2442.679609,-13027.624579,-3753.867940
21936.903459,0.000000,-9548.656652,-2451.505594
21936.903792,1110.308913,-8882.471304,0.000000
21936.904126,3256.906145,-8586.388927,4673.182538
21936.904459,1332.370696,-8216.285956,5286.058936
21936.904792,4071.132681,-4145.153275,3600.648841
21936.905126,3849.070898,-9992.780217,5439.278036
21936.905459,4737.318029,-3034.844362,3370.820191
21936.905793,4663.297435,-14804.118840,4826.401637
21936.906126,1702.473667,-6587.832884,0.000000
21936.906459,-4737.318029,-10732.986159,-4903.011187
21936.906793,-5181.441594,-13249.686362,-6818.249932
21936.907126,-1850.514855,-12139.377449,-3524.039291
21936.907460,-1406.391290,-11103.089130,-1072.533697
21936.907793,-74.020594,-9474.636058,919.314598
21936.908126,-814.226536,-7550.100608,3064.381992
21936.908460,2368.659014,-7254.018232,5975.544884
21936.908793,2368.659014,-3478.967927,6971.469032
21936.909127,2072.576638,-7624.121203,2451.505594
21936.909460,2368.659014,-7179.997637,3677.258390
21936.909793,-74.020594,-9474.636058,-842.705048
21936.910127,-3552.988522,-6587.832884,-3064.381992
21936.910460,-666.185348,-12435.459826,-3294.210641
21936.910794,-2442.679609,-11769.274478,-4213.525239
21936.911127,-3552.988522,-8068.244768,-1991.848295
21936.911460,-2294.638420,-9326.594869,-6665.030833
21936.911793,-4737.318029,-14285.974681,-612.876398
21936.912127,1332.370696,-6809.894666,229.828649
21936.912460,4663.297435,-10658.965565,6052.154434
21936.912793,5847.626942,-6365.771101,6052.154434
21936.913127,5329.482782,-8734.430116,6128.763984
21936.913460,4663.297435,-11251.130318,2987.772442
21936.913793,1184.329507,-8364.327145,3064.381992
21936.914126,0.000000,-9548.656652,612.876398
21936.914460,518.144159,-9474.636058,-919.314598
21936.914793,-1850.514855,-10955.047942,-4596.572988
21936.915126,-1850.514855,-9770.718434,-4060.306139
21936.915460,-4663.297435,-10362.883188,-2528.115143
21936.915793,-2738.761985,-4959.379811,-3677.258390
21936.916126,-74.020594,-13619.789333,-76.609550
21936.916459,1702.473667,-7402.059420,1378.971896
21936.916793,1332.370696,-7476.080014,2451.505594
21936.917126,3182.885551,-7105.977043,842.705048
21936.917459,4737.318029,-8068.244768,3217.601092
21936.917793,2146.597232,-10881.027347,2681.334243
21936.918126,4515.256246,-8882.471304,1378.971896
21936.918459,-2368.659014,-8956.491898,-2451.505594
21936.918792,-3552.988522,-13989.892304,-1225.752797
21936.919126,1998.556043,-10066.800811,-1302.362347
21936.919459,-1406.391290,-7772.162391,0.000000
21936.919792,0.000000,-6587.832884,0.000000
21936.920126,3182.885551,-11251.130318,2681.334243
21936.920459,0.000000,-8068.244768,1762.019645
21936.920792,3256.906145,-6069.688724,2221.676944
21936.921125,-666.185348,-10955.047942,689.485948
21936.921459,3256.906145,-6883.915261,1225.752797
21936.921792,-592.164754,-8290.306550,2068.457845
21936.922125,2516.700203,-9548.656652,0.000000
21936.922459,-962.267725,-12879.583391,-842.705048
21936.922792,-1258.350101,-11251.130318,-689.485948
21936.923125,-814.226536,-11843.295072,1149.143247
21936.923458,-1554.432478,-6291.750507,-1838.629195
21936.923792,-592.164754,-8882.471304,-76.609550
21936.924125,-1258.350101,-9326.594869,-2528.115143
21936.924458,3478.967927,-7105.977043,2987.772442
21936.924792,518.144159,-10658.965565,3600.648841
21936.925125,3701.029710,-6439.791695,4366.744339
21936.925458,370.102971,-6365.771101,1302.362347
21936.925791,370.102971,-9992.780217,-3294.210641
21936.926125,2368.659014,-11621.233289,1455.581446
21936.926458,-2664.741391,-7772.162391,-3677.258390
21936.926791,2516.700203,-14211.954086,-76.609550
21936.927125,-666.185348,-12731.542202,-383.047749
21936.927458,0.000000,-10584.944971,-1991.848295
21936.927791,-74.020594,-9474.636058,-383.047749
21936.928124,518.144159,-7550.100608,-153.219100
21936.928458,2812.782580,-7624.121203,2757.943793
21936.928791,2146.597232,-7550.100608,4136.915689
21936.929124,4663.297435,-7105.977043,-76.609550
21936.929457,296.082377,-13175.665768,6052.154434
21936.929791,1110.308913,-9474.636058,1149.143247
21936.930124,0.000000,-6587.832884,-919.314598
21936.930457,-1776.494261,-11917.315666,1225.752797
21936.930791,0.000000,-8364.327145,-3064.381992
21936.931124,-4515.256246,-10066.800811,-2451.505594
21936.931457,-2368.659014,-8364.327145,-2834.553343
21936.931790,-2442.679609,-11621.233289,-689.485948
21936.932124,-3034.844362,-5995.668130,0.000000
21936.932457,4589.276840,-8290.306550,4826.401637
21936.932790,-1332.370696,-9474.636058,2374.896044
21936.933124,1184.329507,-4811.338623,3677.258390
21936.933457,3478.967927,-9474.636058,3600.648841
21936.933790,5033.400406,-5107.421000,1838.629195
21936.934123,2886.803174,-12287.418637,2145.067394
21936.934457,1406.391290,-11251.130318,-76.609550
21936.934790,-1776.494261,-10584.944971,-4903.011187
21936.935123,-3552.988522,-13249.686362,-2451.505594
21936.935457,2294.638420,-9474.636058,-2528.115143
21936.935790,-3849.070898,-10140.821405,0.000000
21936.936123,0.000000,-8068.244768,3600.648841
21936.936456,-74.020594,-9178.553681,2374.896044
21936.936790,592.164754,-5995.668130,4596.572988
21936.937123,2146.597232,-5181.441594,4596.572988
21936.937456,1110.308913,-8882.471304,2374.896044
21936.937790,3701.029710,-6957.935855,5439.278036
21936.938123,296.082377,-6291.750507,1225.752797
21936.938456,2368.659014,-8438.347739,76.609550
21936.938789,-4219.173869,-11843.295072,-5898.935335
21936.939123,-592.164754,-11917.315666,-3907.087040
21936.939456,-3627.009116,-11843.295072,-2528.115143
21936.939789,-1554.432478,-6883.915261,-6128.763984
21936.940123,-1998.556043,-14804.118840,-76.609550
21936.940456,-74.020594,-7105.977043,-689.485948
21936.940789,2368.659014,-7179.997637,4290.134789
21936.941122,7031.956449,-8290.306550,9422.974625
21936.941456,4145.153275,-8956.491898,5515.887586
21936.941789,3256.906145,-5921.647536,6665.030833
21936.942122,2220.617826,-7254.018232,1072.533697
21936.942456,592.164754,-11325.150913,0.000000
21936.942789,-1628.453072,-8956.491898,-1532.190996
21936.943122,-1554.432478,-11251.130318,-6205.373534
21936.943455,-3256.906145,-10732.986159,-4903.011187
21936.943789,-7105.977043,-10732.986159,-4903.011187
21936.944122,-4367.215058,-10658.965565,-1302.362347
21936.944455,0.000000,-5625.565159,153.219100
21936.944789,2368.659014,-10955.047942,3677.258390
21936.945122,4663.297435,-7402.059420,5439.278036
21936.945455,6217.729913,-6513.812290,9346.365076
21936.945788,0.000000,-8364.327145,6588.421283
21936.946122,3478.967927,-4441.235652,0.000000
21936.946455,-2960.823768,-10436.903782,-76.609550
21936.946788,3478.967927,-9474.636058,-1608.800546
21936.947122,-2664.741391,-12139.377449,-3677.258390
21936.947455,-2442.679609,-11547.212695,-5286.058936
21936.947788,-3256.906145,-9548.656652,-1762.019645
21936.948121,-2368.659014,-8142.265362,-2298.286494
21936.948455,518.144159,-11843.295072,229.828649
21936.948788,2368.659014,-9696.697840,6665.030833
21936.949121,1776.494261,-5403.503377,0.000000
21936.949455,2368.659014,-7179.997637,7354.516781
21936.949788,4663.297435,-7105.977043,2681.334243
21936.950121,2294.638420,-8290.306550,2068.457845
21936.950454,2072.576638,-9326.594869,612.876398
21936.950788,-2368.659014,-11917.315666,-3064.381992
21936.951121,-2812.782580,-10288.862594,-3370.820191
21936.951454,-2368.659014,-7179.997637,-2451.505594
21936.951788,-666.185348,-12731.542202,-1915.238745
21936.952121,0.000000,-5551.544565,0.000000
21936.952454,0.000000,-9548.656652,2145.067394
21936.952787,1110.308913,-8216.285956,766.095498
21936.953121,2886.803174,-7105.977043,4213.525239
21936.953454,1554.432478,-8956.491898,3294.210641
21936.953787,4071.132681,-6069.688724,2681.334243
21936.954121,1776.494261,-8734.430116,689.485948
21936.954454,0.000000,-9548.656652,0.000000
21936.954787,-74.020594,-11251.130318,-2834.553343
21936.955120,-2072.576638,-12361.439231,-1991.848295
21936.955454,-962.267725,-10732.986159,-2451.505594
21936.955787,-2220.617826,-11399.171507,-2298.286494
21936.956120,-2072.576638,-5403.503377,-2145.067394
21936.956454,1702.473667,-11103.089130,2374.896044
21936.956787,4663.297435,-5181.441594,4903.011187
21936.957120,2960.823768,-7105.977043,4826.401637
21936.957453,5847.626942,-10658.965565,6052.154434
21936.957787,888.247130,-7179.997637,2451.505594
21936.958120,-888.247130,-9104.533087,-536.266849
21936.958453,0.000000,-9622.677246,-766.095498
21936.958787,-3404.947333,-10955.047942,-3753.867940
21936.959120,-2368.659014,-13101.645173,-1225.752797
21936.959453,-1258.350101,-6809.894666,-3140.991542
21936.959786,-2072.576638,-10140.821405,-2451.505594
21936.960120,-1776.494261,-8660.409521,2451.505594
21936.960453,1110.308913,-7994.224174,842.705048
21936.960786,2960.823768,-5107.421000,1532.190996
21936.961120,1702.473667,-11769.274478,6741.640382
21936.961453,2664.741391,-7254.018232,4136.915689
21936.961786,1184.329507,-8808.450710,3447.429741
21936.962119,1110.308913,-8290.306550,2374.896044
21936.962453,-74.020594,-8882.471304,-4979.620737
21936.962786,-1480.411884,-11843.295072,-995.924147
21936.963119,4367.215058,-13027.624579,-76.609550
21936.963453,-5403.503377,-14211.954086,-4903.011187
21936.963786,-74.020594,-10510.924376,-2528.115143
21936.964119,-4441.235652,-9104.533087,-3217.601092
21936.964452,296.082377,-11843.295072,995.924147
21936.964786,4441.235652,-5847.626942,5592.497135
21936.965119,2886.803174,-5181.441594,4979.620737
21936.965452,4145.153275,-2442.679609,2451.505594
21936.965786,3182.885551,-11843.295072,6971.469032
21936.966119,1702.473667,-5699.585753,0.000000
21936.966452,296.082377,-8364.327145,0.000000
21936.966785,-814.226536,-11843.295072,-4366.744339
21936.967119,-2664.741391,-11029.068536,-4903.011187
21936.967452,-5403.503377,-12213.398043,-7201.297681
21936.967785,-3701.029710,-13397.727550,-3830.477490
21936.968119,-3923.091493,-9622.677246,-383.047749
21936.968452,3256.906145,-4293.194464,3370.820191
21936.968785,1702.473667,-8882.471304,5132.839837
21936.969118,4959.379811,-5995.668130,6052.154434
21936.969452,3552.988522,-8660.409521,7354.516781
21936.969785,7031.956449,-10658.965565,6665.030833
21936.970118,3478.967927,-6587.832884,612.876398
21936.970452,1184.329507,-11029.068536,306.438199
21936.970785,1702.473667,-11843.295072,-4979.620737
21936.971118,-5329.482782,-10732.986159,-6741.640382
21936.971451,-666.185348,-12879.583391,-4366.744339
21936.971785,-2664.741391,-12361.439231,766.095498
21936.972118,-370.102971,-7328.038826,-689.485948
21936.972451,-1332.370696,-9474.636058,1149.143247
21936.972785,0.000000,-7772.162391,4903.011187
21936.973118,3478.967927,-4811.338623,1225.752797
21936.973451,296.082377,-7476.080014,5669.106685
21936.973784,3552.988522,-7698.141797,3600.648841
21936.974118,1998.556043,-10066.800811,995.924147
21936.974451,1406.391290,-10362.883188,-1608.800546
21936.974784,1184.329507,-12287.418637,-4136.915689
21936.975117,-3108.864956,-15174.221811,-2451.505594
21936.975451,-518.144159,-10510.924376,-2374.896044
21936.975784,-1258.350101,-13545.768739,1762.019645
21936.976117,-1776.494261,-4811.338623,0.000000
21936.976451,0.000000,-9548.656652,3447.429741
21936.976784,2886.803174,-4737.318029,4673.182538
21936.977117,1184.329507,-3034.844362,2451.505594
21936.977450,-74.020594,-9918.759623,3217.601092
21936.977784,2368.659014,-4515.256246,1532.190996
21936.978117,-1258.350101,-9770.718434,-459.657299
21936.978450,1628.453072,-9030.512492,-919.314598
21936.978784,-2738.761985,-11843.295072,-2834.553343
21936.979117,-4145.153275,-11325.150913,-2834.553343
21936.979450,-1776.494261,-8956.491898,-995.924147
21936.979783,-1258.350101,-13027.624579,-3753.867940
21936.980117,0.000000,-10288.862594,1225.752797
21936.980450,-592.164754,-9474.636058,2451.505594
21936.980783,3330.926739,-6217.729913,2451.505594
21936.981117,2516.700203,-9474.636058,4979.620737
21936.981450,3849.070898,-6143.709319,4749.792088
21936.981783,0.000000,-7179.997637,2451.505594
21936.982116,2294.638420,-9474.636058,-76.609550
21936.982450,2516.700203,-8956.491898,612.876398
21936.982783,-3849.070898,-9548.656652,-2145.067394
21936.983116,592.164754,-8512.368333,-2451.505594
21936.983450,-3997.112087,-11769.274478,-3370.820191
21936.983783,-1258.350101,-11547.212695,-3140.991542
21936.984116,-2072.576638,-9326.594869,-1685.410096
21936.984449,-1406.391290,-9770.718434,-995.924147
21936.984783,2812.782580,-7772.162391,0.000000
21936.985116,1998.556043,-6513.812290,4213.525239
21936.985449,5107.421000,-7476.080014,4443.353888
21936.985783,3404.947333,-10140.821405,5822.325785
21936.986116,4071.132681,-7105.977043,2374.896044
21936.986449,1702.473667,-10140.821405,0.000000
21936.986782,592.164754,-10658.965565,3600.648841
21936.987116,-1554.432478,-6291.750507,-6128.763984
21936.987449,-2960.823768,-10955.047942,-3447.429741
21936.987782,-1776.494261,-9252.574275,-1762.019645
21936.988116,-4515.256246,-9844.739029,-5822.325785
21936.988449,-2664.741391,-10436.903782,-1225.752797
21936.988782,740.205942,-7994.224174,689.485948
21936.989115,1850.514855,-7550.100608,3294.210641
21936.989449,4663.297435,-3701.029710,4903.011187
21936.989782,4515.256246,-9474.636058,6971.469032
21936.990115,5255.462188,-7105.977043,3600.648841
21936.990449,1184.329507,-9548.656652,3677.258390
21936.990782,-666.185348,-11843.295072,-1302.362347
21936.991115,-3552.988522,-9548.656652,-4673.182538
21936.991448,-1702.473667,-11843.295072,-5745.716235
21936.991782,-3108.864956,-14285.974681,-1225.752797
21936.992115,-1480.411884,-6587.832884,-919.314598
21936.992448,-2294.638420,-7179.997637,0.000000
21936.992782,-74.020594,-8808.450710,4519.963438
21936.993115,1702.473667,-4367.215058,1302.362347
21936.993448,-666.185348,-5995.668130,1838.629195
21936.993781,2368.659014,-5995.668130,842.705048
21936.994115,1184.329507,-9770.718434,2145.067394
21936.994448,666.185348,-9474.636058,1915.238745
21936.994781,296.082377,-8438.347739,-1225.752797
21936.995115,-1850.514855,-13323.706956,-3753.867940
21936.995448,-2368.659014,-12657.521608,-1838.629195
21936.995781,-2442.679609,-11251.130318,-3753.867940
21936.996114,-2738.761985,-9548.656652,-2298.286494
21936.996448,-1332.370696,-10436.903782,2451.505594
21936.996781,1110.308913,-5921.647536,5209.449386
21936.997114,5551.544565,-3552.988522,3830.477490
21936.997448,5847.626942,-8142.265362,6205.373534
21936.997781,3701.029710,-7105.977043,2451.505594
21936.998114,-592.164754,-8364.327145,-1685.410096
21936.998447,2590.720797,-11843.295072,-1302.362347
21936.998781,-1628.453072,-11621.233289,-3677.258390
21936.999114,-3552.988522,-10140.821405,-3677.258390
21936.999447,-74.020594,-11843.295072,-4366.744339
21936.999781,-1850.514855,-13619.789333,-2528.115143
21937.000114,1776.494261,-7698.141797,2451.505594
21937.000447,666.185348,-8142.265362,2987.772442
21937.000780,2590.720797,-5403.503377,5822.325785
21937.001114,666.185348,-4811.338623,4903.011187
21937.001447,4663.297435,-7105.977043,4213.525239
21937.001780,1702.473667,-7772.162391,2681.334243
21937.002114,1850.514855,-7105.977043,536.266849
21937.002447,-74.020594,-10066.800811,-995.924147
21937.002780,-370.102971,-7105.977043,-6205.373534
21937.003113,-3552.988522,-16136.489536,-2528.115143
21937.003447,-74.020594,-12435.459826,-4979.620737
21937.003780,-1184.329507,-10140.821405,-2145.067394
21937.004113,0.000000,-10140.821405,1378.971896
21937.004447,4663.297435,-8142.265362,3064.381992
21937.004780,2072.576638,-7994.224174,4826.401637
21937.005113,3627.009116,-5255.462188,3677.258390
21937.005446,3997.112087,-8364.327145,3907.087040
21937.005780,2368.659014,-9548.656652,4903.011187
21937.006113,4663.297435,-7105.977043,4826.401637
21937.006446,296.082377,-5995.668130,-3370.820191
21937.006780,-2368.659014,-13397.727550,2068.457845
21937.007113,-2442.679609,-9474.636058,-4979.620737
21937.007446,-4737.318029,-10732.986159,-4903.011187
21937.007779,-3034.844362,-10066.800811,-3600.648841
21937.008113,-2886.803174,-11251.130318,-2221.676944
21937.008446,-3330.926739,-8956.491898,-612.876398
21937.008779,-592.164754,-8068.244768,3064.381992
21937.009113,3478.967927,-9474.636058,1762.019645
21937.009446,0.000000,-9844.739029,7737.564530
21937.009779,3478.967927,-9474.636058,4519.963438
21937.010112,1924.535449,-4959.379811,612.876398
21937.010446,3108.864956,-11251.130318,4826.401637
21937.010779,2072.576638,-9548.656652,1838.629195
21937.011112,-1184.329507,-9474.636058,1149.143247
21937.011445,962.267725,-9770.718434,-2987.772442
21937.011779,-2442.679609,-11843.295072,-3294.210641
21937.012112,-4589.276840,-9622.677246,-7354.516781
21937.012445,-4589.276840,-9548.656652,-2451.505594
21937.012778,-2664.741391,-12139.377449,-76.609550
21937.013112,2294.638420,-3923.091493,0.000000
21937.013445,0.000000,-8882.471304,6665.030833
21937.013778,4515.256246,-4959.379811,2451.505594
21937.014112,1702.473667,-9474.636058,6818.249932
21937.014445,2960.823768,-5477.523971,2528.115143
21937.014778,2886.803174,-6513.812290,2374.896044
21937.015111,-1850.514855,-11251.130318,-2834.553343
21937.015445,814.226536,-13027.624579,-3753.867940
21937.015778,-4737.318029,-9548.656652,-2451.505594
21937.016111,-74.020594,-12435.459826,-2528.115143
21937.016444,-1258.350101,-13027.624579,-1302.362347
21937.016778,-2960.823768,-7476.080014,306.438199
21937.017111,2294.638420,-6957.935855,-76.609550
21937.017444,4293.194464,-9992.780217,5898.935335
21937.017777,1776.494261,-6291.750507,3677.258390
21937.018111,5551.544565,-5255.462188,3677.258390
21937.018444,2664.741391,-11029.068536,3830.477490
21937.018777,3775.050304,-9992.780217,612.876398
21937.019110,-518.144159,-11843.295072,-842.705048
21937.019444,-1776.494261,-8364.327145,-4903.011187
21937.019777,1110.308913,-11843.295072,-5592.497135
21937.020110,-3552.988522,-14285.974681,-1838.629195
21937.020443,3182.885551,-8290.306550,2374.896044
21937.020777,-74.020594,-9474.636058,536.266849
21937.021110,1776.494261,-7772.162391,4519.963438
21937.021443,0.000000,-5921.647536,306.438199
21937.021776,2220.617826,-9104.533087,3753.867940
21937.022110,1258.350101,-5995.668130,1225.752797
21937.022443,888.247130,-11769.274478,1838.629195
21937.022776,-1850.514855,-8068.244768,0.000000
21937.023109,-4441.235652,-7179.997637,-3524.039291
21937.023443,-74.020594,-11843.295072,-3140.991542
21937.023776,-3701.029710,-9548.656652,-4136.915689
21937.024109,1258.350101,-11251.130318,-689.485948
21937.024442,-3627.009116,-9326.594869,306.438199
21937.024776,740.205942,-9696.697840,2145.067394
21937.025109,2442.679609,-7402.059420,5669.106685
21937.025442,5255.462188,-8290.306550,6665.030833
21937.025775,1184.329507,-7179.997637,5515.887586
21937.026109,2294.638420,-7698.141797,2374.896044
21937.026442,1998.556043,-5107.421000,-2451.505594
21937.026775,-2368.659014,-11325.150913,612.876398
21937.027108,-3330.926739,-11843.295072,-4366.744339
21937.027442,-3108.864956,-8290.306550,-3294.210641
21937.027775,-3330.926739,-10658.965565,-5286.058936
21937.028108,-962.267725,-10140.821405,-919.314598
21937.028441,-4071.132681,-8660.409521,-2145.067394
21937.028775,-3552.988522,-7179.997637,995.924147
21937.029108,-74.020594,-10955.047942,2834.553343
21937.029441,1480.411884,-6587.832884,3064.381992
21937.029774,5329.482782,-7179.997637,8656.879127
21937.030108,3478.967927,-4885.359217,1685.410096
21937.030441,3997.112087,-8142.265362,2374.896044
21937.030774,0.000000,-10658.965565,689.485948
21937.031107,-1036.288319,-9548.656652,-3983.696590
21937.031441,-5773.606348,-11991.336260,-5592.497135
21937.031774,-4737.318029,-12953.603985,-5745.716235
21937.032107,-3256.906145,-9326.594869,-4060.306139
21937.032441,222.061783,-10510.924376,-229.828649
21937.032774,7105.977043,-6513.812290,6665.030833
21937.033107,4071.132681,-7698.141797,3294.210641
21937.033440,5181.441594,-4811.338623,3064.381992
21937.033774,0.000000,-10732.986159,2451.505594
21937.034107,7624.121203,-11251.130318,2681.334243
21937.034440,3552.988522,-9548.656652,612.876398
21937.034773,6291.750507,-9178.553681,-1608.800546
21937.035107,4737.318029,-11547.212695,383.047749
21937.035440,-1628.453072,-10881.027347,-3064.381992
21937.035773,1702.473667,-11251.130318,-3447.429741
21937.036106,-3552.988522,-10066.800811,-2528.115143
21937.036440,-3552.988522,-8364.327145,-1685.410096
21937.036773,-1554.432478,-9474.636058,1762.019645
21937.037106,2294.638420,-7698.141797,2528.115143
21937.037439,2886.803174,-7105.977043,5439.278036
21937.037773,444.123565,-5181.441594,1991.848295
21937.038106,1406.391290,-8216.285956,1225.752797
21937.038439,1184.329507,-9918.759623,995.924147
21937.038772,592.164754,-8364.327145,0.000000
21937.039106,-74.020594,-11251.130318,-3753.867940
21937.039439,-2368.659014,-11621.233289,-76.609550
21937.039772,-370.102971,-12435.459826,-2374.896044
21937.040105,-2072.576638,-8882.471304,-689.485948
21937.040439,-1776.494261,-5995.668130,0.000000
21937.040772,-2072.576638,-9918.759623,2221.676944
21937.041105,1258.350101,-6069.688724,4826.401637
21937.041438,-1332.370696,-6587.832884,5515.887586
21937.041772,3182.885551,-4737.318029,4213.525239
21937.042105,-74.020594,-9548.656652,0.000000
21937.042438,-74.020594,-10658.965565,-76.609550
21937.042771,-1258.350101,-7994.224174,-5439.278036
21937.043105,-4441.235652,-11769.274478,-2528.115143
21937.043438,-2368.659014,-12287.418637,-3524.039291
21937.043771,-4071.132681,-12139.377449,-2451.505594
21937.044104,-74.020594,-8068.244768,-2757.943793
21937.044438,-4071.132681,-13323.706956,306.438199
21937.044771,1850.514855,-7624.121203,3294.210641
21937.045104,0.000000,-7179.997637,8120.612279
21937.045437,2294.638420,-6513.812290,4366.744339
21937.045771,1776.494261,-2442.679609,1225.752797
21937.046104,1702.473667,-10658.965565,4826.401637
21937.046437,2960.823768,-6217.729913,1838.629195
21937.046770,-1036.288319,-12361.439231,1915.238745
21937.047104,-1184.329507,-9252.574275,-3064.381992
21937.047437,-2442.679609,-9770.718434,-6205.373534
21937.047770,-4737.318029,-13027.624579,-6818.249932
21937.048103,0.000000,-10881.027347,-1302.362347
21937.048437,0.000000,-9548.656652,-306.438199
21937.048770,1850.514855,-9252.574275,76.609550
21937.049103,4441.235652,-9178.553681,5132.839837
21937.049437,7031.956449,-9474.636058,4826.401637
21937.049770,7105.977043,-3627.009116,6128.763984
21937.050103,8216.285956,-9474.636058,4826.401637
21937.050436,3775.050304,-7179.997637,612.876398
21937.050770,1776.494261,-11695.253884,2374.896044
21937.051103,2886.803174,-10955.047942,-4366.744339
21937.051436,1036.288319,-13175.665768,-3140.991542
21937.051769,-666.185348,-11695.253884,-1762.019645
21937.052103,-2442.679609,-10584.944971,-4213.525239
21937.052436,-4515.256246,-8364.327145,-3753.867940
21937.052769,-4737.318029,-10140.821405,-2374.896044
21937.053102,2294.638420,-8734.430116,1302.362347
21937.053436,1776.494261,-2738.761985,5515.887586
21937.053769,4515.256246,-7105.977043,5439.278036
21937.054102,3478.967927,-5477.523971,2757.943793
21937.054435,-74.020594,-8882.471304,2068.457845
21937.054769,1776.494261,-9992.780217,1072.533697
21937.055102,-444.123565,-10881.027347,-1532.190996
21937.055435,-2072.576638,-10881.027347,-3677.258390
21937.055768,-5921.647536,-10732.986159,-229.828649
21937.056102,-74.020594,-9474.636058,-2528.115143
21937.056435,-2590.720797,-9474.636058,-2528.115143
21937.056768,-3552.988522,-11325.150913,1378.971896
21937.057101,0.000000,-5551.544565,2604.724693
21937.057435,-740.205942,-8808.450710,3983.696590
21937.057768,444.123565,-6513.812290,2451.505594
21937.058101,2294.638420,-5625.565159,3907.087040
21937.058434,-74.020594,-9474.636058,2987.772442
21937.058768,3256.906145,-6957.935855,1762.019645
21937.059101,-3923.091493,-11917.315666,-5822.325785
21937.059434,-3404.947333,-12213.398043,-1072.533697
21937.059767,-74.020594,-10658.965565,-76.609550
21937.060101,-74.020594,-11991.336260,1455.581446
21937.060434,-592.164754,-6439.791695,306.438199
21937.060767,-3182.885551,-8142.265362,-2068.457845
21937.061100,518.144159,-8882.471304,1149.143247
21937.061434,-1924.535449,-5699.585753,153.219100
21937.061767,2294.638420,-7698.141797,229.828649
21937.062100,148.041188,-8364.327145,3677.258390
21937.062433,3478.967927,-11251.130318,842.705048
21937.062767,3923.091493,-6587.832884,1838.629195
21937.063100,3478.967927,-11917.315666,4213.525239
21937.063433,2590.720797,-9548.656652,-1762.019645
21937.063766,-2516.700203,-12879.583391,-3064.381992
21937.064100,518.144159,-11843.295072,-2528.115143
21937.064433,0.000000,-7476.080014,-1302.362347
21937.064766,2294.638420,-9474.636058,0.000000
21937.065099,3849.070898,-6883.915261,2911.162892
21937.065433,3182.885551,-7846.182985,4903.011187
21937.065766,4293.194464,-5329.482782,2604.724693
21937.066099,1998.556043,-8882.471304,-76.609550
21937.066433,7031.956449,-11843.295072,-76.609550
21937.066766,0.000000,-10140.821405,3677.258390
21937.067099,3478.967927,-9474.636058,-1302.362347
21937.067432,-3256.906145,-12731.542202,-3064.381992
21937.067766,-5329.482782,-8364.327145,-5975.544884
21937.068099,-1332.370696,-11177.109724,-3064.381992
21937.068432,-3552.988522,-10807.006753,-1455.581446
21937.068765,-74.020594,-5847.626942,-1378.971896
21937.069099,-2368.659014,-8956.491898,2451.505594
21937.069432,5847.626942,-4441.235652,4290.134789
21937.069765,0.000000,-4811.338623,4290.134789
21937.070098,5255.462188,-8586.388927,2374.896044
21937.070432,3182.885551,-9474.636058,536.266849
21937.070765,1776.494261,-11769.274478,1149.143247
21937.071098,1480.411884,-11029.068536,0.000000
21937.071431,-5181.441594,-12953.603985,-1608.800546
21937.071765,-2738.761985,-6439.791695,-1072.533697
21937.072098,-2738.761985,-11251.130318,-1302.362347
21937.072431,1110.308913,-7476.080014,0.000000
21937.072764,-5921.647536,-11029.068536,306.438199
21937.073098,-814.226536,-7105.977043,1762.019645
21937.073431,-4293.194464,-4811.338623,0.000000
21937.073764,-666.185348,-9474.636058,1608.800546
21937.074097,2812.782580,-8364.327145,4596.572988
21937.074431,-2220.617826,-9770.718434,1302.362347
21937.074764,2738.761985,-8956.491898,-766.095498
21937.075097,-666.185348,-9474.636058,1149.143247
21937.075430,0.000000,-5995.668130,0.000000
21937.075764,1110.308913,-9474.636058,-76.609550
21937.076097,-2442.679609,-13619.789333,-383.047749
21937.076430,-5625.565159,-7179.997637,-4290.134789
21937.076763,-1258.350101,-8882.471304,-76.609550
21937.077097,-296.082377,-7179.997637,536.266849
21937.077430,1110.308913,-8808.450710,2298.286494
21937.077763,740.205942,-6143.709319,612.876398
21937.078096,518.144159,-13027.624579,-76.609550
21937.078430,2812.782580,-8438.347739,2068.457845
21937.078763,4071.132681,-10955.047942,2068.457845
21937.079096,5625.565159,-8068.244768,1991.848295
21937.079429,2368.659014,-9548.656652,1225.752797
21937.079763,4441.235652,-11251.130318,-383.047749
21937.080096,814.226536,-10140.821405,-3370.820191
21937.080429,3552.988522,-9548.656652,-76.609550
21937.080762,-74.020594,-14508.036463,229.828649
21937.081096,1184.329507,-6291.750507,0.000000
21937.081429,0.000000,-9918.759623,2604.724693
21937.081762,1258.350101,-7031.956449,689.485948
21937.082095,3034.844362,-8660.409521,3600.648841
21937.082429,4071.132681,-7105.977043,2987.772442
21937.082762,1850.514855,-8290.306550,1762.019645
21937.083095,-4145.153275,-7179.997637,-2451.505594
21937.083429,-814.226536,-11177.109724,-1915.238745
21937.083762,-370.102971,-10658.965565,-2834.553343
21937.084095,1110.308913,-10658.965565,-1838.629195
21937.084428,-3034.844362,-10362.883188,-2451.505594
21937.084762,-666.185348,-7550.100608,-3370.820191
21937.085095,2368.659014,-9548.656652,1532.190996
21937.085428,2294.638420,-10807.006753,5592.497135
21937.085761,2738.761985,-9474.636058,6052.154434
21937.086095,-3552.988522,-5995.668130,6128.763984
21937.086428,5255.462188,-8882.471304,2681.334243
21937.086761,1628.453072,-10066.800811,3370.820191
21937.087094,2146.597232,-9326.594869,2987.772442
21937.087428,-4663.297435,-7031.956449,-4136.915689
21937.087761,-7105.977043,-13545.768739,-5515.887586
21937.088094,-3034.844362,-8142.265362,-3677.258390
21937.088427,-7105.977043,-11917.315666,-1225.752797
21937.088761,-1850.514855,-5921.647536,-3524.039291
21937.089094,-3849.070898,-12731.542202,4290.134789
21937.089427,2294.638420,-7105.977043,4826.401637
21937.089760,3849.070898,-2738.761985,8580.269578
21937.090094,0.000000,-5995.668130,3370.820191
21937.090427,1776.494261,-6957.935855,1608.800546
21937.090760,-1110.308913,-10584.944971,1608.800546
21937.091093,-2072.576638,-8438.347739,-2911.162892
21937.091427,-666.185348,-10658.965565,-3753.867940
21937.091760,-5329.482782,-10732.986159,-6741.640382
21937.092093,-74.020594,-11843.295072,-6818.249932
21937.092426,888.247130,-9178.553681,-3447.429741
21937.092760,0.000000,-10732.986159,1378.971896
21937.093093,3108.864956,-9548.656652,2757.943793
21937.093426,3849.070898,-7179.997637,4903.011187
21937.093759,7105.977043,-8586.388927,6511.811733
21937.094093,6365.771101,-7550.100608,5975.544884
21937.094426,7031.956449,-7698.141797,3600.648841
21937.094759,4145.153275,-10436.903782,2451.505594
21937.095092,1110.308913,-10658.965565,995.924147
21937.095426,74.020594,-9400.615463,-5132.839837
21937.095759,-3997.112087,-12213.398043,-4596.572988
21937.096092,1554.432478,-10658.965565,-2221.676944
21937.096425,-2960.823768,-7328.038826,-3064.381992
21937.096759,-5921.647536,-10732.986159,0.000000
21937.097092,-74.020594,-8290.306550,842.705048
21937.097425,1406.391290,-6291.750507,1838.629195
21937.097758,4737.318029,-10658.965565,7584.345430
21937.098092,4145.153275,-4219.173869,3677.258390
21937.098425,1998.556043,-10584.944971,1532.190996
21937.098758,2442.679609,-9918.759623,2298.286494
21937.099091,2294.638420,-7698.141797,-2221.676944
21937.099425,0.000000,-10732.986159,0.000000
21937.099758,-2442.679609,-10658.965565,-3140.991542
21937.100091,-2738.761985,-10362.883188,-4673.182538
21937.100425,-2368.659014,-8364.327145,0.000000
21937.100758,-74.020594,-11843.295072,1762.019645
21937.101091,-518.144159,-9030.512492,3294.210641
21937.101424,-1924.535449,-8290.306550,3447.429741
21937.101758,-666.185348,-6217.729913,919.314598
21937.102091,-1924.535449,-9548.656652,0.000000
21937.102424,-2368.659014,-5995.668130,3677.258390
21937.102757,-74.020594,-8290.306550,-1302.362347
21937.103091,-1184.329507,-7179.997637,-4290.134789
21937.103424,-3552.988522,-15026.180623,2374.896044
21937.103757,-1554.432478,-4515.256246,-3064.381992
21937.104090,-2294.638420,-11177.109724,1225.752797
21937.104424,-3108.864956,-9918.759623,-1685.410096
21937.104757,-2294.638420,-9622.677246,1532.190996
21937.105090,-1924.535449,-5625.565159,1532.190996
21937.105423,3552.988522,-5699.585753,6052.154434
21937.105757,2886.803174,-8882.471304,2068.457845
21937.106090,296.082377,-6883.915261,1072.533697
21937.106423,1776.494261,-12435.459826,1762.019645
21937.106756,2960.823768,-8956.491898,919.314598
21937.107090,2220.617826,-12065.356855,0.000000
21937.107423,3034.844362,-7846.182985,-995.924147
21937.107756,1702.473667,-8956.491898,-2834.553343
21937.108089,-962.267725,-13619.789333,-1915.238745
21937.108423,2294.638420,-8290.306550,-995.924147
21937.108756,-2368.659014,-7179.997637,-2757.943793
21937.109089,2368.659014,-10140.821405,1532.190996
21937.109422,3775.050304,-9474.636058,2221.676944
21937.109756,3108.864956,-6735.874072,6128.763984
21937.110089,4367.215058,-5403.503377,2451.505594
21937.110422,4145.153275,-9622.677246,2987.772442
21937.110755,1702.473667,-6735.874072,-1149.143247
21937.111089,1110.308913,-10881.027347,-2528.115143
21937.111422,-74.020594,-10955.047942,-2987.772442
21937.111755,-814.226536,-11621.233289,-3753.867940
21937.112088,-1850.514855,-9918.759623,-1378.971896
21937.112422,518.144159,-9918.759623,-842.705048
21937.112755,-74.020594,-13027.624579,1149.143247
21937.113088,0.000000,-8364.327145,4213.525239
21937.113421,222.061783,-7328.038826,1225.752797
21937.113755,2960.823768,-5995.668130,3677.258390
21937.114088,592.164754,-6587.832884,1991.848295
21937.114421,1998.556043,-6587.832884,4903.011187
21937.114754,2590.720797,-5107.421000,842.705048
21937.115087,1406.391290,-13027.624579,1915.238745
21937.115420,-740.205942,-8808.450710,-1608.800546
21937.115753,-4515.256246,-11029.068536,-5975.544884
21937.116086,-3552.988522,-11029.068536,-1149.143247
21937.116420,-4737.318029,-10732.986159,-1378.971896
21937.116753,-3034.844362,-10362.883188,-2681.334243
21937.117086,-3182.885551,-9844.739029,919.314598
21937.117419,-2368.659014,-11621.233289,4826.401637
21937.117752,1110.308913,-4219.173869,2987.772442
21937.118085,592.164754,-8734.430116,3447.429741
21937.118418,2220.617826,-7698.141797,6894.859482
21937.118751,-370.102971,-9178.553681,4673.182538
21937.119084,4071.132681,-5921.647536,1149.143247
21937.119417,-2368.659014,-8956.491898,1532.190996
21937.119750,-2368.659014,-7624.121203,-2528.115143
21937.120083,-2442.679609,-11251.130318,-5898.935335
21937.120416,-6291.750507,-11695.253884,-6511.811733
21937.120750,-3701.029710,-13619.789333,-3217.601092
21937.121083,-1924.535449,-11251.130318,0.000000
21937.121416,4071.132681,-8512.368333,2987.772442
21937.121749,1628.453072,-7105.977043,3753.867940
21937.122082,5921.647536,-3627.009116,3064.381992
21937.122415,1184.329507,-9548.656652,6588.421283
21937.122748,5847.626942,-5921.647536,2987.772442
21937.123081,2442.679609,-5995.668130,0.000000
21937.123414,3627.009116,-11843.295072,1149.143247
21937.123747,592.164754,-6439.791695,-4290.134789
21937.124080,-962.267725,-12435.459826,-4979.620737
21937.124413,1628.453072,-12139.377449,-4213.525239
21937.124746,-1998.556043,-10066.800811,-1455.581446
21937.125080,2368.659014,-8660.409521,-1685.410096
21937.125413,0.000000,-12361.439231,2681.334243
21937.125746,2960.823768,-5477.523971,995.924147
21937.126079,2664.741391,-6217.729913,1838.629195
21937.126412,5625.565159,-9474.636058,6665.030833
21937.126745,5255.462188,-6809.894666,1378.971896
21937.127078,296.082377,-10732.986159,2451.505594
21937.127411,2738.761985,-9474.636058,-1455.581446
21937.127744,-2072.576638,-11325.150913,-2911.162892
21937.128077,1036.288319,-11251.130318,-766.095498
21937.128410,-814.226536,-8586.388927,-1608.800546
21937.128743,-1036.288319,-8364.327145,-842.705048
21937.129076,1110.308913,-11843.295072,-1302.362347
21937.129410,-2368.659014,-11029.068536,3064.381992
21937.129743,4071.132681,-6809.894666,1225.752797
21937.130076,-1184.329507,-11325.150913,5286.058936
21937.130409,4071.132681,-8290.306550,4826.401637
21937.130742,-370.102971,-9474.636058,2374.896044
21937.131075,2442.679609,-5255.462188,2987.772442
21937.131408,-2960.823768,-9548.656652,-536.266849
21937.131741,-3552.988522,-7105.977043,-2528.115143
21937.132074,-5033.400406,-9992.780217,-2374.896044
21937.132407,-1258.350101,-8808.450710,-383.047749
21937.132740,-3552.988522,-9548.656652,-2451.505594
21937.133073,-3849.070898,-9400.615463,-76.609550
21937.133406,-74.020594,-10658.965565,0.000000
21937.133740,-1480.411884,-9548.656652,4903.011187
21937.134073,5847.626942,-3256.906145,4060.306139
21937.134406,962.267725,-9548.656652,2757.943793
21937.134739,2812.782580,-5773.606348,2834.553343
21937.135072,-1776.494261,-9696.697840,-2374.896044
21937.135405,-370.102971,-13027.624579,-76.609550
21937.135738,-2368.659014,-11843.295072,-76.609550
21937.136071,-1258.350101,-13619.789333,-76.609550
21937.136404,-1554.432478,-5921.647536,-3677.258390
21937.136737,-4737.318029,-9548.656652,-3064.381992
21937.137070,-2442.679609,-10732.986159,-766.095498
21937.137403,2516.700203,-9030.512492,3140.991542
21937.137737,3182.885551,-9252.574275,4213.525239
21937.138070,3034.844362,-7994.224174,2374.896044
21937.138403,592.164754,-12213.398043,2451.505594
21937.138736,5847.626942,-7105.977043,-76.609550
21937.139069,4885.359217,-9844.739029,0.000000
21937.139402,2368.659014,-8364.327145,-1532.190996
21937.139735,1702.473667,-15396.283594,-1149.143247
21937.140068,-2368.659014,-7772.162391,-3677.258390
21937.140401,-666.185348,-10362.883188,-2221.676944
21937.140734,-1924.535449,-10584.944971,995.924147
21937.141067,1924.535449,-3997.112087,229.828649
21937.141400,-518.144159,-7476.080014,2451.505594
21937.141733,3849.070898,-6365.771101,4673.182538
21937.142067,2886.803174,-7105.977043,4519.963438
21937.142400,1480.411884,-8586.388927,3600.648841
21937.142733,5255.462188,-7105.977043,-76.609550
21937.143066,-1258.350101,-11917.315666,0.000000
21937.143399,3552.988522,-8290.306550,-1225.752797
21937.143732,-370.102971,-11843.295072,-4979.620737
21937.144065,444.123565,-9548.656652,-3064.381992
21937.144398,-2368.659014,-11917.315666,-383.047749
21937.144731,-2664.741391,-11917.315666,-306.438199
21937.145064,814.226536,-9770.718434,2374.896044
21937.145397,0.000000,-11325.150913,5515.887586
21937.145730,5255.462188,-5921.647536,5898.935335
21937.146063,3182.885551,-2442.679609,2604.724693
21937.146397,1776.494261,-9992.780217,3294.210641
21937.146730,2886.803174,-9474.636058,1762.019645
21937.147063,-3849.070898,-10732.986159,0.000000
21937.147396,-1258.350101,-9474.636058,-3140.991542
21937.147729,-5033.400406,-11547.212695,-3447.429741
21937.148062,-3701.029710,-8364.327145,-4136.915689
21937.148395,-1036.288319,-7031.956449,-3294.210641
21937.148728,-4737.318029,-10140.821405,-1225.752797
21937.149061,-666.185348,-6587.832884,0.000000
21937.149394,-74.020594,-11843.295072,2987.772442
21937.149727,3330.926739,-6587.832884,5209.449386
21937.150060,-1776.494261,-8364.327145,4903.011187
21937.150393,3627.009116,-6883.915261,3907.087040
21937.150727,1628.453072,-7105.977043,1762.019645
21937.151060,888.247130,-10140.821405,612.876398
21937.151393,888.247130,-7254.018232,-76.609550
21937.151726,-3923.091493,-11843.295072,-4979.620737
21937.152059,-3552.988522,-11325.150913,-3677.258390
21937.152392,-2442.679609,-11547.212695,-1915.238745
21937.152725,-1554.432478,-7179.997637,-3064.381992
21937.153058,148.041188,-8734.430116,919.314598
21937.153391,1480.411884,-11547.212695,2451.505594
21937.153724,2294.638420,-9030.512492,2757.943793
21937.154057,1850.514855,-9252.574275,3830.477490
21937.154390,5403.503377,-8364.327145,229.828649
21937.154723,4071.132681,-13545.768739,2068.457845
21937.155057,5033.400406,-9474.636058,4826.401637
21937.155390,1480.411884,-5403.503377,-2451.505594
21937.155723,-1776.494261,-12509.480420,1455.581446
21937.156056,-74.020594,-7105.977043,-5592.497135
21937.156389,-1776.494261,-9548.656652,-2451.505594
21937.156722,814.226536,-9326.594869,-383.047749
21937.157055,-1554.432478,-9844.739029,-1149.143247
21937.157388,814.226536,-9178.553681,2221.676944
21937.157721,740.205942,-4885.359217,229.828649
21937.158054,2886.803174,-8882.471304,995.924147
21937.158387,1776.494261,-9622.677246,2987.772442
21937.158720,2590.720797,-9696.697840,2757.943793
21937.159053,1110.308913,-7624.121203,1762.019645
21937.159387,1110.308913,-9474.636058,1149.143247
21937.159720,-1036.288319,-11473.192101,2987.772442
21937.160053,3478.967927,-4737.318029,-1455.581446
21937.160386,-2368.659014,-8364.327145,0.000000
21937.160719,592.164754,-8956.491898,612.876398
21937.161052,-1850.514855,-10066.800811,-2681.334243
21937.161385,-74.020594,-12731.542202,-689.485948
21937.161718,1998.556043,-9844.739029,459.657299
21937.162051,740.205942,-10288.862594,1378.971896
21937.162384,1480.411884,-7179.997637,1225.752797
21937.162717,2664.741391,-11843.295072,2374.896044
21937.163050,444.123565,-7105.977043,536.266849
21937.163384,-1628.453072,-6291.750507,0.000000
21937.163717,-74.020594,-11251.130318,-76.609550
21937.164050,-2738.761985,-7179.997637,0.000000
21937.164383,-1258.350101,-8586.388927,-1532.190996
21937.164716,-3256.906145,-9474.636058,-1302.362347
21937.165049,-4219.173869,-9252.574275,-1532.190996
21937.165382,-2960.823768,-9548.656652,2145.067394
21937.165715,-74.020594,-8290.306550,-76.609550
21937.166048,1998.556043,-7476.080014,919.314598
21937.166381,0.000000,-9548.656652,4903.011187
21937.166714,5255.462188,-10955.047942,4826.401637
21937.167047,1776.494261,-8956.491898,2987.772442
21937.167380,2072.576638,-9918.759623,612.876398
21937.167714,-2664.741391,-10732.986159,-995.924147
21937.168047,1036.288319,-5847.626942,-1149.143247
21937.168380,-2590.720797,-12435.459826,-1915.238745
21937.168713,-3330.926739,-10214.842000,-4366.744339
21937.169046,-4737.318029,-7772.162391,612.876398
21937.169379,-2590.720797,-12435.459826,-76.609550
21937.169712,4663.297435,-3404.947333,0.000000
21937.170045,740.205942,-11029.068536,4826.401637
21937.170378,4959.379811,-7402.059420,2451.505594
21937.170711,3404.947333,-6883.915261,3064.381992
21937.171044,3256.906145,-9178.553681,689.485948
21937.171377,5255.462188,-10362.883188,2068.457845
21937.171710,888.247130,-10584.944971,-3140.991542
21937.172044,-74.020594,-12731.542202,-919.314598
21937.172377,-1110.308913,-8068.244768,-3064.381992
21937.172710,-1184.329507,-8364.327145,-2451.505594
21937.173043,-2368.659014,-7772.162391,842.705048
21937.173376,1110.308913,-11251.130318,1149.143247
21937.173709,1702.473667,-7105.977043,2374.896044
21937.174042,296.082377,-8364.327145,3677.258390
21937.174375,1628.453072,-7179.997637,3140.991542
21937.174708,1184.329507,-6883.915261,2604.724693
21937.175041,2146.597232,-7476.080014,536.266849
21937.175374,1480.411884,-7624.121203,-1149.143247
21937.175707,1110.308913,-13915.871710,842.705048
21937.176040,-1850.514855,-7328.038826,-2528.115143
21937.176374,-2442.679609,-11251.130318,-7354.516781
21937.176707,-3552.988522,-12657.521608,-1532.190996
21937.177040,-4145.153275,-10881.027347,612.876398
21937.177373,1998.556043,-9326.594869,2757.943793
21937.177706,3997.112087,-6957.935855,5745.716235
21937.178039,2220.617826,-8882.471304,3524.039291
21937.178372,4441.235652,-8142.265362,5132.839837
21937.178705,518.144159,-8882.471304,536.266849
21937.179038,2368.659014,-5403.503377,612.876398
21937.179371,-2368.659014,-8364.327145,-3677.258390
21937.179704,-1776.494261,-12435.459826,-76.609550
21937.180037,-2442.679609,-8290.306550,-4826.401637
21937.180370,-3775.050304,-11621.233289,-4060.306139
21937.180704,1554.432478,-8882.471304,1455.581446
21937.181037,-3849.070898,-8364.327145,0.000000
21937.181370,222.061783,-8290.306550,2374.896044
21937.181703,-1924.535449,-8512.368333,2451.505594
21937.182036,3182.885551,-11843.295072,4826.401637
21937.182369,0.000000,-5995.668130,6128.763984
21937.182702,2664.741391,-7698.141797,4213.525239
21937.183035,1110.308913,-5403.503377,0.000000
21937.183368,-2368.659014,-7179.997637,-3370.820191
21937.183701,-74.020594,-11325.150913,-3983.696590
21937.184034,-4441.235652,-12731.542202,-4826.401637
21937.184367,740.205942,-9474.636058,-3064.381992
21937.184701,-2368.659014,-11251.130318,-2145.067394
21937.185034,2294.638420,-7772.162391,-2528.115143
21937.185367,2368.659014,-12805.562797,5439.278036
21937.185700,1110.308913,-7179.997637,2451.505594
21937.186033,8808.450710,-7698.141797,4213.525239
21937.186366,592.164754,-7179.997637,2451.505594
21937.186699,2368.659014,-10140.821405,8503.660028
21937.187032,2294.638420,-6217.729913,-383.047749
21937.187365,-1036.288319,-12805.562797,-76.609550
21937.187698,-2812.782580,-7846.182985,-1378.971896
21937.188031,-4219.173869,-7179.997637,-6741.640382
21937.188364,-370.102971,-8290.306550,-1302.362347
21937.188697,-3627.009116,-11103.089130,-2451.505594
21937.189031,1406.391290,-7698.141797,-919.314598
21937.189364,-74.020594,-10658.965565,2987.772442
21937.189697,2146.597232,-7994.224174,-612.876398
21937.190030,3552.988522,-8364.327145,4903.011187
21937.190363,1036.288319,-11251.130318,2374.896044
21937.190696,3404.947333,-5107.421000,0.000000
21937.191029,1184.329507,-8660.409521,4673.182538
21937.191362,5403.503377,-9030.512492,3140.991542
21937.191695,-296.082377,-7031.956449,1455.581446
21937.192028,1036.288319,-9474.636058,-3217.601092
21937.192361,-2146.597232,-11843.295072,-4979.620737
21937.192694,-2442.679609,-11399.171507,-4903.011187
21937.193027,-1480.411884,-11843.295072,-689.485948
21937.193361,-1258.350101,-11843.295072,-689.485948
21937.193694,518.144159,-8142.265362,612.876398
21937.194027,4071.132681,-7994.224174,7277.907231
21937.194360,4145.153275,-5699.585753,3294.210641
21937.194693,1184.329507,-9252.574275,4290.134789
21937.195026,1184.329507,-6809.894666,3294.210641
21937.195359,0.000000,-7179.997637,0.000000
21937.195692,-74.020594,-10510.924376,0.000000
21937.196025,-1258.350101,-11843.295072,-4366.744339
21937.196358,-4441.235652,-10732.986159,-4596.572988
21937.196691,-3849.070898,-8068.244768,-2451.505594
21937.197024,-2738.761985,-9844.739029,-1608.800546
21937.197357,-1184.329507,-7994.224174,919.314598
21937.197691,814.226536,-5921.647536,-995.924147
21937.198024,1184.329507,-11325.150913,3753.867940
21937.198357,4589.276840,-8290.306550,4826.401637
21937.198690,2368.659014,-4811.338623,3830.477490
21937.199023,3478.967927,-9474.636058,1149.143247
21937.199356,592.164754,-7772.162391,1225.752797
21937.199689,-74.020594,-11843.295072,-1302.362347
21937.200022,-296.082377,-9474.636058,-4596.572988
21937.200355,-1036.288319,-11177.109724,-4136.915689
21937.200688,-518.144159,-12879.583391,-3064.381992
21937.201021,-1184.329507,-11251.130318,2068.457845
21937.201354,-444.123565,-5033.400406,-1608.800546
21937.201687,1776.494261,-11695.253884,6665.030833
21937.202021,1998.556043,-4441.235652,1991.848295
21937.202354,-3552.988522,-5995.668130,3677.258390
21937.202687,3478.967927,-8290.306550,4213.525239
21937.203020,1332.370696,-7772.162391,0.000000
21937.203353,222.061783,-9918.759623,76.609550
21937.203686,888.247130,-9400.615463,-1838.629195
21937.204019,-1628.453072,-10658.965565,-2681.334243
21937.204352,-1258.350101,-9474.636058,-3677.258390
21937.204685,-296.082377,-9474.636058,-2528.115143
21937.205018,-2368.659014,-11917.315666,0.000000
21937.205351,2146.597232,-7772.162391,0.000000
21937.205684,1924.535449,-11251.130318,4443.353888
21937.206018,4367.215058,-6513.812290,4213.525239
21937.206351,3552.988522,-7179.997637,4903.011187
21937.206684,2590.720797,-13027.624579,4826.401637
21937.207017,1184.329507,-4811.338623,0.000000
21937.207350,-2368.659014,-10140.821405,612.876398
21937.207683,-3034.844362,-11547.212695,-2987.772442
21937.208016,-4737.318029,-7179.997637,-5132.839837
21937.208349,-2664.741391,-8586.388927,-2451.505594
21937.208682,-148.041188,-9622.677246,-3064.381992
21937.209015,1776.494261,-8068.244768,0.000000
21937.209348,-1184.329507,-11843.295072,-1608.800546
21937.209681,296.082377,-9548.656652,536.266849
21937.210014,1184.329507,-11029.068536,7890.783629
21937.210348,7031.956449,-9474.636058,4826.401637
21937.210681,4145.153275,-7772.162391,6435.202183
21937.211014,370.102971,-7105.977043,842.705048
21937.211347,1480.411884,-7550.100608,1455.581446
21937.211680,-2442.679609,-8734.430116,-1532.190996
21937.212013,-2960.823768,-10732.986159,-2757.943793
21937.212346,-2590.720797,-13619.789333,-2528.115143
21937.212679,-4441.235652,-9548.656652,-5515.887586
21937.213012,-7105.977043,-8364.327145,0.000000
21937.213345,-74.020594,-5329.482782,-689.485948
21937.213678,2368.659014,-7179.997637,3217.601092
21937.214011,3627.009116,-8068.244768,3294.210641
21937.214344,3256.906145,-8956.491898,2834.553343
21937.214678,1850.514855,-9992.780217,1762.019645
21937.215011,1184.329507,-9844.739029,1838.629195
21937.215344,5551.544565,-9400.615463,1455.581446
21937.215677,6439.791695,-13619.789333,536.266849
21937.216010,0.000000,-7772.162391,3677.258390
21937.216343,-5699.585753,-5995.668130,-3370.820191
21937.216676,0.000000,-8364.327145,766.095498
21937.217009,-1850.514855,-8290.306550,-1915.238745
21937.217342,-3256.906145,-5995.668130,612.876398
21937.217675,-2886.803174,-10881.027347,2987.772442
21937.218008,-74.020594,-6291.750507,2987.772442
21937.218341,1184.329507,-10436.903782,4826.401637
21937.218674,4663.297435,-7105.977043,1149.143247
21937.219007,0.000000,-9548.656652,1838.629195
21937.219340,-74.020594,-9474.636058,-76.609550
21937.219674,-1554.432478,-9548.656652,-3983.696590
21937.220007,-4441.235652,-11399.171507,-4979.620737
21937.220340,1332.370696,-12435.459826,-1915.238745
21937.220673,148.041188,-11251.130318,1762.019645
21937.221006,2294.638420,-8734.430116,2987.772442
21937.221339,1480.411884,-6439.791695,2528.115143
21937.221672,3849.070898,-7994.224174,5515.887586
21937.222005,1184.329507,-7624.121203,4903.011187
21937.222338,1702.473667,-7920.203579,1991.848295
21937.222671,-2368.659014,-10214.842000,919.314598
21937.223004,-2072.576638,-4811.338623,-2451.505594
21937.223337,1110.308913,-13027.624579,-383.047749
21937.223670,-1184.329507,-7772.162391,-1838.629195
21937.224003,-3552.988522,-6957.935855,-5286.058936
21937.224337,-3330.926739,-13915.871710,-4213.525239
21937.224670,-2368.659014,-11843.295072,-2374.896044
21937.225003,-1258.350101,-9474.636058,2911.162892
21937.225336,666.185348,-7698.141797,3753.867940
21937.225669,4071.132681,-7698.141797,6665.030833
21937.226002,3701.029710,-7698.141797,7277.907231
21937.226335,4663.297435,-5625.565159,3217.601092
21937.226668,-1776.494261,-10732.986159,1991.848295
21937.227001,1776.494261,-7476.080014,-459.657299
21937.227334,-2516.700203,-12509.480420,919.314598
21937.227667,1702.473667,-6661.853478,-1608.800546
21937.228000,-1406.391290,-7698.141797,-4443.353888
21937.228333,-2812.782580,-11473.192101,-5132.839837
21937.228666,0.000000,-7772.162391,-4903.011187
21937.228999,-74.020594,-11843.295072,-76.609550
21937.229333,814.226536,-8882.471304,-229.828649
21937.229666,0.000000,-10732.986159,5209.449386
21937.229999,5847.626942,-8882.471304,7277.907231
21937.230332,4737.318029,-5403.503377,5362.668486
21937.230665,4811.338623,-8068.244768,3677.258390
21937.230998,5551.544565,-7550.100608,1072.533697
21937.231331,370.102971,-15026.180623,-536.266849
21937.231664,1184.329507,-8364.327145,-612.876398
21937.231997,-2442.679609,-11843.295072,-6281.983084
21937.232330,740.205942,-5403.503377,-1838.629195
21937.232663,-2368.659014,-11325.150913,-76.609550
21937.232996,2294.638420,-8290.306550,-76.609550
21937.233329,-2368.659014,-11177.109724,153.219100
21937.233662,-1258.350101,-10881.027347,536.266849
21937.233996,962.267725,-7698.141797,1532.190996
21937.234329,-1258.350101,-9400.615463,3064.381992
21937.234662,2664.741391,-5403.503377,3830.477490
21937.234995,-518.144159,-10066.800811,2528.115143
21937.235328,3627.009116,-7328.038826,2145.067394
21937.235661,-370.102971,-8364.327145,-1455.581446
21937.235994,-370.102971,-8290.306550,-995.924147
21937.236327,-4737.318029,-9844.739029,-1072.533697
21937.236660,-74.020594,-9474.636058,-76.609550
21937.236993,-1258.350101,-11251.130318,-1608.800546
21937.237326,-2368.659014,-7920.203579,-2757.943793
21937.237659,4071.132681,-13027.624579,4519.963438
21937.237992,74.020594,-8068.244768,3600.648841
21937.238325,1554.432478,-7994.224174,2681.334243
21937.238659,-2442.679609,-8956.491898,2374.896044
21937.238992,0.000000,-8364.327145,2451.505594
21937.239325,-2368.659014,-7772.162391,3677.258390
21937.239658,-74.020594,-7105.977043,842.705048
21937.239991,-3478.967927,-4811.338623,-4903.011187
21937.240324,-4737.318029,-11325.150913,-1838.629195
21937.240657,-962.267725,-8734.430116,1149.143247
21937.240990,-2368.659014,-8586.388927,459.657299
21937.241323,-1480.411884,-7179.997637,-76.609550
21937.241656,-2812.782580,-10066.800811,1072.533697
21937.241989,1406.391290,-6957.935855,1915.238745
21937.242322,2960.823768,-8956.491898,6358.592633
21937.242655,-74.020594,-10066.800811,-2681.334243
21937.242988,1184.329507,-9548.656652,536.266849
21937.243321,-74.020594,-13027.624579,-76.609550
21937.243655,3997.112087,-9252.574275,0.000000
21937.243988,2294.638420,-9030.512492,-919.314598
21937.244321,1258.350101,-10288.862594,-153.219100
21937.244654,2442.679609,-7624.121203,-1072.533697
21937.244987,1110.308913,-10658.965565,-1608.800546
21937.245320,1480.411884,-8364.327145,0.000000
21937.245653,592.164754,-10288.862594,2374.896044
21937.245986,3923.091493,-7772.162391,0.000000
21937.246319,592.164754,-11917.315666,3677.258390
21937.246652,4071.132681,-7698.141797,3294.210641
21937.246985,666.185348,-5477.523971,0.000000
21937.247318,2738.761985,-7105.977043,536.266849
21937.247651,296.082377,-10955.047942,689.485948
21937.247984,-2368.659014,-5995.668130,-2451.505594
21937.248318,-666.185348,-10658.965565,-5592.497135
21937.248651,-3552.988522,-12065.356855,-995.924147
21937.248984,0.000000,-8364.327145,1149.143247
21937.249317,-1850.514855,-9770.718434,-1532.190996
21937.249650,1406.391290,-7402.059420,-229.828649
21937.249983,444.123565,-10066.800811,766.095498
21937.250316,3849.070898,-11325.150913,5439.278036
21937.250649,2664.741391,-9326.594869,4519.963438
21937.250982,2368.659014,-7772.162391,4290.134789
21937.251315,2294.638420,-5921.647536,-842.705048
21937.251648,-74.020594,-11251.130318,842.705048
21937.251981,740.205942,-8290.306550,-76.609550
21937.252314,-3849.070898,-11843.295072,-3064.381992
21937.252647,-3552.988522,-7179.997637,-2451.505594
21937.252980,-4367.215058,-10362.883188,-3294.210641
21937.253314,-4441.235652,-7179.997637,0.000000
21937.253647,-1924.535449,-10658.965565,1762.019645
21937.253980,-74.020594,-9474.636058,3294.210641
21937.254313,0.000000,-7179.997637,4903.011187
21937.254646,-592.164754,-7179.997637,2911.162892
21937.254979,2886.803174,-7328.038826,2911.162892
21937.255312,222.061783,-7105.977043,1302.362347
21937.255645,3849.070898,-8364.327145,1915.238745
21937.255978,-1850.514855,-13027.624579,-4213.525239
21937.256311,-592.164754,-11695.253884,-1838.629195
21937.256644,-1850.514855,-13619.789333,-3753.867940
21937.256977,-666.185348,-9252.574275,-1532.190996
21937.257310,-4145.153275,-9992.780217,995.924147
21937.257643,-2442.679609,-7476.080014,306.438199
21937.257977,3775.050304,-5181.441594,3907.087040
21937.258310,-518.144159,-11621.233289,4519.963438
21937.258643,5847.626942,-5329.482782,4213.525239
21937.258976,-74.020594,-8882.471304,-2451.505594
21937.259309,2664.741391,-10658.965565,-76.609550
21937.259642,1702.473667,-9474.636058,-689.485948
21937.259975,-518.144159,-11029.068536,-2145.067394
21937.260308,4663.297435,-8290.306550,-3753.867940
21937.260641,-2664.741391,-12731.542202,-3140.991542
21937.260974,2738.761985,-8068.244768,-1991.848295
21937.261307,1184.329507,-9770.718434,536.266849
21937.261640,1776.494261,-10140.821405,-1225.752797
21937.261973,0.000000,-9844.739029,2451.505594
21937.262306,4885.359217,-8882.471304,4519.963438
21937.262639,7031.956449,-10510.924376,6205.373534
21937.262973,4441.235652,-3627.009116,5515.887586
21937.263306,1998.556043,-7698.141797,-76.609550
21937.263639,-1184.329507,-6439.791695,-1838.629195
21937.263972,-1480.411884,-11843.295072,-4443.353888
21937.264305,-3034.844362,-12139.377449,-4136.915689
21937.264638,-1480.411884,-5995.668130,-4213.525239
21937.264971,-5033.400406,-11547.212695,-3600.648841
21937.265304,-1924.535449,-9844.739029,-766.095498
21937.265637,-2516.700203,-8808.450710,0.000000
21937.265970,5329.482782,-7698.141797,5975.544884
21937.266303,7031.956449,-11843.295072,7277.907231
21937.266636,2664.741391,-8364.327145,6128.763984
21937.266969,3701.029710,-7402.059420,4596.572988
21937.267302,3404.947333,-11547.212695,3907.087040
21937.267636,2516.700203,-9844.739029,0.000000
21937.267969,-814.226536,-10362.883188,-2068.457845
21937.268302,-2442.679609,-11399.171507,-4826.401637
21937.268635,-4737.318029,-11103.089130,-4060.306139
21937.268968,-3330.926739,-8882.471304,-3294.210641
21937.269301,-4737.318029,-7772.162391,-229.828649
21937.269634,-370.102971,-5403.503377,0.000000
21937.269967,-2368.659014,-9844.739029,4366.744339
21937.270300,4663.297435,-7105.977043,7277.907231
21937.270633,518.144159,-6513.812290,3600.648841
21937.270966,2294.638420,-8882.471304,3294.210641
21937.271299,-1554.432478,-9622.677246,2298.286494
21937.271632,-74.020594,-7254.018232,919.314598
21937.271965,-1850.514855,-7698.141797,-1915.238745
21937.272299,-2738.761985,-11695.253884,-7431.126331
21937.272632,-4737.318029,-13471.748144,-2451.505594
21937.272965,-666.185348,-9474.636058,-5592.497135
21937.273298,0.000000,-10140.821405,0.000000
21937.273631,0.000000,-10140.821405,2451.505594
21937.273964,3182.885551,-8808.450710,3064.381992
21937.274297,4071.132681,-8586.388927,5592.497135
21937.274630,5107.421000,-8438.347739,4673.182538
21937.274963,4663.297435,-7031.956449,3753.867940
21937.275296,1628.453072,-7624.121203,-76.609550
21937.275629,4441.235652,-10066.800811,-76.609550
21937.275962,-3330.926739,-12287.418637,-5592.497135
21937.276295,-4737.318029,-9548.656652,-2145.067394
21937.276628,-370.102971,-9474.636058,-2681.334243
21937.276961,-2368.659014,-10140.821405,0.000000
21937.277295,-814.226536,-7105.977043,-1608.800546
21937.277628,-148.041188,-8068.244768,383.047749
21937.277961,1110.308913,-8216.285956,2911.162892
21937.278294,1776.494261,-6587.832884,2451.505594
21937.278627,5847.626942,-9474.636058,2987.772442
21937.278960,3034.844362,-7772.162391,3677.258390
21937.279293,0.000000,-10140.821405,2757.943793
21937.279626,2294.638420,-9474.636058,-383.047749
21937.279959,0.000000,-11029.068536,-2451.505594
21937.280292,2516.700203,-7476.080014,-2757.943793
21937.280625,518.144159,-12657.521608,-229.828649
21937.280958,0.000000,-7476.080014,-995.924147
21937.281291,0.000000,-8068.244768,0.000000
21937.281624,1110.308913,-9178.553681,306.438199
21937.281958,2664.741391,-8882.471304,4749.792088
21937.282291,0.000000,-6069.688724,2374.896044
21937.282624,3478.967927,-10362.883188,3600.648841
21937.282957,0.000000,-8364.327145,3677.258390
21937.283290,-74.020594,-9326.594869,-76.609550
21937.283623,-1258.350101,-7179.997637,-4290.134789
21937.283956,-1776.494261,-13841.851115,-1915.238745
21937.284289,-74.020594,-9178.553681,1149.143247
21937.284622,-1480.411884,-7179.997637,229.828649
21937.284955,-740.205942,-7476.080014,-612.876398
21937.285288,-2886.803174,-10288.862594,689.485948
21937.285621,-1924.535449,-5403.503377,0.000000
21937.285954,-2368.659014,-9548.656652,4903.011187
21937.286287,1998.556043,-7698.141797,229.828649
21937.286620,-1628.453072,-9252.574275,1225.752797
21937.286954,-74.020594,-13027.624579,1455.581446
21937.287287,2294.638420,-7698.141797,842.705048
21937.287620,444.123565,-8660.409521,1608.800546
21937.287953,1628.453072,-7846.182985,1149.143247
21937.288286,-1850.514855,-7402.059420,-2451.505594
21937.288619,-2960.823768,-11769.274478,-1991.848295
21937.288952,-2072.576638,-8364.327145,612.876398
21937.289285,-1258.350101,-7846.182985,-4136.915689
21937.289618,0.000000,-7476.080014,612.876398
21937.289951,0.000000,-11029.068536,2834.553343
21937.290284,1184.329507,-8956.491898,612.876398
21937.290617,1702.473667,-9474.636058,2374.896044
21937.290950,1628.453072,-11251.130318,842.705048
21937.291283,1776.494261,-9548.656652,1915.238745
21937.291617,-74.020594,-10658.965565,-76.609550
21937.291950,3849.070898,-4885.359217,2221.676944
21937.292283,-3923.091493,-7994.224174,-4366.744339
21937.292616,1776.494261,-6291.750507,-1225.752797
21937.292949,-1258.350101,-11843.295072,2374.896044
21937.293282,2886.803174,-9178.553681,-1302.362347
21937.293615,-1110.308913,-9474.636058,-1532.190996
21937.293948,-888.247130,-10288.862594,459.657299
21937.294281,5551.544565,-9030.512492,3753.867940
21937.294614,0.000000,-6587.832884,2451.505594
21937.294947,5847.626942,-10658.965565,2374.896044
21937.295280,0.000000,-7179.997637,1838.629195
21937.295613,2368.659014,-8364.327145,2451.505594
21937.295946,4663.297435,-9474.636058,2374.896044
21937.296279,-74.020594,-8882.471304,-1302.362347
21937.296613,1406.391290,-9474.636058,-2451.505594
21937.296946,-2812.782580,-12065.356855,-689.485948
21937.297279,-74.020594,-9474.636058,-2911.162892
21937.297612,-3256.906145,-9548.656652,0.000000
21937.297945,-666.185348,-10066.800811,-76.609550
21937.298278,1110.308913,-8290.306550,3294.210641
21937.298611,148.041188,-6957.935855,4519.963438
21937.298944,2812.782580,-7031.956449,4290.134789
21937.299277,2294.638420,-7179.997637,3830.477490
21937.299610,1924.535449,-9474.636058,4213.525239
21937.299943,1110.308913,-5403.503377,0.000000
21937.300276,-1258.350101,-9474.636058,-76.609550
21937.300609,-1110.308913,-8068.244768,-3677.258390
21937.300942,-3775.050304,-9844.739029,-4826.401637
21937.301276,-3701.029710,-12065.356855,-4596.572988
21937.301609,-2590.720797,-10807.006753,-3524.039291
21937.301942,-2146.597232,-11843.295072,-689.485948
21937.302275,740.205942,-7920.203579,3677.258390
21937.302608,4663.297435,-7105.977043,3600.648841
21937.302941,592.164754,-7179.997637,2451.505594
21937.303274,3552.988522,-7476.080014,5898.935335
21937.303607,3478.967927,-9178.553681,3600.648841
21937.303940,0.000000,-9548.656652,2757.943793
21937.304273,-74.020594,-6957.935855,-3140.991542
21937.304606,-4589.276840,-12139.377449,-4673.182538
21937.304939,2072.576638,-6735.874072,-3907.087040
21937.305272,-1628.453072,-15248.242405,-459.657299
21937.305605,4071.132681,-8290.306550,-2528.115143
21937.305939,-3108.864956,-13693.809927,3064.381992
21937.306272,-2368.659014,-5995.668130,3064.381992
21937.306605,3478.967927,-8586.388927,2987.772442
21937.306938,444.123565,-10436.903782,3600.648841
21937.307271,7328.038826,-6587.832884,4903.011187
21937.307604,-1332.370696,-11177.109724,2911.162892
21937.307937,2590.720797,-7031.956449,-1149.143247
21937.308270,-1850.514855,-8290.306550,-2834.553343
21937.308603,-1776.494261,-9548.656652,-4749.792088
21937.308936,-3552.988522,-8956.491898,-1838.629195
21937.309269,-3849.070898,-11547.212695,2374.896044
21937.309602,2886.803174,-4885.359217,-6205.373534
21937.309935,2368.659014,-13619.789333,4213.525239
21937.310268,3552.988522,-7254.018232,3217.601092
21937.310601,3256.906145,-8142.265362,3753.867940
21937.310935,1776.494261,-11029.068536,3064.381992
21937.311268,3034.844362,-9918.759623,-383.047749
21937.311601,0.000000,-11473.192101,2757.943793
21937.311934,1998.556043,-6735.874072,-1225.752797
21937.312267,-2664.741391,-11177.109724,-2451.505594
21937.312600,-2368.659014,-7179.997637,-1838.629195
21937.312933,-1776.494261,-10436.903782,1762.019645
21937.313266,-1258.350101,-8290.306550,-2528.115143
21937.313599,-2368.659014,-8290.306550,-3140.991542
21937.313932,-1184.329507,-8660.409521,1532.190996
21937.314265,5329.482782,-6291.750507,7354.516781
21937.314598,3552.988522,-5551.544565,7660.954980
21937.314931,4737.318029,-6883.915261,1149.143247
21937.315264,1924.535449,-10288.862594,612.876398
21937.315597,-74.020594,-14211.954086,-1608.800546
21937.315930,-1776.494261,-9548.656652,-2451.505594
21937.316264,-3627.009116,-11547.212695,-6435.202183
21937.316597,-1258.350101,-11251.130318,-3753.867940
21937.316930,-4737.318029,-8364.327145,1838.629195
21937.317263,1406.391290,-6809.894666,1608.800546
21937.317596,1702.473667,-6513.812290,-76.609550
21937.317929,0.000000,-7179.997637,3217.601092
21937.318262,1850.514855,-9844.739029,3140.991542
21937.318595,3256.906145,-7772.162391,4749.792088
21937.318928,3256.906145,-11029.068536,4519.963438
21937.319261,592.164754,-7179.997637,0.000000
21937.319594,1998.556043,-11103.089130,-383.047749
21937.319927,222.061783,-9548.656652,-3677.258390
21937.320260,0.000000,-9548.656652,-3677.258390
21937.320593,-4811.338623,-14063.912898,-3447.429741
21937.320926,-888.247130,-8438.347739,-2451.505594
21937.321259,-2516.700203,-10510.924376,1072.533697
21937.321592,296.082377,-5551.544565,2451.505594
21937.321925,-74.020594,-7105.977043,1762.019645
21937.322258,0.000000,-9548.656652,5592.497135
21937.322591,4663.297435,-10658.965565,4519.963438
21937.322925,-1258.350101,-9548.656652,2451.505594
21937.323258,592.164754,-8068.244768,1838.629195
21937.323591,-3627.009116,-9548.656652,612.876398
21937.323924,-296.082377,-6883.915261,-3217.601092
21937.324257,666.185348,-9474.636058,-2528.115143
21937.324590,-1850.514855,-10362.883188,-3064.381992
21937.324923,444.123565,-5995.668130,-5822.325785
21937.325256,-2220.617826,-14211.954086,2374.896044
21937.325589,-74.020594,-6365.771101,-3983.696590
21937.325922,-2368.659014,-11917.315666,3677.258390
21937.326255,2664.741391,-10881.027347,4596.572988
21937.326588,2368.659014,-6587.832884,3064.381992
21937.326921,222.061783,-11177.109724,3677.258390
21937.327254,5255.462188,-6069.688724,2451.505594
21937.327587,-888.247130,-9696.697840,2145.067394
21937.327920,2294.638420,-4219.173869,0.000000
21937.328253,-1998.556043,-11695.253884,-995.924147
21937.328586,-1850.514855,-7994.224174,-1685.410096
21937.328919,-1850.514855,-5033.400406,-4136.915689
21937.329253,-370.102971,-11547.212695,-383.047749
21937.329586,1628.453072,-6809.894666,-3983.696590
21937.329919,-1184.329507,-14878.139434,0.000000
21937.330252,4663.297435,-13619.789333,6665.030833
21937.330585,5255.462188,-9474.636058,5132.839837
21937.330918,2960.823768,-8660.409521,7967.393179
21937.331251,2368.659014,-5477.523971,1302.362347
21937.331584,2294.638420,-9326.594869,1378.971896
21937.331917,1776.494261,-7402.059420,1225.752797
21937.332250,-2146.597232,-9326.594869,-3140.991542
21937.332583,-74.020594,-5921.647536,-5515.887586
21937.332916,-2664.741391,-11251.130318,-1915.238745
21937.333249,-1258.350101,-9474.636058,-3753.867940
21937.333582,-2442.679609,-9474.636058,-2451.505594
21937.333915,-74.020594,-13915.871710,-1302.362347
21937.334248,3256.906145,-9548.656652,4443.353888
21937.334581,222.061783,-9622.677246,2757.943793
21937.334914,5329.482782,-7846.182985,2681.334243
21937.335247,2960.823768,-10140.821405,3064.381992
21937.335580,6365.771101,-8734.430116,4903.011187
21937.335914,4367.215058,-7994.224174,3600.648841
21937.336247,-518.144159,-8068.244768,-2451.505594
21937.336580,-2664.741391,-7772.162391,-1838.629195
21937.336913,-6217.729913,-8068.244768,-5592.497135
21937.337246,296.082377,-7105.977043,-2374.896044
21937.337579,-5329.482782,-12139.377449,-2374.896044
21937.337912,-2516.700203,-9474.636058,-2528.115143
21937.338245,-1258.350101,-10436.903782,1991.848295
21937.338578,0.000000,-8660.409521,3140.991542
21937.338911,1110.308913,-9474.636058,2374.896044
21937.339244,1924.535449,-6587.832884,3677.258390
21937.339577,4071.132681,-9474.636058,6128.763984
21937.339910,-296.082377,-7846.182985,2451.505594
21937.340243,-1258.350101,-8290.306550,-612.876398
21937.340576,-3478.967927,-6735.874072,-3217.601092
21937.340909,-814.226536,-8882.471304,-2987.772442
21937.341242,-1850.514855,-13027.624579,-2298.286494
21937.341575,444.123565,-10658.965565,-76.609550
21937.341908,-4663.297435,-7772.162391,-3064.381992
21937.342242,0.000000,-8364.327145,2451.505594
21937.342575,2294.638420,-11843.295072,2068.457845
21937.342908,3478.967927,-7698.141797,3064.381992
21937.343241,962.267725,-10066.800811,2068.457845
21937.343574,592.164754,-9104.533087,689.485948
21937.343907,1628.453072,-6513.812290,2987.772442
21937.344240,1554.432478,-5107.421000,-536.266849
21937.344573,1776.494261,-9474.636058,-76.609550
21937.344906,-5033.400406,-9104.533087,-3677.258390
21937.345239,-1258.350101,-9104.533087,-3447.429741
21937.345572,-2368.659014,-10807.006753,-153.219100
21937.345905,2294.638420,-8290.306550,536.266849
21937.346238,1776.494261,-9844.739029,3677.258390
21937.346571,4663.297435,-9474.636058,1149.143247
21937.346904,2960.823768,-7920.203579,2604.724693
21937.347237,3552.988522,-13397.727550,7354.516781
21937.347570,8216.285956,-8142.265362,4903.011187
21937.347903,2886.803174,-9770.718434,2911.162892
21937.348236,4071.132681,-7846.182985,-76.609550
21937.348569,296.082377,-8216.285956,-2528.115143
21937.348903,-2368.659014,-7772.162391,-6128.763984
21937.349236,1406.391290,-10658.965565,-2528.115143
21937.349569,-4811.338623,-11547.212695,-4979.620737
21937.349902,-4737.318029,-9548.656652,-1838.629195
21937.350235,-74.020594,-11843.295072,-76.609550
21937.350568,2368.659014,-7179.997637,3677.258390
21937.350901,3627.009116,-6883.915261,5592.497135
21937.351234,2738.761985,-9326.594869,4519.963438
21937.351567,3182.885551,-7772.162391,2451.505594
21937.351900,0.000000,-9548.656652,2757.943793
21937.352233,3478.967927,-10658.965565,-76.609550
21937.352566,-2368.659014,-9548.656652,-2145.067394
21937.352899,1184.329507,-12657.521608,-76.609550
21937.353232,-370.102971,-9326.594869,-1532.190996
21937.353565,-1184.329507,-10288.862594,-1149.143247
21937.353898,-2072.576638,-12065.356855,0.000000
21937.354231,-1850.514855,-9548.656652,1378.971896
21937.354564,-518.144159,-7698.141797,1225.752797
21937.354897,-74.020594,-10658.965565,4826.401637
21937.355231,1110.308913,-6513.812290,995.924147
21937.355564,-2368.659014,-8068.244768,3983.696590
21937.355897,-74.020594,-4737.318029,2374.896044
21937.356230,-74.020594,-7698.141797,-1302.362347
21937.356563,-4737.318029,-9696.697840,-1302.362347
21937.356896,-5403.503377,-8364.327145,-3907.087040
21937.357229,-4441.235652,-7402.059420,-4136.915689
21937.357562,-666.185348,-11177.109724,229.828649
21937.357895,-666.185348,-11695.253884,2374.896044
21937.358228,0.000000,-7476.080014,3830.477490
21937.358561,592.164754,-6587.832884,306.438199
21937.358894,4589.276840,-11843.295072,4366.744339
21937.359227,-2368.659014,-9548.656652,1838.629195
21937.359560,592.164754,-9548.656652,1838.629195
21937.359893,-74.020594,-11547.212695,-383.047749
21937.360226,-1184.329507,-5995.668130,-4903.011187
21937.360559,1924.535449,-8808.450710,2987.772442
21937.360892,0.000000,-4367.215058,-2911.162892
21937.361225,0.000000,-9104.533087,-536.266849
21937.361558,-2368.659014,-7179.997637,536.266849
21937.361892,148.041188,-11177.109724,-1149.143247
21937.362225,2886.803174,-11251.130318,5056.230287
21937.362558,2294.638420,-8660.409521,1608.800546
21937.362891,4663.297435,-9474.636058,2374.896044
21937.363224,0.000000,-7328.038826,1225.752797
21937.363557,3552.988522,-9400.615463,4060.306139
21937.363890,2368.659014,-9474.636058,1225.752797
21937.364223,1702.473667,-8216.285956,-2221.676944
21937.364556,0.000000,-9844.739029,-2681.334243
21937.364889,1258.350101,-8216.285956,-1302.362347
21937.365222,1998.556043,-7698.141797,-383.047749
21937.365555,1184.329507,-6587.832884,612.876398
21937.365888,2368.659014,-7179.997637,-2451.505594
21937.366221,1776.494261,-13027.624579,2374.896044
21937.366554,5255.462188,-9178.553681,0.000000
21937.366887,2738.761985,-12361.439231,2374.896044
21937.367220,6291.750507,-13915.871710,2068.457845
21937.367553,-592.164754,-12509.480420,3064.381992
21937.367886,1184.329507,-7402.059420,0.000000
21937.368220,1850.514855,-8660.409521,1608.800546
21937.368553,-74.020594,-9178.553681,-76.609550
21937.368886,-4737.318029,-5995.668130,-3677.258390
21937.369219,-5921.647536,-5403.503377,-2145.067394
21937.369552,-1850.514855,-10658.965565,-2834.553343
21937.369885,-4145.153275,-4811.338623,0.000000
21937.370218,518.144159,-7846.182985,612.876398
21937.370551,962.267725,-11547.212695,3447.429741
21937.370884,0.000000,-10288.862594,2451.505594
21937.371217,-3552.988522,-11991.336260,-995.924147
21937.371550,3478.967927,-9178.553681,-76.609550
21937.371883,0.000000,-11917.315666,4060.306139
21937.372216,1702.473667,-7402.059420,2374.896044
21937.372549,-4071.132681,-3627.009116,0.000000
21937.372882,-4145.153275,-8364.327145,-3677.258390
21937.373215,-2738.761985,-9400.615463,-1685.410096
21937.373548,-3701.029710,-5921.647536,-2604.724693
21937.373881,-4737.318029,-11325.150913,-919.314598
21937.374214,-3552.988522,-8216.285956,-1378.971896
21937.374547,-666.185348,-10362.883188,0.000000
21937.374881,4441.235652,-7772.162391,3907.087040
21937.375214,2886.803174,-10288.862594,5209.449386
21937.375547,1998.556043,-9252.574275,5745.716235
21937.375880,2960.823768,-6439.791695,3064.381992
21937.376213,-74.020594,-10362.883188,306.438199
21937.376546,-4441.235652,-8364.327145,-4290.134789
21937.376879,-3701.029710,-11843.295072,-1608.800546
21937.377212,-4071.132681,-8068.244768,-3600.648841
21937.377545,-2368.659014,-4811.338623,-1838.629195
21937.377878,-148.041188,-7179.997637,0.000000
21937.378211,2368.659014,-7031.956449,-2374.896044
21937.378544,2368.659014,-9178.553681,689.485948
21937.378877,5847.626942,-13619.789333,2374.896044
21937.379210,7031.956449,-11251.130318,2068.457845
21937.379543,4737.318029,-11325.150913,5286.058936
21937.379876,9400.615463,-10362.883188,4826.401637
21937.380209,5699.585753,-7994.224174,2451.505594
21937.380542,4737.318029,-8364.327145,306.438199
21937.380875,2294.638420,-7624.121203,-2757.943793
21937.381209,-222.061783,-12065.356855,-4903.011187
21937.381542,-74.020594,-11621.233289,-1991.848295
21937.381875,-740.205942,-7624.121203,0.000000
21937.382208,2294.638420,-8068.244768,-3294.210641
21937.382541,2368.659014,-10658.965565,6052.154434
21937.382874,-370.102971,-4811.338623,0.000000
21937.383207,592.164754,-7179.997637,2757.943793
21937.383540,3108.864956,-9474.636058,2987.772442
21937.383873,1776.494261,-10140.821405,612.876398
21937.384206,148.041188,-8808.450710,1072.533697
21937.384539,-1184.329507,-7920.203579,-3370.820191
21937.384872,-2960.823768,-10436.903782,-3370.820191
21937.385205,-2146.597232,-5995.668130,-4596.572988
21937.385538,-74.020594,-11695.253884,-76.609550
21937.385871,-1850.514855,-9918.759623,-3294.210641
21937.386204,-4145.153275,-12509.480420,0.000000
21937.386537,1184.329507,-2146.597232,1838.629195
21937.386870,4441.235652,-13989.892304,8503.660028
21937.387203,4959.379811,296.082377,5975.544884
21937.387536,-1554.432478,-13471.748144,3907.087040
21937.387870,-3627.009116,-22502.260637,2987.772442
21937.388203,296.082377,-5995.668130,2298.286494
21937.388536,1998.556043,5847.626942,-7354.516781
21937.388869,-3627.009116,-7476.080014,-2451.505594
21937.389202,-10362.883188,-15470.304188,-1302.362347
21937.389535,-11251.130318,-15174.221811,-3983.696590
21937.389868,-7105.977043,-10658.965565,-3294.210641
21937.390201,-1036.288319,-10658.965565,-1149.143247
21937.390534,3478.967927,-5699.585753,-1225.752797
21937.390867,8216.285956,-7105.977043,6665.030833
21937.391200,4737.318029,-5403.503377,7201.297681
21937.391533,5403.503377,-7105.977043,6665.030833
21937.391866,1110.308913,-11325.150913,5745.716235
21937.392199,2368.659014,-4811.338623,1302.362347
21937.392532,-666.185348,-10658.965565,-689.485948
21937.392865,-2368.659014,-7179.997637,-6741.640382
21937.393198,-3256.906145,-9474.636058,-76.609550
21937.393531,-2442.679609,-6217.729913,-2528.115143
21937.393864,-3256.906145,-8364.327145,0.000000
21937.394197,-3034.844362,-13027.624579,842.705048
21937.394531,814.226536,-12805.562797,383.047749
21937.394864,1776.494261,-11769.274478,4213.525239
21937.395197,4589.276840,-11251.130318,2604.724693
21937.395530,7031.956449,-9178.553681,3447.429741
21937.395863,3552.988522,-10732.986159,2757.943793
21937.396196,9400.615463,-11251.130318,-76.609550
21937.396529,4219.173869,-10732.986159,-3064.381992
21937.396862,4145.153275,-11177.109724,-1991.848295
21937.397195,1702.473667,-9548.656652,-6741.640382
21937.397528,0.000000,-10140.821405,-4979.620737
21937.397861,814.226536,-8734.430116,-4596.572988
21937.398194,0.000000,-8364.327145,-2987.772442
21937.398527,-2368.659014,-11917.315666,612.876398
21937.398860,592.164754,-9104.533087,4213.525239
21937.399193,-74.020594,-8142.265362,842.705048
21937.399526,2886.803174,-5107.421000,1225.752797
21937.399859,2368.659014,-9178.553681,4826.401637
21937.400192,0.000000,-3923.091493,3140.991542
21937.400525,-888.247130,-6661.853478,229.828649
21937.400859,-2368.659014,-7698.141797,-3140.991542
21937.401192,-444.123565,-10436.903782,-1378.971896
21937.401525,-888.247130,-6587.832884,-76.609550
21937.401858,-1850.514855,-13027.624579,-1302.362347
21937.402191,-222.061783,-5255.462188,0.000000
21937.402524,2516.700203,-10732.986159,5515.887586
21937.402857,4219.173869,-13619.789333,8503.660028
21937.403190,3552.988522,-8956.491898,6894.859482
21937.403523,-962.267725,-9918.759623,2374.896044
21937.403856,2442.679609,-9400.615463,4060.306139
21937.404189,-666.185348,-8660.409521,2451.505594
21937.404522,2294.638420,-10510.924376,3677.258390
21937.404855,-3923.091493,-3478.967927,-2604.724693
21937.405188,-4293.194464,-5625.565159,-2221.676944
21937.405521,-3552.988522,-7031.956449,-2145.067394
21937.405854,-2590.720797,-5329.482782,-2987.772442
21937.406187,-4219.173869,-9696.697840,0.000000
21937.406520,296.082377,-11251.130318,2374.896044
21937.406853,-74.020594,-13619.789333,1762.019645
21937.407186,0.000000,-10140.821405,3064.381992
21937.407520,-74.020594,-9474.636058,-689.485948
21937.407853,0.000000,-11325.150913,2451.505594
21937.408186,222.061783,-11177.109724,1685.410096
21937.408519,0.000000,-5625.565159,995.924147
21937.408852,-2368.659014,-9548.656652,-4290.134789
21937.409185,1702.473667,-7920.203579,-3677.258390
21937.409518,1702.473667,-11843.295072,-2528.115143
21937.409851,3330.926739,-7179.997637,-1532.190996
21937.410184,370.102971,-10881.027347,-1838.629195
21937.410517,2368.659014,-9844.739029,0.000000
21937.410850,1480.411884,-12287.418637,2757.943793
21937.411183,3775.050304,-9474.636058,-842.705048
21937.411516,3552.988522,-14285.974681,3294.210641
21937.411849,4663.297435,-9474.636058,4826.401637
21937.412182,740.205942,-5995.668130,1225.752797
21937.412515,-222.061783,-7105.977043,-383.047749
21937.412848,-3552.988522,-5403.503377,-2145.067394
21937.413181,-2442.679609,-4737.318029,-1302.362347
21937.413514,-814.226536,-7105.977043,-3217.601092
21937.413848,148.041188,-8882.471304,-76.609550
21937.414181,-2738.761985,-11177.109724,689.485948
21937.414514,2886.803174,-5699.585753,229.828649
21937.414847,2516.700203,-12731.542202,3140.991542
21937.415180,3552.988522,-10140.821405,3447.429741
21937.415513,4367.215058,-9548.656652,3677.258390
21937.415846,0.000000,-7772.162391,2451.505594
21937.416179,5847.626942,-13027.624579,2374.896044
21937.416512,-1258.350101,-8142.265362,1225.752797
21937.416845,4071.132681,-6661.853478,689.485948
21937.417178,-1924.535449,-5107.421000,0.000000
21937.417511,370.102971,-7994.224174,0.000000
21937.417844,-4441.235652,-8882.471304,-1991.848295
21937.418177,-1258.350101,-11843.295072,-76.609550
21937.418510,-4737.318029,-10732.986159,-1225.752797
21937.418843,1184.329507,-9474.636058,4290.134789
21937.419176,2294.638420,-10658.965565,1762.019645
21937.419509,814.226536,-7550.100608,0.000000
21937.419842,2294.638420,-10955.047942,995.924147
21937.420175,0.000000,-9770.718434,842.705048
21937.420508,518.144159,-8438.347739,-229.828649
21937.420841,-222.061783,-9918.759623,-766.095498
21937.421174,-666.185348,-10658.965565,-2528.115143
21937.421507,-1036.288319,-7846.182985,-3140.991542
21937.421840,-4737.318029,-12583.501014,-1072.533697
21937.422173,148.041188,-5921.647536,1149.143247
21937.422506,-2960.823768,-9548.656652,2757.943793
21937.422839,4071.132681,-5329.482782,2374.896044
21937.423172,592.164754,-8364.327145,0.000000
21937.423505,1554.432478,-13619.789333,2987.772442
21937.423838,2294.638420,-9030.512492,0.000000
21937.424171,-1258.350101,-8956.491898,-1838.629195
21937.424504,2294.638420,-10658.965565,459.657299
21937.424837,-3997.112087,-9104.533087,-3370.820191
21937.425170,-1332.370696,-7994.224174,-4519.963438
21937.425503,-2072.576638,-8068.244768,-306.438199
21937.425836,2886.803174,-8290.306550,-76.609550
21937.426169,-2368.659014,-5995.668130,2757.943793
21937.426502,1184.329507,-7179.997637,3983.696590
21937.426835,5699.585753,-10658.965565,2374.896044
21937.427168,2368.659014,-13101.645173,9806.022374
