#time,accel_x,accel_y,accel_z
22293.919814,7105.977043,-9548.656652,4903.011187
22293.920147,11029.068536,-9770.718434,4443.353888
22293.920481,9770.718434,-9030.512492,3294.210641
22293.920815,9326.594869,-8956.491898,1225.752797
22293.921149,7105.977043,-9400.615463,-1608.800546
22293.921483,7031.956449,-10066.800811,-2528.115143
22293.921817,5329.482782,-8364.327145,-1225.752797
22293.922151,6143.709319,-7698.141797,-4366.744339
22293.922485,5921.647536,-8364.327145,-919.314598
22293.922819,10584.944971,-10066.800811,1762.019645
22293.923152,11769.274478,-7402.059420,3294.210641
22293.923486,11769.274478,-9474.636058,4213.525239
22293.923820,8956.491898,-10510.924376,3524.039291
22293.924154,6735.874072,-11251.130318,1608.800546
22293.924488,3478.967927,-10658.965565,229.828649
22293.924822,4663.297435,-11843.295072,1149.143247
22293.925156,888.247130,-7476.080014,0.000000
22293.925490,2664.741391,-8364.327145,2987.772442
22293.925824,4663.297435,-5921.647536,0.000000
22293.926157,3849.070898,-4811.338623,0.000000
22293.926491,7920.203579,-6365.771101,0.000000
22293.926825,9252.574275,-7994.224174,1378.971896
22293.927159,10066.800811,-7476.080014,1378.971896
22293.927493,10584.944971,-9178.553681,0.000000
22293.927827,10584.944971,-11103.089130,-2528.115143
22293.928161,9474.636058,-11029.068536,0.000000
22293.928495,10584.944971,-12879.583391,-76.609550
22293.928829,8216.285956,-11103.089130,-3983.696590
22293.929162,3552.988522,-11917.315666,-1225.752797
22293.929496,6439.791695,-9030.512492,0.000000
22293.929830,9474.636058,-7105.977043,3294.210641
22293.930164,11621.233289,-5181.441594,4903.011187
22293.930498,11843.295072,-5477.523971,4826.401637
22293.930832,12657.521608,-6365.771101,3140.991542
22293.931166,10288.862594,-9104.533087,2834.553343
22293.931500,6587.832884,-9844.739029,-1532.190996
22293.931834,4811.338623,-11621.233289,-3830.477490
22293.932167,4737.318029,-11399.171507,-1225.752797
22293.932501,7031.956449,-10066.800811,-689.485948
22293.932835,7105.977043,-5995.668130,-2221.676944
22293.933169,8290.306550,-8364.327145,3064.381992
22293.933503,11177.109724,-7402.059420,1608.800546
22293.933837,8586.388927,-5995.668130,306.438199
22293.934171,10140.821405,-8882.471304,-1838.629195
22293.934505,8438.347739,-8956.491898,-3294.210641
22293.934839,9030.512492,-9770.718434,-2451.505594
22293.935172,10584.944971,-12435.459826,-76.609550
22293.935506,11177.109724,-12435.459826,1455.581446
22293.935840,9474.636058,-10732.986159,4903.011187
22293.936174,14211.954086,-8364.327145,8810.098227
22293.936508,16210.510130,-5921.647536,5439.278036
22293.936842,17024.736666,-5403.503377,6052.154434
22293.937176,13471.748144,-6735.874072,995.924147
22293.937510,11399.171507,-9252.574275,-2604.724693
22293.937844,9326.594869,-11399.171507,-4060.306139
22293.938177,4737.318029,-11917.315666,-8273.831378
22293.938511,4663.297435,-12731.542202,-9269.755526
22293.938845,4737.318029,-11325.150913,-2911.162892
22293.939179,12953.603985,-9474.636058,4519.963438
22293.939513,16506.592507,-6513.812290,6665.030833
22293.939847,14359.995275,-5625.565159,7890.783629
22293.940181,14434.015869,-6957.935855,6281.983084
22293.940515,13249.686362,-8068.244768,5056.230287
22293.940848,12509.480420,-7624.121203,2911.162892
22293.941182,10955.047942,-8956.491898,0.000000
22293.941516,10288.862594,-7476.080014,-4749.792088
22293.941850,5329.482782,-10732.986159,-4596.572988
22293.942184,9400.615463,-13027.624579,-6205.373534
22293.942518,3552.988522,-11917.315666,-6052.154434
22293.942852,4737.318029,-11325.150913,-3677.258390
22293.943186,9400.615463,-9474.636058,2221.676944
22293.943520,13915.871710,-6587.832884,7354.516781
22293.943853,16136.489536,-6291.750507,10112.460574
22293.944187,15322.262999,-5921.647536,8963.317327
22293.944521,12435.459826,-8364.327145,8963.317327
22293.944855,11177.109724,-9474.636058,4826.401637
22293.945189,11769.274478,-7105.977043,-3140.991542
22293.945523,5329.482782,-8660.409521,-6435.202183
22293.945857,4737.318029,-9548.656652,-8580.269578
22293.946191,2886.803174,-11251.130318,-9652.803275
22293.946525,2960.823768,-11621.233289,-6588.421283
22293.946858,5329.482782,-11399.171507,-919.314598
22293.947192,14137.933492,-7698.141797,4826.401637
22293.947526,15174.221811,-9474.636058,8503.660028
22293.947860,13249.686362,-4515.256246,6052.154434
22293.948194,13619.789333,-10658.965565,5286.058936
22293.948528,14211.954086,-8364.327145,6511.811733
22293.948862,15322.262999,-4737.318029,2528.115143
22293.949196,10658.965565,-8068.244768,-1838.629195
22293.949530,7031.956449,-14211.954086,-6818.249932
22293.949863,0.000000,-12509.480420,-7354.516781
22293.950197,5033.400406,-12213.398043,-2757.943793
22293.950531,9400.615463,-6809.894666,-1302.362347
22293.950865,10214.842000,-7846.182985,1378.971896
22293.951199,10955.047942,-7920.203579,4749.792088
22293.951533,11695.253884,-9474.636058,4060.306139
22293.951867,11843.295072,-5995.668130,1838.629195
22293.952201,14508.036463,-10362.883188,6971.469032
22293.952535,13545.768739,-9326.594869,2987.772442
22293.952868,9400.615463,-7846.182985,0.000000
22293.953202,8808.450710,-13619.789333,-383.047749
22293.953536,5921.647536,-9548.656652,-3524.039291
22293.953870,7179.997637,-8142.265362,-2451.505594
22293.954204,7179.997637,-11251.130318,-689.485948
22293.954538,7846.182985,-5329.482782,-2068.457845
22293.954872,11843.295072,-11473.192101,2681.334243
22293.955206,17690.922014,-8290.306550,4826.401637
22293.955540,12953.603985,-8068.244768,4903.011187
22293.955873,9474.636058,-7772.162391,3830.477490
22293.956207,12805.562797,-10214.842000,1455.581446
22293.956541,8290.306550,-11843.295072,-76.609550
22293.956875,11325.150913,-8290.306550,766.095498
22293.957209,6957.935855,-13397.727550,-2528.115143
22293.957543,8216.285956,-7550.100608,-229.828649
22293.957877,6439.791695,-7994.224174,-1915.238745
22293.958211,12361.439231,-9474.636058,-76.609550
22293.958545,7698.141797,-7476.080014,1225.752797
22293.958878,6143.709319,-11769.274478,-1838.629195
22293.959212,8734.430116,-11843.295072,-229.828649
22293.959546,6069.688724,-9696.697840,1149.143247
22293.959880,7846.182985,-9844.739029,1838.629195
22293.960214,7105.977043,-10288.862594,3524.039291
22293.960548,8438.347739,-7994.224174,5132.839837
22293.960882,4071.132681,-5921.647536,1762.019645
22293.961216,5329.482782,-9030.512492,2834.553343
22293.961549,1036.288319,-7920.203579,-842.705048
22293.961883,3182.885551,-10066.800811,-766.095498
22293.962217,2960.823768,-5995.668130,612.876398
22293.962551,-1776.494261,-9548.656652,-2451.505594
22293.962885,2294.638420,-10658.965565,-1302.362347
22293.963219,-74.020594,-9474.636058,-1302.362347
22293.963553,2664.741391,-7772.162391,-2451.505594
22293.963887,4737.318029,-10288.862594,612.876398
22293.964221,2368.659014,-10140.821405,4366.744339
22293.964554,5329.482782,-6069.688724,1225.752797
22293.964888,5477.523971,-8290.306550,4673.182538
22293.965222,7476.080014,-9474.636058,3600.648841
22293.965556,4219.173869,-6587.832884,2451.505594
22293.965890,4663.297435,-9474.636058,-2374.896044
22293.966224,2368.659014,-8660.409521,-1532.190996
22293.966558,2664.741391,-9918.759623,-76.609550
22293.966892,3256.906145,-9918.759623,-2451.505594
22293.967226,2960.823768,-12435.459826,1149.143247
22293.967559,4737.318029,-5995.668130,0.000000
22293.967893,5255.462188,-11843.295072,1455.581446
22293.968227,6883.915261,-5181.441594,995.924147
22293.968561,2960.823768,-14582.057057,5209.449386
22293.968895,3997.112087,-3034.844362,0.000000
22293.969229,3552.988522,-9548.656652,3753.867940
22293.969563,2294.638420,-8290.306550,-76.609550
22293.969897,3330.926739,-3330.926739,-2757.943793
22293.970231,-4811.338623,-14804.118840,-7431.126331
22293.970564,1628.453072,-10807.006753,-536.266849
22293.970898,1776.494261,-9252.574275,-2451.505594
22293.971232,6143.709319,-9400.615463,5056.230287
22293.971566,4663.297435,-8290.306550,3600.648841
22293.971900,3552.988522,-7179.997637,3677.258390
22293.972234,1776.494261,-9548.656652,3217.601092
22293.972568,7031.956449,-10066.800811,1608.800546
22293.972902,1184.329507,-7772.162391,612.876398
22293.973236,-74.020594,-10658.965565,689.485948
22293.973569,1628.453072,-7402.059420,-2604.724693
22293.973903,-2590.720797,-8586.388927,-1532.190996
22293.974237,-148.041188,-9252.574275,-919.314598
22293.974571,-2738.761985,-7772.162391,-4903.011187
22293.974905,-3256.906145,-8956.491898,766.095498
22293.975239,1110.308913,-9178.553681,-76.609550
22293.975573,6735.874072,-5107.421000,1838.629195
22293.975907,0.000000,-9548.656652,4903.011187
22293.976241,4367.215058,-5107.421000,2757.943793
22293.976574,1628.453072,-11325.150913,2911.162892
22293.976908,3849.070898,-6661.853478,1149.143247
22293.977242,-740.205942,-12953.603985,-1378.971896
22293.977576,518.144159,-8734.430116,-2145.067394
22293.977910,-4959.379811,-10955.047942,-5439.278036
22293.978244,-4071.132681,-8364.327145,-3447.429741
22293.978578,-2072.576638,-10584.944971,-1302.362347
22293.978912,-2442.679609,-10510.924376,2221.676944
22293.979246,-74.020594,-10066.800811,2298.286494
22293.979579,0.000000,-5107.421000,3064.381992
22293.979913,1184.329507,-7179.997637,7737.564530
22293.980247,3478.967927,-5107.421000,4903.011187
22293.980581,1184.329507,-8364.327145,7354.516781
22293.980915,-1480.411884,-6735.874072,-2145.067394
22293.981249,1258.350101,-8956.491898,-2221.676944
22293.981583,-3552.988522,-9992.780217,-4366.744339
22293.981917,-2442.679609,-13027.624579,-6205.373534
22293.982250,-74.020594,-11251.130318,-6818.249932
22293.982584,-4737.318029,-13693.809927,-76.609550
22293.982918,-4145.153275,-5995.668130,1225.752797
22293.983252,-74.020594,-11547.212695,536.266849
22293.983586,2886.803174,-9844.739029,7277.907231
22293.983920,2294.638420,-4071.132681,2911.162892
22293.984254,5921.647536,-8660.409521,7277.907231
22293.984588,3775.050304,-5847.626942,6281.983084
22293.984922,2368.659014,-6587.832884,1532.190996
22293.985255,814.226536,-7179.997637,-3064.381992
22293.985589,-1776.494261,-9548.656652,-4979.620737
22293.985923,-74.020594,-9178.553681,-7890.783629
22293.986257,-2738.761985,-9548.656652,-4596.572988
22293.986591,-444.123565,-9770.718434,-4060.306139
22293.986925,-3404.947333,-13767.830521,-1225.752797
22293.987259,1702.473667,-11843.295072,919.314598
22293.987593,1036.288319,-9992.780217,2451.505594
22293.987927,6069.688724,-10362.883188,8810.098227
22293.988260,2960.823768,-3034.844362,4903.011187
22293.988594,6439.791695,-10362.883188,7277.907231
22293.988928,1406.391290,-7920.203579,3140.991542
22293.989262,1480.411884,-7179.997637,1225.752797
22293.989596,-1184.329507,-9178.553681,-1838.629195
22293.989930,-1406.391290,-7105.977043,-5132.839837
22293.990264,-1776.494261,-9770.718434,-3907.087040
22293.990598,-3182.885551,-9844.739029,-3753.867940
22293.990932,-2738.761985,-13027.624579,-4366.744339
22293.991265,592.164754,-10658.965565,-76.609550
22293.991599,4515.256246,-12509.480420,4903.011187
22293.991933,3923.091493,-3034.844362,2757.943793
22293.992267,3108.864956,-11695.253884,5745.716235
22293.992601,-74.020594,-8290.306550,0.000000
22293.992935,666.185348,-10436.903782,536.266849
22293.993269,-740.205942,-9252.574275,536.266849
22293.993603,1554.432478,-8808.450710,-383.047749
22293.993937,-1850.514855,-8734.430116,536.266849
22293.994270,-2146.597232,-6513.812290,-229.828649
22293.994604,222.061783,-7476.080014,-2911.162892
22293.994938,222.061783,-9548.656652,1378.971896
22293.995272,-1110.308913,-10140.821405,-2451.505594
22293.995606,2294.638420,-11251.130318,2374.896044
22293.995940,0.000000,-9844.739029,0.000000
22293.996274,1184.329507,-11843.295072,1149.143247
22293.996608,-962.267725,-9992.780217,1838.629195
22293.996942,0.000000,-7179.997637,0.000000
22293.997275,-74.020594,-11843.295072,1455.581446
22293.997609,-1776.494261,-7402.059420,1685.410096
22293.997943,-1258.350101,-6957.935855,536.266849
22293.998277,-3256.906145,-8068.244768,-689.485948
22293.998611,-740.205942,-5995.668130,0.000000
22293.998945,-3552.988522,-11399.171507,-689.485948
22293.999279,2294.638420,-10658.965565,-689.485948
22293.999613,-4441.235652,-8364.327145,2451.505594
22293.999947,3478.967927,-10658.965565,1762.019645
22294.000280,-1628.453072,-7772.162391,2451.505594
22294.000614,2442.679609,-6661.853478,1149.143247
22294.000947,3923.091493,-9770.718434,2528.115143
22294.001280,2294.638420,-11251.130318,1762.019645
22294.001614,1184.329507,-9548.656652,0.000000
22294.001947,-2516.700203,-13619.789333,-76.609550
22294.002281,-1776.494261,-7179.997637,-3677.258390
22294.002614,-3552.988522,-10140.821405,-1838.629195
22294.002947,-74.020594,-12435.459826,-689.485948
22294.003281,2294.638420,-7105.977043,1149.143247
22294.003614,-370.102971,-7179.997637,3064.381992
22294.003947,4737.318029,-6587.832884,4519.963438
22294.004281,4441.235652,-7624.121203,6281.983084
22294.004614,4071.132681,-9326.594869,2221.676944
22294.004947,3478.967927,-7105.977043,-689.485948
22294.005281,0.000000,-8364.327145,3983.696590
22294.005614,-74.020594,-9474.636058,-1915.238745
22294.005948,-666.185348,-8364.327145,-8427.050478
22294.006281,-5329.482782,-15766.386565,-1915.238745
22294.006614,-2294.638420,-7476.080014,-6358.592633
22294.006948,-2960.823768,-14063.912898,383.047749
22294.007281,370.102971,-7031.956449,842.705048
22294.007614,3478.967927,-7105.977043,4519.963438
22294.007948,1554.432478,-8660.409521,7201.297681
22294.008281,5033.400406,-5033.400406,3217.601092
22294.008614,3923.091493,-7105.977043,5209.449386
22294.008948,2368.659014,-4811.338623,1225.752797
22294.009281,-2368.659014,-10881.027347,1072.533697
22294.009615,-74.020594,-8290.306550,-6205.373534
22294.009948,-4737.318029,-14285.974681,-6128.763984
22294.010281,-4737.318029,-13545.768739,-2374.896044
22294.010615,0.000000,-6439.791695,-5822.325785
22294.010948,-6957.935855,-17468.860231,-689.485948
22294.011281,518.144159,-4293.194464,1072.533697
22294.011615,-1406.391290,-9918.759623,4290.134789
22294.011948,5699.585753,-8882.471304,12180.918418
22294.012281,-740.205942,-1406.391290,7584.345430
22294.012615,1702.473667,-8290.306550,536.266849
22294.012948,2960.823768,-4219.173869,2451.505594
22294.013282,-1776.494261,-10436.903782,1762.019645
22294.013615,1998.556043,-9474.636058,-1838.629195
22294.013948,-5921.647536,-11991.336260,-4366.744339
22294.014282,-4737.318029,-11621.233289,-9422.974625
22294.014615,-2664.741391,-12731.542202,-3217.601092
22294.014948,-2220.617826,-12583.501014,0.000000
22294.015282,0.000000,-6291.750507,-383.047749
22294.015615,-1776.494261,-12509.480420,3983.696590
22294.015948,4737.318029,-3627.009116,7507.735880
22294.016282,4663.297435,-7994.224174,8503.660028
22294.016615,5847.626942,-5625.565159,5745.716235
22294.016949,2886.803174,-7550.100608,4673.182538
22294.017282,-1776.494261,-4811.338623,-612.876398
22294.017615,-222.061783,-10214.842000,-4060.306139
22294.017949,-4737.318029,-10066.800811,-6894.859482
22294.018282,-74.020594,-14211.954086,-4979.620737
22294.018615,-3256.906145,-11029.068536,1532.190996
22294.018949,1184.329507,-9252.574275,2374.896044
22294.019282,-74.020594,-9030.512492,-1532.190996
22294.019615,592.164754,-5995.668130,306.438199
22294.019949,5477.523971,-7254.018232,3370.820191
22294.020282,3627.009116,-10214.842000,3370.820191
22294.020615,4811.338623,-8438.347739,4673.182538
22294.020949,-222.061783,-9326.594869,995.924147
22294.021282,296.082377,-7550.100608,-3370.820191
22294.021616,-1184.329507,-11251.130318,-76.609550
22294.021949,-222.061783,-8882.471304,-2987.772442
22294.022282,-370.102971,-7179.997637,0.000000
22294.022616,0.000000,-9844.739029,1225.752797
22294.022949,0.000000,-8068.244768,0.000000
22294.023282,1110.308913,-7550.100608,-689.485948
22294.023616,2368.659014,-10436.903782,1762.019645
22294.023949,2664.741391,-8142.265362,1915.238745
22294.024282,3182.885551,-8068.244768,0.000000
22294.024616,814.226536,-10362.883188,1608.800546
22294.024949,1332.370696,-11399.171507,153.219100
22294.025283,-2960.823768,-12805.562797,1762.019645
22294.025616,2146.597232,-7105.977043,2374.896044
22294.025949,-666.185348,-10214.842000,-4749.792088
22294.026283,-1924.535449,-15692.365970,6052.154434
22294.026616,2886.803174,-2368.659014,-1915.238745
22294.026949,-6513.812290,-16062.468941,766.095498
22294.027283,-1184.329507,-4219.173869,2145.067394
22294.027616,-4589.276840,-8586.388927,-2451.505594
22294.027949,1776.494261,-6217.729913,3983.696590
22294.028283,1036.288319,-6661.853478,2221.676944
22294.028616,518.144159,-8882.471304,-995.924147
22294.028950,4071.132681,-6513.812290,1225.752797
22294.029283,296.082377,-12583.501014,-76.609550
22294.029616,4663.297435,-12731.542202,4826.401637
22294.029950,-2368.659014,-8660.409521,0.000000
22294.030283,1702.473667,-7105.977043,-2834.553343
22294.030616,-6291.750507,-13175.665768,-2757.943793
22294.030950,-3330.926739,-9696.697840,-6588.421283
22294.031283,-3701.029710,-11769.274478,536.266849
22294.031616,-1776.494261,-8956.491898,2451.505594
22294.031950,5847.626942,-3923.091493,1225.752797
22294.032283,2294.638420,-9474.636058,8197.221829
22294.032617,6143.709319,-5033.400406,4290.134789
22294.032950,2960.823768,-4811.338623,3677.258390
22294.033283,4367.215058,-8068.244768,3294.210641
22294.033617,1036.288319,-6883.915261,-2374.896044
22294.033950,-2294.638420,-14359.995275,-4673.182538
22294.034283,-3256.906145,-9548.656652,-7660.954980
22294.034617,-5995.668130,-15396.283594,-6588.421283
22294.034950,-4145.153275,-9548.656652,-3983.696590
22294.035283,-2442.679609,-13619.789333,-1302.362347
22294.035617,-666.185348,-8290.306550,-1455.581446
22294.035950,3552.988522,-5551.544565,6741.640382
22294.036284,5107.421000,-8290.306550,8580.269578
22294.036617,6735.874072,-4219.173869,6894.859482
22294.036950,1850.514855,-8142.265362,6511.811733
22294.037284,5329.482782,-4663.297435,3830.477490
22294.037617,3182.885551,-8290.306550,-3830.477490
22294.037950,4293.194464,-14211.954086,-689.485948
22294.038284,-962.267725,-9548.656652,-7048.078582
22294.038617,-9474.636058,-17838.963202,-6128.763984
22294.038950,-74.020594,-8882.471304,-5592.497135
22294.039284,-7772.162391,-20133.601622,-4903.011187
22294.039617,2294.638420,-3404.947333,-383.047749
22294.039950,-2220.617826,-10658.965565,3907.087040
22294.040284,1406.391290,-5403.503377,5286.058936
22294.040617,4959.379811,-2960.823768,8197.221829
22294.040951,1110.308913,-9474.636058,9116.536426
22294.041284,9474.636058,-592.164754,9729.412825
22294.041617,1998.556043,-2072.576638,1762.019645
22294.041951,148.041188,-12213.398043,-3830.477490
22294.042284,-2738.761985,-7105.977043,-11108.384721
22294.042617,-5921.647536,-16802.674883,-7431.126331
22294.042951,-1258.350101,-15396.283594,-7737.564530
22294.043284,592.164754,-13101.645173,-2451.505594
22294.043617,-2368.659014,-14285.974681,0.000000
22294.043951,1110.308913,-10955.047942,2221.676944
22294.044284,3478.967927,-4737.318029,2681.334243
22294.044618,3256.906145,-13619.789333,9039.926876
22294.044951,10066.800811,666.185348,13866.328514
22294.045284,2960.823768,-4811.338623,7660.954980
22294.045618,6883.915261,-5773.606348,4826.401637
22294.045951,-4737.318029,-6291.750507,-4903.011187
22294.046284,-6809.894666,-9844.739029,-6511.811733
22294.046618,-7179.997637,-14211.954086,-8044.002729
22294.046951,-7105.977043,-8956.491898,-9193.145976
22294.047284,-5403.503377,-12583.501014,-5362.668486
22294.047618,-1480.411884,-9252.574275,-2451.505594
22294.047951,1406.391290,-12065.356855,229.828649
22294.048285,592.164754,-11325.150913,5898.935335
22294.048618,9400.615463,-8882.471304,6052.154434
22294.048951,3552.988522,-5699.585753,4903.011187
22294.049285,3849.070898,-8364.327145,6741.640382
22294.049618,2886.803174,-7698.141797,2374.896044
22294.049951,-2960.823768,-12805.562797,-995.924147
22294.050285,-2960.823768,-8364.327145,-2528.115143
22294.050618,-5033.400406,-10658.965565,-4366.744339
22294.050951,-3330.926739,-9696.697840,-1762.019645
22294.051285,-1258.350101,-8290.306550,-1302.362347
22294.051618,-2886.803174,-7550.100608,-2221.676944
22294.051952,2368.659014,-8364.327145,4596.572988
22294.052285,1702.473667,-8882.471304,4826.401637
22294.052618,2886.803174,-5255.462188,919.314598
22294.052952,4145.153275,-4885.359217,2987.772442
22294.053285,888.247130,-10732.986159,0.000000
22294.053618,-74.020594,-9474.636058,-3830.477490
22294.053952,-962.267725,-11843.295072,-4136.915689
22294.054285,-666.185348,-12139.377449,-3140.991542
22294.054618,-222.061783,-11251.130318,76.609550
22294.054952,2590.720797,-7402.059420,153.219100
22294.055285,-370.102971,-11991.336260,2374.896044
22294.055619,2368.659014,-4811.338623,0.000000
22294.055952,3552.988522,-10732.986159,7048.078582
22294.056285,7031.956449,-8290.306550,8503.660028
22294.056619,4885.359217,-1850.514855,1072.533697
22294.056952,0.000000,-10140.821405,4290.134789
22294.057285,0.000000,-5403.503377,-3677.258390
22294.057619,-2220.617826,-11029.068536,-2528.115143
22294.057952,-2368.659014,-12583.501014,-3217.601092
22294.058285,-2072.576638,-9474.636058,-3907.087040
22294.058619,-4219.173869,-12435.459826,-2528.115143
22294.058952,0.000000,-5403.503377,-1302.362347
22294.059286,-2442.679609,-13027.624579,-3140.991542
22294.059619,0.000000,-6143.709319,2145.067394
22294.059952,-592.164754,-11325.150913,4213.525239
22294.060286,6439.791695,-5921.647536,4826.401637
22294.060619,5699.585753,-7105.977043,4213.525239
22294.060952,2146.597232,-14582.057057,6052.154434
22294.061286,6365.771101,-4219.173869,1762.019645
22294.061619,148.041188,-12583.501014,-1302.362347
22294.061952,4737.318029,-8364.327145,1762.019645
22294.062286,-3552.988522,-9548.656652,-7354.516781
22294.062619,-888.247130,-12287.418637,-76.609550
22294.062952,-3182.885551,-11251.130318,-2681.334243
22294.063286,-5773.606348,-10288.862594,-3677.258390
22294.063619,-74.020594,-8290.306550,-76.609550
22294.063953,-1628.453072,-7698.141797,2604.724693
22294.064286,1332.370696,-6439.791695,4443.353888
22294.064619,-2368.659014,-5403.503377,3447.429741
22294.064953,1702.473667,-9474.636058,4213.525239
22294.065286,1184.329507,-4515.256246,4136.915689
22294.065619,3108.864956,-11843.295072,6665.030833
22294.065953,2294.638420,-4219.173869,0.000000
22294.066286,0.000000,-7179.997637,-3677.258390
22294.066619,-3775.050304,-14285.974681,-6741.640382
22294.066953,-1036.288319,-8882.471304,-7584.345430
22294.067286,-4145.153275,-19689.478057,-6588.421283
22294.067620,2738.761985,-8660.409521,689.485948
22294.067953,-2294.638420,-12065.356855,0.000000
22294.068286,7698.141797,-7031.956449,9729.412825
22294.068620,2590.720797,-3404.947333,6128.763984
22294.068953,0.000000,-6587.832884,6128.763984
22294.069286,5625.565159,-8216.285956,9193.145976
22294.069620,0.000000,-5403.503377,1838.629195
22294.069953,2294.638420,-8290.306550,1455.581446
22294.070286,-4293.194464,-7624.121203,-4290.134789
22294.070620,-1628.453072,-11473.192101,-5362.668486
22294.070953,-3627.009116,-7476.080014,-6435.202183
22294.071287,-2738.761985,-13027.624579,-6052.154434
22294.071620,-4219.173869,-11103.089130,-2757.943793
22294.071953,-4959.379811,-10732.986159,-3064.381992
22294.072287,3478.967927,-9474.636058,2374.896044
22294.072620,5255.462188,-7476.080014,3677.258390
22294.072953,7698.141797,-9548.656652,9806.022374
22294.073287,8660.409521,-7105.977043,9729.412825
22294.073620,1850.514855,-7254.018232,4290.134789
22294.073953,2368.659014,-6587.832884,2834.553343
22294.074287,74.020594,-10510.924376,-2145.067394
22294.074620,-2146.597232,-9770.718434,-4366.744339
22294.074954,-2960.823768,-9918.759623,-5515.887586
22294.075287,-4959.379811,-11843.295072,-3447.429741
22294.075620,-2442.679609,-5995.668130,-3370.820191
22294.075954,-888.247130,-9178.553681,1608.800546
22294.076287,7031.956449,-9474.636058,6052.154434
22294.076620,1702.473667,-7179.997637,1838.629195
22294.076954,4663.297435,-9474.636058,4519.963438
22294.077287,1480.411884,-8068.244768,4903.011187
22294.077620,-888.247130,-7402.059420,229.828649
22294.077954,740.205942,-8956.491898,-3830.477490
22294.078287,-4737.318029,-15470.304188,-3064.381992
22294.078621,-1554.432478,-8364.327145,-9193.145976
22294.078954,-962.267725,-14211.954086,-76.609550
22294.079287,-666.185348,-9326.594869,0.000000
22294.079621,6069.688724,-2442.679609,4903.011187
22294.079954,2442.679609,-8364.327145,7124.688131
22294.080287,4737.318029,-4885.359217,3447.429741
22294.080621,2664.741391,-6291.750507,3064.381992
22294.080954,1258.350101,-10658.965565,2221.676944
22294.081287,2294.638420,-10658.965565,-689.485948
22294.081621,-4737.318029,-10732.986159,-1532.190996
22294.081954,-666.185348,-10658.965565,-6205.373534
22294.082287,-8290.306550,-13397.727550,-1838.629195
22294.082621,-518.144159,-8290.306550,-1302.362347
22294.082954,-4811.338623,-12139.377449,0.000000
22294.083288,-1850.514855,-7846.182985,-536.266849
22294.083621,-296.082377,-8364.327145,0.000000
22294.083954,1332.370696,-11843.295072,4826.401637
22294.084288,2368.659014,-1850.514855,6665.030833
22294.084621,2294.638420,-7698.141797,4826.401637
22294.084954,2516.700203,-5403.503377,2451.505594
22294.085288,0.000000,-10732.986159,3064.381992
22294.085621,6735.874072,-10362.883188,1149.143247
22294.085954,-962.267725,-13027.624579,-2145.067394
22294.086288,1110.308913,-8142.265362,-5592.497135
22294.086621,-4811.338623,-13989.892304,-3830.477490
22294.086955,-2442.679609,-11325.150913,-919.314598
22294.087288,-1776.494261,-6587.832884,-1685.410096
22294.087621,-1258.350101,-12435.459826,-76.609550
22294.087955,3034.844362,-7105.977043,3983.696590
22294.088288,1332.370696,-2368.659014,5209.449386
22294.088621,2886.803174,-6365.771101,4290.134789
22294.088955,222.061783,-5625.565159,1915.238745
22294.089288,4145.153275,-9030.512492,2987.772442
22294.089621,-74.020594,-9770.718434,-2145.067394
22294.089955,2368.659014,-8808.450710,-383.047749
22294.090288,-592.164754,-13027.624579,-6128.763984
22294.090622,518.144159,-13693.809927,-3064.381992
22294.090955,2368.659014,-6957.935855,-2145.067394
22294.091288,-3256.906145,-15914.427753,-1302.362347
22294.091622,0.000000,-9770.718434,-1149.143247
22294.091955,-2072.576638,-9548.656652,-1225.752797
22294.092288,7624.121203,-9474.636058,7890.783629
22294.092622,4737.318029,-74.020594,5515.887586
22294.092955,1184.329507,-5403.503377,4749.792088
22294.093288,4071.132681,-7105.977043,4519.963438
22294.093622,-3404.947333,-9548.656652,0.000000
22294.093955,5403.503377,-6291.750507,-306.438199
22294.094289,0.000000,-11547.212695,-536.266849
22294.094622,-592.164754,-10732.986159,-5439.278036
22294.094955,-1258.350101,-12731.542202,-4366.744339
22294.095289,-2442.679609,-18949.272115,-7431.126331
22294.095622,-4145.153275,-9548.656652,1838.629195
22294.095955,-5921.647536,-8364.327145,-1072.533697
22294.096289,1702.473667,-11251.130318,2374.896044
22294.096622,0.000000,-2960.823768,5439.278036
22294.096955,5255.462188,-6069.688724,7048.078582
22294.097289,2664.741391,-5773.606348,7967.393179
22294.097622,4885.359217,-2516.700203,3064.381992
22294.097956,-74.020594,-11843.295072,1915.238745
22294.098289,0.000000,-7179.997637,-4903.011187
22294.098622,0.000000,-9548.656652,-4979.620737
22294.098956,-3034.844362,-15100.201217,-5286.058936
22294.099289,-1258.350101,-10140.821405,-6741.640382
22294.099622,-2146.597232,-12879.583391,-2528.115143
22294.099956,-2960.823768,-13545.768739,-536.266849
22294.100289,-1480.411884,-9252.574275,1532.190996
22294.100622,-2146.597232,-6365.771101,2068.457845
22294.100955,-370.102971,-7698.141797,3600.648841
22294.101288,1184.329507,-4663.297435,9193.145976
22294.101622,2442.679609,74.020594,3524.039291
22294.101955,2590.720797,-6291.750507,4596.572988
22294.102288,1184.329507,-7476.080014,0.000000
22294.102621,-1776.494261,-14582.057057,-6205.373534
22294.102954,-3034.844362,-13619.789333,-7354.516781
22294.103287,-2664.741391,-13027.624579,-5515.887586
22294.103620,1480.411884,-13323.706956,536.266849
22294.103954,0.000000,-9548.656652,612.876398
22294.104287,3182.885551,-10362.883188,-995.924147
22294.104620,2664.741391,-9548.656652,5362.668486
22294.104953,2664.741391,-8660.409521,4903.011187
22294.105286,7624.121203,-7105.977043,6665.030833
22294.105619,0.000000,-5107.421000,5439.278036
22294.105952,2294.638420,-5329.482782,-995.924147
22294.106286,-1776.494261,-9770.718434,1149.143247
22294.106619,-74.020594,-9474.636058,-3753.867940
22294.106952,-2146.597232,-11251.130318,-2681.334243
22294.107285,-2812.782580,-10955.047942,-4979.620737
22294.107618,-4145.153275,-11769.274478,-4443.353888
22294.107951,-4737.318029,-9696.697840,-2451.505594
22294.108284,3627.009116,-8290.306550,1455.581446
22294.108618,2368.659014,-9696.697840,5362.668486
22294.108951,7105.977043,-4811.338623,0.000000
22294.109284,2368.659014,-15766.386565,10342.289223
22294.109617,7624.121203,-4145.153275,5975.544884
22294.109950,0.000000,-9104.533087,1302.362347
22294.110283,1998.556043,-8290.306550,1302.362347
22294.110616,-2146.597232,-9252.574275,-5132.839837
22294.110950,-3256.906145,-9474.636058,-2834.553343
22294.111283,1776.494261,-7179.997637,-2145.067394
22294.111616,-4811.338623,-14211.954086,-3140.991542
22294.111949,2368.659014,-4811.338623,2528.115143
22294.112282,-1258.350101,-13619.789333,-76.609550
22294.112615,814.226536,-6143.709319,0.000000
22294.112948,1184.329507,-8364.327145,3677.258390
22294.113282,962.267725,-9548.656652,0.000000
22294.113615,2294.638420,-7105.977043,1149.143247
22294.113948,-1184.329507,-12139.377449,1991.848295
22294.114281,2664.741391,-8734.430116,1302.362347
22294.114614,-3997.112087,-10732.986159,-3370.820191
22294.114947,3034.844362,-9474.636058,-76.609550
22294.115280,-3330.926739,-10362.883188,-1532.190996
22294.115614,-2368.659014,-4811.338623,-1225.752797
22294.115947,0.000000,-8216.285956,1838.629195
22294.116280,-1036.288319,-9548.656652,0.000000
22294.116613,6143.709319,-7328.038826,5439.278036
22294.116946,-2072.576638,-8216.285956,536.266849
22294.117279,2590.720797,-9178.553681,-842.705048
22294.117612,-2442.679609,-7920.203579,0.000000
22294.117946,2590.720797,-9474.636058,-459.657299
22294.118279,1332.370696,-8734.430116,3064.381992
22294.118612,-4219.173869,-12509.480420,-2757.943793
22294.118945,-370.102971,-10066.800811,-1302.362347
22294.119278,-3923.091493,-9104.533087,-1838.629195
22294.119611,-1184.329507,-8216.285956,0.000000
22294.119944,-5625.565159,-11251.130318,2374.896044
22294.120278,-1554.432478,-3627.009116,-1838.629195
22294.120611,1184.329507,-7920.203579,5898.935335
22294.120944,2664.741391,-4515.256246,1838.629195
22294.121277,4293.194464,-10881.027347,5132.839837
22294.121610,3256.906145,-6069.688724,3907.087040
22294.121943,2294.638420,-11251.130318,-536.266849
22294.122276,-74.020594,-10732.986159,-3064.381992
22294.122610,1110.308913,-11843.295072,-1915.238745
22294.122943,-3627.009116,-14211.954086,-4366.744339
22294.123276,1036.288319,-8364.327145,153.219100
22294.123609,-2442.679609,-11843.295072,-76.609550
22294.123942,0.000000,-7624.121203,919.314598
22294.124275,296.082377,-7105.977043,2681.334243
22294.124608,222.061783,-9030.512492,2374.896044
22294.124942,1480.411884,-2738.761985,2757.943793
22294.125275,-666.185348,-8364.327145,2451.505594
22294.125608,4663.297435,-7105.977043,-1302.362347
22294.125941,-1554.432478,-11473.192101,0.000000
22294.126274,2516.700203,-7476.080014,1838.629195
22294.126607,-2368.659014,-10140.821405,-1608.800546
22294.126940,592.164754,-7994.224174,-6665.030833
22294.127274,-3256.906145,-14285.974681,-3677.258390
22294.127607,-1702.473667,-10510.924376,-4366.744339
22294.127940,3478.967927,-13323.706956,-2528.115143
22294.128273,0.000000,-9548.656652,6435.202183
22294.128606,6439.791695,-9474.636058,4826.401637
22294.128939,2960.823768,-4219.173869,9806.022374
22294.129272,5699.585753,-6365.771101,6665.030833
22294.129606,4663.297435,-7105.977043,2298.286494
22294.129939,4071.132681,-11399.171507,5362.668486
22294.130272,1702.473667,-6143.709319,-2068.457845
22294.130605,-4737.318029,-13545.768739,-6281.983084
22294.130938,-7550.100608,-9844.739029,-7967.393179
22294.131271,-4219.173869,-13915.871710,-7431.126331
22294.131604,-6661.853478,-9548.656652,-4903.011187
22294.131938,-2368.659014,-9548.656652,2911.162892
22294.132271,-1554.432478,-6513.812290,-229.828649
22294.132604,6661.853478,-3478.967927,8044.002729
22294.132937,6143.709319,-6513.812290,4673.182538
22294.133270,6513.812290,-13175.665768,8120.612279
22294.133603,10510.924376,-6513.812290,10035.851024
22294.133936,888.247130,-8660.409521,1225.752797
22294.134270,1110.308913,-11769.274478,-2528.115143
22294.134603,-2960.823768,-12361.439231,-6511.811733
22294.134936,-2886.803174,-12361.439231,-4749.792088
22294.135269,-1628.453072,-8512.368333,-2911.162892
22294.135602,-3701.029710,-11399.171507,-2681.334243
22294.135935,-2960.823768,-9326.594869,1838.629195
22294.136268,-3034.844362,-8882.471304,-76.609550
22294.136602,296.082377,-5107.421000,2451.505594
22294.136935,2664.741391,-7179.997637,8580.269578
22294.137268,3478.967927,-2664.741391,3064.381992
22294.137601,3552.988522,-7105.977043,5286.058936
22294.137934,-1184.329507,-7179.997637,919.314598
22294.138267,1924.535449,-6513.812290,-5209.449386
22294.138600,-7031.956449,-14285.974681,-9193.145976
22294.138934,-3034.844362,-18949.272115,-7737.564530
22294.139267,-4145.153275,-10510.924376,-9959.241474
22294.139600,-2368.659014,-14285.974681,3064.381992
22294.139933,2886.803174,-8882.471304,4826.401637
22294.140266,4737.318029,-5403.503377,6894.859482
22294.140599,4959.379811,-4441.235652,7584.345430
22294.140932,4663.297435,-5847.626942,4826.401637
22294.141266,2812.782580,-7179.997637,5515.887586
22294.141599,-74.020594,-9474.636058,2681.334243
22294.141932,-74.020594,-9474.636058,-3753.867940
22294.142265,-4737.318029,-9548.656652,-1149.143247
22294.142598,-74.020594,-12213.398043,-3447.429741
22294.142931,-666.185348,-9474.636058,-5286.058936
22294.143264,-2664.741391,-12879.583391,-3140.991542
22294.143598,-5181.441594,-14063.912898,-2757.943793
22294.143931,-2886.803174,-10510.924376,-689.485948
22294.144264,1184.329507,-7476.080014,2451.505594
22294.144597,4367.215058,-9474.636058,3600.648841
22294.144930,6513.812290,-4811.338623,6128.763984
22294.145263,5329.482782,-8660.409521,8963.317327
22294.145596,3182.885551,-6809.894666,2451.505594
22294.145930,4071.132681,-3627.009116,0.000000
22294.146263,2220.617826,-13471.748144,-76.609550
22294.146596,1110.308913,-9178.553681,-3677.258390
22294.146929,-2368.659014,-11843.295072,-5745.716235
22294.147262,-3034.844362,-13471.748144,-4673.182538
22294.147595,-1258.350101,-10066.800811,-1149.143247
22294.147928,-2368.659014,-9548.656652,-689.485948
22294.148261,814.226536,-10510.924376,1455.581446
22294.148595,-296.082377,-7698.141797,3294.210641
22294.148928,2368.659014,-3330.926739,3064.381992
22294.149261,2368.659014,-9548.656652,7277.907231
22294.149594,5847.626942,-4145.153275,2681.334243
22294.149927,1184.329507,-8364.327145,3064.381992
22294.150260,-740.205942,-12435.459826,-76.609550
22294.150593,296.082377,-7772.162391,-3370.820191
22294.150927,-2590.720797,-13175.665768,-5745.716235
22294.151260,-1258.350101,-11547.212695,-3677.258390
22294.151593,-444.123565,-8438.347739,-2374.896044
22294.151926,-2146.597232,-14211.954086,-1915.238745
22294.152259,0.000000,-7476.080014,3064.381992
22294.152592,-1258.350101,-9770.718434,0.000000
22294.152925,2960.823768,-7179.997637,5898.935335
22294.153259,3478.967927,-7105.977043,3600.648841
22294.153592,2886.803174,-8290.306550,5132.839837
22294.153925,2886.803174,-7105.977043,3907.087040
22294.154258,-666.185348,-8660.409521,1378.971896
22294.154591,370.102971,-10140.821405,-1991.848295
22294.154924,-2442.679609,-11399.171507,-1915.238745
22294.155257,-74.020594,-9252.574275,-2528.115143
22294.155591,-4145.153275,-9548.656652,-5822.325785
22294.155924,-4737.318029,-11325.150913,-1838.629195
22294.156257,-1850.514855,-10658.965565,-3753.867940
22294.156590,0.000000,-6587.832884,2451.505594
22294.156923,3330.926739,-6661.853478,2681.334243
22294.157256,2516.700203,-7328.038826,2834.553343
22294.157589,3701.029710,-8660.409521,6435.202183
22294.157923,1110.308913,-8882.471304,1149.143247
22294.158256,2886.803174,-9474.636058,2374.896044
22294.158589,592.164754,-7772.162391,766.095498
22294.158922,-74.020594,-14211.954086,-76.609550
22294.159255,-1554.432478,-6587.832884,-3677.258390
22294.159588,-3552.988522,-12583.501014,-3677.258390
22294.159921,-3182.885551,-9844.739029,-1762.019645
22294.160255,-814.226536,-8956.491898,-689.485948
22294.160588,-592.164754,-8512.368333,2451.505594
22294.160921,2146.597232,-3701.029710,2528.115143
22294.161254,592.164754,-4811.338623,0.000000
22294.161587,4959.379811,-11843.295072,4826.401637
22294.161920,3330.926739,-6143.709319,3064.381992
22294.162253,0.000000,-9548.656652,4903.011187
22294.162587,1036.288319,-10658.965565,-2604.724693
22294.162920,-4737.318029,-11917.315666,-6128.763984
22294.163253,-2960.823768,-12213.398043,-7354.516781
22294.163586,-3923.091493,-16506.592507,-1072.533697
22294.163919,-740.205942,-7031.956449,153.219100
22294.164252,-1924.535449,-9548.656652,1532.190996
22294.164585,2886.803174,-4293.194464,7201.297681
22294.164919,4219.173869,-296.082377,4826.401637
22294.165252,4071.132681,-7920.203579,6588.421283
22294.165585,7031.956449,-4737.318029,4519.963438
22294.165918,-1480.411884,-11029.068536,0.000000
22294.166251,592.164754,-10658.965565,-76.609550
22294.166584,-666.185348,-8660.409521,-7967.393179
22294.166917,-6217.729913,-14582.057057,-5975.544884
22294.167251,-2368.659014,-14582.057057,-5286.058936
22294.167584,-4293.194464,-13471.748144,-2298.286494
22294.167917,-2886.803174,-10658.965565,-76.609550
22294.168250,-1480.411884,-6883.915261,3524.039291
22294.168583,1628.453072,-3256.906145,4060.306139
22294.168916,5551.544565,-1850.514855,3983.696590
22294.169249,5847.626942,-10510.924376,9116.536426
22294.169583,5255.462188,-2960.823768,3294.210641
22294.169916,0.000000,-11621.233289,3600.648841
22294.170249,3478.967927,-8290.306550,-383.047749
22294.170582,-2368.659014,-12213.398043,-4903.011187
22294.170915,-518.144159,-10214.842000,-5745.716235
22294.171248,-1406.391290,-12361.439231,-5669.106685
22294.171581,-2368.659014,-14582.057057,-1838.629195
22294.171915,-2812.782580,-9548.656652,0.000000
22294.172248,-2590.720797,-10658.965565,-76.609550
22294.172581,1110.308913,-6735.874072,2757.943793
22294.172914,1702.473667,-5403.503377,5056.230287
22294.173247,4737.318029,-3330.926739,7354.516781
22294.173580,962.267725,-7105.977043,4366.744339
22294.173913,5551.544565,-5329.482782,3600.648841
22294.174247,1036.288319,-8068.244768,76.609550
22294.174580,2886.803174,-11843.295072,-1302.362347
22294.174913,-1184.329507,-12213.398043,-3140.991542
22294.175246,-1554.432478,-13619.789333,-8044.002729
22294.175579,-2960.823768,-11917.315666,-5515.887586
22294.175912,-1776.494261,-13545.768739,-3677.258390
22294.176245,2294.638420,-11843.295072,-76.609550
22294.176579,-1702.473667,-7994.224174,1532.190996
22294.176912,3330.926739,-7476.080014,5132.839837
22294.177245,2738.761985,-7624.121203,8963.317327
22294.177578,2368.659014,-3034.844362,5209.449386
22294.177911,5847.626942,-7105.977043,4826.401637
22294.178244,-1776.494261,-8364.327145,3830.477490
22294.178577,0.000000,-6291.750507,-383.047749
22294.178911,-2738.761985,-12879.583391,-3140.991542
22294.179244,-1850.514855,-11251.130318,-5592.497135
22294.179577,-4515.256246,-13249.686362,-4290.134789
22294.179910,-2886.803174,-11029.068536,-4903.011187
22294.180243,296.082377,-9104.533087,-612.876398
22294.180576,-2368.659014,-8364.327145,1225.752797
22294.180909,5847.626942,-7105.977043,5439.278036
22294.181243,592.164754,-7402.059420,5592.497135
22294.181576,888.247130,-6735.874072,3064.381992
22294.181909,666.185348,-8586.388927,3294.210641
22294.182242,148.041188,-6587.832884,0.000000
22294.182575,4959.379811,-10066.800811,1762.019645
22294.182908,-2442.679609,-12509.480420,-2451.505594
22294.183241,2368.659014,-8290.306550,-76.609550
22294.183575,-888.247130,-11695.253884,-459.657299
22294.183908,1702.473667,-9252.574275,0.000000
22294.184241,-1702.473667,-7328.038826,-3294.210641
22294.184574,-962.267725,-11473.192101,-612.876398
22294.184907,444.123565,-7698.141797,2528.115143
22294.185240,0.000000,-8660.409521,1225.752797
22294.185573,5847.626942,-7698.141797,2374.896044
22294.185907,0.000000,-7179.997637,0.000000
22294.186240,2368.659014,-8438.347739,2374.896044
22294.186573,-666.185348,-11843.295072,536.266849
22294.186906,1184.329507,-6291.750507,1532.190996
22294.187239,-1554.432478,-9474.636058,-1225.752797
22294.187572,-1554.432478,-11843.295072,-2681.334243
22294.187905,-2368.659014,-9918.759623,-2528.115143
22294.188239,-1850.514855,-11843.295072,-1302.362347
22294.188572,7031.956449,-8290.306550,2374.896044
22294.188905,0.000000,-8956.491898,6205.373534
22294.189238,8808.450710,-8290.306550,4826.401637
22294.189571,740.205942,-8660.409521,4903.011187
22294.189904,5403.503377,-7698.141797,-76.609550
22294.190237,4145.153275,-11917.315666,229.828649
22294.190571,370.102971,-12065.356855,3064.381992
22294.190904,-1110.308913,-8586.388927,-4903.011187
22294.191237,-5773.606348,-11325.150913,-3830.477490
22294.191570,-2220.617826,-7179.997637,-4903.011187
22294.191903,-2960.823768,-12287.418637,-76.609550
22294.192236,222.061783,-7328.038826,2757.943793
22294.192569,-7105.977043,-5995.668130,0.000000
22294.192903,-74.020594,-7105.977043,2374.896044
22294.193236,222.061783,-3701.029710,2451.505594
22294.193569,3627.009116,-7624.121203,-766.095498
22294.193902,5847.626942,-9622.677246,4366.744339
22294.194235,2072.576638,-10732.986159,1685.410096
22294.194568,4737.318029,-8956.491898,-842.705048
22294.194901,-1258.350101,-13545.768739,-3830.477490
22294.195235,2072.576638,-16136.489536,-4673.182538
22294.195568,-1184.329507,-13175.665768,1378.971896
22294.195901,-74.020594,-11843.295072,-76.609550
22294.196234,-1554.432478,-7846.182985,0.000000
22294.196567,-2368.659014,-5995.668130,2451.505594
22294.196900,3256.906145,-5181.441594,7277.907231
22294.197233,1776.494261,-3330.926739,6741.640382
22294.197567,1258.350101,-5921.647536,2681.334243
22294.197900,-518.144159,-6143.709319,1685.410096
22294.198233,-4293.194464,-9178.553681,-919.314598
22294.198566,-2590.720797,-10658.965565,-3753.867940
22294.198899,-1776.494261,-9548.656652,-6281.983084
22294.199232,-74.020594,-12213.398043,-7354.516781
22294.199565,-2960.823768,-12213.398043,-4826.401637
22294.199899,592.164754,-10732.986159,-1915.238745
22294.200232,-74.020594,-14211.954086,-76.609550
22294.200565,2516.700203,-11251.130318,1455.581446
22294.200898,4071.132681,-9178.553681,8197.221829
22294.201231,3034.844362,-5329.482782,2528.115143
22294.201564,6365.771101,-7476.080014,6894.859482
22294.201896,3478.967927,-9474.636058,9729.412825
22294.202229,3552.988522,-4515.256246,6128.763984
22294.202562,1702.473667,-8290.306550,-383.047749
22294.202895,-2442.679609,-8956.491898,-4903.011187
22294.203228,-7105.977043,-9548.656652,-5515.887586
22294.203561,-4885.359217,-10584.944971,-6435.202183
22294.203894,-5033.400406,-11991.336260,-6818.249932
22294.204227,-5181.441594,-13397.727550,-3294.210641
22294.204560,-2960.823768,-10732.986159,1685.410096
22294.204893,-1776.494261,-7772.162391,2911.162892
22294.205226,3552.988522,-74.020594,1225.752797
22294.205559,3552.988522,-8364.327145,6205.373534
22294.205892,7031.956449,-10066.800811,9116.536426
22294.206225,5847.626942,-7105.977043,2987.772442
22294.206558,2960.823768,-11769.274478,1608.800546
22294.206891,1258.350101,-14730.098246,0.000000
22294.207224,0.000000,-8068.244768,-5515.887586
22294.207557,-444.123565,-15988.448347,-2068.457845
22294.207890,-1258.350101,-7698.141797,-2528.115143
22294.208223,-3627.009116,-7105.977043,-5439.278036
22294.208556,-1776.494261,-8364.327145,1225.752797
22294.208889,2960.823768,-7105.977043,4826.401637
22294.209222,2886.803174,-4219.173869,1838.629195
22294.209555,0.000000,-6735.874072,5669.106685
22294.209888,0.000000,-6883.915261,1838.629195
22294.210221,-962.267725,-5329.482782,-3753.867940
22294.210554,-1628.453072,-10140.821405,-1149.143247
22294.210887,-74.020594,-11843.295072,-2528.115143
22294.211220,-1332.370696,-13101.645173,-3447.429741
22294.211553,-296.082377,-11325.150913,-1762.019645
22294.211886,-592.164754,-9548.656652,-1685.410096
22294.212218,296.082377,-9548.656652,0.000000
22294.212551,5847.626942,-9400.615463,4826.401637
22294.212884,4367.215058,-7846.182985,1685.410096
22294.213217,3701.029710,-7179.997637,3677.258390
22294.213550,3256.906145,-9474.636058,6971.469032
22294.213883,2368.659014,-5995.668130,612.876398
22294.214216,666.185348,-12065.356855,4213.525239
22294.214549,-2442.679609,-7994.224174,-4060.306139
22294.214882,-4293.194464,-11325.150913,-4903.011187
22294.215215,-4737.318029,-11843.295072,-1915.238745
22294.215548,-5625.565159,-9548.656652,-4903.011187
22294.215881,-6365.771101,-7772.162391,0.000000
22294.216214,-2812.782580,-7698.141797,-383.047749
22294.216547,-3034.844362,-8290.306550,-689.485948
22294.216880,1110.308913,-6809.894666,3600.648841
22294.217213,2072.576638,-9474.636058,5439.278036
22294.217546,518.144159,-6883.915261,3064.381992
22294.217879,4885.359217,-4737.318029,1608.800546
22294.218212,2220.617826,-10066.800811,1149.143247
22294.218545,8808.450710,-11843.295072,1608.800546
22294.218878,3256.906145,-15766.386565,1225.752797
22294.219211,-5181.441594,-14211.954086,-6205.373534
22294.219544,-5699.585753,-11029.068536,-7354.516781
22294.219877,-5921.647536,-9548.656652,-3064.381992
22294.220210,-148.041188,-8364.327145,-842.705048
22294.220543,1924.535449,-7031.956449,7124.688131
22294.220876,-222.061783,-5847.626942,4903.011187
22294.221209,3034.844362,-1998.556043,6588.421283
22294.221542,1850.514855,-1258.350101,4519.963438
22294.221875,6513.812290,-7698.141797,6052.154434
22294.222208,2590.720797,-4737.318029,-2221.676944
22294.222541,-2368.659014,-12213.398043,-5209.449386
22294.222873,1110.308913,-15988.448347,-4366.744339
22294.223206,0.000000,-13693.809927,-6818.249932
22294.223539,0.000000,-15766.386565,-4596.572988
22294.223872,-1332.370696,-13323.706956,-2834.553343
22294.224205,296.082377,-11917.315666,-1991.848295
22294.224538,2368.659014,-10732.986159,6128.763984
22294.224871,9400.615463,-7105.977043,12180.918418
22294.225204,6513.812290,1702.473667,9806.022374
22294.225537,4737.318029,-2442.679609,11951.089769
22294.225870,2886.803174,-9474.636058,4213.525239
22294.226203,1184.329507,-4219.173869,-919.314598
22294.226536,-3552.988522,-12435.459826,-2834.553343
22294.226869,-2442.679609,-11251.130318,-10495.508323
22294.227202,-7328.038826,-14656.077652,-8120.612279
22294.227535,-8290.306550,-12509.480420,-7354.516781
22294.227868,-2442.679609,-12583.501014,-4213.525239
22294.228201,-2812.782580,-10140.821405,0.000000
22294.228534,-1332.370696,-9696.697840,1225.752797
22294.228867,-74.020594,-7698.141797,5132.839837
22294.229200,3849.070898,-3330.926739,5515.887586
22294.229533,2960.823768,-9474.636058,9729.412825
22294.229866,7624.121203,-2812.782580,5669.106685
22294.230199,592.164754,-8808.450710,6665.030833
22294.230532,3182.885551,-4589.276840,-76.609550
22294.230865,-3701.029710,-13693.809927,-3600.648841
22294.231198,-1036.288319,-10955.047942,-4749.792088
22294.231531,-4589.276840,-13249.686362,-6128.763984
22294.231864,-8882.471304,-11325.150913,-7967.393179
22294.232197,-4737.318029,-7179.997637,-2451.505594
22294.232530,-7179.997637,-13027.624579,-3140.991542
22294.232863,2294.638420,-4737.318029,2374.896044
22294.233195,-3775.050304,-5403.503377,4903.011187
22294.233528,1480.411884,-3627.009116,5745.716235
22294.233861,1332.370696,-6365.771101,8350.440928
22294.234194,4515.256246,-5329.482782,6741.640382
22294.234527,6291.750507,-2812.782580,3600.648841
22294.234860,888.247130,-9104.533087,-3140.991542
22294.235193,1184.329507,-10140.821405,-7048.078582
22294.235526,-4219.173869,-18949.272115,-9882.631924
22294.235859,4071.132681,-14434.015869,-6128.763984
22294.236192,0.000000,-11917.315666,2451.505594
22294.236525,2886.803174,-11621.233289,0.000000
22294.236858,4515.256246,-7402.059420,4519.963438
22294.237191,962.267725,-10732.986159,4443.353888
22294.237524,11621.233289,-2368.659014,8810.098227
22294.237857,1998.556043,-6513.812290,9729.412825
22294.238190,6513.812290,-3404.947333,4213.525239
22294.238523,0.000000,-7846.182985,2604.724693
22294.238856,0.000000,-7179.997637,-3983.696590
22294.239189,-518.144159,-14211.954086,-3140.991542
22294.239522,-4811.338623,-9474.636058,-8656.879127
22294.239855,-2516.700203,-13915.871710,-7354.516781
22294.240188,-4811.338623,-12213.398043,-3983.696590
22294.240521,4737.318029,-8290.306550,0.000000
22294.240854,0.000000,-11917.315666,1838.629195
22294.241187,10584.944971,-4737.318029,7277.907231
22294.241520,592.164754,-8364.327145,9499.584175
22294.241853,1184.329507,-4811.338623,8503.660028
22294.242186,2886.803174,-7031.956449,0.000000
22294.242519,-666.185348,-11695.253884,-383.047749
22294.242852,-2516.700203,-12065.356855,-4060.306139
22294.243185,-4959.379811,-9992.780217,-4749.792088
22294.243517,-6735.874072,-14137.933492,-2451.505594
22294.243850,-3552.988522,-5699.585753,0.000000
22294.244183,-2442.679609,-9326.594869,229.828649
22294.244516,-4145.153275,-8068.244768,-689.485948
22294.244849,-1184.329507,-6365.771101,1225.752797
22294.245182,-888.247130,-6587.832884,3370.820191
22294.245515,592.164754,-4811.338623,7354.516781
22294.245848,1406.391290,-7105.977043,4519.963438
22294.246181,370.102971,-7476.080014,0.000000
22294.246514,-74.020594,-9474.636058,-3140.991542
22294.246847,1702.473667,-15396.283594,-2834.553343
22294.247180,0.000000,-7920.203579,0.000000
22294.247513,-3034.844362,-12065.356855,-2451.505594
22294.247846,-74.020594,-11251.130318,-1608.800546
22294.248179,222.061783,-12583.501014,766.095498
22294.248512,1776.494261,-9030.512492,6588.421283
22294.248845,4663.297435,-4737.318029,3600.648841
22294.249178,2368.659014,-7550.100608,4903.011187
22294.249511,2590.720797,-8290.306550,4213.525239
22294.249844,-666.185348,-6291.750507,153.219100
22294.250177,2368.659014,-10288.862594,2987.772442
22294.250510,-3108.864956,-9104.533087,-3064.381992
22294.250843,1036.288319,-7698.141797,-4213.525239
22294.251176,-5107.421000,-12879.583391,-5592.497135
22294.251509,-1850.514855,-14211.954086,-4366.744339
22294.251842,2294.638420,-8290.306550,-4136.915689
22294.252175,-1776.494261,-12657.521608,1455.581446
22294.252508,4663.297435,-9474.636058,1762.019645
22294.252841,0.000000,-7179.997637,5056.230287
22294.253174,6439.791695,-8290.306550,6052.154434
22294.253507,7698.141797,-3330.926739,3907.087040
22294.253839,3108.864956,-11029.068536,3140.991542
22294.254172,7179.997637,-6661.853478,-76.609550
22294.254505,1184.329507,-12805.562797,0.000000
22294.254838,2368.659014,-10732.986159,-3677.258390
22294.255171,-888.247130,-14211.954086,-2528.115143
22294.255504,-3330.926739,-11547.212695,-6052.154434
22294.255837,-3330.926739,-12065.356855,-4903.011187
22294.256170,-1258.350101,-11547.212695,-1302.362347
22294.256503,-888.247130,-6883.915261,1149.143247
22294.256836,0.000000,-2664.741391,3983.696590
22294.257169,74.020594,-5625.565159,3294.210641
22294.257502,1776.494261,-5995.668130,4903.011187
22294.257835,2368.659014,-8586.388927,4519.963438
22294.258168,2886.803174,-7846.182985,2987.772442
22294.258501,2368.659014,-5995.668130,383.047749
22294.258834,-1036.288319,-12879.583391,-2834.553343
22294.259167,-666.185348,-15396.283594,-5592.497135
22294.259500,-2738.761985,-13101.645173,-4903.011187
22294.259833,-74.020594,-14211.954086,-76.609550
22294.260166,-74.020594,-11251.130318,-842.705048
22294.260499,592.164754,-10436.903782,2451.505594
22294.260832,296.082377,-9770.718434,8044.002729
22294.261165,4737.318029,-1850.514855,9959.241474
22294.261498,3478.967927,-5181.441594,6818.249932
22294.261831,1554.432478,-4293.194464,3447.429741
22294.262164,-2368.659014,-8364.327145,1302.362347
22294.262497,-3552.988522,-5403.503377,0.000000
22294.262830,-1850.514855,-12731.542202,-3753.867940
22294.263163,-6217.729913,-12435.459826,-6818.249932
22294.263496,-5699.585753,-12583.501014,-5898.935335
22294.263829,-4219.173869,-12287.418637,-4979.620737
22294.264161,0.000000,-9844.739029,536.266849
22294.264494,-2368.659014,-9104.533087,612.876398
22294.264827,3627.009116,-4959.379811,1225.752797
22294.265160,2886.803174,-9474.636058,2374.896044
22294.265493,6217.729913,-10658.965565,10112.460574
22294.265826,9400.615463,-9474.636058,7890.783629
22294.266159,4219.173869,-7772.162391,5515.887586
22294.266492,2960.823768,-3034.844362,0.000000
22294.266825,-5107.421000,-13471.748144,-7048.078582
22294.267158,740.205942,-11917.315666,-5286.058936
22294.267491,-7328.038826,-16580.613101,-5669.106685
22294.267824,-3775.050304,-10436.903782,-4366.744339
22294.268157,-6217.729913,-7179.997637,-3677.258390
22294.268490,-4811.338623,-9474.636058,-689.485948
22294.268823,3478.967927,0.000000,2987.772442
22294.269156,0.000000,-6587.832884,7660.954980
22294.269489,9400.615463,-5921.647536,7277.907231
22294.269822,592.164754,-8068.244768,5209.449386
22294.270155,3627.009116,-10066.800811,4060.306139
22294.270488,2368.659014,-9104.533087,995.924147
22294.270821,3552.988522,-10807.006753,-1991.848295
22294.271154,-1776.494261,-12509.480420,-5209.449386
22294.271487,-370.102971,-15396.283594,-5898.935335
22294.271820,-1480.411884,-10732.986159,-3064.381992
22294.272153,0.000000,-10732.986159,2451.505594
22294.272486,6439.791695,-4737.318029,3600.648841
22294.272819,0.000000,-6587.832884,4060.306139
22294.273152,4589.276840,-6291.750507,4213.525239
22294.273485,4737.318029,-8142.265362,2987.772442
22294.273818,1554.432478,-11917.315666,7354.516781
22294.274151,3552.988522,-1554.432478,4290.134789
22294.274483,-1554.432478,-9400.615463,-1149.143247
22294.274816,-370.102971,-9770.718434,-2374.896044
22294.275149,-3182.885551,-13767.830521,-3600.648841
22294.275482,-4219.173869,-12287.418637,-4673.182538
22294.275815,-4737.318029,-8364.327145,-3983.696590
22294.276148,-6587.832884,-14211.954086,-4979.620737
22294.276481,-74.020594,-7105.977043,-1915.238745
22294.276814,-1776.494261,-6291.750507,1378.971896
22294.277147,7920.203579,-8290.306550,7277.907231
22294.277480,4811.338623,-6883.915261,8427.050478
22294.277813,1702.473667,-8438.347739,4366.744339
22294.278146,4589.276840,-4737.318029,306.438199
22294.278479,1184.329507,-13101.645173,-2451.505594
22294.278812,2368.659014,-14285.974681,1225.752797
22294.279145,1702.473667,-12731.542202,-76.609550
22294.279478,-2812.782580,-10140.821405,-4213.525239
22294.279811,-6513.812290,-8956.491898,-1225.752797
22294.280144,-5329.482782,-6809.894666,-3753.867940
22294.280477,-2146.597232,-5329.482782,-689.485948
22294.280810,-7105.977043,-9326.594869,-1072.533697
22294.281143,-814.226536,-7031.956449,2834.553343
22294.281476,-1850.514855,-8882.471304,6511.811733
22294.281809,888.247130,-4219.173869,6665.030833
22294.282142,2294.638420,-4367.215058,0.000000
22294.282475,1184.329507,-6587.832884,-536.266849
22294.282808,2294.638420,-14211.954086,-1608.800546
22294.283141,-296.082377,-12065.356855,-4903.011187
22294.283474,1110.308913,-15100.201217,-3140.991542
22294.283807,-222.061783,-11843.295072,842.705048
22294.284140,1776.494261,-10214.842000,689.485948
22294.284473,-814.226536,-9474.636058,1991.848295
22294.284806,3849.070898,-11103.089130,5439.278036
22294.285138,1184.329507,-5403.503377,3983.696590
22294.285471,2960.823768,-6291.750507,8044.002729
22294.285804,3478.967927,-1776.494261,3294.210641
22294.286137,-1258.350101,-7550.100608,229.828649
22294.286470,1480.411884,-6587.832884,306.438199
22294.286803,-1184.329507,-9992.780217,-1225.752797
22294.287136,-3256.906145,-8882.471304,-6818.249932
22294.287469,-5921.647536,-11917.315666,-7967.393179
22294.287802,-3627.009116,-14211.954086,-7124.688131
22294.288135,0.000000,-10140.821405,-76.609550
22294.288468,-74.020594,-11843.295072,3294.210641
22294.288801,2294.638420,-7179.997637,1532.190996
22294.289134,814.226536,-5699.585753,2987.772442
22294.289467,4367.215058,-8882.471304,7814.174080
22294.289800,5329.482782,-5477.523971,5439.278036
22294.290133,4515.256246,-11473.192101,3370.820191
22294.290466,6217.729913,-7772.162391,4903.011187
22294.290799,7031.956449,-7402.059420,2298.286494
22294.291132,-74.020594,-13323.706956,-1685.410096
22294.291465,-3923.091493,-7179.997637,-7507.735880
22294.291798,-7254.018232,-17098.757260,-8044.002729
22294.292131,-6513.812290,-10140.821405,-6741.640382
22294.292464,-962.267725,-11843.295072,-689.485948
22294.292797,-4811.338623,-7476.080014,-2451.505594
22294.293130,296.082377,-3775.050304,5745.716235
22294.293463,-74.020594,-7105.977043,4826.401637
22294.293796,0.000000,-5403.503377,6281.983084
22294.294129,4885.359217,-7402.059420,7277.907231
22294.294462,7402.059420,-4589.276840,4826.401637
22294.294795,0.000000,-8068.244768,229.828649
22294.295128,2516.700203,-11029.068536,-1302.362347
22294.295460,-74.020594,-11547.212695,-6971.469032
22294.295793,-1258.350101,-16580.613101,-3753.867940
22294.296126,2886.803174,-12435.459826,-4979.620737
22294.296459,-2664.741391,-12509.480420,-3677.258390
22294.296792,-1184.329507,-10658.965565,3294.210641
22294.297125,2886.803174,-5921.647536,4519.963438
22294.297458,5699.585753,-6883.915261,10035.851024
22294.297791,3701.029710,-6143.709319,7967.393179
22294.298124,2590.720797,-2368.659014,3600.648841
22294.298457,-3923.091493,-8660.409521,-3677.258390
22294.298790,0.000000,-8882.471304,-76.609550
22294.299123,-1850.514855,-14211.954086,-2528.115143
22294.299456,-74.020594,-7328.038826,-6128.763984
22294.299789,-3034.844362,-11843.295072,-5286.058936
22294.300122,-3478.967927,-9918.759623,-5975.544884
22294.300455,-2146.597232,-12435.459826,-1378.971896
22294.300788,-370.102971,-11769.274478,1149.143247
22294.301121,5033.400406,-7179.997637,4903.011187
22294.301454,592.164754,-9548.656652,4903.011187
22294.301787,9992.780217,-5625.565159,9729.412825
22294.302120,2220.617826,-6143.709319,4290.134789
22294.302453,1184.329507,-12509.480420,6435.202183
22294.302787,1702.473667,-8882.471304,-689.485948
22294.303120,-5033.400406,-11769.274478,-7201.297681
22294.303453,-2516.700203,-10881.027347,-4826.401637
22294.303786,-4515.256246,-9992.780217,-3294.210641
22294.304119,0.000000,-7179.997637,0.000000
22294.304452,-1480.411884,-6661.853478,2374.896044
22294.304785,-592.164754,-5995.668130,-76.609550
22294.305118,1110.308913,-5995.668130,1072.533697
22294.305451,3478.967927,-11695.253884,4826.401637
22294.305784,0.000000,-7179.997637,2374.896044
22294.306117,-666.185348,-12435.459826,536.266849
22294.306450,0.000000,-7476.080014,1378.971896
22294.306783,2294.638420,-10362.883188,-76.609550
22294.307116,2294.638420,-10955.047942,-995.924147
22294.307450,-74.020594,-11843.295072,-1608.800546
22294.307783,0.000000,-10732.986159,689.485948
22294.308116,2146.597232,-9030.512492,2298.286494
22294.308449,2812.782580,-7254.018232,2374.896044
22294.308782,2664.741391,-7476.080014,3600.648841
22294.309115,0.000000,-8364.327145,4366.744339
22294.309448,4663.297435,-6217.729913,-2068.457845
22294.309781,0.000000,-11325.150913,1838.629195
22294.310114,2886.803174,-6513.812290,536.266849
22294.310447,-74.020594,-10066.800811,0.000000
22294.310780,-888.247130,-9992.780217,153.219100
22294.311113,-1258.350101,-10362.883188,-1532.190996
22294.311446,-1628.453072,-8142.265362,-612.876398
22294.311779,-3627.009116,-9474.636058,-4366.744339
22294.312112,-962.267725,-11843.295072,2374.896044
22294.312446,-74.020594,-9474.636058,-76.609550
22294.312779,0.000000,-5995.668130,612.876398
22294.313112,4737.318029,-7772.162391,2911.162892
22294.313445,2516.700203,-8364.327145,2757.943793
22294.313778,3478.967927,-10658.965565,2068.457845
22294.314111,666.185348,-13027.624579,459.657299
22294.314444,4885.359217,-11325.150913,3064.381992
22294.314777,5181.441594,-6291.750507,0.000000
22294.315110,6439.791695,-11843.295072,4213.525239
22294.315443,-3478.967927,-10658.965565,-2528.115143
22294.315776,-6513.812290,-8364.327145,-4290.134789
22294.316109,-3034.844362,-14211.954086,-1915.238745
22294.316442,-3997.112087,-8364.327145,-689.485948
22294.316775,-3478.967927,-8956.491898,383.047749
22294.317108,-1850.514855,-7254.018232,3294.210641
22294.317442,-370.102971,-5255.462188,2374.896044
22294.317775,2072.576638,-8512.368333,6052.154434
22294.318108,3478.967927,-4145.153275,1149.143247
22294.318441,0.000000,-7772.162391,1532.190996
22294.318774,3552.988522,-11177.109724,2987.772442
22294.319107,3478.967927,-11843.295072,-1302.362347
22294.319440,1776.494261,-9992.780217,-1072.533697
22294.319773,-1702.473667,-13619.789333,-1608.800546
22294.320106,0.000000,-11029.068536,-3830.477490
22294.320439,-2368.659014,-11843.295072,-1685.410096
22294.320772,-2368.659014,-13101.645173,3600.648841
22294.321105,2516.700203,-4071.132681,1915.238745
22294.321438,1110.308913,-9770.718434,3524.039291
22294.321771,6217.729913,-6143.709319,9806.022374
22294.322104,3330.926739,-370.102971,5822.325785
22294.322438,1776.494261,-5107.421000,4443.353888
22294.322771,4071.132681,-7105.977043,1149.143247
22294.323104,-3330.926739,-7179.997637,-7354.516781
22294.323437,-4737.318029,-13841.851115,-7201.297681
22294.323770,-4811.338623,-15396.283594,-6511.811733
22294.324103,-4737.318029,-10807.006753,-6435.202183
22294.324436,-2664.741391,-12805.562797,-1991.848295
22294.324769,-2368.659014,-8142.265362,-2451.505594
22294.325102,0.000000,-9548.656652,1838.629195
22294.325435,3552.988522,-9548.656652,12104.308868
22294.325768,11769.274478,-1776.494261,5669.106685
22294.326101,7254.018232,-9548.656652,7354.516781
22294.326434,7402.059420,-6587.832884,9959.241474
22294.326767,2368.659014,-5403.503377,0.000000
22294.327100,-1258.350101,-14211.954086,-383.047749
22294.327434,-2072.576638,-6809.894666,-8350.440928
22294.327767,-5699.585753,-13175.665768,-9882.631924
22294.328100,-3627.009116,-15692.365970,-5898.935335
22294.328433,-4737.318029,-10436.903782,-1915.238745
22294.328766,-4811.338623,-8438.347739,-3524.039291
22294.329099,-2960.823768,-8512.368333,3370.820191
22294.329432,1480.411884,-3182.885551,5439.278036
22294.329765,-74.020594,-13027.624579,7814.174080
22294.330098,6661.853478,-4959.379811,6971.469032
22294.330431,2368.659014,-7179.997637,5975.544884
22294.330764,2590.720797,-6809.894666,2528.115143
22294.331097,2368.659014,-3997.112087,842.705048
22294.331430,-74.020594,-13915.871710,-1302.362347
22294.331763,-1776.494261,-9548.656652,-8580.269578
22294.332096,-3552.988522,-14285.974681,-4366.744339
22294.332430,-666.185348,-9474.636058,-4979.620737
22294.332763,-2146.597232,-11103.089130,-7201.297681
22294.333096,-1480.411884,-13249.686362,5209.449386
22294.333429,3627.009116,-4811.338623,6052.154434
22294.333762,3775.050304,-8290.306550,6052.154434
22294.334095,3552.988522,-6735.874072,7048.078582
22294.334428,-3034.844362,-6957.935855,-2374.896044
22294.334761,5329.482782,-6365.771101,6971.469032
22294.335094,-74.020594,-9474.636058,2374.896044
22294.335427,0.000000,-5403.503377,-2451.505594
22294.335760,-4737.318029,-10658.965565,-5132.839837
22294.336093,-2812.782580,-10362.883188,-6665.030833
22294.336426,-3182.885551,-12435.459826,-6358.592633
22294.336759,-888.247130,-12361.439231,-2145.067394
22294.337092,2368.659014,-11325.150913,1991.848295
22294.337426,222.061783,-7476.080014,0.000000
22294.337759,7031.956449,-8290.306550,5745.716235
22294.338092,4219.173869,-7328.038826,6665.030833
22294.338425,6439.791695,-6883.915261,6971.469032
22294.338758,1776.494261,-5699.585753,4903.011187
22294.339091,1110.308913,-9474.636058,-3753.867940
22294.339424,-3108.864956,-9548.656652,-4290.134789
22294.339757,-1258.350101,-13619.789333,-2528.115143
22294.340090,-5699.585753,-10658.965565,-4979.620737
22294.340423,0.000000,-5699.585753,-2145.067394
22294.340756,-2886.803174,-14211.954086,-3753.867940
22294.341089,1480.411884,-9252.574275,2757.943793
22294.341422,1628.453072,-7920.203579,2757.943793
22294.341755,6735.874072,-5921.647536,4826.401637
22294.342088,1702.473667,-7254.018232,3064.381992
22294.342422,1184.329507,-7105.977043,2451.505594
22294.342755,2590.720797,-13027.624579,4826.401637
22294.343088,-2516.700203,-8512.368333,-2298.286494
22294.343421,1776.494261,-10510.924376,-1608.800546
22294.343754,-5921.647536,-7772.162391,-5362.668486
22294.344087,-3923.091493,-11769.274478,-5132.839837
22294.344420,-2886.803174,-11325.150913,-919.314598
22294.344753,1184.329507,-11843.295072,2834.553343
22294.345086,-74.020594,-5403.503377,0.000000
22294.345419,3552.988522,-8290.306550,4826.401637
22294.345752,4663.297435,-9474.636058,-76.609550
22294.346085,2368.659014,-9844.739029,6128.763984
22294.346418,7920.203579,-5921.647536,5132.839837
22294.346751,1628.453072,-9696.697840,536.266849
22294.347084,-2886.803174,-9474.636058,-2221.676944
22294.347418,-1924.535449,-4663.297435,-5592.497135
22294.347751,-4737.318029,-12213.398043,-2451.505594
22294.348084,-1184.329507,-5107.421000,1072.533697
22294.348417,-3034.844362,-11251.130318,-4366.744339
22294.348750,-6809.894666,-8364.327145,-4903.011187
22294.349083,-2368.659014,-12213.398043,4213.525239
22294.349416,-74.020594,-7105.977043,1532.190996
22294.349749,5403.503377,-4737.318029,7890.783629
22294.350082,3997.112087,-6661.853478,5439.278036
22294.350415,4145.153275,-8068.244768,2451.505594
22294.350748,5329.482782,-7920.203579,919.314598
22294.351081,5921.647536,-11103.089130,1608.800546
22294.351414,2960.823768,-10288.862594,-2374.896044
22294.351747,-3404.947333,-16580.613101,-5592.497135
22294.352081,-1554.432478,-12435.459826,-7431.126331
22294.352414,-5329.482782,-18357.107362,-995.924147
22294.352747,1184.329507,-7179.997637,3677.258390
22294.353080,-74.020594,-8882.471304,7277.907231
22294.353413,2886.803174,-2960.823768,4213.525239
22294.353746,1110.308913,-4663.297435,4826.401637
22294.354079,3330.926739,-5921.647536,6052.154434
22294.354412,3404.947333,-5181.441594,1532.190996
22294.354745,-74.020594,-7846.182985,689.485948
22294.355078,-1036.288319,-8438.347739,-4596.572988
22294.355411,-3034.844362,-14434.015869,-6511.811733
22294.355744,-4145.153275,-10732.986159,-3677.258390
22294.356077,-2738.761985,-11843.295072,-7737.564530
22294.356410,-4441.235652,-13323.706956,-4826.401637
22294.356743,-2368.659014,-12805.562797,1532.190996
22294.357077,962.267725,-7105.977043,3677.258390
22294.357410,5329.482782,-5699.585753,9422.974625
22294.357743,7846.182985,-6069.688724,11797.870669
22294.358076,4959.379811,-4441.235652,5975.544884
22294.358409,1702.473667,-7698.141797,1762.019645
22294.358742,3478.967927,-9474.636058,-76.609550
22294.359075,-1850.514855,-14211.954086,-2528.115143
22294.359408,592.164754,-5699.585753,766.095498
22294.359741,-3552.988522,-11399.171507,-5209.449386
22294.360074,-2368.659014,-7920.203579,-4290.134789
22294.360407,-4811.338623,-10955.047942,-6205.373534
22294.360740,-2072.576638,-10066.800811,-1991.848295
22294.361073,-5181.441594,-8660.409521,-1149.143247
22294.361406,-4737.318029,-7772.162391,0.000000
22294.361739,3478.967927,-9474.636058,4826.401637
22294.362073,1258.350101,-5921.647536,4673.182538
22294.362406,4737.318029,-7772.162391,7967.393179
22294.362739,4663.297435,-7105.977043,4826.401637
22294.363072,2368.659014,-9252.574275,4060.306139
22294.363405,1554.432478,-7179.997637,-2987.772442
22294.363738,2960.823768,-12139.377449,-3064.381992
22294.364071,666.185348,-13989.892304,-2528.115143
22294.364404,6217.729913,-8808.450710,-76.609550
22294.364737,-2442.679609,-11695.253884,-4903.011187
22294.365070,-2072.576638,-8068.244768,-4290.134789
22294.365403,-74.020594,-14211.954086,2374.896044
22294.365736,-1258.350101,-8290.306550,-2068.457845
22294.366069,2960.823768,-11399.171507,7277.907231
22294.366402,-1776.494261,-6735.874072,5898.935335
22294.366735,2516.700203,-74.020594,4903.011187
22294.367069,0.000000,-4589.276840,5209.449386
22294.367402,3849.070898,-6883.915261,3753.867940
22294.367735,-4811.338623,-10955.047942,-1072.533697
22294.368068,1850.514855,-5181.441594,-9346.365076
22294.368401,-6661.853478,-18357.107362,-4826.401637
22294.368734,0.000000,-8364.327145,-7048.078582
22294.369067,888.247130,-12213.398043,-1685.410096
22294.369400,2590.720797,-15100.201217,4213.525239
22294.369733,6439.791695,-7698.141797,0.000000
22294.370066,2368.659014,-8956.491898,3600.648841
22294.370399,5107.421000,-11251.130318,4826.401637
22294.370732,2738.761985,-7105.977043,8886.707777
22294.371065,4219.173869,-4959.379811,5745.716235
22294.371398,2146.597232,-4885.359217,4826.401637
22294.371731,-4737.318029,-9992.780217,-1225.752797
22294.372065,-4737.318029,-8364.327145,-995.924147
22294.372398,-6587.832884,-7994.224174,-7737.564530
22294.372731,-6809.894666,-8364.327145,-9806.022374
22294.373064,-4441.235652,-13101.645173,-383.047749
22294.373397,-2960.823768,-8364.327145,-2911.162892
22294.373730,962.267725,-10658.965565,2374.896044
22294.374063,2368.659014,-9326.594869,3753.867940
22294.374396,4885.359217,-6883.915261,4903.011187
22294.374729,5847.626942,-10658.965565,3600.648841
22294.375062,4737.318029,-11325.150913,5132.839837
22294.375395,-74.020594,-9548.656652,0.000000
22294.375728,0.000000,-9992.780217,3600.648841
22294.376061,1702.473667,-6809.894666,-1608.800546
22294.376394,-1406.391290,-12287.418637,-3447.429741
22294.376727,-370.102971,-10066.800811,-689.485948
22294.377061,-5255.462188,-9400.615463,-4366.744339
22294.377394,-814.226536,-6143.709319,229.828649
22294.377727,-2368.659014,-6143.709319,612.876398
22294.378060,2294.638420,-10658.965565,2987.772442
22294.378393,0.000000,-7772.162391,2451.505594
22294.378726,4145.153275,-7105.977043,2374.896044
22294.379059,2886.803174,-7624.121203,1838.629195
22294.379392,1184.329507,-7476.080014,-1149.143247
22294.379725,-1480.411884,-12065.356855,-2374.896044
22294.380058,-5477.523971,-14878.139434,-1378.971896
22294.380391,814.226536,-8808.450710,-2451.505594
22294.380724,-1480.411884,-11991.336260,-2298.286494
22294.381057,1110.308913,-9548.656652,-3677.258390
22294.381390,3849.070898,-8290.306550,1149.143247
22294.381723,3478.967927,-11251.130318,4826.401637
22294.382057,5921.647536,-5995.668130,11644.651570
22294.382390,5921.647536,-6735.874072,5745.716235
22294.382723,6661.853478,-6735.874072,4903.011187
22294.383056,1554.432478,-7105.977043,-842.705048
22294.383389,1036.288319,-7920.203579,-1455.581446
22294.383722,-6217.729913,-12879.583391,-3217.601092
22294.384055,-7105.977043,-8364.327145,-8580.269578
22294.384388,-8290.306550,-14285.974681,-5286.058936
22294.384721,-4737.318029,-9696.697840,-4903.011187
22294.385054,-2886.803174,-9030.512492,842.705048
22294.385387,1776.494261,-5107.421000,6741.640382
22294.385720,4663.297435,-6217.729913,5209.449386
22294.386053,3552.988522,-3627.009116,7354.516781
22294.386386,9400.615463,-9178.553681,3600.648841
22294.386719,814.226536,-14508.036463,5286.058936
22294.387053,5033.400406,-5995.668130,1915.238745
22294.387386,-2368.659014,-12509.480420,-3983.696590
22294.387719,1110.308913,-8586.388927,-7277.907231
22294.388052,-3923.091493,-13915.871710,-5898.935335
22294.388385,-2442.679609,-13915.871710,-4979.620737
22294.388718,-74.020594,-9548.656652,-3677.258390
22294.389051,-3404.947333,-10658.965565,4826.401637
22294.389384,2886.803174,-4737.318029,1762.019645
22294.389717,-2072.576638,-8364.327145,10112.460574
22294.390050,3478.967927,-4737.318029,4213.525239
22294.390383,3108.864956,-4219.173869,3830.477490
22294.390716,1406.391290,-5995.668130,3447.429741
22294.391049,-518.144159,-7105.977043,-1608.800546
22294.391382,-3108.864956,-10510.924376,-1608.800546
22294.391715,-4515.256246,-7179.997637,-4903.011187
22294.392049,-74.020594,-11843.295072,-6971.469032
22294.392382,-74.020594,-16580.613101,-3753.867940
22294.392715,0.000000,-7772.162391,-3064.381992
22294.393048,814.226536,-12361.439231,306.438199
22294.393381,3330.926739,-9252.574275,4443.353888
22294.393714,2516.700203,-9252.574275,2987.772442
22294.394047,888.247130,-7328.038826,7584.345430
22294.394380,2960.823768,-8364.327145,7354.516781
22294.394713,3552.988522,-6957.935855,8503.660028
22294.395046,4663.297435,-7105.977043,4826.401637
22294.395379,-2664.741391,-5995.668130,-1225.752797
22294.395712,-5329.482782,-7179.997637,-2528.115143
22294.396045,-4811.338623,-10362.883188,-9499.584175
22294.396378,-4071.132681,-12435.459826,-6665.030833
22294.396712,-1554.432478,-11399.171507,-5592.497135
22294.397045,-3923.091493,-11917.315666,-5209.449386
22294.397378,0.000000,-10732.986159,0.000000
22294.397711,2516.700203,-6513.812290,4749.792088
22294.398044,4515.256246,-8586.388927,6665.030833
22294.398377,6809.894666,-6069.688724,8503.660028
22294.398710,3701.029710,-9474.636058,1762.019645
22294.399043,2368.659014,-9548.656652,4519.963438
22294.399376,4737.318029,-5403.503377,5209.449386
22294.399709,814.226536,-11399.171507,-1685.410096
22294.400042,592.164754,-6587.832884,-1532.190996
22294.400375,-3923.091493,-9326.594869,-6818.249932
22294.400708,-2738.761985,-12435.459826,-4979.620737
22294.401041,-3108.864956,-10140.821405,-2374.896044
22294.401374,-1406.391290,-9548.656652,-612.876398
22294.401708,1702.473667,-5995.668130,3830.477490
22294.402041,4071.132681,-9400.615463,4826.401637
22294.402374,2368.659014,-7179.997637,7201.297681
22294.402707,-74.020594,-9178.553681,2987.772442
22294.403040,1332.370696,-5995.668130,612.876398
22294.403373,-1776.494261,-4811.338623,-3370.820191
22294.403706,-2738.761985,-15766.386565,-6052.154434
22294.404039,296.082377,-10881.027347,-1532.190996
22294.404372,-2738.761985,-11621.233289,-4673.182538
22294.404705,4367.215058,-7772.162391,1685.410096
22294.405038,-1776.494261,-6291.750507,-612.876398
22294.405372,4367.215058,-11843.295072,4826.401637
22294.405705,2368.659014,-8956.491898,5822.325785
22294.406038,4663.297435,-5107.421000,2451.505594
22294.406371,5773.606348,-10658.965565,9729.412825
22294.406704,2294.638420,-8290.306550,1762.019645
22294.407037,0.000000,-7179.997637,0.000000
22294.407370,-5921.647536,-10510.924376,-4979.620737
22294.407703,-888.247130,-9548.656652,-4749.792088
22294.408036,-6439.791695,-14211.954086,-3753.867940
22294.408369,-3627.009116,-8290.306550,-7660.954980
22294.408703,-5625.565159,-7772.162391,-2451.505594
22294.409036,-2960.823768,-6735.874072,2374.896044
22294.409369,2294.638420,-5699.585753,3217.601092
22294.409702,2886.803174,-10362.883188,6052.154434
22294.410035,3701.029710,-6661.853478,4366.744339
22294.410368,2072.576638,-9844.739029,3447.429741
22294.410701,4219.173869,-10732.986159,4903.011187
22294.411034,4071.132681,-8290.306550,-1302.362347
22294.411367,296.082377,-9548.656652,0.000000
22294.411701,2294.638420,-11843.295072,-2681.334243
22294.412034,-3182.885551,-11547.212695,-4060.306139
22294.412367,-3552.988522,-7179.997637,-1838.629195
22294.412700,-1850.514855,-11843.295072,-1915.238745
22294.413033,-2220.617826,-6735.874072,-1225.752797
22294.413366,0.000000,-7698.141797,1991.848295
22294.413699,370.102971,-8290.306550,5975.544884
22294.414032,2294.638420,-5625.565159,4519.963438
22294.414365,-592.164754,-8956.491898,2451.505594
22294.414699,-148.041188,-8660.409521,-842.705048
22294.415032,-1702.473667,-11843.295072,-995.924147
22294.415365,592.164754,-8364.327145,1225.752797
22294.415698,814.226536,-11251.130318,-3140.991542
22294.416031,1332.370696,-6587.832884,-1685.410096
22294.416364,-2368.659014,-5403.503377,-1225.752797
22294.416697,-74.020594,-14063.912898,-2528.115143
22294.417030,888.247130,-11917.315666,306.438199
22294.417363,2812.782580,-8142.265362,-153.219100
22294.417697,1184.329507,-9844.739029,2374.896044
22294.418030,2664.741391,-9252.574275,3907.087040
22294.418363,3478.967927,-10510.924376,2374.896044
22294.418696,0.000000,-11251.130318,4213.525239
22294.419029,3552.988522,-5107.421000,4596.572988
22294.419362,-370.102971,-11251.130318,-76.609550
22294.419695,-1258.350101,-6735.874072,-2451.505594
22294.420028,-4293.194464,-7105.977043,-2834.553343
22294.420361,-370.102971,-8216.285956,-1608.800546
22294.420695,-888.247130,-7846.182985,-2145.067394
22294.421028,-4145.153275,-11177.109724,-2221.676944
22294.421361,-3552.988522,-8364.327145,-2757.943793
22294.421694,-1702.473667,-10658.965565,-2221.676944
22294.422027,0.000000,-7772.162391,4903.011187
22294.422360,3478.967927,-10658.965565,4826.401637
22294.422693,3182.885551,-7105.977043,3140.991542
22294.423026,2072.576638,-6291.750507,3753.867940
22294.423359,1628.453072,-9548.656652,2757.943793
22294.423692,1998.556043,-8290.306550,1149.143247
22294.424026,1480.411884,-6735.874072,-4903.011187
22294.424359,-2664.741391,-19467.416275,-2451.505594
22294.424692,4071.132681,-6809.894666,0.000000
22294.425025,-3997.112087,-15988.448347,-76.609550
22294.425358,1110.308913,-6513.812290,-76.609550
22294.425691,-4441.235652,-7179.997637,-2145.067394
22294.426024,1184.329507,-8068.244768,3830.477490
22294.426357,2368.659014,-6661.853478,2987.772442
22294.426690,1036.288319,-9992.780217,3294.210641
22294.427024,2072.576638,-5995.668130,2834.553343
22294.427357,-3849.070898,-10658.965565,-1302.362347
22294.427690,1184.329507,-7179.997637,2451.505594
22294.428023,-74.020594,-6513.812290,-2681.334243
22294.428356,0.000000,-8956.491898,-5822.325785
22294.428689,-1776.494261,-10140.821405,-1302.362347
22294.429022,-2812.782580,-12953.603985,-6435.202183
22294.429355,4737.318029,-8586.388927,2681.334243
22294.429688,2072.576638,-10584.944971,3140.991542
22294.430022,5551.544565,-9104.533087,3907.087040
22294.430355,2738.761985,-10658.965565,2374.896044
22294.430688,1776.494261,-12805.562797,1302.362347
22294.431021,4959.379811,-9326.594869,7431.126331
22294.431354,2886.803174,-5921.647536,2145.067394
22294.431687,2146.597232,-6735.874072,2451.505594
22294.432020,-4811.338623,-7698.141797,-3753.867940
22294.432353,-5625.565159,-8512.368333,-4290.134789
22294.432686,-3034.844362,-12435.459826,-76.609550
22294.433020,-3034.844362,-5773.606348,-7201.297681
22294.433353,-4441.235652,-9992.780217,-1532.190996
22294.433686,1110.308913,-9178.553681,1149.143247
22294.434019,296.082377,-9400.615463,1149.143247
22294.434352,5107.421000,-9178.553681,4443.353888
22294.434685,3552.988522,-11325.150913,4366.744339
22294.435018,370.102971,-9548.656652,1915.238745
22294.435351,2368.659014,-5403.503377,1532.190996
22294.435684,-74.020594,-13027.624579,-1915.238745
22294.436018,5847.626942,-5403.503377,306.438199
22294.436351,-2072.576638,-10881.027347,766.095498
22294.436684,1702.473667,-9326.594869,-2221.676944
22294.437017,-7105.977043,-11251.130318,-2528.115143
22294.437350,-148.041188,-8142.265362,-2604.724693
22294.437683,740.205942,-8956.491898,2374.896044
22294.438016,1480.411884,-8956.491898,2451.505594
22294.438349,0.000000,-7179.997637,4596.572988
22294.438682,-2738.761985,-8586.388927,-1225.752797
22294.439016,2368.659014,-8364.327145,1225.752797
22294.439349,-2146.597232,-10658.965565,-76.609550
22294.439682,1628.453072,-7772.162391,612.876398
22294.440015,-3775.050304,-6513.812290,-2528.115143
22294.440348,-2664.741391,-11843.295072,-5056.230287
22294.440681,814.226536,-9400.615463,-842.705048
22294.441014,-74.020594,-9326.594869,-689.485948
22294.441347,2960.823768,-9474.636058,2374.896044
22294.441680,-74.020594,-10807.006753,1225.752797
22294.442013,3552.988522,-8956.491898,2681.334243
22294.442347,4071.132681,-13027.624579,9729.412825
22294.442680,8882.471304,-2442.679609,5439.278036
22294.443013,4367.215058,-8586.388927,4366.744339
22294.443346,-740.205942,-9178.553681,153.219100
22294.443679,-1406.391290,-7994.224174,-3983.696590
22294.444012,-9326.594869,-9844.739029,-7660.954980
22294.444345,-1258.350101,-10066.800811,-7584.345430
22294.444678,-6513.812290,-11029.068536,0.000000
22294.445011,-74.020594,-9474.636058,-1915.238745
22294.445345,-3552.988522,-8364.327145,0.000000
22294.445678,4145.153275,-9992.780217,7277.907231
22294.446011,1110.308913,-9104.533087,3983.696590
22294.446344,3701.029710,-7476.080014,4903.011187
22294.446677,3404.947333,-9696.697840,3830.477490
22294.447010,2368.659014,-8364.327145,1532.190996
22294.447343,7624.121203,-5847.626942,1455.581446
22294.447676,2664.741391,-9844.739029,995.924147
22294.448009,-2072.576638,-12065.356855,-5286.058936
22294.448343,-1924.535449,-9622.677246,-3447.429741
22294.448676,-3997.112087,-10658.965565,-4366.744339
22294.449009,-74.020594,-13619.789333,-76.609550
22294.449342,-1850.514855,-10362.883188,306.438199
22294.449675,-2368.659014,-6735.874072,1225.752797
22294.450008,1184.329507,-9992.780217,5209.449386
22294.450341,2664.741391,-3923.091493,4903.011187
22294.450674,2220.617826,-8290.306550,3140.991542
22294.451007,1110.308913,-8142.265362,2451.505594
22294.451341,1110.308913,-8216.285956,1762.019645
22294.451674,-4441.235652,-9548.656652,-2451.505594
22294.452007,2294.638420,-5477.523971,-5822.325785
22294.452340,-2590.720797,-8956.491898,-4290.134789
22294.452673,-148.041188,-10658.965565,-2528.115143
22294.453006,-666.185348,-12731.542202,-3140.991542
22294.453339,-1184.329507,-12509.480420,2757.943793
22294.453672,666.185348,-9770.718434,2451.505594
22294.454005,4219.173869,-7031.956449,4903.011187
22294.454339,4293.194464,-8734.430116,6052.154434
22294.454672,5773.606348,-7105.977043,4060.306139
22294.455005,2294.638420,-11917.315666,4903.011187
22294.455338,1332.370696,-8068.244768,4903.011187
22294.455671,-74.020594,-7994.224174,-3753.867940
22294.456004,-4737.318029,-7179.997637,-3677.258390
22294.456337,-1850.514855,-9474.636058,-5286.058936
22294.456670,-3330.926739,-6513.812290,-3983.696590
22294.457003,-1184.329507,-7624.121203,-2757.943793
22294.457337,-6069.688724,-11917.315666,-4903.011187
22294.457670,-962.267725,-13619.789333,536.266849
22294.458003,0.000000,-5995.668130,3064.381992
22294.458336,5255.462188,-10658.965565,3600.648841
22294.458669,4737.318029,-6587.832884,2451.505594
22294.459002,0.000000,-10140.821405,7354.516781
22294.459335,3478.967927,-5625.565159,1149.143247
22294.459668,4589.276840,-6809.894666,-689.485948
22294.460001,2220.617826,-13619.789333,-1762.019645
22294.460334,-1036.288319,-11695.253884,-1302.362347
22294.460668,-1258.350101,-8882.471304,-2068.457845
22294.461001,-2220.617826,-11547.212695,-1608.800546
22294.461334,-962.267725,-7031.956449,-306.438199
22294.461667,-1184.329507,-8512.368333,1991.848295
22294.462000,1184.329507,-7476.080014,2757.943793
22294.462333,-74.020594,-9474.636058,-76.609550
22294.462666,-2072.576638,-8956.491898,2451.505594
22294.462999,0.000000,-5403.503377,6358.592633
22294.463332,1110.308913,-7698.141797,-1455.581446
22294.463666,2368.659014,-8364.327145,306.438199
22294.463999,-3627.009116,-11843.295072,-842.705048
22294.464332,1850.514855,-4959.379811,-3447.429741
22294.464665,-3404.947333,-12361.439231,-4290.134789
22294.464998,2294.638420,-9474.636058,-2528.115143
22294.465331,0.000000,-13027.624579,-76.609550
22294.465664,1406.391290,-8364.327145,2451.505594
22294.465997,4589.276840,-10362.883188,6128.763984
22294.466330,5847.626942,-6809.894666,6665.030833
22294.466664,5255.462188,-7105.977043,5439.278036
22294.466997,-2590.720797,-11103.089130,0.000000
22294.467330,2220.617826,-7994.224174,536.266849
22294.467663,-592.164754,-7772.162391,-2911.162892
22294.467996,0.000000,-8364.327145,0.000000
22294.468329,-666.185348,-9474.636058,-1608.800546
22294.468662,-9474.636058,-11917.315666,-3064.381992
22294.468995,-222.061783,-7698.141797,-1302.362347
22294.469328,-7105.977043,-8364.327145,-3524.039291
22294.469662,592.164754,-7476.080014,1991.848295
22294.469995,296.082377,-7476.080014,4979.620737
22294.470328,2294.638420,-7698.141797,2834.553343
22294.470661,2812.782580,-8068.244768,4903.011187
22294.470994,4737.318029,-8586.388927,4290.134789
22294.471327,4663.297435,-7920.203579,0.000000
22294.471660,2886.803174,-9474.636058,-689.485948
22294.471993,-74.020594,-15248.242405,-5822.325785
22294.472326,-4145.153275,-13397.727550,1149.143247
22294.472660,3034.844362,-5329.482782,-2374.896044
22294.472993,-2960.823768,-11917.315666,842.705048
22294.473326,444.123565,-7254.018232,2604.724693
22294.473659,-2072.576638,-8438.347739,-536.266849
22294.473992,2294.638420,-9474.636058,3600.648841
22294.474325,0.000000,-7772.162391,2757.943793
22294.474658,2294.638420,-10066.800811,1302.362347
22294.474991,2368.659014,-8364.327145,3677.258390
22294.475324,-74.020594,-9474.636058,-1302.362347
22294.475658,-74.020594,-8734.430116,-3370.820191
22294.475991,888.247130,-11473.192101,-689.485948
22294.476324,-1554.432478,-8956.491898,-3064.381992
22294.476657,-666.185348,-7105.977043,-1915.238745
22294.476990,370.102971,-10510.924376,1762.019645
22294.477323,592.164754,-4219.173869,2374.896044
22294.477656,2442.679609,-9326.594869,3140.991542
22294.477989,2368.659014,-9696.697840,5209.449386
22294.478322,1036.288319,-10362.883188,0.000000
22294.478655,2886.803174,-9474.636058,-76.609550
22294.478989,592.164754,-14285.974681,153.219100
22294.479322,4515.256246,-11843.295072,4826.401637
22294.479655,2590.720797,-5551.544565,0.000000
22294.479988,-592.164754,-6587.832884,-153.219100
22294.480321,-1258.350101,-11843.295072,-383.047749
22294.480654,-5699.585753,-7772.162391,-3064.381992
22294.480987,-1924.535449,-6143.709319,-1455.581446
22294.481320,-4811.338623,-10066.800811,-3753.867940
22294.481653,518.144159,-7550.100608,0.000000
22294.481987,-4737.318029,-10732.986159,4290.134789
22294.482320,2294.638420,-6513.812290,-1302.362347
22294.482653,1554.432478,-10140.821405,1532.190996
22294.482986,1776.494261,-12953.603985,3830.477490
22294.483319,4663.297435,-6809.894666,-766.095498
22294.483652,2516.700203,-11769.274478,2987.772442
22294.483985,-3034.844362,-7772.162391,2451.505594
22294.484318,3330.926739,-814.226536,-4903.011187
22294.484651,592.164754,-12509.480420,2451.505594
22294.484985,-2368.659014,-8660.409521,-995.924147
22294.485318,-74.020594,-9326.594869,-3140.991542
22294.485651,-7105.977043,-14285.974681,-3677.258390
22294.485984,296.082377,-8068.244768,-1532.190996
22294.486317,-4737.318029,-13101.645173,3677.258390
22294.486650,2072.576638,-7846.182985,2528.115143
22294.486983,3256.906145,-6291.750507,2528.115143
22294.487316,1036.288319,-9104.533087,4136.915689
22294.487649,6439.791695,-5329.482782,2374.896044
22294.487983,-1850.514855,-10658.965565,1762.019645
22294.488316,2886.803174,-7550.100608,0.000000
22294.488649,0.000000,-5995.668130,459.657299
22294.488982,1184.329507,-11843.295072,-2528.115143
22294.489315,-74.020594,-11843.295072,-76.609550
22294.489648,-2886.803174,-10955.047942,-4826.401637
22294.489981,2812.782580,-10140.821405,-766.095498
22294.490314,3108.864956,-13915.871710,5669.106685
22294.490647,888.247130,-7476.080014,1838.629195
22294.490981,3478.967927,-5625.565159,3753.867940
22294.491314,-888.247130,-9844.739029,3677.258390
22294.491647,4663.297435,-7105.977043,2068.457845
22294.491980,-2220.617826,-8364.327145,612.876398
22294.492313,3330.926739,-6957.935855,-76.609550
22294.492646,-3256.906145,-11325.150913,-1838.629195
22294.492979,2146.597232,-6291.750507,-1915.238745
22294.493312,-2664.741391,-9992.780217,-2374.896044
22294.493645,-2886.803174,-11325.150913,-3677.258390
22294.493979,2146.597232,-7624.121203,0.000000
22294.494312,74.020594,-10881.027347,-536.266849
22294.494645,3997.112087,-8734.430116,3294.210641
22294.494978,1998.556043,-10214.842000,3447.429741
22294.495311,0.000000,-8660.409521,2374.896044
22294.495644,2294.638420,-6513.812290,-76.609550
22294.495977,-1258.350101,-10140.821405,-3983.696590
22294.496310,592.164754,-9992.780217,-1838.629195
22294.496643,1924.535449,-13471.748144,1532.190996
22294.496976,0.000000,-8660.409521,1838.629195
22294.497310,2220.617826,-8216.285956,1149.143247
22294.497643,-1480.411884,-7624.121203,0.000000
22294.497976,518.144159,-7994.224174,-919.314598
22294.498309,592.164754,-9548.656652,0.000000
22294.498642,814.226536,-10732.986159,-1838.629195
22294.498975,0.000000,-8364.327145,1225.752797
22294.499308,-74.020594,-11251.130318,1149.143247
22294.499641,-370.102971,-7698.141797,0.000000
22294.499974,-2664.741391,-8438.347739,1608.800546
22294.500308,-1924.535449,-7328.038826,-1302.362347
22294.500641,-2516.700203,-9104.533087,-1838.629195
22294.500974,-3923.091493,-9696.697840,-5898.935335
22294.501307,-74.020594,-9474.636058,-76.609550
22294.501640,0.000000,-7179.997637,5515.887586
22294.501973,7031.956449,-7105.977043,6052.154434
22294.502306,2886.803174,-7179.997637,4903.011187
22294.502639,2368.659014,-9548.656652,2145.067394
22294.502972,3182.885551,-9474.636058,-1378.971896
22294.503306,1554.432478,-10732.986159,1608.800546
22294.503639,592.164754,-9844.739029,0.000000
22294.503972,-2442.679609,-10214.842000,-3753.867940
22294.504305,-3552.988522,-10732.986159,-5822.325785
22294.504638,-7105.977043,-11325.150913,-76.609550
22294.504971,-74.020594,-5921.647536,-2911.162892
22294.505304,-1702.473667,-6069.688724,3677.258390
22294.505637,-74.020594,-9474.636058,3600.648841
22294.505970,2072.576638,-5107.421000,3677.258390
22294.506303,2886.803174,-9548.656652,4290.134789
22294.506636,2960.823768,-6143.709319,2681.334243
22294.506969,1702.473667,-10510.924376,1302.362347
22294.507302,1776.494261,-8956.491898,-2451.505594
22294.507635,1850.514855,-10362.883188,-3140.991542
22294.507969,592.164754,-11991.336260,-3447.429741
22294.508302,-370.102971,-14359.995275,-3600.648841
22294.508635,-3034.844362,-11251.130318,-3140.991542
22294.508968,-1258.350101,-5403.503377,-3064.381992
22294.509301,0.000000,-11103.089130,-76.609550
22294.509634,2886.803174,-11251.130318,3600.648841
22294.509967,2812.782580,-6587.832884,7354.516781
22294.510300,3478.967927,-7105.977043,6665.030833
22294.510633,-222.061783,-8364.327145,3907.087040
22294.510966,-222.061783,-8512.368333,-383.047749
22294.511299,2886.803174,-3849.070898,-1225.752797
22294.511632,-3256.906145,-12509.480420,-1225.752797
22294.511965,3182.885551,-5033.400406,-6128.763984
22294.512298,-7254.018232,-16580.613101,-3140.991542
22294.512631,-3182.885551,-7105.977043,-6665.030833
22294.512965,-370.102971,-9178.553681,153.219100
22294.513298,0.000000,-7772.162391,1838.629195
22294.513631,3256.906145,-6587.832884,3677.258390
22294.513964,-2294.638420,-10732.986159,2068.457845
22294.514297,2294.638420,-7994.224174,-689.485948
22294.514630,3478.967927,-11843.295072,4826.401637
22294.514963,4145.153275,-10140.821405,3983.696590
22294.515296,3478.967927,-7105.977043,-1302.362347
22294.515629,0.000000,-10140.821405,0.000000
22294.515962,-74.020594,-10955.047942,-1302.362347
22294.516295,2886.803174,-8290.306550,842.705048
22294.516628,2442.679609,-7624.121203,-842.705048
22294.516961,888.247130,-8068.244768,-153.219100
22294.517294,-5773.606348,-10732.986159,-3830.477490
22294.517627,-2886.803174,-8512.368333,-3524.039291
22294.517961,-3627.009116,-13323.706956,-76.609550
22294.518294,-3552.988522,-7179.997637,0.000000
22294.518627,-2368.659014,-11621.233289,6358.592633
22294.518960,1110.308913,-8290.306550,2068.457845
22294.519293,592.164754,-7179.997637,2757.943793
22294.519626,3108.864956,-5995.668130,3753.867940
22294.519959,2960.823768,-5995.668130,1838.629195
22294.520292,888.247130,-6883.915261,-306.438199
22294.520625,1850.514855,-9992.780217,-4290.134789
22294.520958,-666.185348,-14211.954086,-3140.991542
22294.521291,1776.494261,-8660.409521,4673.182538
22294.521624,-1850.514855,-11843.295072,-3140.991542
22294.521957,-74.020594,-9844.739029,0.000000
22294.522290,-2368.659014,-8364.327145,0.000000
22294.522623,962.267725,-7698.141797,459.657299
22294.522957,-148.041188,-7994.224174,2834.553343
22294.523290,0.000000,-8216.285956,3217.601092
22294.523623,-1332.370696,-8068.244768,3983.696590
22294.523956,-74.020594,-3997.112087,0.000000
22294.524289,1924.535449,-6217.729913,-76.609550
22294.524622,0.000000,-6439.791695,-1762.019645
22294.524955,1628.453072,-9548.656652,-1225.752797
22294.525288,-1776.494261,-10732.986159,-306.438199
22294.525621,-1554.432478,-9918.759623,-4903.011187
22294.525954,592.164754,-7179.997637,-3677.258390
22294.526287,1184.329507,-11917.315666,4673.182538
22294.526620,4367.215058,-10658.965565,1455.581446
22294.526953,2664.741391,-8660.409521,1225.752797
22294.527286,444.123565,-13175.665768,5056.230287
22294.527620,4737.318029,-3182.885551,6128.763984
22294.527953,3775.050304,-6439.791695,5515.887586
22294.528286,1702.473667,-7994.224174,2374.896044
22294.528619,-2442.679609,-7105.977043,-5439.278036
22294.528952,-3552.988522,-12953.603985,-689.485948
22294.529285,-5995.668130,-8882.471304,-5286.058936
22294.529618,-4219.173869,-7772.162391,-7967.393179
22294.529951,2590.720797,-11399.171507,3600.648841
22294.530284,296.082377,-17098.757260,2451.505594
22294.530617,3849.070898,2220.617826,-919.314598
22294.530950,74.020594,-17172.777854,2221.676944
22294.531283,2368.659014,-4811.338623,306.438199
22294.531616,3923.091493,-370.102971,0.000000
22294.531949,2146.597232,-26055.249158,4213.525239
22294.532282,740.205942,-21391.951724,2145.067394
22294.532616,3552.988522,4663.297435,4826.401637
22294.532949,7476.080014,7105.977043,-2834.553343
22294.533282,-2886.803174,-12657.521608,1991.848295
22294.533615,-5403.503377,-15692.365970,-1302.362347
22294.533948,-5995.668130,-14508.036463,-536.266849
22294.534281,0.000000,-15248.242405,612.876398
22294.534614,-2220.617826,-7179.997637,-4903.011187
22294.534947,4663.297435,-8290.306550,-3753.867940
22294.535280,2960.823768,-3627.009116,0.000000
22294.535613,6439.791695,-4737.318029,2987.772442
22294.535946,1332.370696,-7772.162391,1225.752797
22294.536279,-74.020594,-10881.027347,5132.839837
22294.536612,-2146.597232,-2220.617826,2374.896044
22294.536945,-3997.112087,-7994.224174,2987.772442
22294.537278,2294.638420,-4145.153275,3600.648841
22294.537612,-2368.659014,-10732.986159,3294.210641
22294.537945,0.000000,-7772.162391,0.000000
22294.538278,-4441.235652,-13101.645173,2451.505594
22294.538611,962.267725,-15988.448347,2374.896044
22294.538944,3923.091493,-11547.212695,1225.752797
22294.539277,-74.020594,-13323.706956,383.047749
22294.539610,4589.276840,-8882.471304,-1302.362347
22294.539943,-962.267725,-10214.842000,-1915.238745
22294.540276,3182.885551,-6957.935855,-1685.410096
22294.540609,-1702.473667,-11843.295072,-995.924147
22294.540942,-2960.823768,-7179.997637,-4596.572988
22294.541275,-5921.647536,-11399.171507,-4366.744339
22294.541608,-1850.514855,-10066.800811,-2834.553343
22294.541941,1110.308913,-9474.636058,536.266849
22294.542274,740.205942,-11473.192101,3600.648841
22294.542608,2294.638420,-7994.224174,-383.047749
22294.542941,-1776.494261,-7476.080014,612.876398
22294.543274,5329.482782,-8290.306550,1991.848295
22294.543607,2886.803174,-7105.977043,842.705048
22294.543940,2960.823768,-6883.915261,-689.485948
22294.544273,74.020594,-8586.388927,-4903.011187
22294.544606,-74.020594,-12953.603985,-2221.676944
22294.544939,0.000000,-7179.997637,0.000000
22294.545272,2294.638420,-12435.459826,-76.609550
22294.545605,-1628.453072,-7179.997637,0.000000
22294.545938,-4737.318029,-8364.327145,2604.724693
22294.546271,740.205942,-9474.636058,4213.525239
22294.546604,1776.494261,-9548.656652,7354.516781
22294.546937,4885.359217,-7179.997637,6511.811733
22294.547271,4663.297435,-7402.059420,5898.935335
22294.547604,3404.947333,-8586.388927,5132.839837
22294.547937,2294.638420,-8734.430116,-76.609550
22294.548270,-74.020594,-6513.812290,-3294.210641
22294.548603,-3404.947333,-9548.656652,-2221.676944
22294.548936,-1258.350101,-8290.306550,-7431.126331
22294.549269,-3552.988522,-8364.327145,-4290.134789
22294.549602,1702.473667,-9474.636058,-76.609550
22294.549935,0.000000,-9918.759623,1915.238745
22294.550268,2960.823768,-9400.615463,4443.353888
22294.550601,1998.556043,-11991.336260,4519.963438
22294.550934,592.164754,-8512.368333,2298.286494
22294.551267,1924.535449,-10140.821405,2451.505594
22294.551600,4515.256246,-11843.295072,2987.772442
22294.551933,592.164754,-11325.150913,612.876398
22294.552267,-1184.329507,-8660.409521,612.876398
22294.552600,-74.020594,-9474.636058,-3294.210641
22294.552933,-3108.864956,-8956.491898,-3370.820191
22294.553266,-740.205942,-7846.182985,-3217.601092
22294.553599,-3182.885551,-11251.130318,-3447.429741
22294.553932,-2146.597232,-7031.956449,-3907.087040
22294.554265,-3108.864956,-10881.027347,-995.924147
22294.554598,1258.350101,-11325.150913,3140.991542
22294.554931,2294.638420,-8512.368333,3524.039291
22294.555264,2072.576638,-11843.295072,5362.668486
22294.555597,3478.967927,-10362.883188,3600.648841
22294.555930,-666.185348,-7476.080014,-2451.505594
22294.556263,296.082377,-8068.244768,0.000000
22294.556596,-1776.494261,-12435.459826,842.705048
22294.556929,-2664.741391,-5477.523971,-2451.505594
22294.557263,-1480.411884,-6809.894666,-2528.115143
22294.557596,-4145.153275,-11547.212695,689.485948
22294.557929,888.247130,-4441.235652,-2834.553343
22294.558262,1406.391290,-10658.965565,2374.896044
22294.558595,3552.988522,-6883.915261,4443.353888
22294.558928,2294.638420,-8364.327145,1838.629195
22294.559261,3552.988522,-10140.821405,7201.297681
22294.559594,1480.411884,-9992.780217,3140.991542
22294.559927,-74.020594,-9474.636058,-383.047749
22294.560260,-962.267725,-11843.295072,-1302.362347
22294.560593,-3108.864956,-8364.327145,-2451.505594
22294.560926,-5699.585753,-10214.842000,1455.581446
22294.561259,-1998.556043,-592.164754,-2298.286494
22294.561592,1702.473667,-10658.965565,2374.896044
22294.561925,4885.359217,-5403.503377,5209.449386
22294.562259,5625.565159,-11177.109724,5745.716235
22294.562592,3478.967927,-7624.121203,306.438199
22294.562925,3552.988522,-11917.315666,1225.752797
22294.563258,1998.556043,-13545.768739,-2068.457845
22294.563591,5033.400406,-13027.624579,-1225.752797
22294.563924,-370.102971,-13619.789333,-3907.087040
22294.564257,1554.432478,-9918.759623,-2528.115143
22294.564590,-1332.370696,-5699.585753,-3907.087040
22294.564923,1036.288319,-9474.636058,2374.896044
22294.565256,-666.185348,-8290.306550,-76.609550
22294.565589,-3923.091493,-8660.409521,-2145.067394
22294.565922,-74.020594,-10658.965565,3600.648841
22294.566255,-1184.329507,-7772.162391,3064.381992
22294.566588,1702.473667,-8956.491898,1838.629195
22294.566922,1776.494261,-8734.430116,2451.505594
22294.567255,1036.288319,-9918.759623,-1991.848295
22294.567588,592.164754,-9548.656652,0.000000
22294.567921,3182.885551,-10658.965565,-1915.238745
22294.568254,-3552.988522,-10140.821405,-3524.039291
22294.568587,592.164754,-9104.533087,-689.485948
22294.568920,-74.020594,-14211.954086,-76.609550
22294.569253,-3552.988522,-6587.832884,1838.629195
22294.569586,-666.185348,-6883.915261,-2298.286494
22294.569919,-2738.761985,-12287.418637,1225.752797
22294.570252,1258.350101,-9326.594869,3983.696590
22294.570585,1776.494261,-7772.162391,6741.640382
22294.570918,518.144159,-6735.874072,4213.525239
22294.571251,-1702.473667,-11029.068536,383.047749
22294.571584,3775.050304,-3552.988522,2068.457845
22294.571918,-74.020594,-9474.636058,536.266849
22294.572251,2664.741391,-6291.750507,1225.752797
22294.572584,-3034.844362,-10066.800811,-3753.867940
22294.572917,-4811.338623,-11103.089130,-7354.516781
22294.573250,-2960.823768,-6291.750507,-383.047749
22294.573583,-3034.844362,-11399.171507,-689.485948
22294.573916,3256.906145,-6513.812290,-229.828649
22294.574249,-2220.617826,-13471.748144,2987.772442
22294.574582,3034.844362,-7105.977043,2145.067394
22294.574915,296.082377,-9548.656652,3983.696590
22294.575248,5033.400406,-9548.656652,5515.887586
22294.575581,4663.297435,-11547.212695,4060.306139
22294.575914,0.000000,-7772.162391,612.876398
22294.576247,592.164754,-7179.997637,-1225.752797
22294.576580,-1998.556043,-7254.018232,-4366.744339
22294.576914,1776.494261,-9030.512492,-3294.210641
22294.577247,1036.288319,-10140.821405,2757.943793
22294.577580,0.000000,-4515.256246,-4213.525239
22294.577913,-2368.659014,-12213.398043,-76.609550
22294.578246,-2368.659014,-10436.903782,2374.896044
22294.578579,2294.638420,-10658.965565,-76.609550
22294.578912,814.226536,-11695.253884,3830.477490
22294.579245,-1776.494261,-9548.656652,2221.676944
22294.579578,-1406.391290,-9918.759623,0.000000
22294.579911,3404.947333,-4589.276840,2451.505594
22294.580244,-1184.329507,-8438.347739,766.095498
22294.580577,2368.659014,-4071.132681,-1378.971896
22294.580910,-2442.679609,-12435.459826,-2528.115143
22294.581243,2960.823768,-8586.388927,-689.485948
22294.581576,296.082377,-6291.750507,-3294.210641
22294.581910,1184.329507,-13693.809927,919.314598
22294.582243,6735.874072,-9474.636058,2068.457845
22294.582576,-4811.338623,-12435.459826,-1608.800546
22294.582909,5107.421000,-6735.874072,0.000000
22294.583242,-4367.215058,-12879.583391,1302.362347
22294.583575,6143.709319,-7105.977043,3294.210641
22294.583908,-2072.576638,-6587.832884,4903.011187
22294.584241,-370.102971,-5921.647536,-1302.362347
22294.584574,0.000000,-5403.503377,995.924147
22294.584907,-1850.514855,-13915.871710,1762.019645
22294.585240,-1258.350101,-4589.276840,-3294.210641
22294.585573,-5699.585753,-7105.977043,-2528.115143
22294.585906,-4663.297435,-10436.903782,-6435.202183
22294.586239,592.164754,-9252.574275,229.828649
22294.586573,2294.638420,-13323.706956,3677.258390
22294.586906,7105.977043,-5107.421000,3064.381992
22294.587239,814.226536,-15396.283594,3294.210641
22294.587572,5847.626942,-6735.874072,2987.772442
22294.587905,1850.514855,-10436.903782,1838.629195
22294.588238,1924.535449,-10214.842000,-919.314598
22294.588571,-3552.988522,-11325.150913,1225.752797
22294.588904,-2442.679609,-7698.141797,-2528.115143
22294.589237,-4885.359217,-6587.832884,-2451.505594
22294.589570,-5625.565159,-7105.977043,-1302.362347
22294.589903,-2442.679609,-9474.636058,-1608.800546
22294.590236,-2220.617826,-5403.503377,3064.381992
22294.590569,296.082377,-12509.480420,1838.629195
22294.590902,888.247130,-4515.256246,995.924147
22294.591235,0.000000,-13545.768739,919.314598
22294.591569,3404.947333,-7550.100608,-76.609550
22294.591902,3478.967927,-11547.212695,229.828649
22294.592235,0.000000,-10140.821405,-4596.572988
22294.592568,2368.659014,-13027.624579,-1915.238745
22294.592901,-3775.050304,-13323.706956,-1225.752797
22294.593234,5921.647536,-5847.626942,3600.648841
22294.593567,-1184.329507,-9252.574275,4290.134789
22294.593900,2516.700203,-7476.080014,2145.067394
22294.594233,1776.494261,-6883.915261,2681.334243
22294.594566,1406.391290,-11251.130318,2374.896044
22294.594899,7031.956449,-1258.350101,0.000000
22294.595232,888.247130,-15396.283594,3600.648841
22294.595565,4071.132681,-9474.636058,-76.609550
22294.595898,-1702.473667,-10436.903782,-3370.820191
22294.596231,1702.473667,-11843.295072,-1302.362347
22294.596565,-1776.494261,-9104.533087,-2987.772442
22294.596898,-2146.597232,-9474.636058,-842.705048
22294.597231,-3404.947333,-4145.153275,-2604.724693
22294.597564,-4737.318029,-9548.656652,-4443.353888
22294.597897,1776.494261,-7476.080014,3677.258390
22294.598230,4663.297435,-8882.471304,4213.525239
22294.598563,3108.864956,-7772.162391,3983.696590
22294.598896,4737.318029,-9548.656652,7354.516781
22294.599229,4663.297435,-11843.295072,2068.457845
22294.599562,4737.318029,-10732.986159,2757.943793
22294.599895,3923.091493,-9992.780217,306.438199
22294.600228,1776.494261,-10140.821405,-2987.772442
22294.600561,-2960.823768,-8512.368333,0.000000
22294.600894,74.020594,-7994.224174,-995.924147
22294.601227,-3849.070898,-9030.512492,-3753.867940
22294.601561,-2220.617826,-7476.080014,-1225.752797
22294.601894,-3627.009116,-9474.636058,-1302.362347
22294.602227,-3034.844362,-12731.542202,1149.143247
22294.602560,-2072.576638,-7179.997637,3677.258390
22294.602893,-296.082377,-9400.615463,6052.154434
22294.603226,1702.473667,-7105.977043,2068.457845
22294.603559,2442.679609,-9918.759623,3600.648841
22294.603892,1332.370696,-9178.553681,2681.334243
22294.604225,-1480.411884,-7772.162391,1455.581446
22294.604558,-1332.370696,-8734.430116,-2451.505594
22294.604891,-2812.782580,-9104.533087,-1685.410096
22294.605224,-2368.659014,-8660.409521,-2221.676944
22294.605557,0.000000,-9548.656652,2451.505594
22294.605890,1702.473667,-10066.800811,2374.896044
22294.606223,962.267725,-9474.636058,-383.047749
22294.606556,2294.638420,-11843.295072,4213.525239
22294.606890,814.226536,-13027.624579,3600.648841
22294.607223,2886.803174,-10362.883188,1762.019645
22294.607556,1924.535449,-12065.356855,5822.325785
22294.607889,296.082377,-7476.080014,612.876398
22294.608222,1110.308913,-5921.647536,-76.609550
22294.608555,-4145.153275,-5995.668130,153.219100
22294.608888,-4737.318029,-9104.533087,-1302.362347
22294.609221,-370.102971,-5329.482782,-2987.772442
22294.609554,-2368.659014,-7179.997637,-2451.505594
22294.609887,-1554.432478,-8512.368333,-5439.278036
22294.610220,3701.029710,-11325.150913,2145.067394
22294.610553,2812.782580,-12435.459826,612.876398
22294.610886,7328.038826,-9622.677246,1149.143247
22294.611219,2072.576638,-12509.480420,612.876398
22294.611552,4737.318029,-12509.480420,4826.401637
22294.611885,4663.297435,-11251.130318,3907.087040
22294.612218,4663.297435,-7179.997637,1225.752797
22294.612551,2294.638420,-10510.924376,-76.609550
22294.612884,0.000000,-3701.029710,0.000000
22294.613218,-2516.700203,-7476.080014,-2834.553343
22294.613551,-1850.514855,-8882.471304,-3140.991542
22294.613884,-1628.453072,-8438.347739,0.000000
22294.614217,-888.247130,-9548.656652,0.000000
22294.614550,4663.297435,-11843.295072,4826.401637
22294.614883,1702.473667,-6587.832884,306.438199
22294.615216,2960.823768,-10732.986159,4903.011187
22294.615549,4663.297435,-13027.624579,3600.648841
22294.615882,0.000000,-10140.821405,612.876398
22294.616215,-4811.338623,-11843.295072,-536.266849
22294.616548,-3849.070898,-5477.523971,-3524.039291
22294.616881,-2886.803174,-9770.718434,-1532.190996
22294.617214,1332.370696,-9400.615463,1225.752797
22294.617547,2368.659014,-5921.647536,1225.752797
22294.617880,-2738.761985,-10658.965565,383.047749
22294.618213,2294.638420,-9030.512492,306.438199
22294.618546,-1258.350101,-10066.800811,1685.410096
22294.618879,4589.276840,-5403.503377,2451.505594
22294.619213,4145.153275,-13545.768739,4826.401637
22294.619546,4959.379811,-6513.812290,2068.457845
22294.619879,-1184.329507,-8364.327145,1532.190996
22294.620212,-1554.432478,-10066.800811,-2528.115143
22294.620545,-4367.215058,-10066.800811,-4749.792088
22294.620878,-9622.677246,-13545.768739,-5439.278036
22294.621211,-4367.215058,-8734.430116,-3677.258390
22294.621544,-9474.636058,-8364.327145,-2451.505594
22294.621877,-370.102971,-4441.235652,0.000000
22294.622210,3849.070898,-4737.318029,7277.907231
22294.622543,1776.494261,-4219.173869,7507.735880
22294.622876,2960.823768,-4811.338623,3677.258390
22294.623209,2442.679609,-13101.645173,1991.848295
22294.623542,3552.988522,-13915.871710,1149.143247
22294.623875,3923.091493,-11917.315666,919.314598
22294.624208,2294.638420,-12657.521608,-2298.286494
22294.624541,4663.297435,-11843.295072,-4979.620737
22294.624874,-4293.194464,-10732.986159,-3677.258390
22294.625207,2294.638420,-9474.636058,-76.609550
22294.625541,-2368.659014,-7476.080014,0.000000
22294.625874,-1776.494261,-8734.430116,3064.381992
22294.626207,-2442.679609,-10066.800811,2374.896044
22294.626540,-2368.659014,-6735.874072,3983.696590
22294.626873,-1776.494261,-8438.347739,4519.963438
22294.627206,-370.102971,-7254.018232,2451.505594
22294.627539,-4737.318029,-10140.821405,1991.848295
22294.627872,-6513.812290,-8364.327145,-4060.306139
22294.628205,-5921.647536,-9548.656652,-2298.286494
22294.628538,-7105.977043,-7772.162391,-1532.190996
22294.628871,-4219.173869,-10658.965565,-1915.238745
22294.629204,-8216.285956,-7254.018232,-3907.087040
22294.629537,-3330.926739,-8882.471304,-4366.744339
22294.629870,-4885.359217,-11473.192101,689.485948
22294.630203,-148.041188,-9400.615463,6281.983084
22294.630536,-4589.276840,-10288.862594,1072.533697
22294.630869,-3627.009116,-14211.954086,6052.154434
22294.631202,-8290.306550,-10732.986159,1991.848295
22294.631536,-1850.514855,-8586.388927,4826.401637
22294.631869,-3034.844362,-6217.729913,1685.410096
22294.632202,-5107.421000,-4811.338623,383.047749
22294.632535,-8660.409521,-7105.977043,-2221.676944
22294.632868,-9918.759623,-9252.574275,-2834.553343
22294.633201,-7994.224174,-8586.388927,-1608.800546
22294.633534,-9252.574275,-5625.565159,-4213.525239
22294.633867,-6587.832884,-11251.130318,-1915.238745
22294.634200,-10510.924376,-7476.080014,-1225.752797
22294.634533,-7476.080014,-7550.100608,-689.485948
22294.634866,-6217.729913,-12583.501014,536.266849
22294.635199,-4145.153275,-11325.150913,4903.011187
22294.635532,-6291.750507,-13323.706956,1149.143247
22294.635865,-3849.070898,-7698.141797,3600.648841
22294.636198,-9178.553681,-10140.821405,3524.039291
22294.636531,-2590.720797,-5921.647536,1149.143247
22294.636864,-6587.832884,-7179.997637,0.000000
22294.637197,-5107.421000,-7624.121203,1608.800546
22294.637531,-7772.162391,-4589.276840,-2068.457845
22294.637864,-11103.089130,-11103.089130,-995.924147
22294.638197,-9548.656652,-11251.130318,-2528.115143
22294.638530,-10140.821405,-9474.636058,-3753.867940
22294.638863,-11399.171507,-14434.015869,0.000000
22294.639196,-11251.130318,-9548.656652,1532.190996
22294.639529,-8882.471304,-11103.089130,2221.676944
22294.639862,-10658.965565,-9548.656652,2757.943793
22294.640195,-7994.224174,-5107.421000,1302.362347
22294.640528,-8734.430116,-5255.462188,-1225.752797
22294.640861,-4071.132681,-7402.059420,4290.134789
22294.641194,-6735.874072,-6217.729913,1149.143247
22294.641527,-7179.997637,-7698.141797,-3753.867940
22294.641860,-7105.977043,-11177.109724,1762.019645
22294.642193,-9030.512492,-12435.459826,-1302.362347
22294.642526,-5107.421000,-8808.450710,-3524.039291
22294.642859,-6735.874072,-14211.954086,-76.609550
22294.643192,-6365.771101,-12213.398043,0.000000
22294.643525,-6439.791695,-14211.954086,4519.963438
22294.643859,-7254.018232,-10140.821405,2987.772442
22294.644192,-9178.553681,-7772.162391,1225.752797
22294.644525,-9844.739029,-7179.997637,612.876398
22294.644858,-9474.636058,-5995.668130,2374.896044
22294.645191,-13101.645173,-7698.141797,-2834.553343
22294.645524,-11547.212695,-5921.647536,-1302.362347
22294.645857,-13471.748144,-4811.338623,-4290.134789
22294.646190,-10288.862594,-10955.047942,-153.219100
22294.646523,-11029.068536,-9770.718434,-76.609550
22294.646856,-11621.233289,-11991.336260,-919.314598
22294.647189,-7772.162391,-11547.212695,-76.609550
22294.647522,-9474.636058,-11325.150913,4290.134789
22294.647855,-7179.997637,-9178.553681,1762.019645
22294.648188,-8364.327145,-9030.512492,1302.362347
22294.648521,-9474.636058,-8290.306550,1608.800546
22294.648854,-13915.871710,-6883.915261,-3677.258390
22294.649187,-12879.583391,-9770.718434,-2221.676944
22294.649520,-13915.871710,-9104.533087,-995.924147
22294.649854,-12435.459826,-8068.244768,536.266849
22294.650187,-7772.162391,-7105.977043,2374.896044
22294.650520,-8586.388927,-6217.729913,2374.896044
22294.650853,-8956.491898,-8734.430116,1685.410096
22294.651186,-8882.471304,-9770.718434,689.485948
22294.651519,-8808.450710,-12509.480420,766.095498
22294.651852,-7179.997637,-13915.871710,2987.772442
22294.652185,-10658.965565,-8364.327145,0.000000
22294.652518,-11843.295072,-11177.109724,-76.609550
22294.652851,-11325.150913,-7550.100608,-3753.867940
22294.653184,-13619.789333,-4811.338623,-2145.067394
22294.653517,-9548.656652,-8882.471304,1149.143247
22294.653850,-10362.883188,-8068.244768,1685.410096
22294.654183,-9918.759623,-7846.182985,-383.047749
22294.654516,-7179.997637,-8290.306550,2681.334243
22294.654849,-5995.668130,-8438.347739,2681.334243
22294.655182,-5625.565159,-10881.027347,6665.030833
22294.655515,-5403.503377,-11843.295072,-76.609550
22294.655848,-8068.244768,-9548.656652,-2451.505594
22294.656182,-8290.306550,-12509.480420,766.095498
22294.656515,-8956.491898,-9548.656652,-3064.381992
22294.656848,-12361.439231,-10436.903782,-2911.162892
22294.657181,-14063.912898,-8956.491898,-2834.553343
22294.657514,-11917.315666,-7624.121203,-1302.362347
22294.657847,-11843.295072,-4811.338623,0.000000
22294.658180,-4219.173869,-8882.471304,4826.401637
22294.658513,-5255.462188,-4959.379811,4903.011187
22294.658846,-5329.482782,-5995.668130,3983.696590
22294.659179,-5181.441594,-11843.295072,2987.772442
22294.659512,-8586.388927,-12805.562797,0.000000
22294.659845,-7031.956449,-13027.624579,-1455.581446
22294.660178,-7031.956449,-13249.686362,-1225.752797
22294.660511,-7994.224174,-11029.068536,-766.095498
22294.660844,-8808.450710,-8882.471304,-229.828649
22294.661177,-7179.997637,-9474.636058,-1302.362347
22294.661510,-10732.986159,-4811.338623,-1838.629195
22294.661843,-11843.295072,-8808.450710,1225.752797
22294.662177,-12213.398043,-11251.130318,-76.609550
22294.662510,-15840.407159,-10732.986159,1225.752797
22294.662843,-10140.821405,-9400.615463,3294.210641
22294.663176,-7179.997637,-7994.224174,5132.839837
22294.663509,-5477.523971,-6809.894666,4519.963438
22294.663842,-5403.503377,-7402.059420,3447.429741
22294.664175,-8956.491898,-7772.162391,-1225.752797
22294.664508,-9104.533087,-10955.047942,-2528.115143
22294.664841,-11621.233289,-12509.480420,-3600.648841
22294.665174,-14211.954086,-9844.739029,-6128.763984
22294.665507,-17172.777854,-9548.656652,-4903.011187
22294.665840,-15026.180623,-12435.459826,-3753.867940
22294.666173,-16728.654289,-10658.965565,-1302.362347
22294.666506,-13619.789333,-9548.656652,3677.258390
22294.666839,-9400.615463,-7402.059420,8044.002729
22294.667172,-6217.729913,-6735.874072,11491.432470
22294.667505,-3478.967927,-4367.215058,9576.193725
22294.667838,-2738.761985,-3997.112087,6741.640382
22294.668172,-3404.947333,-5403.503377,2451.505594
22294.668505,-4219.173869,-7402.059420,-4903.011187
22294.668838,-7476.080014,-14211.954086,-8656.879127
22294.669171,-11917.315666,-13841.851115,-13176.842566
22294.669504,-13915.871710,-12509.480420,-11031.775171
22294.669837,-9474.636058,-12805.562797,-7201.297681
22294.670170,-6069.688724,-11103.089130,-383.047749
22294.670503,-2516.700203,-8216.285956,5975.544884
22294.670836,592.164754,-7328.038826,10878.556072
22294.671169,4441.235652,-6809.894666,13100.233016
22294.671502,2368.659014,-5403.503377,12257.527968
22294.671835,2886.803174,-8290.306550,7277.907231
22294.672168,0.000000,-7179.997637,3677.258390
22294.672501,-74.020594,-10066.800811,-76.609550
22294.672834,-666.185348,-11695.253884,-4366.744339
22294.673167,-4885.359217,-12879.583391,-6818.249932
22294.673500,-7550.100608,-11621.233289,-6511.811733
22294.673833,-7994.224174,-9844.739029,-4903.011187
22294.674166,-6513.812290,-9992.780217,-383.047749
22294.674500,-2442.679609,-10584.944971,6665.030833
22294.674833,-3256.906145,-6587.832884,9193.145976
22294.675166,-2368.659014,-7179.997637,12257.527968
22294.675499,1702.473667,-8882.471304,9729.412825
22294.675832,0.000000,-7179.997637,7660.954980
22294.676165,962.267725,-10066.800811,7048.078582
22294.676498,-888.247130,-9992.780217,5209.449386
22294.676831,-2590.720797,-9474.636058,1225.752797
22294.677164,-4959.379811,-9252.574275,306.438199
22294.677497,-5403.503377,-9178.553681,-76.609550
22294.677830,-7105.977043,-9548.656652,4903.011187
22294.678163,-4811.338623,-10658.965565,8503.660028
22294.678496,-3627.009116,-11843.295072,9729.412825
22294.678829,-6513.812290,-7772.162391,12257.527968
22294.679162,-1554.432478,-9178.553681,16777.491406
22294.679495,-370.102971,-8734.430116,19382.216099
22294.679828,0.000000,-8068.244768,19612.044749
22294.680161,-962.267725,-8660.409521,18999.168350
22294.680495,-1258.350101,-7105.977043,15475.129060
22294.680828,-4145.153275,-7476.080014,13636.499864
22294.681161,-5921.647536,-8068.244768,12334.137518
22294.681494,-6217.729913,-7179.997637,13406.671215
22294.681827,-5921.647536,-6291.750507,16547.662757
22294.682160,-3034.844362,-5329.482782,16777.491406
22294.682493,0.000000,-5995.668130,22063.550342
22294.682826,3182.885551,-7698.141797,23212.693589
22294.683159,518.144159,-6883.915261,22216.769442
22294.683492,74.020594,-7476.080014,22216.769442
22294.683825,1184.329507,-9252.574275,22906.255390
22294.684158,3330.926739,-11843.295072,23059.474490
22294.684491,740.205942,-8660.409521,22063.550342
22294.684824,-74.020594,-5921.647536,17696.806004
22294.685157,-74.020594,-5181.441594,15551.738609
22294.685490,0.000000,-5699.585753,20071.702048
22294.685823,4071.132681,-5329.482782,22599.817191
22294.686156,2886.803174,-1776.494261,17543.586904
22294.686489,3256.906145,-5995.668130,19535.435199
22294.686823,1850.514855,-3034.844362,15321.909960
22294.687156,2294.638420,-10066.800811,14172.766713
22294.687489,1924.535449,-11473.192101,14249.376263
22294.687822,-1480.411884,-11325.150913,14325.985813
22294.688155,-74.020594,-7179.997637,10112.460574
22294.688488,0.000000,-10362.883188,17083.929605
22294.688821,2590.720797,-9918.759623,14938.862211
22294.689154,888.247130,-5403.503377,16547.662757
22294.689487,1110.308913,-4737.318029,14632.424012
22294.689820,-1184.329507,-4663.297435,9652.803275
22294.690153,-3478.967927,-8364.327145,7507.735880
22294.690486,-2812.782580,-10807.006753,8427.050478
22294.690819,-3552.988522,-11473.192101,8580.269578
22294.691152,-814.226536,-10140.821405,7660.954980
22294.691485,5551.544565,-12731.542202,14632.424012
22294.691818,4367.215058,-9474.636058,13253.452115
22294.692151,0.000000,-3627.009116,11031.775171
22294.692484,-2368.659014,-5995.668130,6128.763984
22294.692818,-1406.391290,-9770.718434,6741.640382
22294.693151,-370.102971,-9918.759623,8503.660028
22294.693484,-740.205942,-9474.636058,7201.297681
22294.693817,-1258.350101,-8882.471304,6052.154434
22294.694150,-5921.647536,-8956.491898,5286.058936
22294.694483,-3182.885551,-8808.450710,1762.019645
22294.694816,-814.226536,-7476.080014,4290.134789
22294.695149,3552.988522,-9696.697840,7814.174080
22294.695482,3108.864956,-9844.739029,5209.449386
22294.695815,3108.864956,-11695.253884,7277.907231
22294.696148,2220.617826,-7846.182985,6665.030833
22294.696481,1332.370696,-2812.782580,4366.744339
22294.696814,3478.967927,-5921.647536,1149.143247
22294.697147,0.000000,-10881.027347,1149.143247
22294.697480,-1184.329507,-13175.665768,1455.581446
22294.697813,222.061783,-12361.439231,2911.162892
22294.698146,-1628.453072,-7179.997637,4290.134789
22294.698479,-74.020594,-8290.306550,4826.401637
22294.698813,888.247130,-6735.874072,3677.258390
22294.699146,3404.947333,-9474.636058,4826.401637
22294.699479,2294.638420,-8882.471304,0.000000
22294.699812,0.000000,-6587.832884,0.000000
22294.700145,2294.638420,-10658.965565,1991.848295
22294.700478,740.205942,-7920.203579,3677.258390
22294.700811,1406.391290,-9474.636058,2528.115143
22294.701144,-518.144159,-11399.171507,229.828649
22294.701477,-814.226536,-7772.162391,-3524.039291
22294.701810,592.164754,-16580.613101,4213.525239
22294.702143,-74.020594,-13619.789333,4826.401637
22294.702476,-2368.659014,-12509.480420,8580.269578
22294.702809,-592.164754,-9474.636058,10955.165621
22294.703142,-1406.391290,-3775.050304,3677.258390
22294.703475,1110.308913,-9474.636058,5132.839837
22294.703808,2886.803174,-10066.800811,8503.660028
22294.704141,1554.432478,-9474.636058,9729.412825
22294.704474,-1480.411884,-8512.368333,10418.898773
22294.704807,1110.308913,-12435.459826,11568.042020
22294.705140,-2590.720797,-8512.368333,7967.393179
22294.705473,-4145.153275,-3627.009116,5515.887586
22294.705806,-666.185348,-8882.471304,4826.401637
22294.706139,-1776.494261,-11029.068536,9806.022374
22294.706472,-518.144159,-14508.036463,15398.519510
22294.706805,-74.020594,-11103.089130,19688.654299
22294.707138,0.000000,-4811.338623,18692.730151
22294.707471,2886.803174,-5329.482782,17083.929605
22294.707804,3256.906145,-4811.338623,15934.786358
22294.708137,3552.988522,-7772.162391,24438.446386
22294.708470,4071.132681,-3552.988522,21374.064394
22294.708803,2886.803174,2664.741391,12870.404366
22294.709136,-1184.329507,-4071.132681,16164.615008
