#time,accel_x,accel_y,accel_z
22028.848126,7179.997637,-8808.450710,3294.210641
22028.848460,7994.224174,-7920.203579,3983.696590
22028.848794,8882.471304,-8808.450710,4290.134789
22028.849128,8808.450710,-7698.141797,76.609550
22028.849463,9400.615463,-11843.295072,2068.457845
22028.849797,5551.544565,-8808.450710,-4290.134789
22028.850131,3849.070898,-10140.821405,-3677.258390
22028.850465,5699.585753,-9622.677246,-3370.820191
22028.850799,5921.647536,-10140.821405,-1608.800546
22028.851133,8068.244768,-8438.347739,-229.828649
22028.851467,10288.862594,-8956.491898,3294.210641
22028.851802,12065.356855,-8290.306550,4826.401637
22028.852136,10066.800811,-6587.832884,4903.011187
22028.852470,13545.768739,-9178.553681,3600.648841
22028.852804,11769.274478,-8142.265362,0.000000
22028.853138,8586.388927,-11103.089130,2068.457845
22028.853472,6439.791695,-13027.624579,-1915.238745
22028.853806,962.267725,-13027.624579,-4673.182538
22028.854140,-1036.288319,-12213.398043,-4596.572988
22028.854475,1924.535449,-9326.594869,-1532.190996
22028.854809,3108.864956,-7254.018232,1072.533697
22028.855143,6809.894666,-7031.956449,6665.030833
22028.855477,10288.862594,-5329.482782,6205.373534
22028.855811,11843.295072,-4219.173869,6128.763984
22028.856145,14211.954086,-7698.141797,7277.907231
22028.856479,14137.933492,-9474.636058,2068.457845
22028.856814,11251.130318,-9474.636058,-1838.629195
22028.857148,8364.327145,-10955.047942,-4673.182538
22028.857482,7624.121203,-12657.521608,-6665.030833
22028.857816,4737.318029,-13619.789333,-6511.811733
22028.858150,4219.173869,-14211.954086,-3753.867940
22028.858484,5403.503377,-10510.924376,-2451.505594
22028.858818,6513.812290,-10140.821405,919.314598
22028.859152,9400.615463,-5995.668130,3677.258390
22028.859487,13249.686362,-4441.235652,7584.345430
22028.859821,14211.954086,-3627.009116,10112.460574
22028.860155,14804.118840,-6587.832884,9729.412825
22028.860489,11769.274478,-7476.080014,1838.629195
22028.860823,8438.347739,-10066.800811,536.266849
22028.861157,4663.297435,-11251.130318,-4979.620737
22028.861491,2072.576638,-11029.068536,-6818.249932
22028.861826,1406.391290,-11103.089130,-6818.249932
22028.862160,4145.153275,-9474.636058,-3447.429741
22028.862494,7698.141797,-8512.368333,306.438199
22028.862828,9474.636058,-8364.327145,4136.915689
22028.863162,9400.615463,-7698.141797,689.485948
22028.863496,10584.944971,-7179.997637,0.000000
22028.863830,11843.295072,-7179.997637,3830.477490
22028.864164,12805.562797,-6069.688724,1225.752797
22028.864499,12953.603985,-10658.965565,2221.676944
22028.864833,11029.068536,-10658.965565,2834.553343
22028.865167,8512.368333,-9992.780217,766.095498
22028.865501,11177.109724,-10658.965565,1302.362347
22028.865835,10658.965565,-9252.574275,4213.525239
22028.866169,11473.192101,-6069.688724,-1685.410096
22028.866503,11843.295072,-5403.503377,0.000000
22028.866838,12657.521608,-9178.553681,-1302.362347
22028.867172,9474.636058,-10732.986159,-919.314598
22028.867506,8660.409521,-12731.542202,-2451.505594
22028.867840,7920.203579,-10510.924376,-2757.943793
22028.868174,9474.636058,-10140.821405,-1072.533697
22028.868508,13249.686362,-8586.388927,3294.210641
22028.868842,16506.592507,-7698.141797,6665.030833
22028.869176,15914.427753,-4441.235652,4596.572988
22028.869511,13323.706956,-7179.997637,4903.011187
22028.869845,10658.965565,-10436.903782,2374.896044
22028.870179,10584.944971,-11251.130318,-76.609550
22028.870513,8956.491898,-9104.533087,-3217.601092
22028.870847,9104.533087,-9474.636058,-3447.429741
22028.871181,9548.656652,-8660.409521,-3447.429741
22028.871515,11843.295072,-8660.409521,0.000000
22028.871850,11177.109724,-9696.697840,919.314598
22028.872184,7698.141797,-8364.327145,-2451.505594
22028.872518,8290.306550,-8956.491898,306.438199
22028.872852,13397.727550,-10066.800811,4213.525239
22028.873186,15914.427753,-6513.812290,6052.154434
22028.873520,13175.665768,-7328.038826,4979.620737
22028.873854,11103.089130,-9844.739029,2681.334243
22028.874188,8290.306550,-10584.944971,-919.314598
22028.874523,7105.977043,-8512.368333,-1225.752797
22028.874857,8216.285956,-7772.162391,-3217.601092
22028.875191,7846.182985,-7994.224174,-4213.525239
22028.875525,7476.080014,-10214.842000,-2221.676944
22028.875859,8364.327145,-8216.285956,-1149.143247
22028.876193,7698.141797,-8364.327145,-229.828649
22028.876527,11769.274478,-13027.624579,4826.401637
22028.876862,11547.212695,-6587.832884,3064.381992
22028.877196,10288.862594,-9474.636058,2451.505594
22028.877530,11177.109724,-9474.636058,2374.896044
22028.877864,8142.265362,-9548.656652,2145.067394
22028.878198,9474.636058,-6439.791695,-459.657299
22028.878532,10955.047942,-9400.615463,1225.752797
22028.878866,3404.947333,-9622.677246,-3064.381992
22028.879201,1776.494261,-12213.398043,-6128.763984
22028.879535,5847.626942,-10807.006753,-3677.258390
22028.879869,9400.615463,-5329.482782,-1532.190996
22028.880203,15396.283594,-5255.462188,6588.421283
22028.880537,14137.933492,-7105.977043,4826.401637
22028.880871,13397.727550,-12509.480420,6052.154434
22028.881205,10066.800811,-8808.450710,2298.286494
22028.881539,10510.924376,-10214.842000,383.047749
22028.881872,5329.482782,-9548.656652,-1378.971896
22028.882206,7031.956449,-13027.624579,-2528.115143
22028.882540,4663.297435,-10955.047942,-3064.381992
22028.882874,3849.070898,-9696.697840,0.000000
22028.883208,4663.297435,-6291.750507,-1532.190996
22028.883541,5033.400406,-7698.141797,2451.505594
22028.883875,8216.285956,-6217.729913,459.657299
22028.884209,5921.647536,-6587.832884,4290.134789
22028.884543,6365.771101,-7698.141797,2374.896044
22028.884876,6661.853478,-5773.606348,1455.581446
22028.885210,6069.688724,-5403.503377,-1532.190996
22028.885544,2368.659014,-10140.821405,0.000000
22028.885878,3478.967927,-11843.295072,-4060.306139
22028.886211,-1554.432478,-14211.954086,-5592.497135
22028.886545,0.000000,-9548.656652,-3064.381992
22028.886879,3182.885551,-11695.253884,-2068.457845
22028.887213,4737.318029,-6291.750507,2374.896044
22028.887546,7476.080014,-8068.244768,4136.915689
22028.887880,7920.203579,-9252.574275,5439.278036
22028.888214,8290.306550,-6291.750507,4443.353888
22028.888548,3923.091493,-9844.739029,2451.505594
22028.888881,8586.388927,-5921.647536,1685.410096
22028.889215,3478.967927,-9474.636058,-842.705048
22028.889549,7031.956449,-9474.636058,-76.609550
22028.889883,1924.535449,-11695.253884,-4979.620737
22028.890217,0.000000,-11917.315666,-4903.011187
22028.890550,0.000000,-11917.315666,153.219100
22028.890884,4071.132681,-10066.800811,-383.047749
22028.891218,1184.329507,-12509.480420,1225.752797
22028.891552,3775.050304,-6809.894666,2757.943793
22028.891885,4367.215058,-7254.018232,3677.258390
22028.892219,5181.441594,-9770.718434,6971.469032
22028.892553,7031.956449,-4737.318029,5132.839837
22028.892887,2368.659014,-11251.130318,4826.401637
22028.893220,592.164754,-4811.338623,612.876398
22028.893554,-370.102971,-9474.636058,-1302.362347
22028.893888,-74.020594,-8290.306550,-7277.907231
22028.894222,1110.308913,-9474.636058,-2528.115143
22028.894555,-962.267725,-9548.656652,-3217.601092
22028.894889,1776.494261,-11769.274478,-1991.848295
22028.895223,-2220.617826,-12953.603985,0.000000
22028.895557,296.082377,-8660.409521,0.000000
22028.895891,4663.297435,-9474.636058,2374.896044
22028.896224,4737.318029,-8660.409521,5515.887586
22028.896558,3478.967927,-12731.542202,4826.401637
22028.896892,3256.906145,-4811.338623,3677.258390
22028.897226,2664.741391,-4811.338623,1225.752797
22028.897559,3923.091493,-8068.244768,2298.286494
22028.897893,3701.029710,-6365.771101,-383.047749
22028.898227,-444.123565,-10436.903782,-2451.505594
22028.898561,-1554.432478,-10658.965565,-2834.553343
22028.898894,-2442.679609,-8068.244768,-8580.269578
22028.899228,-74.020594,-15100.201217,-1302.362347
22028.899562,4071.132681,-12435.459826,1149.143247
22028.899896,0.000000,-9844.739029,1532.190996
22028.900229,3478.967927,-12879.583391,4903.011187
22028.900563,2960.823768,-8586.388927,3907.087040
22028.900897,-1702.473667,-10436.903782,3753.867940
22028.901231,4219.173869,-3108.864956,3907.087040
22028.901565,370.102971,-7105.977043,2374.896044
22028.901898,0.000000,-4811.338623,3370.820191
22028.902232,1110.308913,-9474.636058,-76.609550
22028.902566,-5921.647536,-7402.059420,-4366.744339
22028.902900,-6809.894666,-8364.327145,-4903.011187
22028.903233,-5625.565159,-11547.212695,-4979.620737
22028.903567,-3182.885551,-15248.242405,-4060.306139
22028.903901,-1258.350101,-8512.368333,229.828649
22028.904235,0.000000,-10955.047942,4903.011187
22028.904568,1554.432478,-9474.636058,4519.963438
22028.904902,3552.988522,-6587.832884,8120.612279
22028.905236,1036.288319,-7624.121203,4903.011187
22028.905570,3256.906145,-5995.668130,2911.162892
22028.905903,0.000000,-5625.565159,-766.095498
22028.906237,-1258.350101,-11251.130318,-2528.115143
22028.906571,-2146.597232,-6735.874072,-4443.353888
22028.906905,-3034.844362,-15100.201217,-2528.115143
22028.907238,-2442.679609,-9622.677246,-5362.668486
22028.907572,-2368.659014,-11769.274478,-306.438199
22028.907906,1036.288319,-10658.965565,1762.019645
22028.908240,3256.906145,-7179.997637,3677.258390
22028.908574,1998.556043,-9992.780217,4673.182538
22028.908907,6069.688724,-7402.059420,5822.325785
22028.909241,2294.638420,-8660.409521,4213.525239
22028.909575,740.205942,-7179.997637,1838.629195
22028.909909,-74.020594,-9474.636058,-1302.362347
22028.910242,-370.102971,-7846.182985,-7048.078582
22028.910576,-3552.988522,-11325.150913,-919.314598
22028.910910,1702.473667,-4737.318029,-4213.525239
22028.911244,-518.144159,-11251.130318,-1608.800546
22028.911577,-592.164754,-9770.718434,229.828649
22028.911911,740.205942,-9104.533087,383.047749
22028.912245,1480.411884,-7920.203579,3064.381992
22028.912579,2368.659014,-9548.656652,5209.449386
22028.912912,4663.297435,-8364.327145,3064.381992
22028.913246,2664.741391,-7179.997637,0.000000
22028.913580,1850.514855,-13027.624579,-76.609550
22028.913914,-1480.411884,-5995.668130,-3677.258390
22028.914248,-2442.679609,-11399.171507,-2681.334243
22028.914581,-740.205942,-7328.038826,-2604.724693
22028.914915,888.247130,-8734.430116,-1762.019645
22028.915249,-666.185348,-10510.924376,-76.609550
22028.915583,1850.514855,-8734.430116,2374.896044
22028.915916,4071.132681,-10362.883188,4826.401637
22028.916250,0.000000,-7179.997637,3370.820191
22028.916584,4663.297435,-8882.471304,2374.896044
22028.916918,1776.494261,-11621.233289,3907.087040
22028.917251,2886.803174,-7179.997637,-1149.143247
22028.917585,1258.350101,-11399.171507,1532.190996
22028.917919,-370.102971,-9622.677246,-2221.676944
22028.918253,-1184.329507,-10214.842000,-4826.401637
22028.918586,-4811.338623,-13619.789333,-2528.115143
22028.918920,0.000000,-5403.503377,-2451.505594
22028.919254,-1776.494261,-7328.038826,2987.772442
22028.919588,1702.473667,-7031.956449,2604.724693
22028.919922,-148.041188,-5995.668130,3140.991542
22028.920255,370.102971,-9326.594869,3370.820191
22028.920589,592.164754,-8068.244768,1685.410096
22028.920923,-2886.803174,-12435.459826,1685.410096
22028.921257,-2812.782580,-5403.503377,-2298.286494
22028.921590,-1998.556043,-9474.636058,-1302.362347
22028.921924,-2368.659014,-8438.347739,-2834.553343
22028.922258,-666.185348,-7476.080014,-1991.848295
22028.922592,-3701.029710,-12805.562797,-612.876398
22028.922925,-962.267725,-7698.141797,-2528.115143
22028.923259,-1406.391290,-14211.954086,2987.772442
22028.923593,-1850.514855,-6291.750507,0.000000
22028.923927,2368.659014,-6143.709319,2757.943793
22028.924260,592.164754,-8660.409521,5056.230287
22028.924594,3552.988522,-5107.421000,2757.943793
22028.924928,1628.453072,-12287.418637,3600.648841
22028.925262,2072.576638,-9030.512492,1762.019645
22028.925595,-444.123565,-8216.285956,-1608.800546
22028.925929,-1776.494261,-9548.656652,-2451.505594
22028.926263,2294.638420,-7105.977043,-3753.867940
22028.926597,-1850.514855,-10658.965565,-4749.792088
22028.926931,-1776.494261,-9548.656652,-1762.019645
22028.927264,-1258.350101,-11547.212695,-76.609550
22028.927598,1184.329507,-10436.903782,1072.533697
22028.927932,2812.782580,-6439.791695,1072.533697
22028.928266,4811.338623,-10510.924376,2681.334243
22028.928599,3108.864956,-9252.574275,4673.182538
22028.928933,5033.400406,-9400.615463,3600.648841
22028.929267,1998.556043,-9548.656652,1532.190996
22028.929601,1776.494261,-5995.668130,0.000000
22028.929934,592.164754,-11621.233289,2374.896044
22028.930268,-1036.288319,-4811.338623,-3064.381992
22028.930602,-370.102971,-10658.965565,-2834.553343
22028.930936,-888.247130,-9400.615463,-76.609550
22028.931269,-1184.329507,-9030.512492,-3524.039291
22028.931603,-1628.453072,-12065.356855,0.000000
22028.931937,-2442.679609,-9474.636058,-229.828649
22028.932271,518.144159,-5995.668130,1225.752797
22028.932605,3256.906145,-7105.977043,4826.401637
22028.932938,5847.626942,-9474.636058,4826.401637
22028.933272,1184.329507,-4811.338623,1225.752797
22028.933606,2294.638420,-10066.800811,2987.772442
22028.933940,-592.164754,-10288.862594,306.438199
22028.934273,-3701.029710,-9252.574275,-1225.752797
22028.934607,-1702.473667,-8438.347739,-4366.744339
22028.934941,-3923.091493,-11547.212695,-4979.620737
22028.935275,-1184.329507,-10732.986159,-3983.696590
22028.935608,-740.205942,-11769.274478,842.705048
22028.935942,-444.123565,-9622.677246,4213.525239
22028.936276,0.000000,-8364.327145,4290.134789
22028.936610,444.123565,-9326.594869,6052.154434
22028.936943,2294.638420,-4219.173869,1225.752797
22028.937277,1184.329507,-8956.491898,8810.098227
22028.937611,1998.556043,-5625.565159,0.000000
22028.937945,0.000000,-9548.656652,0.000000
22028.938279,-5995.668130,-11399.171507,-3447.429741
22028.938612,-5551.544565,-9770.718434,-7507.735880
22028.938946,-5329.482782,-11251.130318,-4979.620737
22028.939280,-74.020594,-11547.212695,-76.609550
22028.939614,518.144159,-11251.130318,3600.648841
22028.939947,74.020594,-5403.503377,612.876398
22028.940281,3552.988522,-7772.162391,2451.505594
22028.940615,2368.659014,-9474.636058,6971.469032
22028.940949,5477.523971,-8734.430116,6128.763984
22028.941282,1924.535449,-8734.430116,2145.067394
22028.941616,1776.494261,-7402.059420,689.485948
22028.941950,-740.205942,-10140.821405,-766.095498
22028.942284,740.205942,-8290.306550,-3217.601092
22028.942617,-148.041188,-12435.459826,-76.609550
22028.942951,-8290.306550,-10140.821405,-3064.381992
22028.943285,-1850.514855,-10362.883188,-2834.553343
22028.943619,-4219.173869,-7105.977043,-4366.744339
22028.943952,1702.473667,-9918.759623,2681.334243
22028.944286,4737.318029,-4811.338623,4443.353888
22028.944620,4663.297435,-9770.718434,6052.154434
22028.944954,3108.864956,-7698.141797,3830.477490
22028.945288,2368.659014,-9696.697840,3217.601092
22028.945621,2294.638420,-8882.471304,-1608.800546
22028.945955,2516.700203,-10658.965565,-76.609550
22028.946289,-74.020594,-12435.459826,-2834.553343
22028.946623,-2220.617826,-8364.327145,-3677.258390
22028.946956,-2072.576638,-9548.656652,-3064.381992
22028.947290,-1480.411884,-9770.718434,766.095498
22028.947624,-1480.411884,-8956.491898,919.314598
22028.947958,2368.659014,-6143.709319,1762.019645
22028.948291,3478.967927,-9474.636058,3600.648841
22028.948625,0.000000,-7179.997637,3064.381992
22028.948959,7031.956449,-9474.636058,2374.896044
22028.949293,1554.432478,-10140.821405,2068.457845
22028.949626,1184.329507,-9548.656652,1915.238745
22028.949960,740.205942,-9548.656652,-842.705048
22028.950294,-2220.617826,-11325.150913,-612.876398
22028.950628,-814.226536,-7402.059420,-3064.381992
22028.950962,-4145.153275,-10732.986159,-766.095498
22028.951295,-666.185348,-10658.965565,-76.609550
22028.951629,-6809.894666,-10732.986159,0.000000
22028.951963,-3478.967927,-8216.285956,383.047749
22028.952297,296.082377,-6587.832884,2298.286494
22028.952630,1184.329507,-7105.977043,5286.058936
22028.952964,5847.626942,-6957.935855,6665.030833
22028.953298,-1332.370696,-7772.162391,1532.190996
22028.953632,3552.988522,-9622.677246,4826.401637
22028.953965,-1998.556043,-10436.903782,-2451.505594
22028.954299,-1998.556043,-11917.315666,-2528.115143
22028.954633,-1184.329507,-10732.986159,-1302.362347
22028.954967,-4589.276840,-12065.356855,-3677.258390
22028.955300,962.267725,-7105.977043,-383.047749
22028.955634,-370.102971,-10955.047942,-1149.143247
22028.955968,2294.638420,-12435.459826,3447.429741
22028.956302,444.123565,-6291.750507,3677.258390
22028.956636,2294.638420,-9474.636058,4519.963438
22028.956969,1998.556043,-6439.791695,0.000000
22028.957303,1480.411884,-5551.544565,4060.306139
22028.957637,3478.967927,-8290.306550,1762.019645
22028.957971,2590.720797,-7105.977043,536.266849
22028.958304,-1258.350101,-11769.274478,-2068.457845
22028.958638,-2960.823768,-10436.903782,-3370.820191
22028.958972,-1184.329507,-9548.656652,-3983.696590
22028.959306,-5921.647536,-9548.656652,-3370.820191
22028.959639,1110.308913,-11251.130318,-2528.115143
22028.959973,222.061783,-6809.894666,-1608.800546
22028.960307,1480.411884,-11325.150913,4366.744339
22028.960641,3478.967927,-7179.997637,3677.258390
22028.960974,4367.215058,-7624.121203,5975.544884
22028.961308,5773.606348,-4811.338623,4903.011187
22028.961642,4663.297435,-6957.935855,1455.581446
22028.961976,2960.823768,-9474.636058,-306.438199
22028.962310,0.000000,-11177.109724,-1302.362347
22028.962643,-74.020594,-11843.295072,-4366.744339
22028.962977,-4737.318029,-13693.809927,-3064.381992
22028.963311,0.000000,-9548.656652,-2451.505594
22028.963645,-2960.823768,-11621.233289,1149.143247
22028.963978,814.226536,-7254.018232,-536.266849
22028.964312,3034.844362,-5699.585753,3447.429741
22028.964646,2516.700203,-10362.883188,7124.688131
22028.964980,4663.297435,-8142.265362,6052.154434
22028.965313,1702.473667,-7698.141797,4213.525239
22028.965647,592.164754,-4811.338623,0.000000
22028.965981,1776.494261,-9178.553681,2374.896044
22028.966315,-666.185348,-8808.450710,-3983.696590
22028.966648,-4737.318029,-7179.997637,-3983.696590
22028.966982,-7550.100608,-13619.789333,-6511.811733
22028.967316,-2516.700203,-10658.965565,-4903.011187
22028.967650,-5181.441594,-13027.624579,-2145.067394
22028.967983,2590.720797,-7698.141797,1149.143247
22028.968317,814.226536,-11843.295072,5745.716235
22028.968651,3256.906145,-2368.659014,6052.154434
22028.968985,3627.009116,-7920.203579,3217.601092
22028.969319,5403.503377,-9622.677246,5209.449386
22028.969652,5847.626942,-8290.306550,5439.278036
22028.969986,-2368.659014,-10140.821405,-76.609550
22028.970320,-74.020594,-10658.965565,-2834.553343
22028.970654,-6217.729913,-9252.574275,-7354.516781
22028.970987,-2960.823768,-11917.315666,-4290.134789
22028.971321,-1258.350101,-6587.832884,-3677.258390
22028.971655,-4219.173869,-15988.448347,-1455.581446
22028.971989,-2886.803174,-7105.977043,229.828649
22028.972322,1998.556043,-7920.203579,3294.210641
22028.972656,1184.329507,-5403.503377,4290.134789
22028.972990,4663.297435,-7105.977043,4213.525239
22028.973324,3182.885551,-6661.853478,1532.190996
22028.973657,-1184.329507,-9104.533087,2374.896044
22028.973991,2886.803174,-11695.253884,1762.019645
22028.974325,-2368.659014,-8068.244768,-919.314598
22028.974659,-1554.432478,-9474.636058,-3600.648841
22028.974993,-1998.556043,-9474.636058,-4443.353888
22028.975326,1036.288319,-10214.842000,-1991.848295
22028.975660,0.000000,-9400.615463,0.000000
22028.975994,3478.967927,-11251.130318,229.828649
22028.976328,0.000000,-8364.327145,-536.266849
22028.976661,2368.659014,-9548.656652,6052.154434
22028.976995,4071.132681,-7105.977043,1762.019645
22028.977329,6217.729913,-7402.059420,4826.401637
22028.977663,3701.029710,-6661.853478,1685.410096
22028.977996,2368.659014,-10436.903782,536.266849
22028.978330,74.020594,-11621.233289,-1838.629195
22028.978663,-1554.432478,-11843.295072,-1302.362347
22028.978996,-666.185348,-9104.533087,-4903.011187
22028.979330,1480.411884,-7846.182985,2374.896044
22028.979663,-2442.679609,-11843.295072,-3753.867940
22028.979997,-1850.514855,-5847.626942,-3524.039291
22028.980330,1110.308913,-11251.130318,1149.143247
22028.980664,-296.082377,-9622.677246,919.314598
22028.980997,3034.844362,-5773.606348,2145.067394
22028.981331,1998.556043,-10066.800811,3600.648841
22028.981664,3182.885551,-7698.141797,2987.772442
22028.981998,0.000000,-7624.121203,4673.182538
22028.982331,2294.638420,-8660.409521,-2298.286494
22028.982665,-74.020594,-12657.521608,-842.705048
22028.982998,-2368.659014,-9548.656652,-1838.629195
22028.983331,-1628.453072,-12139.377449,-2528.115143
22028.983665,-1850.514855,-9326.594869,-3830.477490
22028.983998,592.164754,-8364.327145,-3677.258390
22028.984332,740.205942,-12287.418637,6052.154434
22028.984665,3552.988522,-5995.668130,4903.011187
22028.984999,-1776.494261,-11473.192101,4673.182538
22028.985332,-444.123565,-5699.585753,2604.724693
22028.985666,-1110.308913,-6661.853478,459.657299
22028.985999,518.144159,-8290.306550,2374.896044
22028.986333,-2220.617826,-4811.338623,-1838.629195
22028.986666,-3627.009116,-9548.656652,-5515.887586
22028.987000,-3404.947333,-10362.883188,-3140.991542
22028.987333,-3627.009116,-15396.283594,-1302.362347
22028.987666,-3627.009116,-8882.471304,-1302.362347
22028.988000,-74.020594,-6217.729913,-995.924147
22028.988333,1850.514855,-10807.006753,1532.190996
22028.988667,6365.771101,-4293.194464,3294.210641
22028.989000,2442.679609,-12805.562797,4903.011187
22028.989334,6957.935855,-8068.244768,5439.278036
22028.989667,592.164754,-11325.150913,1225.752797
22028.990001,2664.741391,-8512.368333,3447.429741
22028.990334,2886.803174,-9030.512492,-1685.410096
22028.990668,-3182.885551,-9548.656652,-2451.505594
22028.991001,-74.020594,-6513.812290,-4366.744339
22028.991335,-2442.679609,-12065.356855,-2604.724693
22028.991668,-1036.288319,-9770.718434,-1378.971896
22028.992001,-3552.988522,-9770.718434,-919.314598
22028.992335,1702.473667,-10658.965565,2987.772442
22028.992668,2368.659014,-5107.421000,5745.716235
22028.993002,2368.659014,-8068.244768,4826.401637
22028.993335,4663.297435,-5773.606348,2757.943793
22028.993669,0.000000,-9548.656652,3064.381992
22028.994002,1702.473667,-7105.977043,-689.485948
22028.994336,-1628.453072,-11029.068536,-3064.381992
22028.994669,-1924.535449,-11103.089130,-4979.620737
22028.995003,-1776.494261,-10732.986159,-3524.039291
22028.995336,0.000000,-7772.162391,-3677.258390
22028.995670,1480.411884,-11843.295072,-76.609550
22028.996003,-666.185348,-9918.759623,0.000000
22028.996336,888.247130,-5995.668130,2451.505594
22028.996670,0.000000,-11325.150913,6588.421283
22028.997003,2442.679609,-3627.009116,3677.258390
22028.997337,2368.659014,-5699.585753,2987.772442
22028.997670,4515.256246,-9474.636058,3217.601092
22028.998004,3627.009116,-7994.224174,2451.505594
22028.998337,-2146.597232,-11917.315666,-2757.943793
22028.998671,-3256.906145,-9548.656652,-3830.477490
22028.999004,-7772.162391,-12287.418637,-8656.879127
22028.999338,-2368.659014,-10732.986159,-3677.258390
22028.999671,-3034.844362,-8290.306550,-2528.115143
22029.000005,-2664.741391,-9548.656652,-2145.067394
22029.000338,2368.659014,-7402.059420,7967.393179
22029.000671,3478.967927,-10658.965565,4826.401637
22029.001005,5625.565159,-3701.029710,7354.516781
22029.001338,4663.297435,-7698.141797,7890.783629
22029.001672,1406.391290,-10955.047942,2145.067394
22029.002005,444.123565,-5329.482782,2604.724693
22029.002339,-1258.350101,-7179.997637,-4213.525239
22029.002672,0.000000,-7179.997637,-4826.401637
22029.003006,-5921.647536,-11325.150913,-4903.011187
22029.003339,-296.082377,-12213.398043,-3753.867940
22029.003673,-4219.173869,-11843.295072,-3447.429741
22029.004006,-2368.659014,-9548.656652,0.000000
22029.004340,2294.638420,-5995.668130,2374.896044
22029.004673,2072.576638,-9178.553681,5592.497135
22029.005007,5625.565159,-4811.338623,4903.011187
22029.005340,962.267725,-9474.636058,2145.067394
22029.005673,6291.750507,-8290.306550,5439.278036
22029.006007,0.000000,-6883.915261,2987.772442
22029.006340,0.000000,-7179.997637,0.000000
22029.006674,814.226536,-10658.965565,-689.485948
22029.007007,-5995.668130,-11251.130318,-5132.839837
22029.007341,1406.391290,-7994.224174,-1838.629195
22029.007674,-4811.338623,-13175.665768,-3524.039291
22029.008008,370.102971,-8734.430116,-2221.676944
22029.008341,-962.267725,-10140.821405,2451.505594
22029.008675,1332.370696,-5403.503377,1225.752797
22029.009008,3478.967927,-8734.430116,4213.525239
22029.009342,0.000000,-10140.821405,4903.011187
22029.009675,8216.285956,-8882.471304,4826.401637
22029.010008,0.000000,-6735.874072,2757.943793
22029.010342,2960.823768,-6587.832884,1225.752797
22029.010675,-2368.659014,-10732.986159,-2221.676944
22029.011009,-3849.070898,-10436.903782,-4290.134789
22029.011342,-2442.679609,-8882.471304,-6128.763984
22029.011676,-4885.359217,-14952.160028,-995.924147
22029.012009,-74.020594,-2442.679609,-6128.763984
22029.012343,-1184.329507,-13989.892304,4826.401637
22029.012676,5847.626942,-8882.471304,5439.278036
22029.013010,888.247130,-5995.668130,5515.887586
22029.013343,2368.659014,-7179.997637,4290.134789
22029.013677,2220.617826,-8364.327145,3524.039291
22029.014010,-148.041188,-7550.100608,229.828649
22029.014343,3404.947333,-8364.327145,-995.924147
22029.014677,-370.102971,-13619.789333,-76.609550
22029.015010,-1628.453072,-9548.656652,-2451.505594
22029.015344,-3404.947333,-8660.409521,-1608.800546
22029.015677,-2294.638420,-10510.924376,-2987.772442
22029.016011,-3478.967927,-9548.656652,-1838.629195
22029.016344,-296.082377,-9474.636058,4060.306139
22029.016678,2442.679609,-2146.597232,1225.752797
22029.017011,0.000000,-9548.656652,5822.325785
22029.017345,5255.462188,-8882.471304,3294.210641
22029.017678,1480.411884,-9548.656652,3370.820191
22029.018012,2664.741391,-9104.533087,3600.648841
22029.018345,-296.082377,-10955.047942,-1225.752797
22029.018678,-666.185348,-10066.800811,-1915.238745
22029.019012,-222.061783,-9474.636058,-2298.286494
22029.019345,-1258.350101,-13027.624579,-1302.362347
22029.019679,222.061783,-6291.750507,-1838.629195
22029.020012,-2146.597232,-12731.542202,-76.609550
22029.020346,1110.308913,-10658.965565,3294.210641
22029.020679,1406.391290,-4515.256246,2451.505594
22029.021013,2294.638420,-9474.636058,4826.401637
22029.021346,3256.906145,-3923.091493,3524.039291
22029.021680,2960.823768,-10140.821405,3370.820191
22029.022013,3182.885551,-7994.224174,2374.896044
22029.022347,0.000000,-9548.656652,-2451.505594
22029.022680,-5921.647536,-8364.327145,-4903.011187
22029.023013,-3034.844362,-13619.789333,-6205.373534
22029.023347,-4071.132681,-8882.471304,-4979.620737
22029.023680,0.000000,-8956.491898,0.000000
22029.024014,-222.061783,-8882.471304,612.876398
22029.024347,-370.102971,-7179.997637,1991.848295
22029.024681,1776.494261,-8512.368333,6281.983084
22029.025014,2442.679609,-5773.606348,5439.278036
22029.025348,3849.070898,-5033.400406,3677.258390
22029.025681,3701.029710,-11843.295072,4213.525239
22029.026015,4071.132681,-7698.141797,1302.362347
22029.026348,0.000000,-9252.574275,-995.924147
22029.026682,-74.020594,-13915.871710,-2528.115143
22029.027015,-74.020594,-8660.409521,-7354.516781
22029.027348,-5847.626942,-17172.777854,-3600.648841
22029.027682,1702.473667,-6809.894666,-1838.629195
22029.028015,-3997.112087,-12361.439231,153.219100
22029.028349,1480.411884,-6439.791695,3677.258390
22029.028682,1258.350101,-6069.688724,4826.401637
22029.029016,3997.112087,-7550.100608,5975.544884
22029.029349,2516.700203,-6587.832884,3600.648841
22029.029683,1702.473667,-7698.141797,2987.772442
22029.030016,0.000000,-3923.091493,76.609550
22029.030350,-4145.153275,-7328.038826,-1838.629195
22029.030683,-74.020594,-11251.130318,-6818.249932
22029.031017,-1998.556043,-12509.480420,-5439.278036
22029.031350,-1258.350101,-12435.459826,-3753.867940
22029.031683,-666.185348,-13027.624579,-2221.676944
22029.032017,-1554.432478,-12805.562797,1915.238745
22029.032350,3701.029710,-7031.956449,3140.991542
22029.032684,4367.215058,-7476.080014,8273.831378
22029.033017,7031.956449,-8290.306550,7277.907231
22029.033351,2368.659014,-7179.997637,5898.935335
22029.033684,2294.638420,-9474.636058,3907.087040
22029.034018,0.000000,-3627.009116,-2451.505594
22029.034351,-2368.659014,-9548.656652,-3064.381992
22029.034685,-3627.009116,-11399.171507,-4749.792088
22029.035018,-2146.597232,-9992.780217,-3753.867940
22029.035352,-2812.782580,-9548.656652,-2068.457845
22029.035685,-888.247130,-12065.356855,-1532.190996
22029.036018,-4441.235652,-5995.668130,-2068.457845
22029.036352,-370.102971,-11843.295072,-76.609550
22029.036685,4663.297435,-8290.306550,4673.182538
22029.037019,1184.329507,-5995.668130,4903.011187
22029.037352,6217.729913,-7105.977043,6281.983084
22029.037686,0.000000,-10140.821405,4290.134789
22029.038019,222.061783,-7031.956449,-919.314598
22029.038353,0.000000,-10881.027347,1915.238745
22029.038686,296.082377,-5477.523971,-3064.381992
22029.039020,1184.329507,-12213.398043,-2451.505594
22029.039353,-74.020594,-13619.789333,-1915.238745
22029.039687,-1776.494261,-8660.409521,-4979.620737
22029.040020,-4737.318029,-10732.986159,-1838.629195
22029.040353,4663.297435,-11843.295072,-1915.238745
22029.040687,1554.432478,-10658.965565,5439.278036
22029.041020,3701.029710,-5699.585753,4443.353888
22029.041354,1998.556043,-7920.203579,6052.154434
22029.041687,1110.308913,-6439.791695,3524.039291
22029.042021,5255.462188,-5921.647536,2987.772442
22029.042354,518.144159,-6587.832884,1225.752797
22029.042688,-1184.329507,-9474.636058,-4979.620737
22029.043021,-2442.679609,-15396.283594,-4366.744339
22029.043355,-4515.256246,-7179.997637,-7048.078582
22029.043688,-1406.391290,-10066.800811,-3447.429741
22029.044022,-3478.967927,-10214.842000,-5132.839837
22029.044355,1036.288319,-11177.109724,-2451.505594
22029.044688,1406.391290,-11695.253884,3600.648841
22029.045022,4959.379811,-6513.812290,2681.334243
22029.045355,5255.462188,-10066.800811,9116.536426
22029.045689,7031.956449,-5255.462188,3830.477490
22029.046022,6809.894666,-9474.636058,7277.907231
22029.046356,2368.659014,-8068.244768,3370.820191
22029.046689,3478.967927,-11251.130318,-3753.867940
22029.047023,-5107.421000,-12509.480420,-4136.915689
22029.047356,-1776.494261,-10140.821405,-2528.115143
22029.047690,-5107.421000,-13323.706956,-6818.249932
22029.048023,-4737.318029,-9548.656652,-2451.505594
22029.048357,-1480.411884,-9770.718434,153.219100
22029.048690,2368.659014,-5403.503377,5056.230287
22029.049023,3775.050304,-5995.668130,5592.497135
22029.049357,1110.308913,-7105.977043,4213.525239
22029.049690,3552.988522,-8290.306550,4826.401637
22029.050024,0.000000,-9548.656652,2451.505594
22029.050357,2146.597232,-9474.636058,-76.609550
22029.050691,-1258.350101,-10658.965565,-4060.306139
22029.051024,-2442.679609,-11399.171507,-4673.182538
22029.051358,-4811.338623,-12879.583391,-3217.601092
22029.051691,-962.267725,-8734.430116,-2528.115143
22029.052025,-1924.535449,-9326.594869,0.000000
22029.052358,0.000000,-7179.997637,0.000000
22029.052692,5255.462188,-8882.471304,6052.154434
22029.053025,0.000000,-7179.997637,7354.516781
22029.053358,6883.915261,-6365.771101,1762.019645
22029.053692,0.000000,-10732.986159,612.876398
22029.054025,1776.494261,-8142.265362,2068.457845
22029.054359,814.226536,-7550.100608,0.000000
22029.054692,-518.144159,-11547.212695,-995.924147
22029.055026,-2738.761985,-8512.368333,-4596.572988
22029.055359,-2368.659014,-8956.491898,-3370.820191
22029.055693,-74.020594,-11251.130318,-3677.258390
22029.056026,-1924.535449,-10362.883188,-612.876398
22029.056360,-74.020594,-9474.636058,-1915.238745
22029.056693,-1184.329507,-8364.327145,4136.915689
22029.057027,2368.659014,-6291.750507,3983.696590
22029.057360,2368.659014,-5847.626942,2451.505594
22029.057693,3182.885551,-8586.388927,2298.286494
22029.058027,2886.803174,-9030.512492,1455.581446
22029.058360,3478.967927,-10658.965565,-76.609550
22029.058694,592.164754,-10732.986159,612.876398
22029.059027,2886.803174,-10658.965565,-3140.991542
22029.059361,1110.308913,-13027.624579,-1608.800546
22029.059694,-1776.494261,-7772.162391,-2145.067394
22029.060028,0.000000,-13101.645173,-919.314598
22029.060361,-888.247130,-10658.965565,1991.848295
22029.060695,296.082377,-5403.503377,153.219100
22029.061028,2664.741391,-8586.388927,2374.896044
22029.061362,2886.803174,-7105.977043,4519.963438
22029.061695,296.082377,-7772.162391,4596.572988
22029.062028,1258.350101,-7031.956449,2374.896044
22029.062362,444.123565,-8216.285956,229.828649
22029.062695,-3478.967927,-10066.800811,-3677.258390
22029.063029,-74.020594,-11843.295072,-383.047749
22029.063362,-3256.906145,-9548.656652,-2911.162892
22029.063696,-3552.988522,-11917.315666,-76.609550
22029.064029,-74.020594,-8290.306550,-1302.362347
22029.064363,-2368.659014,-10066.800811,-1991.848295
22029.064696,2368.659014,-9104.533087,4519.963438
22029.065030,1110.308913,-7476.080014,2757.943793
22029.065363,2368.659014,-7698.141797,4060.306139
22029.065697,2442.679609,-7254.018232,5209.449386
22029.066030,1998.556043,-6661.853478,1455.581446
22029.066363,-1184.329507,-8364.327145,1532.190996
22029.066697,1702.473667,-6809.894666,-5592.497135
22029.067030,-3997.112087,-14285.974681,-2451.505594
22029.067364,-4367.215058,-10658.965565,-1302.362347
22029.067697,-1258.350101,-9474.636058,-6052.154434
22029.068031,-3701.029710,-12361.439231,383.047749
22029.068364,-592.164754,-6291.750507,-1838.629195
22029.068698,740.205942,-7624.121203,1991.848295
22029.069031,1924.535449,-7179.997637,4903.011187
22029.069365,0.000000,-4811.338623,3677.258390
22029.069698,2886.803174,-8882.471304,3600.648841
22029.070032,2960.823768,-5403.503377,0.000000
22029.070365,1184.329507,-10436.903782,2834.553343
22029.070698,-962.267725,-7550.100608,-3524.039291
22029.071032,-1628.453072,-11251.130318,-4213.525239
22029.071365,-3552.988522,-11325.150913,-4519.963438
22029.071699,-1628.453072,-10510.924376,-4213.525239
22029.072032,-222.061783,-10658.965565,-76.609550
22029.072366,888.247130,-7031.956449,3600.648841
22029.072699,2294.638420,-9474.636058,4060.306139
22029.073033,2664.741391,-1554.432478,2757.943793
22029.073366,4663.297435,-12435.459826,4826.401637
22029.073700,2368.659014,-8364.327145,4903.011187
22029.074033,3108.864956,-8438.347739,842.705048
22029.074367,2146.597232,-11547.212695,995.924147
22029.074700,1850.514855,-10658.965565,-2068.457845
22029.075034,-1850.514855,-10658.965565,-3294.210641
22029.075367,-74.020594,-11843.295072,-2834.553343
22029.075700,0.000000,-7772.162391,-2145.067394
22029.076034,-4145.153275,-11917.315666,1838.629195
22029.076367,-74.020594,-4219.173869,0.000000
22029.076701,0.000000,-7772.162391,6281.983084
22029.077034,2886.803174,-5773.606348,3524.039291
22029.077368,4663.297435,-5625.565159,4596.572988
22029.077701,-1924.535449,-10881.027347,2221.676944
22029.078035,1258.350101,-6365.771101,-766.095498
22029.078368,-814.226536,-11251.130318,-1532.190996
22029.078702,1184.329507,-11325.150913,76.609550
22029.079035,-740.205942,-8438.347739,-2221.676944
22029.079369,-4219.173869,-13767.830521,-2298.286494
22029.079702,-2442.679609,-8882.471304,-1915.238745
22029.080035,-4441.235652,-13619.789333,-383.047749
22029.080369,1702.473667,-5329.482782,-1532.190996
22029.080702,-2960.823768,-10732.986159,3064.381992
22029.081036,5329.482782,-6587.832884,7967.393179
22029.081369,3330.926739,-4959.379811,6281.983084
22029.081702,1998.556043,-7772.162391,3294.210641
22029.082035,5033.400406,-7105.977043,4213.525239
22029.082368,-2072.576638,-12805.562797,689.485948
22029.082702,0.000000,-8364.327145,-3677.258390
22029.083035,-4737.318029,-13619.789333,-2528.115143
22029.083368,-1258.350101,-12435.459826,-4979.620737
22029.083701,-1924.535449,-7476.080014,0.000000
22029.084034,-1554.432478,-12731.542202,-76.609550
22029.084367,0.000000,-8438.347739,1149.143247
22029.084701,-3775.050304,-8068.244768,153.219100
22029.085034,296.082377,-6957.935855,76.609550
22029.085367,3182.885551,-7105.977043,4979.620737
22029.085700,5181.441594,-7105.977043,6052.154434
22029.086033,7031.956449,-7105.977043,2374.896044
22029.086366,888.247130,-7772.162391,3064.381992
22029.086699,0.000000,-8364.327145,689.485948
22029.087033,-1554.432478,-11843.295072,-7584.345430
22029.087366,-2664.741391,-16506.592507,-4366.744339
22029.087699,0.000000,-9030.512492,-4366.744339
22029.088032,-1480.411884,-13471.748144,-459.657299
22029.088365,1702.473667,-8142.265362,1072.533697
22029.088698,3182.885551,-7698.141797,1455.581446
22029.089031,1184.329507,-9548.656652,306.438199
22029.089365,5921.647536,-7698.141797,7890.783629
22029.089698,4367.215058,-6365.771101,5209.449386
22029.090031,4737.318029,-4811.338623,7354.516781
22029.090364,4663.297435,-7105.977043,4213.525239
22029.090697,-814.226536,-10732.986159,-1072.533697
22029.091030,-888.247130,-9844.739029,-2911.162892
22029.091364,-5329.482782,-11621.233289,-7354.516781
22029.091697,-4737.318029,-13027.624579,-5745.716235
22029.092030,-6365.771101,-11103.089130,-4903.011187
22029.092363,-2664.741391,-8216.285956,-2528.115143
22029.092696,0.000000,-9030.512492,2451.505594
22029.093029,4737.318029,-7179.997637,7967.393179
22029.093362,5625.565159,-5847.626942,8503.660028
22029.093696,4071.132681,-6957.935855,3370.820191
22029.094029,4737.318029,-8068.244768,4903.011187
22029.094362,3256.906145,-8290.306550,3600.648841
22029.094695,1480.411884,-8956.491898,-1838.629195
22029.095028,296.082377,-12435.459826,-4519.963438
22029.095361,-4367.215058,-17246.798449,-1378.971896
22029.095695,-2812.782580,-8364.327145,-4290.134789
22029.096028,-4811.338623,-14211.954086,-2068.457845
22029.096361,-4737.318029,-5403.503377,-1302.362347
22029.096694,-2442.679609,-7994.224174,0.000000
22029.097027,1184.329507,-3627.009116,6052.154434
22029.097360,2294.638420,-9178.553681,5439.278036
22029.097693,4663.297435,-4589.276840,5439.278036
22029.098027,0.000000,-13249.686362,6358.592633
22029.098360,1480.411884,-3330.926739,0.000000
22029.098693,-296.082377,-13027.624579,0.000000
22029.099026,-2072.576638,-10288.862594,-3447.429741
22029.099359,1184.329507,-9548.656652,-2681.334243
22029.099692,-7105.977043,-11917.315666,-5286.058936
22029.100026,0.000000,-8660.409521,-306.438199
22029.100359,-4219.173869,-7105.977043,-3140.991542
22029.100692,518.144159,-9178.553681,-2451.505594
22029.101025,2590.720797,-10066.800811,4213.525239
22029.101358,4071.132681,-6883.915261,5515.887586
22029.101691,5403.503377,-7179.997637,5362.668486
22029.102024,2590.720797,-8956.491898,3677.258390
22029.102358,5551.544565,-8290.306550,2068.457845
22029.102691,-2368.659014,-11325.150913,459.657299
22029.103024,3478.967927,-10658.965565,-4366.744339
22029.103357,-5551.544565,-11325.150913,-4290.134789
22029.103690,0.000000,-12065.356855,-1685.410096
22029.104023,-2590.720797,-8956.491898,-2374.896044
22029.104357,-2294.638420,-10658.965565,0.000000
22029.104690,2368.659014,-9104.533087,2987.772442
22029.105023,1628.453072,-5329.482782,5209.449386
22029.105356,2072.576638,-4811.338623,0.000000
22029.105689,3552.988522,-9474.636058,7277.907231
22029.106022,3182.885551,-7328.038826,1915.238745
22029.106355,0.000000,-9548.656652,2757.943793
22029.106689,3552.988522,-11325.150913,3294.210641
22029.107022,-4441.235652,-9844.739029,-4903.011187
22029.107355,-740.205942,-9622.677246,-4366.744339
22029.107688,-2220.617826,-12213.398043,-1838.629195
22029.108021,222.061783,-9474.636058,-2221.676944
22029.108354,-370.102971,-6587.832884,0.000000
22029.108688,2294.638420,-10510.924376,3294.210641
22029.109021,2220.617826,-7328.038826,4903.011187
22029.109354,370.102971,-7254.018232,2987.772442
22029.109687,3478.967927,-9474.636058,4826.401637
22029.110020,-74.020594,-8364.327145,1685.410096
22029.110353,0.000000,-8068.244768,3677.258390
22029.110686,3182.885551,-7105.977043,-1302.362347
22029.111020,-2146.597232,-9548.656652,-3064.381992
22029.111353,-2072.576638,-9548.656652,-1685.410096
22029.111686,-3478.967927,-12583.501014,-4749.792088
22029.112019,296.082377,-10436.903782,-3830.477490
22029.112352,-4811.338623,-13989.892304,-766.095498
22029.112685,-74.020594,-9474.636058,-383.047749
22029.113019,2886.803174,-4737.318029,3064.381992
22029.113352,3108.864956,-10658.965565,7890.783629
22029.113685,4959.379811,-4145.153275,3600.648841
22029.114018,-1480.411884,-7179.997637,4903.011187
22029.114351,4071.132681,-8290.306550,1149.143247
22029.114684,-1628.453072,-10732.986159,919.314598
22029.115017,-3923.091493,-9770.718434,-4826.401637
22029.115351,-2146.597232,-9030.512492,-5286.058936
22029.115684,-5921.647536,-11917.315666,-4903.011187
22029.116017,-74.020594,-7846.182985,-6128.763984
22029.116350,-2664.741391,-11251.130318,-76.609550
22029.116683,1998.556043,-8586.388927,-689.485948
22029.117016,1702.473667,-5995.668130,2451.505594
22029.117350,0.000000,-7772.162391,4366.744339
22029.117683,6217.729913,-4293.194464,3140.991542
22029.118016,666.185348,-11103.089130,2911.162892
22029.118349,4145.153275,-6735.874072,1072.533697
22029.118682,3182.885551,-10955.047942,995.924147
22029.119015,296.082377,-10140.821405,-2145.067394
22029.119348,-74.020594,-14211.954086,-2528.115143
22029.119682,-3034.844362,-10140.821405,-4290.134789
22029.120015,592.164754,-9844.739029,-2451.505594
22029.120348,-1184.329507,-12065.356855,0.000000
22029.120681,1554.432478,-7920.203579,612.876398
22029.121014,3034.844362,-5477.523971,5286.058936
22029.121347,1184.329507,-7179.997637,3447.429741
22029.121681,1998.556043,-5255.462188,536.266849
22029.122014,1184.329507,-12731.542202,3600.648841
22029.122347,-222.061783,-5995.668130,-2451.505594
22029.122680,0.000000,-7179.997637,-1838.629195
22029.123013,-74.020594,-13471.748144,-76.609550
22029.123346,-74.020594,-10955.047942,-1838.629195
22029.123679,518.144159,-9474.636058,-1685.410096
22029.124013,-1332.370696,-11917.315666,-383.047749
22029.124346,-2442.679609,-9622.677246,-1225.752797
22029.124679,-370.102971,-7698.141797,1149.143247
22029.125012,444.123565,-7698.141797,2068.457845
22029.125345,4145.153275,-5625.565159,3294.210641
22029.125678,1850.514855,-11325.150913,4366.744339
22029.126012,4589.276840,-7772.162391,3447.429741
22029.126345,814.226536,-9178.553681,-1915.238745
22029.126678,0.000000,-14804.118840,2374.896044
22029.127011,-74.020594,-7698.141797,-4366.744339
22029.127344,-4737.318029,-11325.150913,-1302.362347
22029.127677,0.000000,-7476.080014,-919.314598
22029.128010,-666.185348,-9178.553681,-2987.772442
22029.128344,-1628.453072,-10066.800811,229.828649
22029.128677,-888.247130,-8586.388927,1762.019645
22029.129010,-74.020594,-8290.306550,1455.581446
22029.129343,-1776.494261,-5107.421000,612.876398
22029.129676,2368.659014,-10658.965565,2987.772442
22029.130009,2368.659014,-5625.565159,536.266849
22029.130343,0.000000,-9548.656652,2604.724693
22029.130676,4663.297435,-8290.306550,1149.143247
22029.131009,-3552.988522,-11325.150913,-1225.752797
22029.131342,-814.226536,-9178.553681,-5515.887586
22029.131675,-5107.421000,-13397.727550,-2451.505594
22029.132008,148.041188,-8068.244768,-2451.505594
22029.132341,-1184.329507,-10140.821405,1378.971896
22029.132675,4663.297435,-8882.471304,2987.772442
22029.133008,1702.473667,-7550.100608,2757.943793
22029.133341,-2368.659014,-5995.668130,4903.011187
22029.133674,4663.297435,-7105.977043,1455.581446
22029.134007,0.000000,-10288.862594,3983.696590
22029.134340,4959.379811,-6513.812290,2451.505594
22029.134674,962.267725,-10214.842000,995.924147
22029.135007,-814.226536,-13619.789333,-3447.429741
22029.135340,-666.185348,-10658.965565,-1915.238745
22029.135673,-3034.844362,-10658.965565,-4366.744339
22029.136006,-2368.659014,-7772.162391,-1072.533697
22029.136339,-1850.514855,-9474.636058,-995.924147
22029.136672,518.144159,-5921.647536,-2451.505594
22029.137006,1184.329507,-8956.491898,5898.935335
22029.137339,1628.453072,-6513.812290,2911.162892
22029.137672,4071.132681,-8734.430116,4136.915689
22029.138005,1110.308913,-8438.347739,3217.601092
22029.138338,1702.473667,-9178.553681,-1302.362347
22029.138671,814.226536,-10288.862594,0.000000
22029.139005,3182.885551,-8956.491898,-1378.971896
22029.139338,222.061783,-9770.718434,-3294.210641
22029.139671,-2368.659014,-11917.315666,0.000000
22029.140004,-3256.906145,-10732.986159,-2451.505594
22029.140337,-2442.679609,-11843.295072,-689.485948
22029.140670,-296.082377,-8290.306550,-2528.115143
22029.141003,3552.988522,-7772.162391,3677.258390
22029.141337,2516.700203,-6143.709319,7048.078582
22029.141670,4737.318029,-3923.091493,4903.011187
22029.142003,518.144159,-9770.718434,3677.258390
22029.142336,1998.556043,-7698.141797,153.219100
22029.142669,-296.082377,-10066.800811,766.095498
22029.143002,-2442.679609,-9252.574275,-3830.477490
22029.143336,-370.102971,-10658.965565,-5898.935335
22029.143669,-6809.894666,-11917.315666,-2834.553343
22029.144002,1332.370696,-9474.636058,-76.609550
22029.144335,-4737.318029,-10732.986159,612.876398
22029.144668,1110.308913,-6957.935855,-2068.457845
22029.145001,-1628.453072,-10066.800811,2451.505594
22029.145334,2738.761985,-6069.688724,2298.286494
22029.145668,4663.297435,-8290.306550,4826.401637
22029.146001,2368.659014,-8364.327145,7354.516781
22029.146334,6143.709319,-4885.359217,2911.162892
22029.146667,0.000000,-11325.150913,4979.620737
22029.147000,2886.803174,-7254.018232,-4060.306139
22029.147333,-3627.009116,-11103.089130,-3753.867940
22029.147666,-666.185348,-10658.965565,-4979.620737
22029.148000,-1406.391290,-10658.965565,-1991.848295
22029.148333,-5181.441594,-11177.109724,-1532.190996
22029.148666,-2516.700203,-7698.141797,-1838.629195
22029.148999,-370.102971,-12435.459826,3600.648841
22029.149332,592.164754,-3923.091493,1225.752797
22029.149665,0.000000,-7772.162391,7967.393179
22029.149999,6735.874072,-3552.988522,4060.306139
22029.150332,1184.329507,-5995.668130,2451.505594
22029.150665,1998.556043,-9252.574275,995.924147
22029.150998,3478.967927,-9400.615463,-1915.238745
22029.151331,-3849.070898,-14656.077652,-2681.334243
22029.151664,-3108.864956,-8808.450710,-6128.763984
22029.151997,-4219.173869,-12435.459826,-4979.620737
22029.152331,0.000000,-7179.997637,-919.314598
22029.152664,2886.803174,-9178.553681,2068.457845
22029.152997,5847.626942,-11251.130318,4519.963438
22029.153330,1184.329507,-4811.338623,5515.887586
22029.153663,2146.597232,-6143.709319,2911.162892
22029.153996,2368.659014,-8734.430116,3140.991542
22029.154330,3108.864956,-8364.327145,1991.848295
22029.154663,4219.173869,-8512.368333,919.314598
22029.154996,-74.020594,-13027.624579,-842.705048
22029.155329,-222.061783,-9030.512492,-3983.696590
22029.155662,-4589.276840,-12583.501014,-3983.696590
22029.155995,-2590.720797,-9696.697840,-4290.134789
22029.156328,-3256.906145,-10436.903782,-1838.629195
22029.156662,-962.267725,-9178.553681,-153.219100
22029.156995,0.000000,-5995.668130,1225.752797
22029.157328,3256.906145,-6439.791695,8197.221829
22029.157661,2294.638420,-6513.812290,5132.839837
22029.157994,1480.411884,-3034.844362,1838.629195
22029.158327,-2442.679609,-12583.501014,229.828649
22029.158661,3108.864956,-5921.647536,-919.314598
22029.158994,296.082377,-13545.768739,-612.876398
22029.159327,3478.967927,-9474.636058,-1608.800546
22029.159660,-74.020594,-14211.954086,-3140.991542
22029.159993,-2072.576638,-11843.295072,-76.609550
22029.160326,3478.967927,-10214.842000,-76.609550
22029.160659,-1998.556043,-10362.883188,-766.095498
22029.160993,4959.379811,-7031.956449,4213.525239
22029.161326,0.000000,-8512.368333,3830.477490
22029.161659,3775.050304,-7105.977043,3600.648841
22029.161992,3034.844362,-7550.100608,4673.182538
22029.162325,0.000000,-8364.327145,919.314598
22029.162658,1406.391290,-7179.997637,-4290.134789
22029.162992,-2368.659014,-14211.954086,2374.896044
22029.163325,-74.020594,-7402.059420,-3447.429741
22029.163658,-3182.885551,-8660.409521,-2451.505594
22029.163991,-2072.576638,-8290.306550,-2528.115143
22029.164324,-888.247130,-9770.718434,2221.676944
22029.164657,-4145.153275,-12065.356855,229.828649
22029.164990,1258.350101,-7402.059420,1838.629195
22029.165324,0.000000,-8512.368333,3677.258390
22029.165657,3182.885551,-3627.009116,0.000000
22029.165990,4663.297435,-11547.212695,6052.154434
22029.166323,2886.803174,-8808.450710,612.876398
22029.166656,1776.494261,-8956.491898,3064.381992
22029.166989,-2368.659014,-12509.480420,-3370.820191
22029.167323,-3182.885551,-11843.295072,-2911.162892
22029.167656,-3034.844362,-9696.697840,-3600.648841
22029.167989,2294.638420,-8734.430116,-2911.162892
22029.168322,-74.020594,-13027.624579,-76.609550
22029.168655,1480.411884,-7772.162391,4826.401637
22029.168988,-1258.350101,-8586.388927,229.828649
22029.169321,0.000000,-4811.338623,1225.752797
22029.169655,2220.617826,-9474.636058,1455.581446
22029.169988,1480.411884,-10140.821405,1838.629195
22029.170321,4367.215058,-5773.606348,2528.115143
22029.170654,-1036.288319,-10732.986159,842.705048
22029.170987,3552.988522,-7994.224174,3294.210641
22029.171320,-1258.350101,-8882.471304,-1302.362347
22029.171654,-1628.453072,-10066.800811,-2528.115143
22029.171987,-2368.659014,-9844.739029,-3064.381992
22029.172320,-3923.091493,-12657.521608,-1991.848295
22029.172653,-2960.823768,-7476.080014,689.485948
22029.172986,-74.020594,-7105.977043,1762.019645
22029.173319,2368.659014,-7772.162391,5515.887586
22029.173652,4663.297435,-8882.471304,4673.182538
22029.173986,2664.741391,-8364.327145,4596.572988
22029.174319,2368.659014,-9548.656652,2374.896044
22029.174652,2886.803174,-11843.295072,842.705048
22029.174985,4145.153275,-8142.265362,995.924147
22029.175318,-74.020594,-11621.233289,-2068.457845
22029.175651,666.185348,-11843.295072,-2068.457845
22029.175985,-2590.720797,-7920.203579,-4979.620737
22029.176318,-3552.988522,-12213.398043,-76.609550
22029.176651,1776.494261,-8364.327145,-76.609550
22029.176984,-1258.350101,-10066.800811,689.485948
22029.177317,2664.741391,-7179.997637,8580.269578
22029.177650,4071.132681,-3330.926739,4903.011187
22029.177983,2590.720797,-7994.224174,5056.230287
22029.178317,1406.391290,-6957.935855,1072.533697
22029.178650,0.000000,-9770.718434,-153.219100
22029.178983,-2368.659014,-9844.739029,-3983.696590
22029.179316,-1036.288319,-13027.624579,-3140.991542
22029.179649,-3775.050304,-11917.315666,-4903.011187
22029.179982,-4589.276840,-7476.080014,-4290.134789
22029.180316,-2960.823768,-12435.459826,-2528.115143
22029.180649,0.000000,-6587.832884,306.438199
22029.180982,1628.453072,-10066.800811,4903.011187
22029.181315,3849.070898,-5033.400406,4903.011187
22029.181648,4145.153275,-7846.182985,4903.011187
22029.181982,2664.741391,-12139.377449,6205.373534
22029.182315,2886.803174,-9474.636058,3600.648841
22029.182648,0.000000,-5995.668130,1225.752797
22029.182981,2886.803174,-10066.800811,-76.609550
22029.183314,-1554.432478,-11843.295072,-3447.429741
22029.183648,-5773.606348,-10732.986159,-5132.839837
22029.183981,-6735.874072,-8364.327145,-4903.011187
22029.184314,-5773.606348,-12361.439231,-2528.115143
22029.184647,-370.102971,-7402.059420,919.314598
22029.184981,-370.102971,-9400.615463,5745.716235
22029.185314,4589.276840,-3701.029710,4903.011187
22029.185647,2516.700203,-5625.565159,4903.011187
22029.185980,3182.885551,-9918.759623,4903.011187
22029.186314,3256.906145,-4219.173869,2451.505594
22029.186647,-1776.494261,-10732.986159,2451.505594
22029.186980,2886.803174,-8290.306550,-2834.553343
22029.187313,-5329.482782,-8364.327145,-6741.640382
22029.187646,-1480.411884,-11917.315666,-4749.792088
22029.187980,518.144159,-10362.883188,-1915.238745
22029.188313,-2368.659014,-9548.656652,-2145.067394
22029.188646,740.205942,-8808.450710,-229.828649
22029.188979,-1332.370696,-9770.718434,1608.800546
22029.189313,2960.823768,-8364.327145,3677.258390
22029.189646,4663.297435,-8438.347739,6741.640382
22029.189979,4663.297435,-8290.306550,2987.772442
22029.190312,1776.494261,-6291.750507,3064.381992
22029.190645,592.164754,-7179.997637,2834.553343
22029.190979,1924.535449,-10140.821405,-1838.629195
22029.191312,-4145.153275,-11103.089130,-4366.744339
22029.191645,0.000000,-10436.903782,-2451.505594
22029.191978,0.000000,-12287.418637,-995.924147
22029.192312,962.267725,-9474.636058,-76.609550
22029.192645,-4737.318029,-9548.656652,-1838.629195
22029.192978,-1258.350101,-9474.636058,-1915.238745
22029.193311,592.164754,-6587.832884,3677.258390
22029.193645,2886.803174,-8882.471304,4826.401637
22029.193978,5255.462188,-6513.812290,4213.525239
22029.194311,3108.864956,-8290.306550,3140.991542
22029.194644,518.144159,-10214.842000,1225.752797
22029.194977,3256.906145,-8142.265362,1455.581446
22029.195311,-2664.741391,-13471.748144,-689.485948
22029.195644,-1702.473667,-10881.027347,-842.705048
22029.195977,-6143.709319,-7179.997637,-4903.011187
22029.196310,-2960.823768,-8364.327145,-3064.381992
22029.196644,-74.020594,-14211.954086,3294.210641
22029.196977,2516.700203,-4367.215058,1685.410096
22029.197310,-222.061783,-10362.883188,3140.991542
22029.197643,-518.144159,-8142.265362,1915.238745
22029.197977,-592.164754,-7920.203579,1532.190996
22029.198310,-222.061783,-8438.347739,2987.772442
22029.198643,5551.544565,-7105.977043,2987.772442
22029.198976,-3552.988522,-10732.986159,3217.601092
22029.199309,-370.102971,-7105.977043,-76.609550
22029.199643,-3923.091493,-9474.636058,-4366.744339
22029.199976,-4737.318029,-7179.997637,-4290.134789
22029.200309,-3775.050304,-11695.253884,-1915.238745
22029.200642,-2072.576638,-7624.121203,229.828649
22029.200976,444.123565,-6513.812290,383.047749
22029.201309,962.267725,-8586.388927,2298.286494
22029.201642,4663.297435,-5625.565159,2068.457845
22029.201975,2590.720797,-11251.130318,1762.019645
22029.202309,5255.462188,-10214.842000,2298.286494
22029.202642,2368.659014,-8660.409521,0.000000
22029.202975,2664.741391,-13693.809927,1225.752797
22029.203308,6143.709319,-7105.977043,-383.047749
22029.203641,0.000000,-11917.315666,-4749.792088
22029.203975,2368.659014,-9178.553681,-689.485948
22029.204308,-2442.679609,-13693.809927,-2145.067394
22029.204641,-5033.400406,-8660.409521,-4290.134789
22029.204974,3478.967927,-4737.318029,76.609550
22029.205308,5033.400406,-9474.636058,3753.867940
22029.205641,7920.203579,-6217.729913,6665.030833
22029.205974,3775.050304,-10362.883188,7277.907231
22029.206307,8216.285956,-9474.636058,4519.963438
22029.206641,1184.329507,-9844.739029,3524.039291
22029.206974,2294.638420,-14211.954086,-1302.362347
22029.207307,-2664.741391,-8956.491898,-5515.887586
22029.207640,-1776.494261,-10140.821405,-3294.210641
22029.207973,-2886.803174,-11177.109724,-3524.039291
22029.208307,-370.102971,-8808.450710,-689.485948
22029.208640,-2294.638420,-9918.759623,0.000000
22029.208973,-3997.112087,-9326.594869,229.828649
22029.209306,1110.308913,-4737.318029,-76.609550
22029.209640,1184.329507,-5995.668130,5669.106685
22029.209973,4663.297435,-10066.800811,4519.963438
22029.210306,4515.256246,-4219.173869,3677.258390
22029.210639,-1554.432478,-12879.583391,-76.609550
22029.210972,1184.329507,-11177.109724,-2604.724693
22029.211306,-3997.112087,-13693.809927,-995.924147
22029.211639,-2442.679609,-10288.862594,-4060.306139
22029.211972,-2368.659014,-12509.480420,1532.190996
22029.212305,-5477.523971,-7179.997637,-3064.381992
22029.212639,-4737.318029,-7179.997637,1532.190996
22029.212972,-1850.514855,-5921.647536,536.266849
22029.213305,-1036.288319,-4811.338623,2451.505594
22029.213638,-5921.647536,-7179.997637,3370.820191
22029.213972,3849.070898,-2368.659014,4519.963438
22029.214305,-1184.329507,-8438.347739,612.876398
22029.214638,444.123565,-7476.080014,-995.924147
22029.214971,3330.926739,-7105.977043,-995.924147
22029.215304,0.000000,-12509.480420,-1532.190996
22029.215638,1702.473667,-14211.954086,-4979.620737
22029.215971,-1258.350101,-14804.118840,-4290.134789
22029.216304,-2368.659014,-11325.150913,-3677.258390
22029.216637,3552.988522,-7772.162391,612.876398
22029.216971,3701.029710,-8808.450710,3677.258390
22029.217304,7994.224174,-5995.668130,7354.516781
22029.217637,4663.297435,-7550.100608,7124.688131
22029.217970,1110.308913,-7105.977043,995.924147
22029.218304,1480.411884,-7920.203579,3294.210641
22029.218637,2886.803174,-7105.977043,383.047749
22029.218970,3923.091493,-11621.233289,1225.752797
22029.219303,-2294.638420,-8882.471304,-2068.457845
22029.219636,2146.597232,-12435.459826,-2298.286494
22029.219970,-4737.318029,-8364.327145,-6128.763984
22029.220303,-1184.329507,-11917.315666,-2528.115143
22029.220636,-370.102971,-11251.130318,-1302.362347
22029.220969,-1184.329507,-7179.997637,0.000000
22029.221303,1406.391290,-9474.636058,1762.019645
22029.221636,2368.659014,-6661.853478,4290.134789
22029.221969,5847.626942,-7698.141797,4903.011187
22029.222302,2516.700203,-8216.285956,4749.792088
22029.222636,2294.638420,-6957.935855,536.266849
22029.222969,1184.329507,-9844.739029,1762.019645
22029.223302,-74.020594,-14211.954086,-3140.991542
22029.223635,0.000000,-8956.491898,-2451.505594
22029.223968,-3552.988522,-12213.398043,-2221.676944
22029.224302,1702.473667,-9326.594869,-6358.592633
22029.224635,-3997.112087,-14285.974681,0.000000
22029.224968,-962.267725,-8216.285956,-995.924147
22029.225301,-666.185348,-10436.903782,3140.991542
22029.225635,-2960.823768,-4811.338623,1532.190996
22029.225968,1184.329507,-6883.915261,7277.907231
22029.226301,370.102971,-5403.503377,4903.011187
22029.226634,0.000000,-3627.009116,4903.011187
22029.226968,-2442.679609,-11843.295072,-76.609550
22029.227301,-2220.617826,-7179.997637,-1225.752797
22029.227634,-1258.350101,-6365.771101,-3983.696590
22029.227967,-5921.647536,-14878.139434,-5669.106685
22029.228300,-2664.741391,-7846.182985,-5898.935335
22029.228634,-4145.153275,-16506.592507,-1838.629195
22029.228967,6439.791695,-11251.130318,3600.648841
22029.229300,1702.473667,-10214.842000,3830.477490
22029.229633,4145.153275,-6291.750507,4903.011187
22029.229967,7031.956449,-9474.636058,4826.401637
22029.230300,2664.741391,-8660.409521,6741.640382
22029.230633,6291.750507,-5847.626942,3983.696590
22029.230966,444.123565,-9474.636058,1762.019645
22029.231299,592.164754,-8290.306550,-2528.115143
22029.231633,-2812.782580,-9696.697840,-6128.763984
22029.231966,1110.308913,-10214.842000,-3677.258390
22029.232299,-3701.029710,-13619.789333,-3217.601092
22029.232632,-1406.391290,-9252.574275,-1608.800546
22029.232966,-2442.679609,-10362.883188,-2834.553343
22029.233299,0.000000,-5995.668130,3983.696590
22029.233632,3256.906145,-6809.894666,3907.087040
22029.233965,5847.626942,-9474.636058,7277.907231
22029.234299,3034.844362,-5995.668130,2451.505594
22029.234632,2294.638420,-9474.636058,2374.896044
22029.234965,1628.453072,-10288.862594,766.095498
22029.235298,-2072.576638,-10881.027347,-3677.258390
22029.235631,-1184.329507,-11177.109724,-4366.744339
22029.235965,0.000000,-9548.656652,-4136.915689
22029.236298,3478.967927,-10066.800811,0.000000
22029.236631,-74.020594,-9474.636058,-76.609550
22029.236964,-962.267725,-7254.018232,0.000000
22029.237298,-2072.576638,-6587.832884,0.000000
22029.237631,4737.318029,-10732.986159,4903.011187
22029.237964,3256.906145,-6883.915261,4826.401637
22029.238297,3849.070898,-6883.915261,2757.943793
22029.238631,-740.205942,-7846.182985,-919.314598
22029.238964,-1258.350101,-13619.789333,-689.485948
22029.239297,-1850.514855,-7179.997637,-4290.134789
22029.239630,-4811.338623,-15396.283594,-4979.620737
22029.239963,-3552.988522,-7772.162391,-1225.752797
22029.240297,-3627.009116,-11547.212695,-76.609550
22029.240630,1702.473667,-6513.812290,1302.362347
22029.240963,0.000000,-7328.038826,3753.867940
22029.241296,740.205942,-8290.306550,4290.134789
22029.241630,3034.844362,-6587.832884,5439.278036
22029.241963,-1554.432478,-7920.203579,1608.800546
22029.242296,1184.329507,-7179.997637,-459.657299
22029.242629,-222.061783,-7328.038826,-2451.505594
22029.242963,2738.761985,-8364.327145,0.000000
22029.243296,1184.329507,-12583.501014,1149.143247
22029.243629,-666.185348,-11251.130318,-2528.115143
22029.243962,-1702.473667,-10362.883188,-4060.306139
22029.244295,-888.247130,-12065.356855,229.828649
22029.244629,2294.638420,-6957.935855,153.219100
22029.244962,1406.391290,-7698.141797,2681.334243
22029.245295,3478.967927,-8882.471304,4826.401637
22029.245628,1258.350101,-4219.173869,306.438199
22029.245962,1110.308913,-13619.789333,6052.154434
22029.246295,4663.297435,-7105.977043,-229.828649
22029.246628,-3997.112087,-10732.986159,-1532.190996
22029.246961,-666.185348,-7550.100608,-2528.115143
22029.247295,1406.391290,-10436.903782,-689.485948
22029.247628,-1628.453072,-9030.512492,-919.314598
22029.247961,1258.350101,-9548.656652,-1532.190996
22029.248294,-2442.679609,-11843.295072,-1608.800546
22029.248627,-2368.659014,-9030.512492,-2987.772442
22029.248961,-1406.391290,-9844.739029,0.000000
22029.249294,2368.659014,-7846.182985,2681.334243
22029.249627,2960.823768,-7179.997637,3983.696590
22029.249960,3552.988522,-10658.965565,4826.401637
22029.250294,1998.556043,-8882.471304,1762.019645
22029.250627,2664.741391,-3923.091493,3677.258390
22029.250960,3330.926739,-9474.636058,-995.924147
22029.251293,4663.297435,-10807.006753,-3524.039291
22029.251626,-2812.782580,-13249.686362,-1378.971896
22029.251960,-74.020594,-10510.924376,-2757.943793
22029.252293,-1628.453072,-11769.274478,-995.924147
22029.252626,-2368.659014,-6735.874072,-3677.258390
22029.252959,296.082377,-11843.295072,-76.609550
22029.253293,-5921.647536,-7179.997637,612.876398
22029.253626,-1776.494261,-3627.009116,612.876398
22029.253959,-666.185348,-11251.130318,4519.963438
22029.254292,3256.906145,-3627.009116,4903.011187
22029.254626,3330.926739,-6217.729913,4213.525239
22029.254959,2886.803174,-6735.874072,2528.115143
22029.255292,1406.391290,-9844.739029,-995.924147
22029.255625,-4219.173869,-13027.624579,-2528.115143
22029.255958,-370.102971,-13027.624579,-4979.620737
22029.256292,-4589.276840,-10732.986159,-4596.572988
22029.256625,296.082377,-10732.986159,-1838.629195
22029.256958,1110.308913,-10658.965565,2374.896044
22029.257291,2886.803174,-8586.388927,4826.401637
22029.257625,1776.494261,-7550.100608,5056.230287
22029.257958,1776.494261,-7624.121203,3524.039291
22029.258291,4663.297435,-6957.935855,4673.182538
22029.258624,1184.329507,-7328.038826,3677.258390
22029.258958,3478.967927,-6217.729913,-995.924147
22029.259291,-3552.988522,-9548.656652,0.000000
22029.259624,-370.102971,-10658.965565,-6818.249932
22029.259957,-4219.173869,-15396.283594,-3753.867940
22029.260290,-3775.050304,-10066.800811,-2221.676944
22029.260624,-666.185348,-9474.636058,-1608.800546
22029.260957,-2516.700203,-11029.068536,2068.457845
22029.261290,592.164754,-6513.812290,2451.505594
22029.261623,3182.885551,-7031.956449,6128.763984
22029.261957,592.164754,-4811.338623,3064.381992
22029.262290,2886.803174,-10658.965565,3600.648841
22029.262623,1702.473667,-5255.462188,-2451.505594
22029.262956,0.000000,-10732.986159,842.705048
22029.263290,1406.391290,-9178.553681,-2221.676944
22029.263623,-1480.411884,-14656.077652,-2451.505594
22029.263956,518.144159,-9770.718434,-2221.676944
22029.264289,-2368.659014,-11251.130318,-2451.505594
22029.264622,0.000000,-9030.512492,-1072.533697
22029.264956,0.000000,-7179.997637,306.438199
22029.265289,1776.494261,-11547.212695,3370.820191
22029.265622,4811.338623,-10362.883188,6741.640382
22029.265955,3108.864956,-4811.338623,10112.460574
22029.266289,5033.400406,-4663.297435,2451.505594
22029.266622,74.020594,-9548.656652,0.000000
22029.266955,-1406.391290,-9178.553681,-2528.115143
22029.267288,-3923.091493,-11843.295072,-7048.078582
22029.267622,-2442.679609,-11843.295072,-5898.935335
22029.267955,-5921.647536,-13619.789333,-4979.620737
22029.268288,-2886.803174,-7624.121203,-1915.238745
22029.268621,-1924.535449,-7550.100608,-1532.190996
22029.268954,-1998.556043,-8364.327145,153.219100
22029.269288,6439.791695,-9474.636058,8503.660028
22029.269621,2368.659014,-5107.421000,9806.022374
22029.269954,8142.265362,-5033.400406,7277.907231
22029.270287,-518.144159,-9548.656652,1225.752797
22029.270621,2960.823768,-5403.503377,1991.848295
22029.270954,1110.308913,-11251.130318,1608.800546
22029.271287,2368.659014,-9622.677246,-2528.115143
22029.271620,-2146.597232,-13767.830521,-4366.744339
22029.271953,-5107.421000,-14063.912898,-4979.620737
22029.272287,-74.020594,-7994.224174,-5362.668486
22029.272620,-4737.318029,-11917.315666,1991.848295
22029.272953,2294.638420,-7105.977043,-76.609550
22029.273286,-74.020594,-7994.224174,2068.457845
22029.273620,1776.494261,-5995.668130,5056.230287
22029.273953,3775.050304,-4811.338623,1838.629195
22029.274286,2368.659014,-11251.130318,10035.851024
22029.274619,4737.318029,-3478.967927,3140.991542
22029.274953,2368.659014,-9030.512492,3294.210641
22029.275286,-2072.576638,-8956.491898,-2451.505594
22029.275619,-1480.411884,-10436.903782,-3753.867940
22029.275952,-4811.338623,-11473.192101,-7354.516781
22029.276285,-3849.070898,-11917.315666,-6128.763984
22029.276619,-1924.535449,-14211.954086,-76.609550
22029.276952,-1850.514855,-7328.038826,-2451.505594
22029.277285,1628.453072,-7920.203579,76.609550
22029.277618,2960.823768,-7402.059420,4749.792088
22029.277952,4515.256246,-7920.203579,7277.907231
22029.278285,2516.700203,-7179.997637,3677.258390
22029.278618,3775.050304,-8586.388927,2145.067394
22029.278951,2590.720797,-9252.574275,995.924147
22029.279285,2294.638420,-9178.553681,-766.095498
22029.279618,1110.308913,-10362.883188,-1455.581446
22029.279951,-1258.350101,-11103.089130,-6128.763984
22029.280284,0.000000,-11325.150913,-2987.772442
22029.280617,-74.020594,-15248.242405,2068.457845
22029.280951,-2294.638420,-7772.162391,0.000000
22029.281284,-666.185348,-9474.636058,4443.353888
22029.281617,1110.308913,-3775.050304,2145.067394
22029.281950,1332.370696,-9770.718434,3600.648841
22029.282283,2368.659014,-5699.585753,5669.106685
22029.282616,-1406.391290,-5699.585753,0.000000
22029.282949,1702.473667,-8882.471304,-2681.334243
22029.283283,-592.164754,-12657.521608,1149.143247
22029.283616,-2146.597232,-9252.574275,-3983.696590
22029.283949,-962.267725,-6735.874072,-3677.258390
22029.284282,-3330.926739,-11695.253884,-3753.867940
22029.284615,0.000000,-9548.656652,1225.752797
22029.284948,1554.432478,-7994.224174,1762.019645
22029.285281,1998.556043,-8216.285956,2911.162892
22029.285615,296.082377,-10732.986159,4290.134789
22029.285948,3478.967927,-4885.359217,2604.724693
22029.286281,5773.606348,-10658.965565,7277.907231
22029.286614,2294.638420,-6883.915261,153.219100
22029.286947,1480.411884,-10066.800811,-1838.629195
22029.287280,0.000000,-10732.986159,-4290.134789
22029.287613,-1036.288319,-10807.006753,-2834.553343
22029.287946,-2368.659014,-10362.883188,-3294.210641
22029.288280,-1628.453072,-11177.109724,-1838.629195
22029.288613,518.144159,-11843.295072,-689.485948
22029.288946,-4441.235652,-9548.656652,1225.752797
22029.289279,4071.132681,-6513.812290,4826.401637
22029.289612,3478.967927,-4959.379811,4903.011187
22029.289945,4145.153275,-7105.977043,6052.154434
22029.290278,2294.638420,-10362.883188,2374.896044
22029.290611,1036.288319,-8660.409521,2374.896044
22029.290945,-666.185348,-8586.388927,-612.876398
22029.291278,-1332.370696,-9548.656652,-2221.676944
22029.291611,-1702.473667,-9770.718434,-3753.867940
22029.291944,-3552.988522,-13693.809927,-76.609550
22029.292277,-962.267725,-4811.338623,-6128.763984
22029.292610,-1776.494261,-11917.315666,0.000000
22029.292943,2886.803174,-9474.636058,-76.609550
22029.293276,1702.473667,-10658.965565,2374.896044
22029.293610,3775.050304,-9178.553681,4213.525239
22029.293943,3627.009116,-7698.141797,3447.429741
22029.294276,3182.885551,-10066.800811,3753.867940
22029.294609,3182.885551,-9770.718434,3217.601092
22029.294942,-296.082377,-9326.594869,2987.772442
22029.295275,1332.370696,-6883.915261,-3294.210641
22029.295608,-518.144159,-13323.706956,-1762.019645
22029.295942,518.144159,-9030.512492,-1685.410096
22029.296275,-2738.761985,-8364.327145,-3907.087040
22029.296608,-1406.391290,-11769.274478,842.705048
22029.296941,-666.185348,-8882.471304,-2528.115143
22029.297274,-3108.864956,-10732.986159,0.000000
22029.297607,2368.659014,-7105.977043,3140.991542
22029.297940,-74.020594,-10658.965565,2374.896044
22029.298273,2368.659014,-8808.450710,3447.429741
22029.298607,3478.967927,-7698.141797,4213.525239
22029.298940,888.247130,-8586.388927,995.924147
22029.299273,2960.823768,-7772.162391,612.876398
22029.299606,-1776.494261,-13397.727550,1762.019645
22029.299939,-2146.597232,-8660.409521,-4903.011187
22029.300272,-4145.153275,-9548.656652,0.000000
22029.300605,0.000000,-8512.368333,766.095498
22029.300938,0.000000,-7179.997637,0.000000
22029.301272,1998.556043,-10214.842000,3294.210641
22029.301605,592.164754,-7846.182985,995.924147
22029.301938,1776.494261,-8734.430116,2604.724693
22029.302271,2886.803174,-10658.965565,3600.648841
22029.302604,4663.297435,-11843.295072,3600.648841
22029.302937,296.082377,-7179.997637,3064.381992
22029.303270,4293.194464,-8586.388927,3600.648841
22029.303604,74.020594,-9622.677246,-3294.210641
22029.303937,-370.102971,-13175.665768,-995.924147
22029.304270,-1776.494261,-9326.594869,-1072.533697
22029.304603,-3552.988522,-9844.739029,-1915.238745
22029.304936,518.144159,-8586.388927,1378.971896
22029.305269,-4737.318029,-10732.986159,0.000000
22029.305602,2516.700203,-5403.503377,2374.896044
22029.305935,-3552.988522,-8364.327145,4903.011187
22029.306269,3478.967927,-9474.636058,2374.896044
22029.306602,592.164754,-4811.338623,0.000000
22029.306935,-3552.988522,-11325.150913,612.876398
22029.307268,2886.803174,-7994.224174,-1915.238745
22029.307601,-1702.473667,-11251.130318,-1762.019645
22029.307934,1998.556043,-8882.471304,-536.266849
22029.308267,-1258.350101,-10362.883188,-1608.800546
22029.308600,-2368.659014,-13027.624579,-76.609550
22029.308934,-3775.050304,-6587.832884,-3677.258390
22029.309267,-1776.494261,-7772.162391,612.876398
22029.309600,4367.215058,-10658.965565,3294.210641
22029.309933,3256.906145,-5995.668130,4903.011187
22029.310266,1110.308913,-7698.141797,1072.533697
22029.310599,1480.411884,-10066.800811,2987.772442
22029.310932,962.267725,-8586.388927,-459.657299
22029.311266,1110.308913,-9474.636058,-2987.772442
22029.311599,1480.411884,-14211.954086,-76.609550
22029.311932,-2886.803174,-11325.150913,-1149.143247
22029.312265,-370.102971,-8216.285956,-1838.629195
22029.312598,-2220.617826,-9326.594869,-1685.410096
22029.312931,-666.185348,-6809.894666,-2528.115143
22029.313264,-1184.329507,-10288.862594,2451.505594
22029.313597,4663.297435,-7105.977043,3600.648841
22029.313931,814.226536,-5403.503377,3983.696590
22029.314264,296.082377,-8068.244768,3677.258390
22029.314597,4071.132681,-5477.523971,1225.752797
22029.314930,370.102971,-9696.697840,-2068.457845
22029.315263,2368.659014,-9030.512492,-919.314598
22029.315596,-2368.659014,-11177.109724,-1991.848295
22029.315929,-888.247130,-11473.192101,-3064.381992
22029.316262,3478.967927,-13027.624579,-689.485948
22029.316596,0.000000,-10140.821405,2451.505594
22029.316929,0.000000,-7179.997637,3677.258390
22029.317262,2886.803174,-11251.130318,2374.896044
22029.317595,296.082377,-7179.997637,4290.134789
22029.317928,2294.638420,-5255.462188,2221.676944
22029.318261,2368.659014,-9918.759623,2757.943793
22029.318594,1110.308913,-9030.512492,1685.410096
22029.318928,3034.844362,-9474.636058,2681.334243
22029.319261,2886.803174,-7105.977043,-3753.867940
22029.319594,-3552.988522,-15026.180623,-2451.505594
22029.319927,-2960.823768,-10436.903782,-76.609550
22029.320260,-1554.432478,-10510.924376,-3140.991542
22029.320593,0.000000,-10807.006753,-76.609550
22029.320926,-2072.576638,-8364.327145,383.047749
22029.321259,518.144159,-9178.553681,1685.410096
22029.321593,1998.556043,-7772.162391,3677.258390
22029.321926,-1850.514855,-8290.306550,1762.019645
22029.322259,-1702.473667,-5403.503377,0.000000
22029.322592,1480.411884,-9474.636058,2987.772442
22029.322925,2146.597232,-9548.656652,0.000000
22029.323258,0.000000,-8364.327145,0.000000
22029.323591,-74.020594,-10362.883188,-76.609550
22029.323924,-1036.288319,-7772.162391,-3370.820191
22029.324258,-2590.720797,-11843.295072,-2451.505594
22029.324591,-2146.597232,-14137.933492,-842.705048
22029.324924,-666.185348,-9474.636058,536.266849
22029.325257,0.000000,-10807.006753,689.485948
22029.325590,3330.926739,-9400.615463,3064.381992
22029.325923,4663.297435,-7105.977043,4366.744339
22029.326256,1184.329507,-8956.491898,4903.011187
22029.326590,3849.070898,-6291.750507,5132.839837
22029.326923,-74.020594,-7994.224174,0.000000
22029.327256,1184.329507,-5551.544565,0.000000
22029.327589,-666.185348,-9474.636058,-689.485948
22029.327922,-3552.988522,-6587.832884,-4290.134789
22029.328255,-2368.659014,-9696.697840,-4366.744339
22029.328588,-3108.864956,-12731.542202,-1608.800546
22029.328921,-1184.329507,-7402.059420,-2757.943793
22029.329255,-666.185348,-12435.459826,-76.609550
22029.329588,444.123565,-9548.656652,3907.087040
22029.329921,4663.297435,-5921.647536,306.438199
22029.330254,5329.482782,-8364.327145,9346.365076
22029.330587,9400.615463,-7698.141797,6052.154434
22029.330920,6291.750507,-9178.553681,5132.839837
22029.331253,3108.864956,-9030.512492,-76.609550
22029.331586,1184.329507,-11177.109724,-1838.629195
22029.331920,-1702.473667,-12657.521608,-3370.820191
22029.332253,-2294.638420,-9918.759623,-4366.744339
22029.332586,-1776.494261,-13989.892304,-2681.334243
22029.332919,-4441.235652,-10732.986159,-4136.915689
22029.333252,0.000000,-8364.327145,2604.724693
22029.333585,3182.885551,-4737.318029,4213.525239
22029.333918,1480.411884,-4441.235652,3447.429741
22029.334252,1332.370696,-10066.800811,4213.525239
22029.334585,3627.009116,-5403.503377,3830.477490
22029.334918,814.226536,-8290.306550,1455.581446
22029.335251,1628.453072,-8290.306550,-459.657299
22029.335584,-2442.679609,-11843.295072,-4979.620737
22029.335917,-4737.318029,-12509.480420,-3677.258390
22029.336250,-4737.318029,-10732.986159,-4979.620737
22029.336583,-1850.514855,-15988.448347,-4979.620737
22029.336917,-1480.411884,-9548.656652,0.000000
22029.337250,-2294.638420,-8734.430116,-1532.190996
22029.337583,4071.132681,-9474.636058,6665.030833
22029.337916,1998.556043,-7994.224174,6741.640382
22029.338249,4219.173869,-4885.359217,5439.278036
22029.338582,1184.329507,-7179.997637,4903.011187
22029.338915,3552.988522,-6809.894666,-76.609550
22029.339248,1110.308913,-14878.139434,153.219100
22029.339582,-4737.318029,-7772.162391,1378.971896
22029.339915,-3182.885551,-11843.295072,-5056.230287
22029.340248,-7328.038826,-10140.821405,-4596.572988
22029.340581,-1702.473667,-10214.842000,-3294.210641
22029.340914,-4145.153275,-8068.244768,-536.266849
22029.341247,1184.329507,-7105.977043,2451.505594
22029.341580,0.000000,-7179.997637,4290.134789
22029.341914,2812.782580,-6291.750507,5592.497135
22029.342247,3997.112087,-6143.709319,4596.572988
22029.342580,3256.906145,-9252.574275,3830.477490
22029.342913,1702.473667,-7994.224174,229.828649
22029.343246,0.000000,-7772.162391,919.314598
22029.343579,1406.391290,-9178.553681,-2681.334243
22029.343912,-74.020594,-11917.315666,-6741.640382
22029.344245,-1184.329507,-12805.562797,-2068.457845
22029.344579,-74.020594,-9474.636058,-2528.115143
22029.344912,0.000000,-11917.315666,919.314598
22029.345245,740.205942,-8956.491898,1915.238745
22029.345578,5847.626942,-9474.636058,4213.525239
22029.345911,2368.659014,-8364.327145,6128.763984
22029.346244,3552.988522,-5995.668130,4903.011187
22029.346577,2294.638420,-5551.544565,0.000000
22029.346910,1184.329507,-9548.656652,0.000000
22029.347244,2886.803174,-7994.224174,-76.609550
22029.347577,-4737.318029,-12509.480420,-6435.202183
22029.347910,296.082377,-9770.718434,-4213.525239
22029.348243,-6217.729913,-10807.006753,-3753.867940
22029.348576,-370.102971,-6883.915261,-919.314598
22029.348909,1110.308913,-10658.965565,2374.896044
22029.349242,0.000000,-8364.327145,4213.525239
22029.349576,2294.638420,-4959.379811,1225.752797
22029.349909,-296.082377,-10510.924376,4213.525239
22029.350242,2146.597232,-8290.306550,842.705048
22029.350575,-740.205942,-10436.903782,2451.505594
22029.350908,3182.885551,-8882.471304,1378.971896
22029.351241,-814.226536,-7402.059420,153.219100
22029.351574,-666.185348,-10658.965565,-2451.505594
22029.351907,-962.267725,-7994.224174,-1302.362347
22029.352241,-1776.494261,-11251.130318,-383.047749
22029.352574,0.000000,-6587.832884,-3217.601092
22029.352907,-5921.647536,-14285.974681,612.876398
22029.353240,-74.020594,-10881.027347,-2834.553343
22029.353573,-962.267725,-11399.171507,5132.839837
22029.353906,5107.421000,-5551.544565,3677.258390
22029.354239,2886.803174,-10732.986159,4443.353888
22029.354572,2960.823768,-4885.359217,2451.505594
22029.354906,0.000000,-7772.162391,0.000000
22029.355239,-1850.514855,-7698.141797,-3907.087040
22029.355572,0.000000,-8660.409521,-2221.676944
22029.355905,-1258.350101,-13027.624579,1149.143247
22029.356238,-370.102971,-5995.668130,-2451.505594
22029.356571,-2220.617826,-6957.935855,-1762.019645
22029.356904,-2220.617826,-7476.080014,-2145.067394
22029.357237,1332.370696,-6883.915261,1302.362347
22029.357571,-2590.720797,-13101.645173,1455.581446
22029.357904,2368.659014,-8364.327145,2451.505594
22029.358237,1998.556043,-9844.739029,2451.505594
22029.358570,6291.750507,-3552.988522,1608.800546
22029.358903,1850.514855,-11991.336260,1991.848295
22029.359236,5255.462188,-7920.203579,1608.800546
22029.359569,0.000000,-11325.150913,-2298.286494
22029.359903,-74.020594,-11843.295072,-4060.306139
22029.360236,-2368.659014,-10732.986159,-3370.820191
22029.360569,0.000000,-13619.789333,-1915.238745
22029.360902,3478.967927,-9474.636058,1762.019645
22029.361235,-2368.659014,-6291.750507,0.000000
22029.361568,5699.585753,-7105.977043,2298.286494
22029.361901,-888.247130,-11325.150913,3830.477490
22029.362234,2442.679609,-8734.430116,2987.772442
22029.362568,3034.844362,-7402.059420,4826.401637
22029.362901,6735.874072,-6513.812290,3447.429741
22029.363234,1184.329507,-5995.668130,1225.752797
22029.363567,-1776.494261,-10066.800811,-76.609550
22029.363900,-3775.050304,-9770.718434,-7354.516781
22029.364233,-4737.318029,-12213.398043,-2834.553343
22029.364566,-3108.864956,-11843.295072,-5209.449386
22029.364899,-2590.720797,-11251.130318,-1378.971896
22029.365233,-1184.329507,-7105.977043,383.047749
22029.365566,2886.803174,-8290.306550,3600.648841
22029.365899,4663.297435,-5847.626942,3983.696590
22029.366232,4737.318029,-9474.636058,5439.278036
22029.366565,-74.020594,-15396.283594,4826.401637
22029.366898,74.020594,-8216.285956,0.000000
22029.367231,2590.720797,-8290.306550,-995.924147
22029.367565,2886.803174,-12509.480420,0.000000
22029.367898,2220.617826,-8586.388927,0.000000
22029.368231,-3330.926739,-9770.718434,-2221.676944
22029.368564,-4737.318029,-8364.327145,-4903.011187
22029.368897,-6513.812290,-8956.491898,-3677.258390
22029.369230,-4145.153275,-10955.047942,-1302.362347
22029.369563,962.267725,-5699.585753,3064.381992
22029.369896,-4441.235652,-7179.997637,6128.763984
22029.370230,4663.297435,-3552.988522,2987.772442
22029.370563,-444.123565,-6809.894666,3907.087040
22029.370896,-1776.494261,-9622.677246,383.047749
22029.371229,148.041188,-8956.491898,306.438199
22029.371562,-2368.659014,-11325.150913,-919.314598
22029.371895,1406.391290,-7105.977043,-4060.306139
22029.372228,-5329.482782,-11769.274478,-3983.696590
22029.372561,1554.432478,-8364.327145,-2757.943793
22029.372895,1628.453072,-14137.933492,3600.648841
22029.373228,4071.132681,-10658.965565,2374.896044
22029.373561,2368.659014,-9548.656652,4290.134789
22029.373894,2294.638420,-12435.459826,6052.154434
22029.374227,7624.121203,-5329.482782,2681.334243
22029.374560,4441.235652,-9474.636058,6281.983084
22029.374893,4737.318029,-6883.915261,2987.772442
22029.375227,-370.102971,-8734.430116,-766.095498
22029.375560,-3923.091493,-10214.842000,-5439.278036
22029.375893,-3627.009116,-10140.821405,-6665.030833
22029.376226,-3552.988522,-8660.409521,-3217.601092
22029.376559,-4145.153275,-7179.997637,-2451.505594
22029.376892,-1184.329507,-10658.965565,-383.047749
22029.377225,3478.967927,-9474.636058,4213.525239
22029.377558,2294.638420,-7698.141797,4979.620737
22029.377892,7846.182985,-8586.388927,7124.688131
22029.378225,1332.370696,-7105.977043,2221.676944
22029.378558,3108.864956,-9622.677246,2298.286494
22029.378891,1702.473667,-9252.574275,1225.752797
22029.379224,4071.132681,-9474.636058,-76.609550
22029.379557,0.000000,-13545.768739,0.000000
22029.379890,-2738.761985,-11843.295072,-4979.620737
22029.380223,-3627.009116,-8216.285956,-7048.078582
22029.380557,-2368.659014,-9548.656652,-1225.752797
22029.380890,814.226536,-10140.821405,306.438199
22029.381215,-962.267725,-9178.553681,2068.457845
22029.381548,1184.329507,-8364.327145,3217.601092
22029.381881,4811.338623,-6883.915261,5056.230287
22029.382215,1850.514855,-8364.327145,3983.696590
22029.382548,5699.585753,-10658.965565,6052.154434
22029.382881,1110.308913,-11547.212695,1149.143247
22029.383214,-3552.988522,-7772.162391,1225.752797
22029.383547,-666.185348,-11251.130318,-3753.867940
22029.383880,-4145.153275,-7328.038826,-3064.381992
22029.384213,-5477.523971,-9770.718434,-4443.353888
22029.384546,-4589.276840,-7920.203579,-2757.943793
22029.384879,-1924.535449,-8142.265362,1915.238745
22029.385212,1110.308913,-6217.729913,2987.772442
22029.385545,592.164754,-9548.656652,2451.505594
22029.385878,1036.288319,-9474.636058,4826.401637
22029.386211,4367.215058,-5403.503377,1378.971896
22029.386544,1184.329507,-7179.997637,2757.943793
22029.386877,6513.812290,-13915.871710,4826.401637
22029.387210,1776.494261,-8068.244768,0.000000
22029.387544,814.226536,-11843.295072,-2528.115143
22029.387877,-1258.350101,-9548.656652,-6128.763984
22029.388210,-74.020594,-11843.295072,-76.609550
22029.388543,-1480.411884,-8956.491898,153.219100
22029.388876,-740.205942,-9918.759623,-383.047749
22029.389209,-1702.473667,-7846.182985,229.828649
22029.389542,2368.659014,-5403.503377,2451.505594
22029.389875,3552.988522,-9548.656652,5975.544884
22029.390208,2738.761985,-8290.306550,3600.648841
22029.390541,592.164754,-4811.338623,0.000000
22029.390874,-2368.659014,-9844.739029,1302.362347
22029.391207,3256.906145,-9548.656652,766.095498
22029.391540,-1776.494261,-9474.636058,-1302.362347
22029.391873,-444.123565,-8734.430116,-3294.210641
22029.392206,-4737.318029,-11325.150913,-5286.058936
22029.392539,-1554.432478,-11843.295072,-2528.115143
22029.392873,-3923.091493,-10732.986159,229.828649
22029.393206,-1258.350101,-4219.173869,-3983.696590
22029.393539,0.000000,-9104.533087,2374.896044
22029.393872,4663.297435,-10214.842000,7277.907231
22029.394205,6809.894666,-6143.709319,6741.640382
22029.394538,2664.741391,-11547.212695,6358.592633
22029.394871,2960.823768,-8734.430116,1149.143247
22029.395204,222.061783,-12139.377449,-2374.896044
22029.395537,1480.411884,-11991.336260,-995.924147
22029.395870,0.000000,-6587.832884,995.924147
22029.396203,-2368.659014,-7179.997637,-3524.039291
22029.396536,-2072.576638,-8660.409521,1762.019645
22029.396869,-3627.009116,-9474.636058,-689.485948
22029.397202,-1258.350101,-5033.400406,-1302.362347
22029.397535,-3330.926739,-10658.965565,1455.581446
22029.397868,-888.247130,-7179.997637,2298.286494
22029.398202,0.000000,-6069.688724,3830.477490
22029.398535,1036.288319,-6143.709319,1455.581446
22029.398868,3478.967927,-9178.553681,1149.143247
22029.399201,0.000000,-7476.080014,1225.752797
22029.399534,3478.967927,-14211.954086,-76.609550
22029.399867,-666.185348,-8660.409521,-4290.134789
22029.400200,0.000000,-12509.480420,0.000000
22029.400533,518.144159,-10658.965565,-2757.943793
22029.400866,3627.009116,-8290.306550,1532.190996
22029.401199,-666.185348,-9844.739029,919.314598
22029.401532,4663.297435,-8438.347739,4213.525239
22029.401865,3478.967927,-6439.791695,2528.115143
22029.402198,2368.659014,-10732.986159,5975.544884
22029.402531,3478.967927,-7031.956449,919.314598
22029.402864,-2368.659014,-9548.656652,2451.505594
22029.403197,1184.329507,-10732.986159,-919.314598
22029.403531,-666.185348,-7179.997637,-1532.190996
22029.403864,-2738.761985,-8586.388927,-5056.230287
22029.404197,-1332.370696,-10658.965565,-3140.991542
22029.404530,-1554.432478,-9104.533087,-2145.067394
22029.404863,1110.308913,-9474.636058,-1302.362347
22029.405196,-1850.514855,-8586.388927,-76.609550
22029.405529,-296.082377,-8882.471304,-536.266849
22029.405862,74.020594,-11473.192101,2681.334243
22029.406195,3701.029710,-9400.615463,6665.030833
22029.406528,-74.020594,-9030.512492,2681.334243
22029.406861,2368.659014,-4811.338623,0.000000
22029.407194,3552.988522,-10362.883188,6665.030833
22029.407527,2590.720797,-7254.018232,0.000000
22029.407860,-2072.576638,-9548.656652,0.000000
22029.408193,-2368.659014,-11103.089130,-4749.792088
22029.408526,-222.061783,-11325.150913,-4903.011187
22029.408859,-3404.947333,-15470.304188,612.876398
22029.409193,3478.967927,-7698.141797,1149.143247
22029.409526,-74.020594,-10066.800811,536.266849
22029.409859,148.041188,-5995.668130,5286.058936
22029.410192,-74.020594,-8586.388927,3600.648841
22029.410525,1110.308913,-6513.812290,1302.362347
22029.410858,2146.597232,-8142.265362,5439.278036
22029.411191,-1036.288319,-8586.388927,2145.067394
22029.411524,518.144159,-7920.203579,1838.629195
22029.411857,-4589.276840,-8438.347739,-4366.744339
22029.412190,-1776.494261,-7179.997637,-4443.353888
22029.412523,-4811.338623,-8660.409521,-6128.763984
22029.412856,1184.329507,-9178.553681,-1915.238745
22029.413189,-370.102971,-11843.295072,-995.924147
22029.413522,2294.638420,-11103.089130,1378.971896
22029.413855,4293.194464,-6513.812290,4060.306139
22029.414188,4663.297435,-9474.636058,4596.572988
22029.414522,5921.647536,-9474.636058,4596.572988
22029.414855,2664.741391,-10066.800811,3600.648841
22029.415188,2664.741391,-8882.471304,919.314598
22029.415521,0.000000,-7179.997637,-1838.629195
22029.415854,-74.020594,-13619.789333,-689.485948
22029.416187,-1036.288319,-4219.173869,-4290.134789
22029.416520,-3552.988522,-14211.954086,-766.095498
22029.416853,-3997.112087,-9844.739029,-4290.134789
22029.417186,-1998.556043,-9030.512492,842.705048
22029.417519,-222.061783,-11251.130318,1762.019645
22029.417852,6143.709319,-5995.668130,5132.839837
22029.418185,1998.556043,-8290.306550,4826.401637
22029.418518,2368.659014,-7105.977043,2987.772442
22029.418851,2590.720797,-8068.244768,919.314598
22029.419184,0.000000,-9548.656652,612.876398
22029.419517,3478.967927,-10658.965565,-1915.238745
22029.419851,-4737.318029,-11325.150913,-4903.011187
22029.420184,1406.391290,-10955.047942,-3447.429741
22029.420517,-1110.308913,-11251.130318,2374.896044
22029.420850,4589.276840,-4737.318029,-689.485948
22029.421183,-1258.350101,-13323.706956,-76.609550
22029.421516,2664.741391,-10881.027347,2987.772442
22029.421849,-740.205942,-8068.244768,0.000000
22029.422182,1258.350101,-10510.924376,4290.134789
22029.422515,3923.091493,-6217.729913,4060.306139
22029.422848,1998.556043,-11843.295072,4826.401637
22029.423181,2960.823768,-5995.668130,2451.505594
22029.423514,-666.185348,-8290.306550,-3140.991542
22029.423847,-6513.812290,-8660.409521,-3830.477490
22029.424180,-4737.318029,-7772.162391,-3064.381992
22029.424513,-1258.350101,-11843.295072,-2528.115143
22029.424846,-962.267725,-8956.491898,383.047749
22029.425180,-2664.741391,-8290.306550,0.000000
22029.425513,222.061783,-7698.141797,-229.828649
22029.425846,1110.308913,-8660.409521,5745.716235
22029.426179,2664.741391,-7402.059420,5439.278036
22029.426512,3182.885551,-11843.295072,-76.609550
22029.426845,0.000000,-11325.150913,1225.752797
22029.427178,2072.576638,-9918.759623,-76.609550
22029.427511,1406.391290,-7772.162391,0.000000
22029.427844,2220.617826,-7994.224174,-76.609550
22029.428177,-3256.906145,-11621.233289,-2298.286494
22029.428510,-1406.391290,-10658.965565,-1608.800546
22029.428843,-2368.659014,-8364.327145,-2451.505594
22029.429176,-888.247130,-11843.295072,-76.609550
22029.429509,370.102971,-6291.750507,612.876398
22029.429842,0.000000,-7179.997637,6128.763984
22029.430175,1702.473667,-9474.636058,2374.896044
22029.430509,0.000000,-7179.997637,612.876398
22029.430842,888.247130,-9992.780217,-383.047749
22029.431175,1998.556043,-11547.212695,2604.724693
22029.431508,4663.297435,-7550.100608,2298.286494
22029.431841,-814.226536,-11547.212695,-76.609550
22029.432174,-74.020594,-9474.636058,-3753.867940
22029.432507,-3997.112087,-10140.821405,-3677.258390
22029.432840,-888.247130,-12731.542202,-76.609550
22029.433173,-74.020594,-7105.977043,-1915.238745
22029.433506,0.000000,-10732.986159,2145.067394
22029.433839,2886.803174,-10066.800811,4290.134789
22029.434172,2294.638420,-7550.100608,4749.792088
22029.434505,5107.421000,-5921.647536,2528.115143
22029.434838,5551.544565,-9326.594869,6052.154434
22029.435171,0.000000,-9030.512492,-919.314598
22029.435504,222.061783,-11547.212695,383.047749
22029.435838,-3627.009116,-10066.800811,-3447.429741
22029.436171,-1036.288319,-5403.503377,-5515.887586
22029.436504,-3552.988522,-10732.986159,612.876398
22029.436837,4367.215058,-10658.965565,2068.457845
22029.437170,-4145.153275,-5329.482782,-2221.676944
22029.437503,-1776.494261,-7179.997637,-919.314598
22029.437836,74.020594,-11843.295072,2681.334243
22029.438169,2664.741391,-6587.832884,4060.306139
22029.438502,2516.700203,-8290.306550,3753.867940
22029.438835,740.205942,-9400.615463,2374.896044
22029.439168,1184.329507,-7476.080014,1838.629195
22029.439501,-666.185348,-11177.109724,-842.705048
22029.439834,3478.967927,-9474.636058,-2834.553343
22029.440167,-4737.318029,-9548.656652,-2451.505594
22029.440500,-5921.647536,-10732.986159,-3217.601092
22029.440833,-3108.864956,-9104.533087,-2298.286494
22029.441166,-1702.473667,-9252.574275,995.924147
22029.441500,1110.308913,-7402.059420,3907.087040
22029.441833,4367.215058,-5477.523971,4979.620737
22029.442166,814.226536,-10658.965565,2374.896044
22029.442499,1184.329507,-8364.327145,3677.258390
22029.442832,814.226536,-9474.636058,-689.485948
22029.443165,0.000000,-9548.656652,2451.505594
22029.443498,2294.638420,-10658.965565,-689.485948
22029.443831,-1258.350101,-10362.883188,-3753.867940
22029.444164,-1628.453072,-10881.027347,-3140.991542
22029.444497,-962.267725,-9918.759623,153.219100
22029.444830,1628.453072,-9252.574275,995.924147
22029.445163,-1554.432478,-10955.047942,2451.505594
22029.445496,3404.947333,-7031.956449,4826.401637
22029.445829,-1184.329507,-7179.997637,2451.505594
22029.446162,0.000000,-6587.832884,5209.449386
22029.446495,1998.556043,-8882.471304,-76.609550
22029.446829,592.164754,-7772.162391,612.876398
22029.447162,-74.020594,-9918.759623,-1072.533697
22029.447495,-666.185348,-7624.121203,-3753.867940
22029.447828,888.247130,-11177.109724,-1915.238745
22029.448161,-888.247130,-12065.356855,-76.609550
22029.448494,1998.556043,-8290.306550,-1608.800546
22029.448827,-2368.659014,-10140.821405,1378.971896
22029.449160,1702.473667,-10066.800811,842.705048
22029.449493,1702.473667,-6291.750507,0.000000
22029.449826,1776.494261,-7476.080014,4903.011187
22029.450159,4663.297435,-7105.977043,1149.143247
22029.450492,2368.659014,-12879.583391,3217.601092
22029.450825,1184.329507,-9252.574275,4290.134789
22029.451158,1480.411884,-7772.162391,459.657299
22029.451491,-74.020594,-9474.636058,229.828649
22029.451824,-3775.050304,-8512.368333,-2604.724693
22029.452158,-3552.988522,-5699.585753,-3677.258390
22029.452491,-2812.782580,-5551.544565,-4673.182538
22029.452824,-4145.153275,-14878.139434,-3677.258390
22029.453157,-74.020594,-6809.894666,-1302.362347
22029.453490,-5773.606348,-14285.974681,-3370.820191
22029.453823,4737.318029,-4959.379811,4979.620737
22029.454156,-74.020594,-12287.418637,1378.971896
22029.454489,4737.318029,-5995.668130,2451.505594
22029.454822,3478.967927,-10658.965565,5745.716235
22029.455155,148.041188,-6291.750507,153.219100
22029.455488,6217.729913,-6661.853478,3294.210641
22029.455821,-1258.350101,-11843.295072,2221.676944
22029.456154,3478.967927,-9474.636058,-3753.867940
22029.456487,-7105.977043,-11029.068536,-536.266849
22029.456820,-1184.329507,-8364.327145,-1302.362347
22029.457153,-4219.173869,-7402.059420,-3447.429741
22029.457487,-1776.494261,-10732.986159,2145.067394
22029.457820,-370.102971,-6735.874072,-766.095498
22029.458153,-148.041188,-11843.295072,4519.963438
22029.458486,4145.153275,-6217.729913,2451.505594
22029.458819,1406.391290,-11843.295072,4213.525239
22029.459152,6439.791695,-5921.647536,689.485948
22029.459485,1776.494261,-8956.491898,2221.676944
22029.459818,3182.885551,-13323.706956,-2221.676944
22029.460151,4663.297435,-9178.553681,1838.629195
22029.460484,518.144159,-8734.430116,-1302.362347
22029.460817,1184.329507,-8364.327145,459.657299
22029.461150,-6661.853478,-11325.150913,-3677.258390
22029.461483,-2590.720797,-8882.471304,-1532.190996
22029.461816,-2368.659014,-9548.656652,1838.629195
22029.462149,3775.050304,-4367.215058,1225.752797
22029.462482,0.000000,-10732.986159,7201.297681
22029.462816,3478.967927,-5921.647536,842.705048
22029.463149,-1776.494261,-5995.668130,-2451.505594
22029.463482,0.000000,-5995.668130,-3753.867940
22029.463815,444.123565,-12731.542202,-1762.019645
22029.464148,-1406.391290,-12805.562797,-1225.752797
22029.464481,666.185348,-8882.471304,-3294.210641
22029.464814,-74.020594,-10362.883188,-76.609550
22029.465147,592.164754,-8364.327145,1838.629195
22029.465480,2294.638420,-11103.089130,2221.676944
22029.465813,4663.297435,-6661.853478,2911.162892
22029.466146,1184.329507,-10584.944971,1915.238745
22029.466479,3997.112087,-10732.986159,3830.477490
22029.466812,814.226536,-10288.862594,2068.457845
22029.467145,1924.535449,-6439.791695,766.095498
22029.467478,-814.226536,-7772.162391,-1991.848295
22029.467811,-74.020594,-11251.130318,-2528.115143
22029.468145,-5329.482782,-9844.739029,-2911.162892
22029.468478,-4959.379811,-9844.739029,-3983.696590
22029.468811,-888.247130,-6809.894666,-2374.896044
22029.469144,-1406.391290,-8882.471304,1149.143247
22029.469477,2812.782580,-9474.636058,4290.134789
22029.469810,296.082377,-5403.503377,0.000000
22029.470143,1332.370696,-11547.212695,4213.525239
22029.470476,814.226536,-8364.327145,1225.752797
22029.470809,2738.761985,-5107.421000,0.000000
22029.471142,1702.473667,-13915.871710,1149.143247
22029.471475,3256.906145,-6439.791695,153.219100
22029.471808,-1036.288319,-10066.800811,-2987.772442
22029.472141,740.205942,-10881.027347,-1838.629195
22029.472474,-74.020594,-10658.965565,-1302.362347
22029.472807,-2368.659014,-8364.327145,689.485948
22029.473140,0.000000,-9844.739029,2374.896044
22029.473473,-74.020594,-8290.306550,0.000000
22029.473807,0.000000,-8364.327145,3677.258390
22029.474140,3478.967927,-6957.935855,4213.525239
22029.474473,2664.741391,-7994.224174,1532.190996
22029.474806,444.123565,-11251.130318,1149.143247
22029.475139,222.061783,-11769.274478,153.219100
22029.475472,-2294.638420,-6587.832884,0.000000
22029.475805,0.000000,-9844.739029,2374.896044
22029.476138,1406.391290,-6439.791695,-689.485948
22029.476471,-3034.844362,-6291.750507,-3064.381992
22029.476804,1110.308913,-7105.977043,-1608.800546
22029.477137,-6809.894666,-10881.027347,-3600.648841
22029.477470,-1702.473667,-9918.759623,-4366.744339
22029.477803,0.000000,-11991.336260,2757.943793
22029.478136,740.205942,-9770.718434,2987.772442
22029.478469,3552.988522,-7179.997637,3677.258390
22029.478802,2294.638420,-13027.624579,4826.401637
22029.479136,3849.070898,-3627.009116,2451.505594
22029.479469,1406.391290,-8586.388927,2374.896044
22029.479802,4071.132681,-14211.954086,-76.609550
22029.480135,0.000000,-9548.656652,-3677.258390
22029.480468,-74.020594,-12731.542202,-2911.162892
22029.480801,0.000000,-10436.903782,-383.047749
22029.481134,-666.185348,-7920.203579,-995.924147
22029.481467,-2072.576638,-10881.027347,0.000000
22029.481800,-666.185348,-8882.471304,-919.314598
22029.482133,0.000000,-7772.162391,1685.410096
22029.482466,1332.370696,-8956.491898,3140.991542
22029.482799,4071.132681,-7994.224174,4060.306139
22029.483132,-1776.494261,-5995.668130,2451.505594
22029.483465,1628.453072,-8882.471304,1455.581446
22029.483798,-3182.885551,-6587.832884,-4903.011187
22029.484131,-2960.823768,-11029.068536,-995.924147
22029.484465,-74.020594,-8290.306550,-76.609550
22029.484798,0.000000,-5403.503377,-3677.258390
22029.485131,-1406.391290,-10288.862594,-2528.115143
22029.485464,1554.432478,-10510.924376,842.705048
22029.485797,592.164754,-9548.656652,1532.190996
22029.486130,4367.215058,-13619.789333,4826.401637
22029.486463,3849.070898,-12361.439231,6052.154434
22029.486796,2886.803174,-9474.636058,2528.115143
22029.487129,2960.823768,-5995.668130,0.000000
22029.487462,1776.494261,-8364.327145,1532.190996
22029.487795,0.000000,-8068.244768,1072.533697
22029.488128,-2960.823768,-7624.121203,-2298.286494
22029.488461,-5699.585753,-9178.553681,-6052.154434
22029.488794,-5847.626942,-11177.109724,-4673.182538
22029.489127,-2368.659014,-6291.750507,-2451.505594
22029.489460,1998.556043,-7698.141797,1762.019645
22029.489793,2294.638420,-6143.709319,2451.505594
22029.490126,3701.029710,-9474.636058,4826.401637
22029.490459,2294.638420,-12435.459826,4826.401637
22029.490793,3552.988522,-8660.409521,2451.505594
22029.491126,1406.391290,-11621.233289,3677.258390
22029.491459,1480.411884,-8512.368333,306.438199
22029.491792,-1258.350101,-8068.244768,-766.095498
22029.492125,-3701.029710,-9400.615463,-229.828649
22029.492458,-1554.432478,-4219.173869,-7354.516781
22029.492791,-3849.070898,-9844.739029,-4903.011187
22029.493124,-592.164754,-12139.377449,-76.609550
22029.493457,-3330.926739,-8068.244768,-2834.553343
22029.493790,1406.391290,-10658.965565,2374.896044
22029.494123,1998.556043,-7920.203579,2757.943793
22029.494456,5107.421000,-7105.977043,6052.154434
22029.494789,2368.659014,-9992.780217,4826.401637
22029.495122,4071.132681,-9178.553681,2374.896044
22029.495455,1702.473667,-4811.338623,0.000000
22029.495788,2590.720797,-13027.624579,-689.485948
22029.496121,2294.638420,-13027.624579,-1302.362347
22029.496454,-3478.967927,-7179.997637,-4290.134789
22029.496787,-814.226536,-9474.636058,-3907.087040
22029.497120,-4441.235652,-11399.171507,-2145.067394
22029.497454,-2220.617826,-8290.306550,-2374.896044
22029.497787,0.000000,-8364.327145,4060.306139
22029.498120,2886.803174,-6513.812290,4213.525239
22029.498453,2220.617826,-7624.121203,2221.676944
22029.498786,888.247130,-10214.842000,2834.553343
22029.499119,1850.514855,-7846.182985,-536.266849
22029.499452,-3552.988522,-10140.821405,0.000000
22029.499785,-74.020594,-11547.212695,-689.485948
22029.500118,0.000000,-6735.874072,-3677.258390
22029.500451,0.000000,-8660.409521,1149.143247
22029.500784,2886.803174,-7698.141797,-766.095498
22029.501117,-2072.576638,-6587.832884,-2145.067394
22029.501450,-814.226536,-10584.944971,-766.095498
22029.501783,-222.061783,-10362.883188,1378.971896
22029.502116,1406.391290,-10066.800811,1915.238745
22029.502449,4663.297435,-11547.212695,5439.278036
22029.502782,1110.308913,-9474.636058,4213.525239
22029.503115,0.000000,-5995.668130,0.000000
22029.503448,1110.308913,-12435.459826,4826.401637
22029.503782,2294.638420,-7994.224174,1149.143247
22029.504115,-2368.659014,-9474.636058,-2451.505594
22029.504448,-518.144159,-7846.182985,-689.485948
22029.504781,-5329.482782,-9770.718434,-3753.867940
22029.505114,-1406.391290,-6957.935855,0.000000
22029.505447,-814.226536,-7105.977043,-919.314598
22029.505780,666.185348,-12879.583391,3600.648841
22029.506113,0.000000,-7179.997637,6128.763984
22029.506446,2294.638420,-9474.636058,1149.143247
22029.506779,2294.638420,-11251.130318,-76.609550
22029.507112,1406.391290,-9178.553681,2374.896044
22029.507445,962.267725,-9548.656652,2528.115143
22029.507778,0.000000,-5033.400406,1762.019645
22029.508111,-2146.597232,-8956.491898,-5439.278036
22029.508444,-2960.823768,-11917.315666,0.000000
22029.508777,2294.638420,-5329.482782,-2068.457845
22029.509110,-3256.906145,-11325.150913,-4903.011187
22029.509443,-296.082377,-14063.912898,1149.143247
22029.509776,-74.020594,-9992.780217,612.876398
22029.510109,3552.988522,-9548.656652,5515.887586
22029.510443,5033.400406,-8216.285956,6665.030833
22029.510776,74.020594,-9178.553681,536.266849
22029.511109,4663.297435,-5773.606348,3907.087040
22029.511442,-74.020594,-11251.130318,1149.143247
22029.511775,0.000000,-7179.997637,-2145.067394
22029.512108,-1554.432478,-9474.636058,-4366.744339
22029.512441,-4145.153275,-7772.162391,-6741.640382
22029.512774,-2368.659014,-6587.832884,-689.485948
22029.513107,-1998.556043,-9622.677246,-1532.190996
22029.513440,1776.494261,-7624.121203,2451.505594
22029.513773,888.247130,-8512.368333,3294.210641
22029.514106,5033.400406,-8734.430116,3677.258390
22029.514439,6883.915261,-8882.471304,4826.401637
22029.514772,0.000000,-9548.656652,1225.752797
22029.515105,4663.297435,-9474.636058,689.485948
22029.515438,1406.391290,-13323.706956,-229.828649
22029.515771,1628.453072,-11621.233289,-1225.752797
22029.516104,-74.020594,-10658.965565,-689.485948
22029.516437,-2812.782580,-8364.327145,-3217.601092
22029.516771,-3552.988522,-7476.080014,-459.657299
22029.517104,-666.185348,-8142.265362,-2068.457845
22029.517437,-1628.453072,-8068.244768,-1225.752797
22029.517770,1480.411884,-8586.388927,3600.648841
22029.518103,0.000000,-12213.398043,4060.306139
22029.518436,3478.967927,-8142.265362,7124.688131
22029.518769,1554.432478,-8068.244768,4136.915689
22029.519102,4071.132681,-8734.430116,2374.896044
22029.519435,-2146.597232,-8660.409521,0.000000
22029.519768,-814.226536,-9178.553681,-3753.867940
22029.520101,-2442.679609,-6439.791695,-7048.078582
22029.520434,-7698.141797,-13101.645173,-5132.839837
22029.520767,-74.020594,-8290.306550,-1915.238745
22029.521100,-4737.318029,-11547.212695,-536.266849
22029.521433,296.082377,-7105.977043,-76.609550
22029.521766,-2590.720797,-10436.903782,2298.286494
22029.522099,2664.741391,-6587.832884,3983.696590
22029.522432,1184.329507,-5403.503377,6128.763984
22029.522765,3330.926739,-10658.965565,3600.648841
22029.523098,4367.215058,-5329.482782,229.828649
22029.523432,-2960.823768,-10732.986159,2451.505594
22029.523765,-74.020594,-7402.059420,-3294.210641
22029.524098,-444.123565,-6735.874072,-1915.238745
22029.524431,666.185348,-13693.809927,-2068.457845
22029.524764,1110.308913,-9474.636058,-153.219100
22029.525097,-4145.153275,-11473.192101,-2451.505594
22029.525430,-444.123565,-10362.883188,-76.609550
22029.525763,-1258.350101,-9474.636058,-3294.210641
22029.526096,1776.494261,-9548.656652,3064.381992
22029.526429,3552.988522,-7624.121203,7890.783629
22029.526762,2294.638420,-6291.750507,1532.190996
22029.527095,5625.565159,-6217.729913,4826.401637
22029.527428,1702.473667,-9030.512492,3524.039291
22029.527761,4737.318029,-5255.462188,1838.629195
22029.528094,-2220.617826,-10955.047942,-1838.629195
22029.528427,-1628.453072,-9918.759623,-4979.620737
22029.528760,-1850.514855,-11029.068536,-2987.772442
22029.529093,1110.308913,-7846.182985,-1302.362347
22029.529426,3182.885551,-8290.306550,-1915.238745
22029.529760,0.000000,-10066.800811,1149.143247
22029.530093,2368.659014,-9548.656652,4596.572988
22029.530426,2812.782580,-12731.542202,6052.154434
22029.530759,5847.626942,-10362.883188,2374.896044
22029.531092,4663.297435,-8882.471304,2221.676944
22029.531425,3923.091493,-9992.780217,4213.525239
22029.531758,3256.906145,-4663.297435,229.828649
22029.532091,-1332.370696,-8438.347739,-2451.505594
22029.532424,-3330.926739,-12287.418637,-3370.820191
22029.532757,-1850.514855,-11251.130318,-3140.991542
22029.533090,-4737.318029,-11325.150913,-1915.238745
22029.533423,-74.020594,-11251.130318,-1838.629195
22029.533756,-1480.411884,-8290.306550,3447.429741
22029.534089,1480.411884,-4811.338623,4903.011187
22029.534422,2590.720797,-8586.388927,4213.525239
22029.534755,-2738.761985,-9178.553681,-76.609550
22029.535088,0.000000,-9844.739029,459.657299
22029.535421,-888.247130,-10362.883188,1608.800546
22029.535754,-1110.308913,-6143.709319,-2374.896044
22029.536088,-1258.350101,-9474.636058,-1915.238745
22029.536421,-3330.926739,-6587.832884,-4903.011187
22029.536754,-1480.411884,-9030.512492,-1302.362347
22029.537087,-3849.070898,-12435.459826,-2068.457845
22029.537420,-2368.659014,-8364.327145,76.609550
22029.537753,-1554.432478,-8438.347739,0.000000
22029.538086,4737.318029,-10732.986159,4060.306139
22029.538419,3552.988522,-11325.150913,7967.393179
22029.538752,1776.494261,-6587.832884,4903.011187
22029.539085,4071.132681,-9474.636058,536.266849
22029.539418,-5921.647536,-11917.315666,-2451.505594
22029.539751,0.000000,-3627.009116,-2451.505594
22029.540084,-4811.338623,-11843.295072,-2528.115143
22029.540417,2368.659014,-5625.565159,-995.924147
22029.540750,-2812.782580,-7698.141797,153.219100
22029.541083,444.123565,-7105.977043,995.924147
22029.541416,-1628.453072,-7772.162391,-459.657299
22029.541749,-1554.432478,-13619.789333,-76.609550
22029.542082,3478.967927,-7402.059420,-2298.286494
22029.542415,4293.194464,-10140.821405,7890.783629
22029.542749,4367.215058,-11251.130318,842.705048
22029.543082,4071.132681,-4811.338623,2528.115143
22029.543415,-1924.535449,-16580.613101,-383.047749
22029.543748,2960.823768,-3182.885551,-1532.190996
22029.544081,962.267725,-14508.036463,2068.457845
22029.544414,5773.606348,-4367.215058,-383.047749
22029.544747,3478.967927,-10732.986159,4519.963438
22029.545080,518.144159,-4885.359217,-4213.525239
22029.545413,3849.070898,-9104.533087,229.828649
22029.545746,-1258.350101,-13175.665768,-1762.019645
22029.546079,3552.988522,-11325.150913,612.876398
22029.546412,-4737.318029,-15914.427753,995.924147
22029.546745,5551.544565,-10066.800811,0.000000
22029.547078,2294.638420,-7624.121203,4290.134789
22029.547411,6809.894666,-5181.441594,5822.325785
22029.547744,3478.967927,-4441.235652,4213.525239
22029.548077,-4737.318029,-8956.491898,-2911.162892
22029.548410,444.123565,-5181.441594,-5669.106685
22029.548743,-7846.182985,-14804.118840,-2987.772442
22029.549077,2664.741391,-7254.018232,-3677.258390
22029.549410,-7105.977043,-13693.809927,1072.533697
22029.549743,-74.020594,-9474.636058,-2834.553343
22029.550076,148.041188,-7179.997637,0.000000
22029.550409,-2960.823768,-12509.480420,5209.449386
22029.550742,3552.988522,-7179.997637,2451.505594
22029.551075,-1332.370696,-7846.182985,3064.381992
22029.551408,5403.503377,-5773.606348,3140.991542
22029.551741,-1184.329507,-9400.615463,3983.696590
22029.552074,2294.638420,-6809.894666,-383.047749
22029.552407,-5921.647536,-11843.295072,-2528.115143
22029.552740,-7772.162391,-9548.656652,-9193.145976
22029.553073,-1184.329507,-11695.253884,-3294.210641
22029.553406,-3627.009116,-15396.283594,1762.019645
22029.553739,2886.803174,-5921.647536,-76.609550
22029.554072,-3404.947333,-11177.109724,3370.820191
22029.554405,4959.379811,-4293.194464,5209.449386
22029.554738,-518.144159,-6365.771101,4673.182538
22029.555071,-1628.453072,-7179.997637,3677.258390
22029.555404,2294.638420,-7105.977043,2374.896044
22029.555738,-4145.153275,-8364.327145,0.000000
22029.556071,4441.235652,-7402.059420,-76.609550
22029.556404,-5699.585753,-8364.327145,-5515.887586
22029.556737,-3552.988522,-6735.874072,-7584.345430
22029.557070,-2072.576638,-7476.080014,-4749.792088
22029.557403,-888.247130,-14285.974681,-1072.533697
22029.557736,7476.080014,-9326.594869,3447.429741
22029.558069,2960.823768,-10510.924376,6281.983084
22029.558402,6439.791695,-5847.626942,1838.629195
22029.558735,9770.718434,-9474.636058,8503.660028
22029.559068,5847.626942,-14211.954086,3600.648841
22029.559401,4737.318029,-6291.750507,2757.943793
22029.559734,-3108.864956,-14285.974681,-3140.991542
22029.560067,1036.288319,-8142.265362,-4290.134789
22029.560400,1924.535449,-5329.482782,0.000000
22029.560733,-3627.009116,-11843.295072,-2145.067394
22029.561066,2368.659014,-7994.224174,1455.581446
22029.561399,-7920.203579,-2442.679609,-5822.325785
22029.561732,2516.700203,-9992.780217,-689.485948
22029.562066,962.267725,-4219.173869,3370.820191
22029.562399,2886.803174,-10066.800811,2298.286494
22029.562732,0.000000,-23168.445985,3677.258390
22029.563065,4071.132681,-12287.418637,1149.143247
22029.563398,6661.853478,8808.450710,0.000000
22029.563731,2886.803174,-9474.636058,3907.087040
22029.564064,-2442.679609,-15100.201217,-689.485948
22029.564397,-9474.636058,-11917.315666,-1838.629195
22029.564730,-4515.256246,-12879.583391,-2374.896044
22029.565063,0.000000,-10066.800811,-2068.457845
22029.565396,814.226536,-5255.462188,-3983.696590
22029.565729,2886.803174,-7105.977043,-2528.115143
22029.566062,1702.473667,-8956.491898,-2374.896044
22029.566395,5329.482782,-12213.398043,3677.258390
22029.566728,2590.720797,-15396.283594,11568.042020
22029.567061,1850.514855,-4811.338623,4903.011187
22029.567394,-1110.308913,-7105.977043,4826.401637
22029.567727,-3330.926739,-4293.194464,1455.581446
22029.568060,-3923.091493,-1850.514855,0.000000
22029.568394,-6587.832884,-5033.400406,-1225.752797
22029.568727,-4663.297435,-8882.471304,-1302.362347
22029.569060,-6587.832884,-9548.656652,0.000000
22029.569393,296.082377,-9474.636058,-383.047749
22029.569726,-4811.338623,-17764.942608,-2528.115143
22029.570059,-1184.329507,-8956.491898,-4903.011187
22029.570392,1110.308913,-15396.283594,-1991.848295
22029.570725,4737.318029,-11029.068536,612.876398
22029.571058,7328.038826,-13767.830521,3907.087040
22029.571391,7624.121203,-8290.306550,4213.525239
22029.571724,6513.812290,-5995.668130,766.095498
22029.572057,1480.411884,-11843.295072,612.876398
22029.572390,4959.379811,-9474.636058,-3140.991542
22029.572723,-2960.823768,-10732.986159,-4903.011187
22029.573056,1184.329507,-9844.739029,-76.609550
22029.573389,-2442.679609,-10658.965565,-6511.811733
22029.573722,148.041188,-7476.080014,-1915.238745
22029.574055,-444.123565,-7031.956449,919.314598
22029.574388,3182.885551,-7920.203579,2528.115143
22029.574721,0.000000,-10140.821405,3983.696590
22029.575055,-740.205942,-5329.482782,-153.219100
22029.575388,2368.659014,-6957.935855,2145.067394
22029.575721,-1258.350101,-7846.182985,1455.581446
22029.576054,5847.626942,-4737.318029,1762.019645
22029.576387,-5403.503377,-11843.295072,-689.485948
22029.576720,-1554.432478,-7772.162391,-3677.258390
22029.577053,-2960.823768,-12435.459826,-76.609550
22029.577386,2294.638420,-9474.636058,76.609550
22029.577719,4663.297435,-8216.285956,5286.058936
22029.578052,3256.906145,-11251.130318,6052.154434
22029.578385,7105.977043,-7920.203579,7814.174080
22029.578718,2738.761985,-7994.224174,7814.174080
22029.579051,1554.432478,-7698.141797,2068.457845
22029.579384,2368.659014,-8808.450710,2221.676944
22029.579717,-3552.988522,-10732.986159,3064.381992
22029.580050,1110.308913,-7105.977043,842.705048
22029.580383,-4811.338623,-7105.977043,-4979.620737
22029.580716,-4293.194464,-7179.997637,-3064.381992
22029.581049,-4219.173869,-6365.771101,-3447.429741
22029.581383,-4737.318029,-9770.718434,-1915.238745
22029.581716,-5625.565159,-11251.130318,-919.314598
22029.582049,-4737.318029,-13101.645173,1225.752797
22029.582382,2886.803174,-10658.965565,7277.907231
22029.582715,2664.741391,-8734.430116,6435.202183
22029.583048,6439.791695,-9474.636058,-76.609550
22029.583381,592.164754,-9844.739029,1378.971896
22029.583714,148.041188,-10732.986159,-1685.410096
22029.584047,1110.308913,-8660.409521,-3294.210641
22029.584380,-1998.556043,-14804.118840,-3753.867940
22029.584713,0.000000,-11473.192101,-2374.896044
22029.585046,-666.185348,-7031.956449,-1225.752797
22029.585379,740.205942,-8364.327145,-2451.505594
22029.585712,-74.020594,-9474.636058,-76.609550
22029.586045,-666.185348,-9474.636058,1455.581446
22029.586378,1184.329507,-7179.997637,3064.381992
22029.586711,2886.803174,-9474.636058,3907.087040
22029.587045,2294.638420,-11843.295072,4826.401637
22029.587378,1998.556043,-4737.318029,2374.896044
22029.587711,0.000000,-7179.997637,0.000000
22029.588044,-444.123565,-7328.038826,-766.095498
22029.588377,-1998.556043,-8216.285956,-2834.553343
22029.588710,-1850.514855,-7402.059420,-6128.763984
22029.589043,-2368.659014,-9548.656652,-1072.533697
22029.589376,2294.638420,-11843.295072,2374.896044
22029.589709,1110.308913,-6957.935855,1149.143247
22029.590042,1036.288319,-10362.883188,3600.648841
22029.590375,2812.782580,-9548.656652,5822.325785
22029.590708,5625.565159,-8882.471304,7967.393179
22029.591041,4515.256246,-9400.615463,5515.887586
22029.591374,5847.626942,-11029.068536,5745.716235
22029.591707,1184.329507,-9030.512492,919.314598
22029.592041,1850.514855,-7994.224174,153.219100
22029.592374,-1776.494261,-9400.615463,-2374.896044
22029.592707,-3256.906145,-7772.162391,-6128.763984
22029.593040,-2072.576638,-11621.233289,-2528.115143
22029.593373,-1554.432478,-10214.842000,-1149.143247
22029.593706,-666.185348,-4811.338623,-4290.134789
22029.594039,-592.164754,-10955.047942,2834.553343
22029.594372,-666.185348,-9474.636058,-689.485948
22029.594705,5107.421000,-8882.471304,5286.058936
22029.595038,-3701.029710,-13989.892304,3524.039291
22029.595371,6291.750507,-5033.400406,2221.676944
22029.595704,-3997.112087,-11473.192101,3064.381992
22029.596037,2368.659014,-5403.503377,2681.334243
22029.596370,2294.638420,-4219.173869,-3370.820191
22029.596704,-5921.647536,-11917.315666,-4903.011187
22029.597037,2664.741391,-8290.306550,-3294.210641
22029.597370,-7105.977043,-13101.645173,-6741.640382
22029.597703,2960.823768,-9918.759623,-1608.800546
22029.598036,-1184.329507,-12953.603985,2681.334243
22029.598369,6439.791695,-8882.471304,2374.896044
22029.598702,5847.626942,-9474.636058,7277.907231
22029.599035,592.164754,-11621.233289,5745.716235
22029.599368,1702.473667,-5403.503377,612.876398
22029.599701,0.000000,-9030.512492,4596.572988
22029.600034,1110.308913,-8882.471304,-76.609550
22029.600367,-1258.350101,-8290.306550,-76.609550
22029.600700,-1702.473667,-6883.915261,-3677.258390
22029.601033,-2294.638420,-9252.574275,-5286.058936
22029.601366,-3849.070898,-10288.862594,842.705048
22029.601700,-2368.659014,-5995.668130,-1838.629195
22029.602033,3182.885551,-11251.130318,2681.334243
22029.602366,3256.906145,-10140.821405,4290.134789
22029.602699,1184.329507,-11843.295072,4213.525239
22029.603032,1702.473667,-7476.080014,1378.971896
22029.603365,0.000000,-9548.656652,1532.190996
22029.603698,740.205942,-9474.636058,1149.143247
22029.604031,2294.638420,-9770.718434,383.047749
22029.604364,-2220.617826,-9104.533087,-3677.258390
22029.604697,-1850.514855,-8290.306550,-3753.867940
22029.605030,-3182.885551,-7179.997637,-2451.505594
22029.605363,666.185348,-9474.636058,-1608.800546
22029.605696,-74.020594,-11695.253884,-76.609550
22029.606029,-518.144159,-9548.656652,1225.752797
22029.606362,592.164754,-7772.162391,5209.449386
22029.606696,4367.215058,-9474.636058,2987.772442
22029.607029,5625.565159,-8364.327145,1302.362347
22029.607362,4663.297435,-14063.912898,4979.620737
22029.607695,3849.070898,-7105.977043,2068.457845
22029.608028,-2368.659014,-11917.315666,-306.438199
22029.608361,-1850.514855,-9178.553681,-4213.525239
22029.608694,-3923.091493,-9178.553681,-4903.011187
22029.609027,-814.226536,-7476.080014,-1225.752797
22029.609360,-370.102971,-8882.471304,-995.924147
22029.609693,-1480.411884,-5551.544565,0.000000
22029.610026,-74.020594,-12435.459826,3600.648841
22029.610359,1702.473667,-6291.750507,3217.601092
22029.610692,1184.329507,-12213.398043,4979.620737
22029.611025,4663.297435,-7994.224174,-76.609550
22029.611359,2516.700203,-14878.139434,3294.210641
22029.611692,1406.391290,-6957.935855,766.095498
22029.612025,4663.297435,-6513.812290,383.047749
22029.612358,-6513.812290,-9548.656652,-4903.011187
22029.612691,1480.411884,-8586.388927,-1302.362347
22029.613024,-5995.668130,-10436.903782,-4290.134789
22029.613357,0.000000,-8364.327145,612.876398
22029.613690,-2146.597232,-9474.636058,229.828649
22029.614023,1110.308913,-7179.997637,0.000000
22029.614356,4663.297435,-7698.141797,3600.648841
22029.614689,1332.370696,-10732.986159,3983.696590
22029.615022,5625.565159,-9474.636058,5592.497135
22029.615355,4219.173869,-9918.759623,4826.401637
22029.615688,1110.308913,-9474.636058,-995.924147
22029.616021,-4071.132681,-7179.997637,0.000000
22029.616355,-518.144159,-9474.636058,-1915.238745
22029.616688,-2442.679609,-9474.636058,-4060.306139
22029.617021,-4441.235652,-9104.533087,-3677.258390
22029.617354,-1850.514855,-8290.306550,-2987.772442
22029.617687,-3182.885551,-9474.636058,383.047749
22029.618020,-518.144159,-7698.141797,-689.485948
22029.618353,2294.638420,-11695.253884,2987.772442
22029.618686,5329.482782,-9696.697840,7277.907231
22029.619019,888.247130,-9474.636058,842.705048
22029.619352,2368.659014,-7772.162391,4596.572988
22029.619685,2886.803174,-10658.965565,1149.143247
22029.620018,3478.967927,-8290.306550,-76.609550
22029.620351,1702.473667,-9178.553681,-2757.943793
22029.620684,-3330.926739,-13989.892304,-2451.505594
22029.621017,-1332.370696,-8734.430116,-1302.362347
22029.621351,-6365.771101,-8364.327145,-2451.505594
22029.621684,-74.020594,-8290.306550,-76.609550
22029.622017,-5329.482782,-8364.327145,1532.190996
22029.622350,1776.494261,-5403.503377,5439.278036
22029.622683,-1850.514855,-7254.018232,1838.629195
22029.623016,2886.803174,-5847.626942,2068.457845
22029.623349,222.061783,-12435.459826,2451.505594
22029.623682,2886.803174,-9474.636058,1378.971896
22029.624015,1702.473667,-10362.883188,76.609550
22029.624348,-2368.659014,-8364.327145,-2451.505594
22029.624681,-148.041188,-10510.924376,-5745.716235
22029.625014,-3404.947333,-8734.430116,-2528.115143
22029.625347,1110.308913,-8586.388927,-1378.971896
22029.625680,-740.205942,-7920.203579,1149.143247
22029.626013,444.123565,-5403.503377,919.314598
22029.626347,5847.626942,-8290.306550,6665.030833
22029.626680,3627.009116,-7476.080014,4903.011187
22029.627013,3701.029710,-11843.295072,3600.648841
22029.627346,4071.132681,-13619.789333,4213.525239
22029.627679,-2368.659014,-9844.739029,0.000000
22029.628012,1406.391290,-7550.100608,-2221.676944
22029.628345,-3256.906145,-12065.356855,-3830.477490
22029.628678,74.020594,-4885.359217,-3830.477490
22029.629011,-4737.318029,-9548.656652,-1838.629195
22029.629344,-74.020594,-7105.977043,-2834.553343
22029.629677,-2368.659014,-7179.997637,0.000000
22029.630010,0.000000,-10140.821405,2987.772442
22029.630343,5847.626942,-7105.977043,3600.648841
22029.630676,1776.494261,-11917.315666,4903.011187
22029.631010,8512.368333,-6809.894666,5132.839837
22029.631343,1702.473667,-10955.047942,2145.067394
22029.631676,4589.276840,-9622.677246,1149.143247
22029.632009,-2738.761985,-12731.542202,-689.485948
22029.632342,-74.020594,-10658.965565,-6205.373534
22029.632675,-2368.659014,-8364.327145,0.000000
22029.633008,-3552.988522,-7772.162391,-689.485948
22029.633341,-74.020594,-5625.565159,-1991.848295
22029.633674,-5329.482782,-8290.306550,-2068.457845
22029.634007,-740.205942,-9548.656652,-2834.553343
22029.634340,-2664.741391,-11103.089130,1762.019645
22029.634673,3256.906145,-10362.883188,3907.087040
22029.635006,518.144159,-8586.388927,2757.943793
22029.635339,3849.070898,-7179.997637,2757.943793
22029.635672,2368.659014,-10140.821405,4826.401637
22029.636006,5847.626942,-6513.812290,1455.581446
22029.636339,1554.432478,-8660.409521,0.000000
22029.636672,962.267725,-9326.594869,-1608.800546
22029.637005,-3552.988522,-10584.944971,-2987.772442
22029.637338,-2442.679609,-8512.368333,-3983.696590
22029.637671,-2072.576638,-8364.327145,-2298.286494
22029.638004,-2368.659014,-7254.018232,-536.266849
22029.638337,0.000000,-7772.162391,3064.381992
22029.638670,-1184.329507,-10510.924376,2604.724693
22029.639003,666.185348,-9178.553681,3524.039291
22029.639336,1184.329507,-9918.759623,6052.154434
22029.639669,5847.626942,-11251.130318,4826.401637
22029.640002,2294.638420,-6735.874072,1225.752797
22029.640335,0.000000,-9474.636058,1225.752797
