#time,accel_x,accel_y,accel_z
22587.149355,5329.482782,-9770.718434,-76.609550
22587.149689,5847.626942,-11251.130318,-3140.991542
22587.150022,1776.494261,-9844.739029,-3677.258390
22587.150356,4663.297435,-11547.212695,-4826.401637
22587.150690,3256.906145,-10140.821405,-3370.820191
22587.151023,6217.729913,-9622.677246,-229.828649
22587.151357,10436.903782,-10288.862594,4826.401637
22587.151690,12953.603985,-8290.306550,4213.525239
22587.152024,11843.295072,-8068.244768,4903.011187
22587.152358,14730.098246,-9474.636058,4826.401637
22587.152691,11103.089130,-7179.997637,3370.820191
22587.153025,12139.377449,-9474.636058,2681.334243
22587.153358,8734.430116,-9548.656652,-1685.410096
22587.153692,5403.503377,-10881.027347,-4519.963438
22587.154026,1776.494261,-13471.748144,-5286.058936
22587.154359,518.144159,-13027.624579,-6205.373534
22587.154693,-74.020594,-9548.656652,-7354.516781
22587.155026,2368.659014,-10288.862594,2068.457845
22587.155360,7846.182985,-8586.388927,9116.536426
22587.155693,9992.780217,-2960.823768,7660.954980
22587.156027,12361.439231,-4441.235652,9422.974625
22587.156361,11843.295072,-6217.729913,7584.345430
22587.156694,12953.603985,-4811.338623,3907.087040
22587.157028,10881.027347,-6957.935855,-383.047749
22587.157361,7698.141797,-8364.327145,-6741.640382
22587.157695,4737.318029,-11917.315666,-9806.022374
22587.158029,4737.318029,-15322.262999,-8044.002729
22587.158362,5847.626942,-13471.748144,-8733.488677
22587.158696,3552.988522,-13101.645173,-4903.011187
22587.159029,6439.791695,-12139.377449,-2834.553343
22587.159363,8290.306550,-10658.965565,4136.915689
22587.159696,13989.892304,-5625.565159,10189.070123
22587.160030,16136.489536,-3923.091493,12640.575717
22587.160364,15988.448347,-3034.844362,11338.213370
22587.160697,15026.180623,-5329.482782,8197.221829
22587.161031,10732.986159,-8438.347739,2987.772442
22587.161364,7179.997637,-9474.636058,-3294.210641
22587.161698,1110.308913,-12435.459826,-8656.879127
22587.162032,-666.185348,-13619.789333,-9882.631924
22587.162365,-666.185348,-10955.047942,-9806.022374
22587.162699,3256.906145,-10436.903782,-4903.011187
22587.163032,7402.059420,-10955.047942,1455.581446
22587.163366,12953.603985,-8290.306550,5898.935335
22587.163699,14211.954086,-6661.853478,8044.002729
22587.164033,13397.727550,-6587.832884,6588.421283
22587.164367,13397.727550,-6883.915261,3600.648841
22587.164700,11695.253884,-7179.997637,1532.190996
22587.165034,12361.439231,-10288.862594,2068.457845
22587.165367,6217.729913,-7772.162391,-2451.505594
22587.165701,4737.318029,-11991.336260,-2834.553343
22587.166035,8808.450710,-13027.624579,-689.485948
22587.166368,8586.388927,-6291.750507,0.000000
22587.166702,12953.603985,-6217.729913,229.828649
22587.167035,13323.706956,-8216.285956,2451.505594
22587.167369,14656.077652,-6883.915261,1838.629195
22587.167702,15174.221811,-9474.636058,2451.505594
22587.168036,12953.603985,-10658.965565,842.705048
22587.168370,10066.800811,-14211.954086,612.876398
22587.168703,6365.771101,-13471.748144,-1302.362347
22587.169037,9104.533087,-7476.080014,-2145.067394
22587.169370,11843.295072,-7772.162391,3064.381992
22587.169704,12509.480420,-3775.050304,3830.477490
22587.170038,11473.192101,-7550.100608,4136.915689
22587.170371,10140.821405,-6661.853478,1532.190996
22587.170705,8512.368333,-9696.697840,-1455.581446
22587.171038,8438.347739,-9548.656652,-4903.011187
22587.171372,13767.830521,-11843.295072,-383.047749
22587.171705,10658.965565,-7994.224174,-2145.067394
22587.172039,11843.295072,-8660.409521,1225.752797
22587.172373,14137.933492,-13027.624579,2374.896044
22587.172706,11251.130318,-11621.233289,3600.648841
22587.173040,10881.027347,-8438.347739,2221.676944
22587.173373,10066.800811,-8808.450710,995.924147
22587.173707,10584.944971,-7846.182985,1915.238745
22587.174041,10066.800811,-6809.894666,3370.820191
22587.174374,11769.274478,-7105.977043,536.266849
22587.174708,5921.647536,-9844.739029,1225.752797
22587.175041,5921.647536,-7772.162391,919.314598
22587.175375,11177.109724,-9474.636058,-689.485948
22587.175709,10362.883188,-7846.182985,-689.485948
22587.176042,9030.512492,-8364.327145,-2834.553343
22587.176376,8290.306550,-12287.418637,-1455.581446
22587.176709,9474.636058,-11769.274478,766.095498
22587.177043,11547.212695,-7846.182985,3600.648841
22587.177376,13693.809927,-9844.739029,3677.258390
22587.177710,9992.780217,-8438.347739,2604.724693
22587.178044,5847.626942,-10658.965565,-689.485948
22587.178377,7179.997637,-8364.327145,-1225.752797
22587.178711,7476.080014,-7476.080014,1225.752797
22587.179044,11769.274478,-9326.594869,2374.896044
22587.179378,8808.450710,-4811.338623,0.000000
22587.179712,3552.988522,-11325.150913,-1225.752797
22587.180045,7550.100608,-10658.965565,-1915.238745
22587.180379,8956.491898,-8956.491898,1072.533697
22587.180712,14730.098246,-6439.791695,3524.039291
22587.181046,9844.739029,-6143.709319,2528.115143
22587.181379,6513.812290,-11621.233289,612.876398
22587.181713,5921.647536,-7179.997637,-1225.752797
22587.182047,11769.274478,-11843.295072,-76.609550
22587.182380,10288.862594,-8290.306550,-76.609550
22587.182714,3552.988522,-8068.244768,-2451.505594
22587.183047,7402.059420,-9548.656652,-4136.915689
22587.183381,10955.047942,-10807.006753,2834.553343
22587.183715,15322.262999,-5921.647536,5132.839837
22587.184048,14211.954086,-7772.162391,7277.907231
22587.184382,10584.944971,-7698.141797,-383.047749
22587.184715,11843.295072,-9844.739029,2374.896044
22587.185049,11769.274478,-7179.997637,0.000000
22587.185382,10955.047942,-7476.080014,0.000000
22587.185716,11769.274478,-8808.450710,-1915.238745
22587.186050,5847.626942,-13027.624579,-3140.991542
22587.186383,9252.574275,-7031.956449,-2145.067394
22587.186717,7328.038826,-11843.295072,-1455.581446
22587.187050,8290.306550,-11177.109724,-536.266849
22587.187384,7105.977043,-6587.832884,1225.752797
22587.187718,12953.603985,-9326.594869,4826.401637
22587.188051,15692.365970,-74.020594,2757.943793
22587.188385,11843.295072,-9844.739029,5209.449386
22587.188718,15618.345376,-10362.883188,2374.896044
22587.189052,11325.150913,-9548.656652,0.000000
22587.189385,11399.171507,-10140.821405,-995.924147
22587.189719,8142.265362,-12583.501014,-7354.516781
22587.190053,8364.327145,-11991.336260,-2681.334243
22587.190386,7994.224174,-11473.192101,-76.609550
22587.190720,11177.109724,-5699.585753,0.000000
22587.191053,9178.553681,-10658.965565,4519.963438
22587.191387,8216.285956,-9474.636058,-76.609550
22587.191721,7105.977043,-8364.327145,5515.887586
22587.192054,8586.388927,-4811.338623,4366.744339
22587.192388,12731.542202,-6439.791695,4903.011187
22587.192721,8290.306550,-9548.656652,4366.744339
22587.193055,11251.130318,-6587.832884,1225.752797
22587.193388,8216.285956,-9474.636058,-383.047749
22587.193722,7550.100608,-7920.203579,-4903.011187
22587.194056,6439.791695,-10066.800811,-5592.497135
22587.194389,4071.132681,-11695.253884,-4290.134789
22587.194723,7105.977043,-10510.924376,-3140.991542
22587.195056,8290.306550,-10140.821405,-76.609550
22587.195390,14137.933492,-7846.182985,689.485948
22587.195724,10066.800811,-9548.656652,6741.640382
22587.196057,11621.233289,-13027.624579,7277.907231
22587.196391,11769.274478,-3552.988522,3830.477490
22587.196724,5329.482782,-12509.480420,5362.668486
22587.197058,11769.274478,-3108.864956,3983.696590
22587.197392,7031.956449,-5995.668130,153.219100
22587.197725,4885.359217,-8512.368333,-1455.581446
22587.198059,4663.297435,-8290.306550,-4979.620737
22587.198392,-74.020594,-11177.109724,-6128.763984
22587.198726,1184.329507,-13619.789333,-3677.258390
22587.199059,1628.453072,-8882.471304,-2528.115143
22587.199393,1702.473667,-8512.368333,-4903.011187
22587.199727,2738.761985,-11843.295072,-1302.362347
22587.200060,7328.038826,-8808.450710,3753.867940
22587.200394,4737.318029,-10955.047942,2987.772442
22587.200727,10214.842000,-8512.368333,7431.126331
22587.201061,5329.482782,-4811.338623,2451.505594
22587.201395,7624.121203,-5995.668130,1225.752797
22587.201728,5033.400406,-12435.459826,1149.143247
22587.202062,3478.967927,-8290.306550,-689.485948
22587.202395,1480.411884,-7179.997637,-2451.505594
22587.202729,1110.308913,-10066.800811,-2451.505594
22587.203062,4293.194464,-6513.812290,-3753.867940
22587.203396,-1406.391290,-14804.118840,-1762.019645
22587.203730,7476.080014,-6217.729913,1378.971896
22587.204063,1184.329507,-11325.150913,2451.505594
22587.204397,4589.276840,-9178.553681,3370.820191
22587.204730,6439.791695,-8290.306550,2374.896044
22587.205064,740.205942,-7772.162391,2451.505594
22587.205398,5329.482782,-3330.926739,4213.525239
22587.205731,5847.626942,-7772.162391,0.000000
22587.206065,7772.162391,-8586.388927,-2834.553343
22587.206398,1628.453072,-14952.160028,4290.134789
22587.206732,1924.535449,-6957.935855,-5745.716235
22587.207065,2368.659014,-14359.995275,1225.752797
22587.207399,814.226536,-10066.800811,-2528.115143
22587.207733,5625.565159,-8068.244768,3370.820191
22587.208066,2368.659014,-6661.853478,3140.991542
22587.208400,5255.462188,-9474.636058,1762.019645
22587.208733,2368.659014,-9474.636058,4826.401637
22587.209067,3552.988522,-7772.162391,5515.887586
22587.209401,5551.544565,-3552.988522,3294.210641
22587.209734,-1554.432478,-5995.668130,-7048.078582
22587.210068,-370.102971,-10955.047942,-4979.620737
22587.210401,-3627.009116,-13619.789333,-3753.867940
22587.210735,518.144159,-11473.192101,-5362.668486
22587.211068,-1702.473667,-10881.027347,-2068.457845
22587.211402,-2516.700203,-11399.171507,-3370.820191
22587.211736,3182.885551,-9474.636058,3600.648841
22587.212069,5329.482782,-8364.327145,7277.907231
22587.212403,7031.956449,-8882.471304,9269.755526
22587.212736,5921.647536,-3627.009116,6435.202183
22587.213070,3256.906145,-11029.068536,4903.011187
22587.213404,3478.967927,-4589.276840,2451.505594
22587.213737,2146.597232,-7920.203579,-2604.724693
22587.214071,222.061783,-10066.800811,-1991.848295
22587.214404,-2738.761985,-11251.130318,-5439.278036
22587.214738,-9474.636058,-10732.986159,-9193.145976
22587.215071,-4811.338623,-12731.542202,-3140.991542
22587.215405,-3923.091493,-11843.295072,-3140.991542
22587.215739,-2738.761985,-7179.997637,306.438199
22587.216072,4071.132681,-10658.965565,9729.412825
22587.216406,592.164754,-5181.441594,6358.592633
22587.216739,2368.659014,-6735.874072,6358.592633
22587.217073,4071.132681,-9178.553681,4673.182538
22587.217407,5329.482782,-4811.338623,2528.115143
22587.217740,1184.329507,-8660.409521,3677.258390
22587.218074,-1258.350101,-10658.965565,-6818.249932
22587.218407,-4737.318029,-11917.315666,-6741.640382
22587.218741,-4737.318029,-13397.727550,-1915.238745
22587.219074,-74.020594,-7698.141797,-1149.143247
22587.219408,-4071.132681,-11177.109724,1762.019645
22587.219742,0.000000,-4367.215058,-3064.381992
22587.220075,-5699.585753,-12731.542202,1915.238745
22587.220409,5995.668130,-3182.885551,6511.811733
22587.220742,5255.462188,-10658.965565,6052.154434
22587.221076,4145.153275,-4811.338623,6435.202183
22587.221410,-888.247130,-11473.192101,2374.896044
22587.221743,-666.185348,-4737.318029,-4366.744339
22587.222077,592.164754,-7179.997637,-2451.505594
22587.222410,-2664.741391,-13027.624579,-4060.306139
22587.222744,-1554.432478,-8586.388927,-5975.544884
22587.223078,-9844.739029,-16432.571912,-5439.278036
22587.223411,0.000000,-11029.068536,-229.828649
22587.223745,2886.803174,-8882.471304,2987.772442
22587.224078,5329.482782,-9252.574275,6052.154434
22587.224412,5033.400406,-3775.050304,7124.688131
22587.224745,222.061783,-9696.697840,4519.963438
22587.225079,2368.659014,-5995.668130,7354.516781
22587.225413,3182.885551,-6513.812290,4213.525239
22587.225746,2294.638420,-8660.409521,-6128.763984
22587.226080,-6513.812290,-9548.656652,-2451.505594
22587.226413,-4441.235652,-11251.130318,-8350.440928
22587.226747,-3478.967927,-13175.665768,-5515.887586
22587.227081,518.144159,-9178.553681,536.266849
22587.227414,-1480.411884,-10732.986159,-3983.696590
22587.227748,-666.185348,-12953.603985,76.609550
22587.228081,4663.297435,-9474.636058,6052.154434
22587.228415,5847.626942,-9474.636058,5745.716235
22587.228748,6365.771101,-4811.338623,11031.775171
22587.229082,3849.070898,-8586.388927,9729.412825
22587.229416,2886.803174,-5921.647536,-2528.115143
22587.229749,1406.391290,-9474.636058,-76.609550
22587.230083,2738.761985,-5921.647536,-5209.449386
22587.230416,-814.226536,-12953.603985,-2757.943793
22587.230750,-2368.659014,-10288.862594,-3064.381992
22587.231084,-9178.553681,-14285.974681,-7201.297681
22587.231417,-74.020594,-10658.965565,-2528.115143
22587.231751,0.000000,-9844.739029,4903.011187
22587.232084,2886.803174,-7105.977043,3600.648841
22587.232418,2812.782580,-3034.844362,2834.553343
22587.232751,-1554.432478,-10362.883188,4519.963438
22587.233085,8068.244768,-3330.926739,5056.230287
22587.233419,3552.988522,-11547.212695,7354.516781
22587.233752,3478.967927,-3997.112087,-842.705048
22587.234086,-4737.318029,-13101.645173,-3983.696590
22587.234419,-6587.832884,-8882.471304,-10572.117872
22587.234753,-5921.647536,-14804.118840,-1991.848295
22587.235087,-3627.009116,-9474.636058,-2528.115143
22587.235420,-1480.411884,-9548.656652,-2451.505594
22587.235754,-6513.812290,-13397.727550,1225.752797
22587.236087,148.041188,-6217.729913,1149.143247
22587.236421,148.041188,-8660.409521,6281.983084
22587.236754,5847.626942,-4737.318029,7277.907231
22587.237088,2294.638420,-7698.141797,2374.896044
22587.237422,0.000000,-5995.668130,2451.505594
22587.237755,1702.473667,-13027.624579,536.266849
22587.238089,1184.329507,-6217.729913,-2374.896044
22587.238422,-2368.659014,-10732.986159,0.000000
22587.238756,-5181.441594,-12657.521608,-919.314598
22587.239090,-2960.823768,-4589.276840,-9346.365076
22587.239423,-7624.121203,-16876.695478,-1608.800546
22587.239757,3404.947333,-5403.503377,-1072.533697
22587.240090,-1998.556043,-11843.295072,2681.334243
22587.240424,1184.329507,-6291.750507,4290.134789
22587.240757,222.061783,-9696.697840,3294.210641
22587.241091,5033.400406,-5181.441594,4749.792088
22587.241425,7624.121203,-7994.224174,7507.735880
22587.241758,4071.132681,-5921.647536,-1302.362347
22587.242092,296.082377,-10140.821405,-2911.162892
22587.242425,-2442.679609,-15396.283594,-6205.373534
22587.242759,592.164754,-8956.491898,-3064.381992
22587.243093,592.164754,-13101.645173,-1455.581446
22587.243426,2738.761985,-13027.624579,-1302.362347
22587.243760,-518.144159,-10140.821405,1455.581446
22587.244093,-518.144159,-8068.244768,0.000000
22587.244427,5551.544565,-7994.224174,7277.907231
22587.244761,444.123565,-4219.173869,5515.887586
22587.245094,4737.318029,-4219.173869,3677.258390
22587.245428,-1258.350101,-9326.594869,689.485948
22587.245761,-370.102971,-6587.832884,-4903.011187
22587.246095,592.164754,-8512.368333,-612.876398
22587.246428,-74.020594,-10658.965565,-2451.505594
22587.246762,-666.185348,-9178.553681,-6818.249932
22587.247095,-3627.009116,-13027.624579,-6818.249932
22587.247429,-3923.091493,-15692.365970,-76.609550
22587.247762,3552.988522,-5995.668130,612.876398
22587.248096,1776.494261,-16062.468941,12180.918418
22587.248429,3478.967927,-2294.638420,5745.716235
22587.248763,0.000000,-4811.338623,0.000000
22587.249096,1628.453072,-11251.130318,5745.716235
22587.249430,2368.659014,-3627.009116,1838.629195
22587.249763,444.123565,-8586.388927,612.876398
22587.250097,-1332.370696,-10288.862594,-1225.752797
22587.250430,-7105.977043,-14656.077652,-5898.935335
22587.250763,-2442.679609,-8290.306550,-4979.620737
22587.251097,-1258.350101,-10362.883188,-1685.410096
22587.251430,-888.247130,-7550.100608,-76.609550
22587.251764,-1850.514855,-13915.871710,-76.609550
22587.252097,-5403.503377,-11917.315666,-2451.505594
22587.252431,6439.791695,-4737.318029,5745.716235
22587.252764,1406.391290,-10214.842000,7354.516781
22587.253098,6365.771101,-6365.771101,7737.564530
22587.253431,-962.267725,-8290.306550,2987.772442
22587.253765,-2960.823768,-7179.997637,229.828649
22587.254098,222.061783,-4811.338623,-2451.505594
22587.254432,-2516.700203,-11177.109724,-1225.752797
22587.254765,1702.473667,-9474.636058,-2528.115143
22587.255098,-8956.491898,-11621.233289,-6741.640382
22587.255432,-6143.709319,-13027.624579,-4366.744339
22587.255765,-4145.153275,-6439.791695,-1225.752797
22587.256099,1998.556043,-9178.553681,842.705048
22587.256432,1554.432478,-8290.306550,2681.334243
22587.256766,0.000000,-9548.656652,2451.505594
22587.257099,2368.659014,-11177.109724,7048.078582
22587.257433,6143.709319,-5255.462188,7201.297681
22587.257766,5255.462188,-7031.956449,2681.334243
22587.258100,4515.256246,-7698.141797,1455.581446
22587.258433,-4737.318029,-10732.986159,-6741.640382
22587.258767,-1998.556043,-10140.821405,-5745.716235
22587.259100,0.000000,-10140.821405,-1532.190996
22587.259434,1702.473667,-10436.903782,-1302.362347
22587.259767,-74.020594,-9474.636058,-1302.362347
22587.260100,-2368.659014,-13693.809927,2374.896044
22587.260434,2664.741391,-5995.668130,4903.011187
22587.260767,7031.956449,-2368.659014,4519.963438
22587.261101,4071.132681,-9030.512492,4826.401637
22587.261434,3478.967927,-8882.471304,3294.210641
22587.261768,-1480.411884,-9548.656652,0.000000
22587.262101,2368.659014,-9548.656652,1532.190996
22587.262435,6439.791695,-11251.130318,-842.705048
22587.262768,-4589.276840,-9548.656652,-3370.820191
22587.263102,-666.185348,-10955.047942,-5898.935335
22587.263435,-5551.544565,-12213.398043,-3064.381992
22587.263769,888.247130,-7772.162391,0.000000
22587.264102,3182.885551,-8512.368333,5209.449386
22587.264435,2738.761985,-5625.565159,3907.087040
22587.264769,-3552.988522,-7179.997637,3217.601092
22587.265102,1110.308913,-10066.800811,5439.278036
22587.265436,3330.926739,-1554.432478,0.000000
22587.265769,2368.659014,-9326.594869,5669.106685
22587.266103,-1258.350101,-7179.997637,-4136.915689
22587.266436,-6513.812290,-12583.501014,-3907.087040
22587.266770,-1776.494261,-10955.047942,-6818.249932
22587.267103,2368.659014,-10732.986159,1532.190996
22587.267437,-1480.411884,-8364.327145,-1838.629195
22587.267770,-4737.318029,-15840.407159,-76.609550
22587.268104,-6143.709319,-9696.697840,-3370.820191
22587.268437,-2368.659014,-8956.491898,0.000000
22587.268770,8660.409521,-11251.130318,12180.918418
22587.269104,5181.441594,-740.205942,6128.763984
22587.269437,888.247130,-9474.636058,6281.983084
22587.269771,-4737.318029,-6587.832884,-919.314598
22587.270104,2294.638420,-8734.430116,2757.943793
22587.270438,1332.370696,-10436.903782,0.000000
22587.270771,4663.297435,-3849.070898,229.828649
22587.271105,-9326.594869,-11473.192101,-5669.106685
22587.271438,-6439.791695,-9474.636058,-12334.137518
22587.271772,-962.267725,-13027.624579,-2528.115143
22587.272105,-1258.350101,-14804.118840,-1225.752797
22587.272439,6513.812290,-6587.832884,5822.325785
22587.272772,-3849.070898,-14508.036463,2987.772442
22587.273106,4663.297435,-7254.018232,3217.601092
22587.273439,7031.956449,-5477.523971,9116.536426
22587.273772,12435.459826,-4811.338623,9346.365076
22587.274106,5551.544565,-5255.462188,5056.230287
22587.274439,-5255.462188,-13767.830521,-5132.839837
22587.274773,-1480.411884,-6587.832884,-4903.011187
22587.275106,-4219.173869,-12435.459826,-8580.269578
22587.275440,4663.297435,-9474.636058,-4979.620737
22587.275773,-7550.100608,-11029.068536,-4903.011187
22587.276107,-4737.318029,-11325.150913,-4136.915689
22587.276440,-1776.494261,-10288.862594,2145.067394
22587.276774,7105.977043,-5107.421000,7048.078582
22587.277107,7994.224174,-8290.306550,7890.783629
22587.277441,5551.544565,-8290.306550,7890.783629
22587.277774,5847.626942,-9178.553681,2374.896044
22587.278107,3775.050304,-4811.338623,2451.505594
22587.278441,2294.638420,-11843.295072,-2528.115143
22587.278774,296.082377,-7179.997637,-4290.134789
22587.279108,-5847.626942,-15100.201217,-4979.620737
22587.279441,-5403.503377,-14804.118840,-10572.117872
22587.279775,-888.247130,-8808.450710,536.266849
22587.280108,296.082377,-12435.459826,1608.800546
22587.280442,5625.565159,-4367.215058,9193.145976
22587.280775,-1258.350101,-7402.059420,6665.030833
22587.281109,2368.659014,-3627.009116,3217.601092
22587.281442,4071.132681,-7179.997637,4903.011187
22587.281776,1184.329507,-4811.338623,1838.629195
22587.282109,4071.132681,-10066.800811,-1991.848295
22587.282442,-9178.553681,-14804.118840,-7737.564530
22587.282776,-370.102971,-13027.624579,-5286.058936
22587.283109,-5181.441594,-11325.150913,-2987.772442
22587.283443,3182.885551,-8808.450710,-1838.629195
22587.283776,-7328.038826,-8216.285956,-1991.848295
22587.284110,-1850.514855,-13027.624579,-76.609550
22587.284443,0.000000,-8660.409521,9806.022374
22587.284777,5255.462188,-3552.988522,8503.660028
22587.285110,6439.791695,-5921.647536,6052.154434
22587.285444,-3552.988522,-3627.009116,919.314598
22587.285777,-666.185348,-9178.553681,-1915.238745
22587.286111,-2442.679609,-10658.965565,-4060.306139
22587.286444,4737.318029,-6587.832884,-5362.668486
22587.286778,-3330.926739,-17764.942608,-3294.210641
22587.287111,-2738.761985,-12287.418637,-5286.058936
22587.287444,-2146.597232,-11843.295072,-5056.230287
22587.287778,-2664.741391,-12139.377449,1455.581446
22587.288111,4293.194464,-7031.956449,2145.067394
22587.288445,2368.659014,-6587.832884,5515.887586
22587.288778,1998.556043,-7994.224174,3600.648841
22587.289112,1924.535449,-4811.338623,2298.286494
22587.289445,4737.318029,-7179.997637,9116.536426
22587.289779,6143.709319,-6735.874072,3217.601092
22587.290112,222.061783,-5699.585753,0.000000
22587.290446,-2886.803174,-9474.636058,-4366.744339
22587.290779,-5255.462188,-10732.986159,-8733.488677
22587.291113,-1850.514855,-9770.718434,-7048.078582
22587.291446,-74.020594,-13619.789333,-3140.991542
22587.291779,-74.020594,-14211.954086,-2528.115143
22587.292113,-4145.153275,-10732.986159,-1225.752797
22587.292446,0.000000,-13101.645173,4826.401637
22587.292780,7920.203579,-3552.988522,8503.660028
22587.293113,7698.141797,-1850.514855,8656.879127
22587.293447,5181.441594,-7698.141797,8350.440928
22587.293780,4367.215058,-5847.626942,3907.087040
22587.294114,2442.679609,-11029.068536,2068.457845
22587.294447,3256.906145,-8290.306550,-76.609550
22587.294781,-2146.597232,-8956.491898,-9652.803275
22587.295114,-5329.482782,-12361.439231,-4366.744339
22587.295448,-7476.080014,-13619.789333,-8044.002729
22587.295781,-2442.679609,-11029.068536,-5362.668486
22587.296114,-2886.803174,-11843.295072,1762.019645
22587.296448,1332.370696,-7698.141797,3600.648841
22587.296781,3034.844362,-3256.906145,3140.991542
22587.297115,-666.185348,-9696.697840,7201.297681
22587.297448,7105.977043,-5403.503377,6741.640382
22587.297782,6365.771101,-6587.832884,8886.707777
22587.298115,4663.297435,-8808.450710,3600.648841
22587.298449,-74.020594,-7994.224174,-4826.401637
22587.298782,-6513.812290,-12509.480420,-7354.516781
22587.299116,-1184.329507,-11917.315666,-4903.011187
22587.299449,-2072.576638,-10732.986159,-2987.772442
22587.299783,-2368.659014,-12731.542202,-2528.115143
22587.300116,-4219.173869,-11547.212695,-1762.019645
22587.300450,-1258.350101,-9474.636058,4826.401637
22587.300783,2960.823768,-5551.544565,10955.165621
22587.301116,5847.626942,3627.009116,1225.752797
22587.301450,-3256.906145,-7772.162391,1225.752797
22587.301783,1998.556043,-7105.977043,-76.609550
22587.302117,-1258.350101,-13397.727550,-2298.286494
22587.302450,6809.894666,-9696.697840,2681.334243
22587.302784,-370.102971,-13619.789333,-4519.963438
22587.303117,-2738.761985,-11029.068536,-4213.525239
22587.303451,-1258.350101,-12731.542202,-6205.373534
22587.303784,-1184.329507,-16210.510130,459.657299
22587.304118,7105.977043,-5847.626942,6358.592633
22587.304451,-1406.391290,-8364.327145,3677.258390
22587.304785,3997.112087,-3997.112087,2528.115143
22587.305118,-1850.514855,-9178.553681,2374.896044
22587.305451,4737.318029,-7179.997637,6128.763984
22587.305785,5773.606348,-7105.977043,6665.030833
22587.306118,0.000000,-6587.832884,306.438199
22587.306452,-4145.153275,-7772.162391,-3677.258390
22587.306785,-7179.997637,-14211.954086,-7201.297681
22587.307119,2072.576638,-8512.368333,-3600.648841
22587.307452,-2960.823768,-9548.656652,-2451.505594
22587.307786,0.000000,-14878.139434,-2068.457845
22587.308119,-2886.803174,-8660.409521,-2298.286494
22587.308453,-1184.329507,-17172.777854,-76.609550
22587.308786,9400.615463,-8290.306550,7277.907231
22587.309120,5921.647536,-1850.514855,8580.269578
22587.309453,5329.482782,-6883.915261,7507.735880
22587.309787,2886.803174,-8734.430116,2987.772442
22587.310120,1184.329507,-9252.574275,-229.828649
22587.310453,3552.988522,-8956.491898,1302.362347
22587.310787,-370.102971,-7105.977043,-1762.019645
22587.311120,-1924.535449,-11843.295072,-3753.867940
22587.311454,-7179.997637,-14211.954086,-6818.249932
22587.311787,-5625.565159,-10732.986159,-4596.572988
22587.312121,-3256.906145,-10140.821405,2451.505594
22587.312454,4071.132681,-8882.471304,2987.772442
22587.312788,0.000000,-6365.771101,4673.182538
22587.313121,74.020594,-5181.441594,4519.963438
22587.313455,2146.597232,-6069.688724,1532.190996
22587.313788,6957.935855,-6883.915261,5362.668486
22587.314122,3775.050304,-9474.636058,2374.896044
22587.314455,0.000000,-9548.656652,-4903.011187
22587.314788,-888.247130,-12213.398043,-1608.800546
22587.315122,-3034.844362,-16432.571912,-5592.497135
22587.315455,3775.050304,-8364.327145,-3677.258390
22587.315789,-3404.947333,-12583.501014,-76.609550
22587.316122,-2960.823768,-9770.718434,-2298.286494
22587.316456,-1554.432478,-8956.491898,2451.505594
22587.316789,3849.070898,-6883.915261,7507.735880
22587.317123,7179.997637,1184.329507,6052.154434
22587.317456,592.164754,-9548.656652,9193.145976
22587.317790,0.000000,-5033.400406,-919.314598
22587.318123,-4145.153275,-11103.089130,-459.657299
22587.318457,-1184.329507,-13027.624579,0.000000
22587.318790,-74.020594,-8290.306550,-4979.620737
22587.319123,-5403.503377,-13323.706956,-9652.803275
22587.319457,-1184.329507,-10658.965565,-4979.620737
22587.319790,-518.144159,-17764.942608,4826.401637
22587.320124,5551.544565,-7402.059420,3140.991542
22587.320457,5403.503377,-9104.533087,6052.154434
22587.320791,-3256.906145,-11029.068536,536.266849
22587.321124,3997.112087,-2368.659014,1608.800546
22587.321458,3330.926739,-11251.130318,6052.154434
22587.321791,8290.306550,-5107.421000,9193.145976
22587.322125,2886.803174,-5403.503377,766.095498
22587.322458,-1480.411884,-11843.295072,-1302.362347
22587.322792,-5995.668130,-13027.624579,-4979.620737
22587.323125,-3627.009116,-7994.224174,-7737.564530
22587.323459,-370.102971,-13027.624579,-4060.306139
22587.323792,-1924.535449,-5995.668130,-2145.067394
22587.324125,-6587.832884,-15840.407159,-4213.525239
22587.324459,-962.267725,-6365.771101,-459.657299
22587.324792,3478.967927,-13027.624579,4826.401637
22587.325126,5921.647536,-4811.338623,6128.763984
22587.325459,6069.688724,-7698.141797,4826.401637
22587.325793,-1554.432478,-11177.109724,1225.752797
22587.326126,1480.411884,-7476.080014,1532.190996
22587.326460,4071.132681,-8586.388927,3370.820191
22587.326793,6809.894666,-7254.018232,2681.334243
22587.327127,-1184.329507,-9622.677246,-1532.190996
22587.327460,-3775.050304,-13767.830521,-4443.353888
22587.327794,-6291.750507,-8956.491898,-6205.373534
22587.328127,-4293.194464,-14211.954086,-689.485948
22587.328460,-74.020594,-9474.636058,-76.609550
22587.328794,-3627.009116,-3997.112087,0.000000
22587.329127,592.164754,-6809.894666,2834.553343
22587.329461,0.000000,-11917.315666,7354.516781
22587.329794,9918.759623,-3775.050304,5822.325785
22587.330128,3034.844362,-8586.388927,5669.106685
22587.330461,888.247130,-6957.935855,0.000000
22587.330795,-4145.153275,-11621.233289,-4903.011187
22587.331128,-74.020594,-15396.283594,-1302.362347
22587.331462,0.000000,-7920.203579,-1225.752797
22587.331795,-5625.565159,-10732.986159,-1225.752797
22587.332129,-2442.679609,-13027.624579,-3140.991542
22587.332462,-5921.647536,-11029.068536,0.000000
22587.332795,-1258.350101,-6661.853478,4213.525239
22587.333129,2812.782580,-3108.864956,0.000000
22587.333462,1332.370696,-10510.924376,4979.620737
22587.333796,0.000000,-3034.844362,3064.381992
22587.334129,814.226536,-10510.924376,2987.772442
22587.334463,7994.224174,-4367.215058,3524.039291
22587.334796,1998.556043,-13027.624579,919.314598
22587.335130,-666.185348,-9474.636058,-4979.620737
22587.335463,-5329.482782,-12509.480420,-7354.516781
22587.335797,-3627.009116,-15988.448347,-4979.620737
22587.336130,2294.638420,-7179.997637,-5822.325785
22587.336464,-3552.988522,-13693.809927,1532.190996
22587.336797,3478.967927,-7105.977043,4826.401637
22587.337131,2812.782580,-7179.997637,2834.553343
22587.337464,6143.709319,-5921.647536,11108.384721
22587.337797,6365.771101,-2960.823768,5745.716235
22587.338131,1480.411884,-5403.503377,3064.381992
22587.338464,-4737.318029,-8364.327145,-1225.752797
22587.338798,-2442.679609,-11251.130318,-8044.002729
22587.339131,-1998.556043,-11251.130318,-3447.429741
22587.339465,0.000000,-8068.244768,-4136.915689
22587.339798,-3552.988522,-10732.986159,-6818.249932
22587.340132,-4441.235652,-14656.077652,-6358.592633
22587.340465,962.267725,-11843.295072,1838.629195
22587.340799,1258.350101,-9474.636058,4749.792088
22587.341132,12953.603985,-5329.482782,12793.794817
22587.341466,888.247130,-6143.709319,9422.974625
22587.341799,5847.626942,-3404.947333,612.876398
22587.342132,1776.494261,-9548.656652,6894.859482
22587.342466,7031.956449,-8290.306550,4519.963438
22587.342799,4293.194464,-9400.615463,1838.629195
22587.343133,-8068.244768,-11547.212695,-6205.373534
22587.343466,-5773.606348,-10066.800811,-14172.766713
22587.343800,-9770.718434,-18949.272115,-6205.373534
22587.344133,444.123565,-6439.791695,-4596.572988
22587.344467,-1554.432478,-12435.459826,2374.896044
22587.344800,-4145.153275,-5995.668130,0.000000
22587.345134,1924.535449,-8290.306550,6665.030833
22587.345467,2738.761985,-7402.059420,8733.488677
22587.345801,9178.553681,-2442.679609,7354.516781
22587.346134,3552.988522,-6587.832884,7201.297681
22587.346467,2368.659014,-7328.038826,536.266849
22587.346801,0.000000,-10066.800811,-2834.553343
22587.347134,-3849.070898,-17764.942608,-3217.601092
22587.347467,1110.308913,-7772.162391,-4903.011187
22587.347801,-3627.009116,-13027.624579,-5592.497135
22587.348134,-4959.379811,-13619.789333,-4060.306139
22587.348467,-9474.636058,-5403.503377,-3677.258390
22587.348801,-3256.906145,-9548.656652,2911.162892
22587.349134,4737.318029,-1850.514855,7660.954980
22587.349467,0.000000,-9178.553681,3677.258390
22587.349800,8068.244768,-3404.947333,5898.935335
22587.350134,-74.020594,-10955.047942,3600.648841
22587.350467,5551.544565,-6587.832884,0.000000
22587.350800,4293.194464,-8734.430116,-1302.362347
22587.351134,-2442.679609,-16432.571912,-3447.429741
22587.351467,0.000000,-9326.594869,-9269.755526
22587.351800,-4737.318029,-15470.304188,-7354.516781
22587.352134,3478.967927,-17172.777854,1762.019645
22587.352467,1332.370696,-2442.679609,3064.381992
22587.352800,0.000000,-8364.327145,5669.106685
22587.353133,2146.597232,-3552.988522,3600.648841
22587.353467,3775.050304,-9474.636058,5439.278036
22587.353800,7402.059420,-2738.761985,7431.126331
22587.354133,4959.379811,-4811.338623,5056.230287
22587.354467,-2220.617826,-8882.471304,-3064.381992
22587.354800,-666.185348,-12435.459826,-2528.115143
22587.355133,-5107.421000,-12657.521608,-5515.887586
22587.355467,2368.659014,-13027.624579,-1302.362347
22587.355800,-74.020594,-11251.130318,-4366.744339
22587.356133,-4293.194464,-11325.150913,-3983.696590
22587.356466,-1702.473667,-9474.636058,-1302.362347
22587.356800,1332.370696,-12435.459826,7124.688131
22587.357133,8364.327145,-2886.803174,7124.688131
22587.357466,5551.544565,-6439.791695,7967.393179
22587.357800,0.000000,-5033.400406,2068.457845
22587.358133,-1258.350101,-4811.338623,0.000000
22587.358466,2294.638420,-10510.924376,2987.772442
22587.358800,2886.803174,-6513.812290,-4673.182538
22587.359133,-2960.823768,-10732.986159,-2911.162892
22587.359466,-7772.162391,-14211.954086,-9346.365076
22587.359799,-4367.215058,-12139.377449,-5439.278036
22587.360133,-3997.112087,-12361.439231,-536.266849
22587.360466,-666.185348,-8290.306550,-1608.800546
22587.360799,-2368.659014,-9400.615463,4290.134789
22587.361133,1036.288319,-6513.812290,3600.648841
22587.361466,6735.874072,-9474.636058,7277.907231
22587.361799,2960.823768,-4219.173869,8580.269578
22587.362133,5921.647536,-5107.421000,7890.783629
22587.362466,-222.061783,-5033.400406,-1225.752797
22587.362799,-592.164754,-11325.150913,-6588.421283
22587.363132,-5625.565159,-16506.592507,-3140.991542
22587.363466,-444.123565,-9844.739029,-6971.469032
22587.363799,148.041188,-12435.459826,-1225.752797
22587.364132,-6513.812290,-14730.098246,-3064.381992
22587.364466,-296.082377,-7328.038826,-1149.143247
22587.364799,-2146.597232,-10807.006753,4136.915689
22587.365132,6143.709319,-5625.565159,6052.154434
22587.365466,1184.329507,-2442.679609,5745.716235
22587.365799,0.000000,-3923.091493,4290.134789
22587.366132,4663.297435,-6809.894666,2374.896044
22587.366465,2294.638420,-8586.388927,1302.362347
22587.366799,6439.791695,-7994.224174,-689.485948
22587.367132,-3627.009116,-15988.448347,-4060.306139
22587.367465,-3404.947333,-14211.954086,-7431.126331
22587.367799,-6661.853478,-13841.851115,-5822.325785
22587.368132,-1554.432478,-10658.965565,-1302.362347
22587.368465,4071.132681,-7105.977043,-842.705048
22587.368798,0.000000,-8364.327145,7431.126331
22587.369132,2294.638420,-4737.318029,1455.581446
22587.369465,2368.659014,-5033.400406,4903.011187
22587.369798,4737.318029,-4811.338623,6128.763984
22587.370132,3775.050304,-4811.338623,1532.190996
22587.370465,2590.720797,-8290.306550,383.047749
22587.370798,1110.308913,-10288.862594,-5362.668486
22587.371132,1924.535449,-16580.613101,-2834.553343
22587.371465,0.000000,-11917.315666,-1685.410096
22587.371798,1702.473667,-9474.636058,-689.485948
22587.372131,-3923.091493,-10066.800811,-4979.620737
22587.372465,-5921.647536,-9844.739029,-5209.449386
22587.372798,1998.556043,-14211.954086,3600.648841
22587.373131,2368.659014,-2442.679609,5056.230287
22587.373465,6587.832884,-1998.556043,4903.011187
22587.373798,-4663.297435,-10807.006753,2987.772442
22587.374131,5033.400406,-2516.700203,1762.019645
22587.374465,2072.576638,-12287.418637,5286.058936
22587.374798,8216.285956,-9474.636058,612.876398
22587.375131,0.000000,-9548.656652,-4290.134789
22587.375464,-7105.977043,-13101.645173,-6281.983084
22587.375798,-1850.514855,-10510.924376,-6971.469032
22587.376131,-1554.432478,-14211.954086,-229.828649
22587.376464,2664.741391,-7846.182985,689.485948
22587.376798,-3701.029710,-10066.800811,1455.581446
22587.377131,-2294.638420,-8882.471304,1532.190996
22587.377464,4071.132681,-5921.647536,4826.401637
22587.377798,3775.050304,-666.185348,8580.269578
22587.378131,2886.803174,-5921.647536,3907.087040
22587.378464,518.144159,-5921.647536,1608.800546
22587.378797,-7105.977043,-7179.997637,-6128.763984
22587.379131,-3034.844362,-15396.283594,-4519.963438
22587.379464,-1776.494261,-11621.233289,-2145.067394
22587.379797,-1998.556043,-10066.800811,-4519.963438
22587.380131,-2960.823768,-9770.718434,-3447.429741
22587.380464,-2442.679609,-11843.295072,-3753.867940
22587.380797,0.000000,-13101.645173,1302.362347
22587.381131,6809.894666,-4959.379811,9269.755526
22587.381464,2516.700203,-3997.112087,4673.182538
22587.381797,592.164754,-10140.821405,3677.258390
22587.382130,4811.338623,-7994.224174,4826.401637
22587.382464,2590.720797,-7772.162391,2451.505594
22587.382797,4737.318029,-6587.832884,8810.098227
22587.383130,-666.185348,-7105.977043,-5898.935335
22587.383464,-7105.977043,-11917.315666,-11031.775171
22587.383797,-4515.256246,-12287.418637,-5209.449386
22587.384130,-1924.535449,-13027.624579,-5286.058936
22587.384464,1776.494261,-9918.759623,0.000000
22587.384797,-3034.844362,-10658.965565,-76.609550
22587.385130,-666.185348,-8882.471304,-76.609550
22587.385463,0.000000,-5995.668130,4903.011187
22587.385797,10658.965565,-5773.606348,10418.898773
22587.386130,9400.615463,-7105.977043,7890.783629
22587.386463,3552.988522,-7031.956449,5822.325785
22587.386797,-370.102971,-9178.553681,-3600.648841
22587.387130,-1406.391290,-13989.892304,-4366.744339
22587.387463,1184.329507,-12509.480420,-2221.676944
22587.387797,-1480.411884,-7179.997637,-2987.772442
22587.388130,-74.020594,-9474.636058,-4979.620737
22587.388463,-10658.965565,-13101.645173,-3064.381992
22587.388796,592.164754,-6513.812290,995.924147
22587.389130,1554.432478,-6513.812290,2374.896044
22587.389463,1480.411884,-8364.327145,6128.763984
22587.389796,3997.112087,-3627.009116,5439.278036
22587.390130,-3627.009116,-11473.192101,1455.581446
22587.390463,5921.647536,-5995.668130,4060.306139
22587.390796,4885.359217,-7179.997637,1378.971896
22587.391129,3478.967927,-13693.809927,-2911.162892
22587.391463,2886.803174,-8290.306550,-459.657299
22587.391796,-6291.750507,-18949.272115,-8044.002729
22587.392129,0.000000,-8956.491898,0.000000
22587.392463,-5329.482782,-12657.521608,-842.705048
22587.392796,-370.102971,-8734.430116,-1915.238745
22587.393129,-2072.576638,-8660.409521,3370.820191
22587.393463,-2590.720797,-7179.997637,4366.744339
22587.393796,7328.038826,2960.823768,8197.221829
22587.394129,0.000000,-8364.327145,7354.516781
22587.394462,7031.956449,-5329.482782,2068.457845
22587.394796,-5699.585753,-9918.759623,-5669.106685
22587.395129,0.000000,-13101.645173,-2145.067394
22587.395462,-888.247130,-11843.295072,-2068.457845
22587.395796,-1776.494261,-12879.583391,-4366.744339
22587.396129,-888.247130,-9252.574275,-2451.505594
22587.396462,-6735.874072,-14285.974681,-3064.381992
22587.396796,1628.453072,-8882.471304,1149.143247
22587.397129,0.000000,-8216.285956,8197.221829
22587.397462,6735.874072,-2368.659014,5745.716235
22587.397795,-1480.411884,-6069.688724,5132.839837
22587.398129,2072.576638,-7624.121203,3983.696590
22587.398462,1110.308913,-7105.977043,4213.525239
22587.398795,3849.070898,-3923.091493,4136.915689
22587.399129,-74.020594,-15988.448347,-3140.991542
22587.399462,-4737.318029,-9548.656652,-7967.393179
22587.399795,-7105.977043,-15692.365970,-7277.907231
22587.400129,-666.185348,-13619.789333,-1915.238745
22587.400462,5773.606348,-8586.388927,-2068.457845
22587.400795,-3404.947333,-16210.510130,1838.629195
22587.401128,4663.297435,-4145.153275,3753.867940
22587.401462,-2072.576638,-8068.244768,3217.601092
22587.401795,6217.729913,-5403.503377,13176.842566
22587.402128,3478.967927,-2220.617826,3370.820191
22587.402462,2960.823768,-4811.338623,3983.696590
22587.402795,1480.411884,-7402.059420,-689.485948
22587.403128,-1258.350101,-12583.501014,-4290.134789
22587.403462,444.123565,-5329.482782,-2604.724693
22587.403795,-3182.885551,-12213.398043,-5362.668486
22587.404128,-1110.308913,-9770.718434,-7431.126331
22587.404461,-6957.935855,-16506.592507,-5515.887586
22587.404795,-1184.329507,-16136.489536,2374.896044
22587.405128,2886.803174,-4367.215058,1225.752797
22587.405461,2368.659014,-9548.656652,5515.887586
22587.405795,7105.977043,-1998.556043,6971.469032
22587.406128,-2368.659014,-10288.862594,5822.325785
22587.406461,6809.894666,-5403.503377,4290.134789
22587.406795,5699.585753,-7179.997637,7967.393179
22587.407128,7476.080014,-8438.347739,4519.963438
22587.407461,-3330.926739,-9474.636058,-4060.306139
22587.407794,-6735.874072,-13619.789333,-10189.070123
22587.408128,-5477.523971,-13397.727550,-9499.584175
22587.408461,-3997.112087,-11843.295072,-1608.800546
22587.408794,-2442.679609,-13027.624579,-1915.238745
22587.409128,-4959.379811,-8586.388927,-2834.553343
22587.409461,-2220.617826,-7772.162391,2681.334243
22587.409794,4441.235652,-4663.297435,8656.879127
22587.410128,12139.377449,-1924.535449,6818.249932
22587.410461,3849.070898,-11917.315666,10418.898773
22587.410794,2886.803174,-1850.514855,0.000000
22587.411127,888.247130,-15840.407159,-76.609550
22587.411461,-74.020594,-11843.295072,-2834.553343
22587.411794,-2960.823768,-8956.491898,-8580.269578
22587.412127,-3182.885551,-15988.448347,-2528.115143
22587.412461,-3627.009116,-11029.068536,-5056.230287
22587.412794,-7920.203579,-14730.098246,-1762.019645
22587.413127,-2146.597232,-8142.265362,6358.592633
22587.413460,592.164754,1110.308913,7660.954980
22587.413794,3997.112087,-2146.597232,3907.087040
22587.414127,2294.638420,-5625.565159,3600.648841
22587.414460,5255.462188,-7105.977043,4979.620737
22587.414794,1998.556043,-7105.977043,1149.143247
22587.415127,3849.070898,-10732.986159,-3064.381992
22587.415460,-7179.997637,-14211.954086,-10495.508323
22587.415794,-6513.812290,-15470.304188,-9193.145976
22587.416127,-74.020594,-18061.024985,-5592.497135
22587.416460,1110.308913,-12435.459826,3600.648841
22587.416793,1776.494261,-6883.915261,5362.668486
22587.417127,0.000000,-3627.009116,4443.353888
22587.417460,592.164754,-6883.915261,4443.353888
22587.417793,4219.173869,-4441.235652,7660.954980
22587.418127,6439.791695,-6809.894666,9116.536426
22587.418460,-1924.535449,-1850.514855,0.000000
22587.418793,-4737.318029,-7772.162391,-3294.210641
22587.419127,-3034.844362,-12731.542202,-7354.516781
22587.419460,-2368.659014,-10732.986159,-4596.572988
22587.419793,-74.020594,-13619.789333,-6818.249932
22587.420126,-3256.906145,-15766.386565,-4903.011187
22587.420460,-5921.647536,-14434.015869,-4826.401637
22587.420793,74.020594,-9474.636058,1378.971896
22587.421126,3478.967927,-9474.636058,7890.783629
22587.421460,5921.647536,1702.473667,8886.707777
22587.421793,4959.379811,-9474.636058,12180.918418
22587.422126,1998.556043,-2368.659014,842.705048
22587.422460,2960.823768,-7179.997637,4290.134789
22587.422793,4071.132681,-7550.100608,919.314598
22587.423126,3849.070898,-8290.306550,-689.485948
22587.423459,-6735.874072,-14730.098246,-6665.030833
22587.423793,-6291.750507,-13397.727550,-10265.679673
22587.424126,-4737.318029,-13101.645173,-7048.078582
22587.424459,1776.494261,-11843.295072,1762.019645
22587.424793,-370.102971,-7105.977043,0.000000
22587.425126,-4737.318029,-9252.574275,2298.286494
22587.425459,4071.132681,-9474.636058,4826.401637
22587.425793,7031.956449,-5403.503377,8733.488677
22587.426126,10288.862594,-3552.988522,13253.452115
22587.426459,5625.565159,-3034.844362,4749.792088
22587.426792,1776.494261,-8142.265362,0.000000
22587.427126,-1776.494261,-12509.480420,-4903.011187
22587.427459,1110.308913,-14211.954086,-1915.238745
22587.427792,-1628.453072,-10732.986159,-4060.306139
22587.428126,-5329.482782,-13175.665768,-6971.469032
22587.428459,-5403.503377,-11843.295072,-5592.497135
22587.428792,-4811.338623,-11695.253884,-3830.477490
22587.429126,1184.329507,-3034.844362,4903.011187
22587.429459,4737.318029,-5181.441594,9422.974625
22587.429792,1110.308913,-5625.565159,7354.516781
22587.430125,1110.308913,-1776.494261,3600.648841
22587.430459,518.144159,-9770.718434,-2451.505594
22587.430792,5329.482782,-11917.315666,6741.640382
22587.431125,3701.029710,-8512.368333,-1225.752797
22587.431459,0.000000,-14878.139434,-3677.258390
22587.431792,-2738.761985,-9252.574275,-12104.308868
22587.432125,-4811.338623,-22502.260637,-5592.497135
22587.432459,3182.885551,-7179.997637,0.000000
22587.432792,-74.020594,-10584.944971,612.876398
22587.433125,-2368.659014,-5551.544565,1225.752797
22587.433458,-1776.494261,-3923.091493,4903.011187
22587.433792,2886.803174,-6365.771101,10265.679673
22587.434125,8216.285956,2812.782580,9652.803275
22587.434458,2368.659014,-8290.306550,2987.772442
22587.434792,-74.020594,-6883.915261,-3677.258390
22587.435125,-3627.009116,-13027.624579,-8044.002729
22587.435458,0.000000,-16654.633695,-2451.505594
22587.435791,-962.267725,-13323.706956,-1378.971896
22587.436125,592.164754,-16284.530724,-4903.011187
22587.436458,-2146.597232,-13545.768739,1149.143247
22587.436791,814.226536,-5625.565159,0.000000
22587.437125,3552.988522,-7105.977043,7277.907231
22587.437458,3923.091493,-3552.988522,9116.536426
22587.437791,2368.659014,-3627.009116,6894.859482
22587.438125,-2738.761985,-3034.844362,0.000000
22587.438458,-2960.823768,-5995.668130,0.000000
22587.438791,2294.638420,-10658.965565,-76.609550
22587.439124,518.144159,-9030.512492,-3753.867940
22587.439458,-1406.391290,-14804.118840,-4519.963438
22587.439791,-8290.306550,-13323.706956,-10418.898773
22587.440124,-74.020594,-14063.912898,-1838.629195
22587.440458,2886.803174,-8364.327145,1532.190996
22587.440791,4663.297435,-11547.212695,3600.648841
22587.441124,-3552.988522,-8364.327145,4903.011187
22587.441458,-3627.009116,-6365.771101,842.705048
22587.441791,6439.791695,-1258.350101,3677.258390
22587.442124,5033.400406,-7105.977043,7737.564530
22587.442457,5255.462188,-8290.306550,2911.162892
22587.442791,-5477.523971,-13841.851115,-2068.457845
22587.443124,-740.205942,-8512.368333,-5056.230287
22587.443457,3330.926739,-16580.613101,-689.485948
22587.443791,6439.791695,-9474.636058,4213.525239
22587.444124,1184.329507,-9252.574275,-229.828649
22587.444457,-5625.565159,-11843.295072,-4366.744339
22587.444791,-3775.050304,-7402.059420,-5592.497135
22587.445124,-5329.482782,-10732.986159,0.000000
22587.445457,5699.585753,-4145.153275,5439.278036
22587.445790,-666.185348,-5921.647536,4213.525239
22587.446124,-4737.318029,-6291.750507,4060.306139
22587.446457,-1554.432478,-5329.482782,-2068.457845
22587.446790,5847.626942,-8364.327145,3217.601092
22587.447124,8808.450710,-4219.173869,1685.410096
22587.447457,2590.720797,-17024.736666,1685.410096
22587.447790,-2516.700203,-10214.842000,-6894.859482
22587.448124,-2516.700203,-17764.942608,-5592.497135
22587.448457,9400.615463,-11843.295072,-76.609550
22587.448790,0.000000,-11917.315666,5669.106685
22587.449123,1184.329507,-8364.327145,4826.401637
22587.449457,-1850.514855,-9030.512492,536.266849
22587.449790,0.000000,-8660.409521,6128.763984
22587.450123,6217.729913,814.226536,6052.154434
22587.450456,1406.391290,-4515.256246,4060.306139
22587.450789,-888.247130,-6143.709319,-612.876398
22587.451123,-5107.421000,-10066.800811,-4366.744339
22587.451456,-666.185348,-13027.624579,-1915.238745
22587.451789,-2368.659014,-7179.997637,-3524.039291
22587.452122,-4811.338623,-16950.716072,-4903.011187
22587.452455,-1258.350101,-9474.636058,-2528.115143
22587.452788,-6217.729913,-8438.347739,-5592.497135
22587.453121,2368.659014,-10140.821405,4826.401637
22587.453455,3478.967927,-16284.530724,6665.030833
22587.453788,4145.153275,-5551.544565,6205.373534
22587.454121,592.164754,-9400.615463,4290.134789
22587.454454,740.205942,-2738.761985,2451.505594
22587.454787,5847.626942,-10658.965565,7277.907231
22587.455120,3478.967927,-6883.915261,612.876398
22587.455454,-2960.823768,-13249.686362,0.000000
22587.455787,-5625.565159,-9622.677246,-8273.831378
22587.456120,1332.370696,-7402.059420,-2221.676944
22587.456453,-4293.194464,-9030.512492,-3140.991542
22587.456786,0.000000,-7550.100608,-5822.325785
22587.457119,-8364.327145,-15396.283594,-4366.744339
22587.457452,-296.082377,-11251.130318,-2528.115143
22587.457786,3404.947333,-7254.018232,4903.011187
22587.458119,2960.823768,-3923.091493,9806.022374
22587.458452,9104.533087,-4145.153275,5745.716235
22587.458785,4589.276840,-8142.265362,3064.381992
22587.459118,4589.276840,-11547.212695,1455.581446
22587.459451,3256.906145,-12361.439231,3907.087040
22587.459784,5699.585753,-5699.585753,-2681.334243
22587.460118,-962.267725,-16136.489536,-4443.353888
22587.460451,1110.308913,-10288.862594,-689.485948
22587.460784,-3108.864956,-8956.491898,-4136.915689
22587.461117,-1628.453072,-10658.965565,306.438199
22587.461450,-444.123565,-5625.565159,-2221.676944
22587.461783,-4811.338623,-10362.883188,3294.210641
22587.462116,740.205942,-1998.556043,-76.609550
22587.462450,-1554.432478,-9474.636058,536.266849
22587.462783,2960.823768,-7772.162391,7354.516781
22587.463116,4145.153275,-7920.203579,3677.258390
22587.463449,1998.556043,-10807.006753,-1225.752797
22587.463782,-222.061783,-11843.295072,-7277.907231
22587.464115,370.102971,-16284.530724,-3907.087040
22587.464448,1776.494261,-12435.459826,995.924147
22587.464782,592.164754,-6587.832884,-2451.505594
22587.465115,-740.205942,-18949.272115,-76.609550
22587.465448,-1554.432478,-3552.988522,-383.047749
22587.465781,-3552.988522,-10140.821405,5515.887586
22587.466114,8216.285956,0.000000,10955.165621
22587.466447,-1184.329507,-7179.997637,3370.820191
22587.466780,-2220.617826,-5255.462188,-536.266849
22587.467114,-3108.864956,-8290.306550,-2145.067394
22587.467447,-2442.679609,-9992.780217,-1608.800546
22587.467780,1776.494261,-9918.759623,-76.609550
22587.468113,-4219.173869,-15396.283594,-5286.058936
22587.468446,-7550.100608,-11325.150913,-7354.516781
22587.468779,-9474.636058,-12213.398043,-4596.572988
22587.469112,1110.308913,-12731.542202,1608.800546
22587.469446,2516.700203,-4737.318029,7277.907231
22587.469779,5477.523971,-8290.306550,8044.002729
22587.470112,3627.009116,-5181.441594,5898.935335
22587.470445,888.247130,-8364.327145,3140.991542
22587.470778,7624.121203,-7994.224174,7277.907231
22587.471111,4219.173869,-2442.679609,459.657299
22587.471445,-1776.494261,-12509.480420,1072.533697
22587.471778,-5107.421000,-9474.636058,-4979.620737
22587.472111,-5995.668130,-10436.903782,-13483.280765
22587.472444,-2072.576638,-13471.748144,-3140.991542
22587.472777,-370.102971,-7254.018232,-2374.896044
22587.473110,-4959.379811,-12509.480420,-689.485948
22587.473443,-4367.215058,-7105.977043,-1149.143247
22587.473777,1110.308913,-10658.965565,2987.772442
22587.474110,7698.141797,-5847.626942,10725.336972
22587.474443,8512.368333,-1332.370696,7124.688131
22587.474776,7476.080014,-7994.224174,2604.724693
22587.475109,4737.318029,-11325.150913,4903.011187
22587.475442,5921.647536,-11769.274478,5745.716235
22587.475775,5847.626942,-8290.306550,-2068.457845
22587.476109,-888.247130,-8364.327145,-7048.078582
22587.476442,-7402.059420,-16580.613101,-11108.384721
22587.476775,-3849.070898,-12213.398043,-6588.421283
22587.477108,-4737.318029,-15322.262999,-1991.848295
22587.477441,1258.350101,-5403.503377,1838.629195
22587.477774,1110.308913,-6513.812290,4826.401637
22587.478107,1258.350101,-4145.153275,6052.154434
22587.478441,1776.494261,-1850.514855,3677.258390
22587.478774,5847.626942,-6069.688724,4290.134789
22587.479107,6217.729913,-6883.915261,4060.306139
22587.479440,2294.638420,-13027.624579,1762.019645
22587.479773,1702.473667,-11547.212695,-3140.991542
22587.480106,-2812.782580,-13323.706956,-6052.154434
22587.480439,666.185348,-13619.789333,-3524.039291
22587.480773,-888.247130,-12657.521608,-3140.991542
22587.481106,-3627.009116,-14508.036463,2374.896044
22587.481439,-2442.679609,-6513.812290,-383.047749
22587.481772,-4145.153275,-10140.821405,6128.763984
22587.482105,3552.988522,-2368.659014,10955.165621
22587.482438,2590.720797,-2664.741391,4903.011187
22587.482771,-2072.576638,-5403.503377,3983.696590
22587.483105,-370.102971,-6957.935855,-2451.505594
22587.483438,-2664.741391,-12805.562797,-229.828649
22587.483771,2516.700203,-6883.915261,-2221.676944
22587.484104,-7550.100608,-14730.098246,-8503.660028
22587.484437,-3330.926739,-11399.171507,-7124.688131
22587.484770,-5921.647536,-14656.077652,-5286.058936
22587.485103,2220.617826,-15248.242405,2987.772442
22587.485437,1998.556043,-3997.112087,7354.516781
22587.485770,2960.823768,-3997.112087,6741.640382
22587.486103,3552.988522,-4219.173869,7584.345430
22587.486436,1110.308913,-7105.977043,3524.039291
22587.486769,5255.462188,-3330.926739,3370.820191
22587.487102,1924.535449,-7846.182985,689.485948
22587.487435,296.082377,-13693.809927,0.000000
22587.487769,-3923.091493,-13619.789333,-6818.249932
22587.488102,-5403.503377,-13101.645173,-9193.145976
22587.488435,-1554.432478,-9548.656652,-4903.011187
22587.488768,-2590.720797,-10955.047942,-689.485948
22587.489101,740.205942,-10436.903782,3677.258390
22587.489434,222.061783,-4959.379811,2528.115143
22587.489768,5181.441594,-10584.944971,7124.688131
22587.490101,8882.471304,-1850.514855,11338.213370
22587.490434,4737.318029,-4811.338623,766.095498
22587.490767,2294.638420,-10881.027347,3294.210641
22587.491100,740.205942,-10510.924376,-2451.505594
22587.491433,1110.308913,-15100.201217,-689.485948
22587.491766,3775.050304,-7105.977043,-2528.115143
22587.492100,-3552.988522,-7772.162391,-9193.145976
22587.492433,370.102971,-11843.295072,-76.609550
22587.492766,-2442.679609,-9178.553681,-4519.963438
22587.493099,592.164754,-11029.068536,2451.505594
22587.493432,1628.453072,-9178.553681,4213.525239
22587.493765,-1184.329507,-6439.791695,-919.314598
22587.494098,1036.288319,-8068.244768,2681.334243
22587.494432,3404.947333,-4663.297435,4136.915689
22587.494765,5329.482782,-7179.997637,1838.629195
22587.495098,2368.659014,-11325.150913,7354.516781
22587.495431,4663.297435,-10362.883188,1149.143247
22587.495764,-4145.153275,-9548.656652,-7124.688131
22587.496097,-2368.659014,-9548.656652,-2145.067394
22587.496430,-2960.823768,-9992.780217,-4366.744339
22587.496764,0.000000,-9992.780217,0.000000
22587.497097,-2368.659014,-12361.439231,-306.438199
22587.497430,-7550.100608,-9770.718434,-2911.162892
22587.497763,1036.288319,-9474.636058,4519.963438
22587.498096,2368.659014,-3034.844362,9116.536426
22587.498429,4663.297435,-6513.812290,1915.238745
22587.498762,0.000000,-8512.368333,5209.449386
22587.499096,-1036.288319,-10436.903782,-1608.800546
22587.499429,1850.514855,-9548.656652,153.219100
22587.499762,3478.967927,-7550.100608,76.609550
22587.500095,2442.679609,-10955.047942,-5592.497135
22587.500428,-4737.318029,-16876.695478,1762.019645
22587.500761,-4293.194464,-8586.388927,-5132.839837
22587.501094,-1628.453072,-14211.954086,2374.896044
22587.501428,592.164754,-74.020594,2451.505594
22587.501761,-1184.329507,-8586.388927,2987.772442
22587.502094,-1258.350101,-4293.194464,5209.449386
22587.502427,-4219.173869,-3701.029710,-3140.991542
22587.502760,-740.205942,-11103.089130,1915.238745
22587.503093,3849.070898,-8956.491898,4213.525239
22587.503426,3182.885551,-7550.100608,-1762.019645
22587.503760,-4737.318029,-14285.974681,-3064.381992
22587.504093,-74.020594,-10066.800811,-8273.831378
22587.504426,1776.494261,-12805.562797,-1302.362347
22587.504759,5699.585753,-15692.365970,6665.030833
22587.505092,4071.132681,-7920.203579,0.000000
22587.505425,-5773.606348,-11325.150913,0.000000
22587.505758,2220.617826,-3330.926739,3677.258390
22587.506092,3478.967927,-2738.761985,4136.915689
22587.506425,5995.668130,-4885.359217,5975.544884
22587.506758,1480.411884,-8068.244768,1838.629195
22587.507091,-3034.844362,-13027.624579,-5286.058936
22587.507424,2442.679609,-10955.047942,0.000000
22587.507757,0.000000,-6809.894666,-2068.457845
22587.508091,888.247130,-9992.780217,-3217.601092
22587.508424,-5921.647536,-12509.480420,0.000000
22587.508757,-3923.091493,-11843.295072,-8656.879127
22587.509090,-962.267725,-9548.656652,0.000000
22587.509423,1184.329507,-6883.915261,4826.401637
22587.509756,5255.462188,-5921.647536,2374.896044
22587.510089,1332.370696,-7772.162391,8580.269578
22587.510423,3775.050304,-6809.894666,919.314598
22587.510756,3256.906145,-11843.295072,4673.182538
22587.511089,5181.441594,-9474.636058,-229.828649
22587.511422,4663.297435,-11843.295072,4826.401637
22587.511755,-3034.844362,-8882.471304,-1685.410096
22587.512088,1332.370696,-7105.977043,-1915.238745
22587.512421,-1554.432478,-13619.789333,-689.485948
22587.512755,518.144159,-8364.327145,-3064.381992
22587.513088,296.082377,-11843.295072,-76.609550
22587.513421,-8586.388927,-11843.295072,-2451.505594
22587.513754,-2590.720797,-8586.388927,-3600.648841
22587.514087,-740.205942,-8364.327145,3983.696590
22587.514420,4959.379811,-4441.235652,2068.457845
22587.514753,3478.967927,-4811.338623,612.876398
22587.515087,3478.967927,-13027.624579,2374.896044
22587.515420,3330.926739,-9474.636058,4826.401637
22587.515753,0.000000,-3923.091493,4903.011187
22587.516086,3478.967927,-9474.636058,-76.609550
22587.516419,-5773.606348,-11547.212695,-3217.601092
22587.516752,-2886.803174,-9178.553681,-6588.421283
22587.517085,-2886.803174,-12287.418637,-536.266849
22587.517419,0.000000,-5995.668130,0.000000
22587.517752,-3552.988522,-9844.739029,-1225.752797
22587.518085,-1258.350101,-11843.295072,1149.143247
22587.518418,-4441.235652,-8660.409521,-919.314598
22587.518751,3552.988522,-8956.491898,9729.412825
22587.519084,6439.791695,-3849.070898,3907.087040
22587.519417,4589.276840,-9474.636058,5745.716235
22587.519751,2072.576638,-6513.812290,383.047749
22587.520084,0.000000,-11991.336260,-2528.115143
22587.520417,0.000000,-9548.656652,-3064.381992
22587.520750,1924.535449,-10658.965565,-3524.039291
22587.521083,-2960.823768,-16284.530724,0.000000
22587.521416,-3997.112087,-8142.265362,-4213.525239
22587.521749,-4589.276840,-14063.912898,-1608.800546
22587.522083,740.205942,-7105.977043,4213.525239
22587.522416,3849.070898,-1258.350101,3677.258390
22587.522749,4071.132681,-10362.883188,8503.660028
22587.523082,-74.020594,-7105.977043,995.924147
22587.523415,-74.020594,-10510.924376,1149.143247
22587.523748,6143.709319,-7105.977043,4826.401637
22587.524082,3552.988522,-8882.471304,-1762.019645
22587.524415,1480.411884,-11917.315666,-1762.019645
22587.524748,-5107.421000,-13915.871710,-8886.707777
22587.525081,-74.020594,-14211.954086,-2528.115143
22587.525414,-4737.318029,-9548.656652,842.705048
22587.525747,1702.473667,-12435.459826,2681.334243
22587.526080,-1998.556043,-6513.812290,4826.401637
22587.526414,1184.329507,-3034.844362,612.876398
22587.526747,5255.462188,-6217.729913,6665.030833
22587.527080,4367.215058,-1998.556043,3294.210641
22587.527413,2886.803174,-10214.842000,2757.943793
22587.527746,-1406.391290,-12139.377449,1838.629195
22587.528079,-1110.308913,-8956.491898,-5898.935335
22587.528412,-1554.432478,-16284.530724,-2528.115143
22587.528746,2886.803174,-4737.318029,-6435.202183
22587.529079,-4737.318029,-12509.480420,-2604.724693
22587.529412,-74.020594,-12435.459826,-306.438199
22587.529745,-3256.906145,-10881.027347,1225.752797
22587.530078,-518.144159,-9696.697840,3140.991542
22587.530411,8734.430116,-4219.173869,7354.516781
22587.530744,3701.029710,-8290.306550,10725.336972
22587.531078,3552.988522,-1850.514855,3677.258390
22587.531411,2886.803174,-9474.636058,3907.087040
22587.531744,0.000000,-5033.400406,-2528.115143
22587.532077,0.000000,-7179.997637,-2757.943793
22587.532410,-5403.503377,-14211.954086,-5592.497135
22587.532743,-5181.441594,-11103.089130,-8656.879127
22587.533076,-7328.038826,-15100.201217,-4673.182538
22587.533410,1998.556043,-6439.791695,-1378.971896
22587.533743,0.000000,-9696.697840,-612.876398
22587.534076,4663.297435,-10658.965565,5745.716235
22587.534409,814.226536,-5403.503377,1225.752797
22587.534742,4737.318029,-9400.615463,8810.098227
22587.535075,8808.450710,-7105.977043,7277.907231
22587.535408,2368.659014,-8364.327145,3064.381992
22587.535742,3182.885551,-8290.306550,4213.525239
22587.536075,-2960.823768,-5847.626942,-4673.182538
22587.536408,-888.247130,-12583.501014,-5592.497135
22587.536741,-3330.926739,-12287.418637,-4979.620737
22587.537074,-2442.679609,-13471.748144,-5132.839837
22587.537407,-5699.585753,-14285.974681,-2681.334243
22587.537740,-1702.473667,-9252.574275,-3294.210641
22587.538074,888.247130,-9548.656652,3830.477490
22587.538407,5329.482782,-666.185348,6741.640382
22587.538740,4885.359217,-8586.388927,6971.469032
22587.539073,-666.185348,-10362.883188,1455.581446
22587.539406,1184.329507,-5403.503377,2451.505594
22587.539739,4663.297435,-11251.130318,2374.896044
22587.540072,5255.462188,-5403.503377,536.266849
22587.540406,-592.164754,-11399.171507,76.609550
22587.540739,-2220.617826,-9178.553681,-6052.154434
22587.541072,-4145.153275,-11843.295072,-4749.792088
22587.541405,-3923.091493,-11547.212695,-2681.334243
22587.541738,-3182.885551,-12435.459826,-76.609550
22587.542071,-5995.668130,-5995.668130,-2145.067394
22587.542405,-1480.411884,-8438.347739,2451.505594
22587.542738,2072.576638,-7846.182985,9729.412825
22587.543071,10584.944971,-592.164754,6128.763984
22587.543404,2442.679609,-10510.924376,2221.676944
22587.543737,4145.153275,-9918.759623,1532.190996
22587.544070,-3997.112087,-15396.283594,-3370.820191
22587.544403,3034.844362,-7846.182985,-459.657299
22587.544737,666.185348,-11251.130318,-4979.620737
22587.545070,-4145.153275,-14285.974681,612.876398
22587.545403,-2442.679609,-10658.965565,-383.047749
22587.545736,-1850.514855,-10658.965565,-383.047749
22587.546069,1998.556043,-5773.606348,1455.581446
22587.546402,148.041188,-8512.368333,4136.915689
22587.546735,2516.700203,-7846.182985,5362.668486
22587.547069,444.123565,-5033.400406,2068.457845
22587.547402,2368.659014,-9844.739029,1225.752797
22587.547735,4663.297435,-3849.070898,383.047749
22587.548068,1924.535449,-9474.636058,-1225.752797
22587.548401,-1480.411884,-13619.789333,-5286.058936
22587.548734,-7476.080014,-14285.974681,-8273.831378
22587.549067,-4145.153275,-12509.480420,-4596.572988
22587.549401,3330.926739,-7846.182985,842.705048
22587.549734,1776.494261,-9844.739029,4060.306139
22587.550067,3775.050304,-7698.141797,7048.078582
22587.550400,2294.638420,-7105.977043,6052.154434
22587.550732,2960.823768,-4811.338623,5515.887586
22587.551065,6439.791695,-6513.812290,1762.019645
22587.551398,2960.823768,-7772.162391,612.876398
22587.551731,-4145.153275,-13027.624579,-76.609550
22587.552064,-4737.318029,-8438.347739,-5745.716235
22587.552397,-4737.318029,-16062.468941,-3753.867940
22587.552730,814.226536,-5921.647536,-6665.030833
22587.553063,-1184.329507,-13693.809927,-919.314598
22587.553396,-2812.782580,-10658.965565,-3753.867940
22587.553729,-2664.741391,-12213.398043,-766.095498
22587.554061,2664.741391,-6957.935855,6665.030833
22587.554394,7698.141797,-5033.400406,6818.249932
22587.554727,8808.450710,-7698.141797,10035.851024
22587.555060,2294.638420,-7105.977043,3600.648841
22587.555393,296.082377,-8068.244768,-612.876398
22587.555726,-666.185348,-13619.789333,-76.609550
22587.556059,2072.576638,-3034.844362,-3677.258390
22587.556392,-3701.029710,-17172.777854,1455.581446
22587.556725,-3108.864956,-8290.306550,-4979.620737
22587.557058,-6809.894666,-9104.533087,-3370.820191
22587.557390,-2886.803174,-5403.503377,-3294.210641
22587.557723,2368.659014,-6883.915261,383.047749
22587.558056,-3404.947333,-9104.533087,2681.334243
22587.558389,-2368.659014,-10140.821405,0.000000
22587.558722,4663.297435,-10362.883188,4826.401637
22587.559055,4663.297435,-4959.379811,2451.505594
22587.559388,11251.130318,-5699.585753,3600.648841
22587.559721,-74.020594,-15100.201217,4979.620737
22587.560054,1332.370696,-5773.606348,-1608.800546
22587.560387,-2146.597232,-15544.324782,-1532.190996
22587.560720,2072.576638,-6883.915261,-995.924147
22587.561052,-2960.823768,-10140.821405,-6128.763984
22587.561385,-2368.659014,-10732.986159,3600.648841
22587.561718,-7179.997637,-10140.821405,-4903.011187
22587.562051,-5329.482782,-4367.215058,-3677.258390
22587.562384,2368.659014,-6809.894666,4826.401637
22587.562717,592.164754,-3627.009116,1225.752797
22587.563050,-74.020594,-12139.377449,3830.477490
22587.563383,1036.288319,-6809.894666,1302.362347
22587.563716,3034.844362,-8734.430116,76.609550
22587.564049,2886.803174,-10658.965565,1608.800546
22587.564381,7031.956449,-12731.542202,4826.401637
22587.564714,-4811.338623,-9696.697840,-4596.572988
22587.565047,0.000000,-11029.068536,-459.657299
22587.565380,-888.247130,-9474.636058,842.705048
22587.565713,4663.297435,-9104.533087,3600.648841
22587.566046,518.144159,-8438.347739,459.657299
22587.566379,-2442.679609,-9696.697840,2528.115143
22587.566712,-1258.350101,-5477.523971,-76.609550
22587.567045,2960.823768,-5403.503377,3677.258390
22587.567378,1110.308913,-12139.377449,612.876398
22587.567710,2368.659014,-7328.038826,1225.752797
22587.568043,-3627.009116,-14211.954086,-1302.362347
22587.568376,0.000000,-6291.750507,-3677.258390
22587.568709,-962.267725,-14211.954086,1762.019645
22587.569042,3701.029710,-5403.503377,-3677.258390
22587.569375,-518.144159,-10807.006753,-76.609550
22587.569708,-3256.906145,-10140.821405,-3524.039291
22587.570041,3552.988522,-9548.656652,1225.752797
22587.570374,1998.556043,-8734.430116,6588.421283
22587.570707,9844.739029,-3256.906145,4826.401637
22587.571040,-740.205942,-10732.986159,5209.449386
22587.571372,2590.720797,-7698.141797,1915.238745
22587.571705,-1184.329507,-5403.503377,0.000000
22587.572038,2294.638420,-11251.130318,-76.609550
22587.572371,-2960.823768,-7179.997637,-3677.258390
22587.572704,-10881.027347,-20725.766376,-3140.991542
22587.573037,-1258.350101,-5921.647536,-4979.620737
22587.573370,-4737.318029,-10732.986159,-1378.971896
22587.573703,7550.100608,-2220.617826,3140.991542
22587.574036,1110.308913,-13915.871710,8273.831378
22587.574369,-3701.029710,-6217.729913,-842.705048
22587.574701,1184.329507,-9992.780217,-306.438199
22587.575034,-1258.350101,-11917.315666,-1838.629195
22587.575367,8290.306550,-4811.338623,5515.887586
22587.575700,-74.020594,-15248.242405,4673.182538
22587.576033,222.061783,-8068.244768,-3064.381992
22587.576366,2294.638420,-8586.388927,-1608.800546
22587.576699,2664.741391,-13397.727550,4903.011187
22587.577032,6217.729913,-4885.359217,1302.362347
22587.577365,-1406.391290,-9030.512492,1072.533697
22587.577698,-5995.668130,-11843.295072,-5592.497135
22587.578030,-4441.235652,-5995.668130,1225.752797
22587.578363,-3552.988522,-7476.080014,0.000000
22587.578696,5551.544565,-6513.812290,2374.896044
22587.579029,-2960.823768,-10140.821405,2451.505594
22587.579362,-2738.761985,-7476.080014,-1225.752797
22587.579695,1628.453072,-8734.430116,536.266849
22587.580028,-1184.329507,-7179.997637,766.095498
22587.580361,4885.359217,-6587.832884,-612.876398
22587.580694,-4441.235652,-15470.304188,-2451.505594
22587.581027,0.000000,-9844.739029,-1225.752797
22587.581359,-1258.350101,-11843.295072,-5745.716235
22587.581692,6513.812290,-5995.668130,-2451.505594
22587.582025,0.000000,-15174.221811,8120.612279
22587.582358,814.226536,-7846.182985,1838.629195
22587.582691,1332.370696,-6587.832884,1762.019645
22587.583024,1628.453072,-8956.491898,5515.887586
22587.583357,7994.224174,-518.144159,1532.190996
22587.583690,-2072.576638,-11917.315666,3983.696590
22587.584023,-3701.029710,-8290.306550,-4366.744339
22587.584356,-4219.173869,-7624.121203,-5362.668486
22587.584689,-4885.359217,-12435.459826,-2681.334243
22587.585021,1998.556043,-5329.482782,-4979.620737
22587.585354,-5995.668130,-13619.789333,-5898.935335
22587.585687,-2368.659014,-10732.986159,-1685.410096
22587.586020,0.000000,-10436.903782,5439.278036
22587.586353,3923.091493,-5921.647536,3294.210641
22587.586686,5847.626942,-7698.141797,5515.887586
22587.587019,2146.597232,-13471.748144,4903.011187
22587.587352,2590.720797,-10658.965565,3140.991542
22587.587685,6439.791695,-7772.162391,842.705048
22587.588018,3182.885551,-10140.821405,3677.258390
22587.588350,9400.615463,-7402.059420,1149.143247
22587.588683,-3256.906145,-14285.974681,1149.143247
22587.589016,-4219.173869,-7994.224174,-6205.373534
22587.589349,-4219.173869,-7179.997637,-8273.831378
22587.589682,-1480.411884,-8142.265362,-1378.971896
22587.590015,-1776.494261,-11473.192101,1225.752797
22587.590348,-6587.832884,-7920.203579,-1378.971896
22587.590681,-888.247130,-5995.668130,306.438199
22587.591014,1776.494261,-6439.791695,5822.325785
22587.591347,6439.791695,-4145.153275,4136.915689
22587.591679,5551.544565,-11843.295072,7277.907231
22587.592012,-962.267725,-10362.883188,-2451.505594
22587.592345,296.082377,-8364.327145,-3677.258390
22587.592678,148.041188,-11325.150913,612.876398
22587.593011,3256.906145,-8290.306550,-1762.019645
22587.593344,-518.144159,-10955.047942,-995.924147
22587.593677,-2738.761985,-11769.274478,-5056.230287
22587.594010,-3256.906145,-17172.777854,-2528.115143
22587.594343,0.000000,-7179.997637,6741.640382
22587.594676,5255.462188,-592.164754,1762.019645
22587.595009,2146.597232,-6587.832884,7660.954980
22587.595341,-1036.288319,-11695.253884,1762.019645
22587.595674,4071.132681,-7698.141797,-76.609550
22587.596007,1480.411884,-9030.512492,2374.896044
22587.596340,2294.638420,-6217.729913,-4903.011187
22587.596673,-3997.112087,-12065.356855,-689.485948
22587.597006,-9178.553681,-13915.871710,-7890.783629
22587.597339,-1110.308913,-9474.636058,-3753.867940
22587.597672,-1258.350101,-8068.244768,-3677.258390
22587.598005,6661.853478,-7476.080014,3064.381992
22587.598338,-1850.514855,-13619.789333,4213.525239
22587.598670,3478.967927,-4737.318029,4213.525239
22587.599003,1554.432478,-11251.130318,5745.716235
22587.599336,10362.883188,-4219.173869,5209.449386
22587.599669,5477.523971,-10066.800811,5745.716235
22587.600002,296.082377,-6217.729913,-1225.752797
22587.600335,-74.020594,-13619.789333,-4366.744339
22587.600668,-4737.318029,-13397.727550,-5209.449386
22587.601001,3404.947333,-9474.636058,-2298.286494
22587.601334,-4367.215058,-11769.274478,-1532.190996
22587.601667,-3404.947333,-7772.162391,-4903.011187
22587.601999,-5921.647536,-12139.377449,-689.485948
22587.602332,1998.556043,-9474.636058,4213.525239
22587.602665,5625.565159,-74.020594,4903.011187
22587.602998,2368.659014,-13101.645173,8580.269578
22587.603331,5255.462188,-5255.462188,3447.429741
22587.603664,-1258.350101,-11843.295072,2374.896044
22587.603997,3627.009116,-5773.606348,-1608.800546
22587.604330,740.205942,-10955.047942,-3217.601092
22587.604663,-1480.411884,-16432.571912,2221.676944
22587.604996,2738.761985,-5921.647536,-2528.115143
22587.605329,-10066.800811,-12657.521608,-3064.381992
22587.605661,0.000000,-1554.432478,1838.629195
22587.605994,-2442.679609,-9474.636058,-2221.676944
22587.606327,592.164754,-9548.656652,3677.258390
22587.606660,-666.185348,-7994.224174,2681.334243
22587.606993,-296.082377,-12213.398043,3217.601092
22587.607326,6217.729913,-3627.009116,4673.182538
22587.607659,-666.185348,-11843.295072,-1149.143247
22587.607992,5551.544565,-9696.697840,-2068.457845
22587.608325,0.000000,-11769.274478,3600.648841
22587.608658,-3330.926739,-9548.656652,-4979.620737
22587.608990,3478.967927,-5921.647536,-536.266849
22587.609323,-5255.462188,-16580.613101,-689.485948
22587.609656,2368.659014,-4145.153275,1532.190996
22587.609989,-4515.256246,-9770.718434,-995.924147
22587.610322,1924.535449,-4811.338623,-76.609550
22587.610655,1776.494261,-9104.533087,3217.601092
22587.610988,2368.659014,-10140.821405,4903.011187
22587.611321,592.164754,-13471.748144,4213.525239
22587.611654,2294.638420,-8290.306550,-1762.019645
22587.611987,0.000000,-10732.986159,-2145.067394
22587.612319,2368.659014,-1850.514855,306.438199
22587.612652,1554.432478,-14211.954086,2068.457845
22587.612985,-444.123565,-5403.503377,-2987.772442
22587.613318,-1924.535449,-13915.871710,-2221.676944
22587.613651,2294.638420,-4737.318029,-689.485948
22587.613984,592.164754,-9548.656652,-76.609550
22587.614317,-2442.679609,-13471.748144,0.000000
22587.614650,0.000000,-5995.668130,3677.258390
22587.614983,-1924.535449,-9474.636058,2987.772442
22587.615316,6439.791695,-7402.059420,6128.763984
22587.615648,1776.494261,-5625.565159,-76.609550
22587.615981,4737.318029,-12509.480420,4136.915689
22587.616314,-2294.638420,-9474.636058,-995.924147
22587.616647,-1850.514855,-11843.295072,-4673.182538
22587.616980,-2368.659014,-8290.306550,-2221.676944
22587.617313,-3108.864956,-13027.624579,-3983.696590
22587.617646,-2368.659014,-9548.656652,0.000000
22587.617979,1110.308913,-7179.997637,0.000000
22587.618312,-74.020594,-9178.553681,-76.609550
22587.618645,7105.977043,-8956.491898,12870.404366
22587.618978,4293.194464,-9474.636058,7277.907231
22587.619310,3256.906145,-8364.327145,3677.258390
22587.619643,1184.329507,-6883.915261,2757.943793
22587.619976,2294.638420,-11251.130318,-3753.867940
22587.620309,2072.576638,-10140.821405,-612.876398
22587.620642,-3108.864956,-12805.562797,-4213.525239
22587.620975,-7772.162391,-14359.995275,-5286.058936
22587.621308,-1998.556043,-3627.009116,-2834.553343
22587.621641,0.000000,-5995.668130,1225.752797
22587.621974,3552.988522,-2738.761985,1532.190996
22587.622307,592.164754,-7772.162391,5132.839837
22587.622639,-2442.679609,-9770.718434,0.000000
22587.622972,1554.432478,-4811.338623,0.000000
22587.623305,4663.297435,-10658.965565,1762.019645
22587.623638,5033.400406,-10140.821405,995.924147
22587.623971,148.041188,-15692.365970,2911.162892
22587.624304,0.000000,-7920.203579,0.000000
22587.624637,-1776.494261,-9548.656652,1762.019645
22587.624970,-74.020594,-8438.347739,0.000000
22587.625303,-3256.906145,-5403.503377,-2451.505594
22587.625636,-5329.482782,-8364.327145,-1762.019645
22587.625968,-5329.482782,-7476.080014,-4290.134789
22587.626301,-666.185348,-5551.544565,153.219100
22587.626634,3034.844362,-9844.739029,3830.477490
22587.626967,4663.297435,-4515.256246,2681.334243
22587.627300,-2738.761985,-15840.407159,-766.095498
22587.627633,3182.885551,-11843.295072,-1608.800546
22587.627966,4071.132681,-12065.356855,-3677.258390
22587.628299,5329.482782,-12213.398043,8656.879127
22587.628632,7031.956449,-8290.306550,2987.772442
22587.628965,-2146.597232,-14582.057057,3907.087040
22587.629298,1628.453072,-2738.761985,536.266849
22587.629630,-888.247130,-3775.050304,-3064.381992
22587.629963,2146.597232,-8438.347739,2528.115143
22587.630296,-5921.647536,-5995.668130,-4903.011187
22587.630629,-3923.091493,-13693.809927,-3217.601092
22587.630962,-1036.288319,-9844.739029,1225.752797
22587.631295,3478.967927,-11843.295072,2987.772442
22587.631628,2590.720797,-8512.368333,2451.505594
22587.631961,-74.020594,-9474.636058,1149.143247
22587.632294,-3256.906145,-11399.171507,-76.609550
22587.632627,1184.329507,-5995.668130,0.000000
22587.632959,5181.441594,-8660.409521,4749.792088
22587.633292,2960.823768,-7328.038826,3064.381992
22587.633625,-1702.473667,-7772.162391,-2451.505594
22587.633958,-3997.112087,-10955.047942,-5822.325785
22587.634291,-370.102971,-8142.265362,-3753.867940
22587.634624,2294.638420,-13323.706956,3907.087040
22587.634957,0.000000,-9548.656652,3140.991542
22587.635290,-74.020594,-9474.636058,-3753.867940
22587.635623,-4219.173869,-9844.739029,-1225.752797
22587.635956,3627.009116,-4737.318029,3677.258390
22587.636288,5847.626942,-8882.471304,4366.744339
22587.636621,592.164754,-6883.915261,4366.744339
22587.636954,-8290.306550,-13175.665768,-3983.696590
22587.637287,-1924.535449,-8290.306550,-2987.772442
22587.637620,-2590.720797,-8438.347739,-4366.744339
22587.637953,5033.400406,-7105.977043,1225.752797
22587.638286,-2146.597232,-9548.656652,-3064.381992
22587.638619,-2294.638420,-11621.233289,0.000000
22587.638952,1850.514855,-11177.109724,8503.660028
22587.639285,6439.791695,-1184.329507,-2528.115143
22587.639618,7994.224174,-14211.954086,11568.042020
22587.639950,814.226536,-4885.359217,1225.752797
22587.640283,1480.411884,-9400.615463,-1838.629195
22587.640616,-1776.494261,-10881.027347,3064.381992
22587.640949,2294.638420,-9474.636058,-4979.620737
22587.641282,-3552.988522,-10140.821405,306.438199
22587.641615,-2146.597232,-8882.471304,-1455.581446
22587.641948,-3923.091493,-9474.636058,-7737.564530
22587.642281,-2960.823768,-7179.997637,0.000000
22587.642614,2146.597232,-5181.441594,0.000000
22587.642947,1628.453072,-12139.377449,4136.915689
22587.643279,2442.679609,-8216.285956,4596.572988
22587.643612,-1776.494261,-10807.006753,2298.286494
22587.643945,2442.679609,-5403.503377,0.000000
22587.644278,3552.988522,-9548.656652,4596.572988
22587.644611,4663.297435,-12435.459826,2987.772442
22587.644944,296.082377,-7179.997637,0.000000
22587.645277,-4145.153275,-13397.727550,-536.266849
22587.645610,-3034.844362,-5403.503377,-3677.258390
22587.645943,-1998.556043,-5255.462188,-6205.373534
22587.646276,0.000000,-9992.780217,1378.971896
22587.646608,-7772.162391,-12213.398043,-1072.533697
22587.646941,-2886.803174,-10881.027347,-2451.505594
22587.647274,-1480.411884,-9696.697840,2451.505594
22587.647607,5255.462188,-4959.379811,-76.609550
22587.647940,1332.370696,-14434.015869,5669.106685
22587.648273,7624.121203,-7698.141797,3907.087040
22587.648606,-74.020594,-11917.315666,1532.190996
22587.648939,296.082377,-3627.009116,1532.190996
22587.649272,7031.956449,-10658.965565,6052.154434
22587.649605,-3775.050304,-5403.503377,-5515.887586
22587.649937,2516.700203,-7772.162391,-76.609550
22587.650270,-12361.439231,-12805.562797,-8580.269578
22587.650603,3478.967927,-8142.265362,-2834.553343
22587.650936,-6069.688724,-16728.654289,1072.533697
22587.651269,3256.906145,-7328.038826,1762.019645
22587.651602,1702.473667,-6735.874072,3907.087040
22587.651935,4737.318029,-4811.338623,7431.126331
22587.652267,9252.574275,-5625.565159,7277.907231
22587.652600,1702.473667,-12435.459826,3600.648841
22587.652933,2368.659014,-7698.141797,-3140.991542
22587.653266,-6365.771101,-12361.439231,-4060.306139
22587.653599,1184.329507,-8364.327145,-4443.353888
22587.653932,2886.803174,-7698.141797,-2374.896044
22587.654265,-2368.659014,-16062.468941,3677.258390
22587.654597,1110.308913,-3701.029710,-4519.963438
22587.654930,-1554.432478,-16580.613101,3600.648841
22587.655263,4663.297435,-5329.482782,4826.401637
22587.655596,2368.659014,-3627.009116,2757.943793
22587.655929,1776.494261,-10140.821405,5822.325785
22587.656262,-740.205942,-8882.471304,1838.629195
22587.656595,-666.185348,-11399.171507,0.000000
22587.656928,2738.761985,-9992.780217,1072.533697
22587.657260,2220.617826,-8290.306550,-4366.744339
22587.657593,-4737.318029,-12509.480420,-4903.011187
22587.657926,-2442.679609,-10066.800811,-8656.879127
22587.658259,-666.185348,-12435.459826,-2451.505594
22587.658592,0.000000,-5995.668130,1838.629195
22587.658925,7624.121203,-12435.459826,13406.671215
22587.659258,2590.720797,-3552.988522,8503.660028
22587.659590,5403.503377,-2368.659014,3677.258390
22587.659923,296.082377,-7476.080014,3907.087040
22587.660256,4663.297435,-10510.924376,1608.800546
22587.660589,1554.432478,-15322.262999,-76.609550
22587.660922,-4811.338623,-11917.315666,-4903.011187
22587.661255,-6217.729913,-13397.727550,-8580.269578
22587.661588,-2442.679609,-9474.636058,-4979.620737
22587.661920,-74.020594,-6365.771101,-2528.115143
22587.662253,-1850.514855,-9474.636058,-842.705048
22587.662586,74.020594,-7328.038826,1225.752797
22587.662919,-148.041188,-8734.430116,4060.306139
22587.663252,6069.688724,-6217.729913,6665.030833
22587.663585,8512.368333,-10066.800811,7277.907231
22587.663918,4071.132681,-11177.109724,8350.440928
22587.664250,1702.473667,-8512.368333,-612.876398
22587.664583,814.226536,-11103.089130,-153.219100
22587.664916,-4737.318029,-8364.327145,-4290.134789
22587.665249,518.144159,-6217.729913,-5592.497135
22587.665582,-8068.244768,-13619.789333,-6205.373534
22587.665915,-9474.636058,-8660.409521,-4903.011187
22587.666248,-4811.338623,-8142.265362,-2528.115143
22587.666580,-1258.350101,-6587.832884,76.609550
22587.666913,6587.832884,-6661.853478,3983.696590
22587.667246,74.020594,-11029.068536,3140.991542
22587.667579,6143.709319,-9770.718434,2987.772442
22587.667912,3849.070898,-9844.739029,6128.763984
22587.668245,9400.615463,-8882.471304,4826.401637
22587.668578,3701.029710,-12805.562797,7354.516781
22587.668910,-3552.988522,-4811.338623,1225.752797
22587.669243,-666.185348,-6809.894666,-7431.126331
22587.669576,-7105.977043,-9548.656652,-4903.011187
22587.669909,-962.267725,-8290.306550,-4749.792088
22587.670242,-4219.173869,-8068.244768,-4443.353888
22587.670575,-3552.988522,-11769.274478,1455.581446
22587.670908,-74.020594,-8290.306550,-76.609550
22587.671240,4663.297435,-8290.306550,6052.154434
22587.671573,7846.182985,-7772.162391,7967.393179
22587.671906,3997.112087,-9474.636058,2374.896044
22587.672239,1702.473667,-18357.107362,842.705048
22587.672572,-74.020594,-10881.027347,-1915.238745
22587.672905,1776.494261,-5107.421000,-3983.696590
22587.673238,3182.885551,-18875.251521,1991.848295
22587.673570,1110.308913,3552.988522,689.485948
22587.673903,-4737.318029,-5403.503377,-4596.572988
22587.674236,-8364.327145,-27683.702231,-2145.067394
22587.674569,2368.659014,-4219.173869,4673.182538
22587.674902,11177.109724,13027.624579,-689.485948
22587.675235,592.164754,-7772.162391,6741.640382
22587.675568,-9474.636058,-12509.480420,229.828649
22587.675901,-9474.636058,-18283.086767,-1991.848295
22587.676233,2812.782580,-14804.118840,2451.505594
22587.676566,4663.297435,-16284.530724,-153.219100
22587.676899,2886.803174,-9474.636058,-8044.002729
22587.677232,1184.329507,-10732.986159,-7048.078582
22587.677565,3478.967927,-4737.318029,-2834.553343
22587.677898,5847.626942,-4441.235652,2451.505594
22587.678231,5329.482782,-6143.709319,11491.432470
22587.678563,-4145.153275,-666.185348,3677.258390
22587.678896,-444.123565,2368.659014,2681.334243
22587.679229,2664.741391,-4219.173869,7890.783629
22587.679562,4811.338623,-6069.688724,4519.963438
22587.679895,5255.462188,-8882.471304,4826.401637
22587.680228,-9474.636058,-19023.292709,-2451.505594
22587.680561,-4737.318029,-17838.963202,-4060.306139
22587.680893,-4589.276840,-14211.954086,-2374.896044
22587.681226,74.020594,-14730.098246,-1532.190996
22587.681559,-370.102971,-13027.624579,612.876398
22587.681892,-5181.441594,-7179.997637,-7354.516781
22587.682225,-1776.494261,-8216.285956,-76.609550
22587.682558,2294.638420,-2812.782580,1762.019645
22587.682891,4737.318029,-4811.338623,612.876398
22587.683223,7328.038826,-11843.295072,3294.210641
22587.683556,1628.453072,-13989.892304,2604.724693
22587.683889,1332.370696,-10288.862594,-4979.620737
22587.684222,1628.453072,-14285.974681,-3524.039291
22587.684555,2590.720797,-13027.624579,-3140.991542
22587.684888,-4441.235652,-13693.809927,-2604.724693
22587.685221,-4219.173869,-9474.636058,-6205.373534
22587.685553,-8882.471304,-5995.668130,-8273.831378
22587.685886,-4737.318029,-6513.812290,-459.657299
22587.686219,2886.803174,-2368.659014,2374.896044
22587.686552,-2664.741391,-3478.967927,842.705048
22587.686885,740.205942,-3330.926739,995.924147
22587.687218,-1258.350101,-10807.006753,1072.533697
22587.687551,2960.823768,-10436.903782,6128.763984
22587.687883,6513.812290,-10066.800811,6052.154434
22587.688216,2294.638420,-14656.077652,4826.401637
22587.688549,2294.638420,-7179.997637,0.000000
22587.688882,1776.494261,-9474.636058,5898.935335
22587.689215,1332.370696,-4219.173869,4596.572988
22587.689548,5255.462188,-4145.153275,229.828649
22587.689881,-4071.132681,-10436.903782,1149.143247
22587.690213,518.144159,-962.267725,-2834.553343
22587.690546,-3034.844362,-11843.295072,-76.609550
22587.690879,2294.638420,-9474.636058,-76.609550
22587.691212,814.226536,-10140.821405,0.000000
22587.691545,0.000000,-11769.274478,2451.505594
22587.691878,4663.297435,-9474.636058,-76.609550
22587.692211,296.082377,-10732.986159,3983.696590
22587.692543,6883.915261,-9178.553681,5592.497135
22587.692876,3552.988522,-8068.244768,3600.648841
22587.693209,-888.247130,-13619.789333,4366.744339
22587.693542,-1924.535449,-5329.482782,-76.609550
22587.693875,518.144159,-6809.894666,-3064.381992
22587.694208,370.102971,-8734.430116,-383.047749
22587.694541,-2664.741391,-8808.450710,-6358.592633
22587.694874,-4737.318029,-9548.656652,-4290.134789
22587.695206,-5773.606348,-10732.986159,-2451.505594
22587.695539,962.267725,-11547.212695,1149.143247
22587.695872,222.061783,-11843.295072,1149.143247
22587.696205,0.000000,-13693.809927,1838.629195
22587.696538,1702.473667,-8882.471304,2298.286494
22587.696871,444.123565,-7031.956449,612.876398
22587.697204,4663.297435,-7920.203579,2834.553343
22587.697536,1184.329507,-6291.750507,-2221.676944
22587.697869,0.000000,-12509.480420,0.000000
22587.698202,-370.102971,-6069.688724,-1608.800546
22587.698535,-74.020594,-8882.471304,-4979.620737
22587.698868,0.000000,-9104.533087,1378.971896
22587.699201,-3997.112087,-7179.997637,0.000000
22587.699534,296.082377,-10214.842000,0.000000
22587.699866,-2886.803174,-13027.624579,3294.210641
22587.700199,2368.659014,-5181.441594,1302.362347
22587.700532,148.041188,-10732.986159,6281.983084
22587.700865,1110.308913,-6513.812290,2068.457845
22587.701198,-4737.318029,-7179.997637,1838.629195
22587.701531,-4737.318029,-3627.009116,-3064.381992
22587.701864,592.164754,-5551.544565,2374.896044
22587.702196,-74.020594,-6661.853478,-3217.601092
22587.702529,1110.308913,-9104.533087,-76.609550
22587.702862,-2738.761985,-11251.130318,-2834.553343
22587.703195,1332.370696,-11769.274478,1072.533697
22587.703528,4515.256246,-13471.748144,6588.421283
22587.703861,5033.400406,-9474.636058,5515.887586
22587.704194,1702.473667,-13619.789333,4826.401637
22587.704526,1480.411884,-6587.832884,2757.943793
22587.704859,1184.329507,-5995.668130,3294.210641
22587.705192,4071.132681,-8586.388927,919.314598
22587.705525,0.000000,-6291.750507,0.000000
22587.705858,-6439.791695,-10510.924376,-4979.620737
22587.706191,-4293.194464,-9770.718434,-5056.230287
22587.706524,-2220.617826,-6957.935855,-6281.983084
22587.706856,222.061783,-8882.471304,-1915.238745
22587.707189,2886.803174,-7031.956449,-995.924147
22587.707522,-3552.988522,-13101.645173,3447.429741
22587.707855,3182.885551,-6439.791695,1149.143247
22587.708188,-74.020594,-13471.748144,0.000000
22587.708521,7105.977043,-7179.997637,5515.887586
22587.708854,3923.091493,-10066.800811,3677.258390
22587.709186,3256.906145,-11991.336260,306.438199
22587.709519,4589.276840,-10881.027347,1762.019645
22587.709852,-2072.576638,-7476.080014,-5822.325785
22587.710185,2590.720797,-10140.821405,-1378.971896
22587.710518,-4441.235652,-6439.791695,-6358.592633
22587.710851,-5625.565159,-10807.006753,-6281.983084
22587.711184,-4145.153275,-8734.430116,-1302.362347
22587.711516,1702.473667,-10288.862594,3907.087040
22587.711849,2294.638420,-6883.915261,7048.078582
22587.712182,592.164754,-4811.338623,306.438199
22587.712515,0.000000,-8956.491898,2757.943793
22587.712848,-1258.350101,-10658.965565,1608.800546
22587.713181,2960.823768,-7179.997637,0.000000
22587.713514,1702.473667,-9918.759623,689.485948
22587.713847,-6069.688724,-10288.862594,-7124.688131
22587.714179,-74.020594,-5995.668130,-4136.915689
22587.714512,-3627.009116,-8882.471304,-4979.620737
22587.714845,5847.626942,-5921.647536,0.000000
22587.715178,0.000000,-12657.521608,4826.401637
22587.715511,0.000000,-10732.986159,5439.278036
22587.715844,2294.638420,-10658.965565,1455.581446
22587.716177,4071.132681,-9474.636058,9729.412825
22587.716509,8290.306550,-2442.679609,6971.469032
22587.716842,222.061783,-9622.677246,3907.087040
22587.717175,-1480.411884,-9178.553681,-536.266849
22587.717508,-9474.636058,-8660.409521,-9039.926876
22587.717841,-4515.256246,-8068.244768,-9806.022374
22587.718174,-74.020594,-8882.471304,-5592.497135
22587.718507,-5847.626942,-13471.748144,-2911.162892
22587.718839,-5329.482782,-6587.832884,-1225.752797
22587.719172,-4293.194464,-8364.327145,-1915.238745
22587.719505,3997.112087,-4885.359217,3294.210641
22587.719838,9696.697840,-6439.791695,9652.803275
22587.720171,5551.544565,-10362.883188,7124.688131
22587.720504,5847.626942,-11843.295072,6665.030833
22587.720837,2368.659014,-9548.656652,1225.752797
22587.721169,6439.791695,-13619.789333,-76.609550
22587.721502,4737.318029,-11917.315666,1838.629195
22587.721835,-444.123565,-9474.636058,-76.609550
22587.722168,-5403.503377,-7105.977043,-8120.612279
22587.722501,-5033.400406,-9326.594869,-9039.926876
22587.722834,-1258.350101,-9474.636058,536.266849
22587.723167,148.041188,-4515.256246,689.485948
22587.723499,-3997.112087,-6291.750507,2068.457845
22587.723832,3478.967927,-7105.977043,2374.896044
22587.724165,-2072.576638,-6587.832884,3677.258390
22587.724498,4737.318029,-6291.750507,7354.516781
22587.724831,5847.626942,-11251.130318,1455.581446
22587.725164,-962.267725,-12213.398043,2221.676944
22587.725497,1110.308913,-10066.800811,-2528.115143
22587.725829,-1554.432478,-7698.141797,-3830.477490
22587.726162,888.247130,-6883.915261,-4290.134789
22587.726495,-2368.659014,-7476.080014,-3677.258390
22587.726828,-74.020594,-10362.883188,-3140.991542
22587.727161,-1036.288319,-12731.542202,5132.839837
22587.727494,2960.823768,-7254.018232,6665.030833
22587.727827,4663.297435,-7105.977043,7124.688131
22587.728159,1110.308913,-8364.327145,1225.752797
22587.728492,2146.597232,-10658.965565,2374.896044
22587.728825,-74.020594,-8142.265362,-1455.581446
22587.729158,-592.164754,-11029.068536,-2068.457845
22587.729491,148.041188,-13323.706956,612.876398
22587.729824,-7476.080014,-9178.553681,-9422.974625
22587.730157,-2220.617826,-6883.915261,-3983.696590
22587.730490,-4589.276840,-6661.853478,-3600.648841
22587.730822,2960.823768,-6291.750507,2681.334243
22587.731155,0.000000,-7476.080014,4903.011187
22587.731488,3478.967927,-9474.636058,2374.896044
22587.731821,1184.329507,-8586.388927,1149.143247
22587.732154,1184.329507,-11621.233289,5745.716235
22587.732487,7031.956449,-8290.306550,4826.401637
22587.732820,0.000000,-11917.315666,3983.696590
22587.733152,1110.308913,-11917.315666,-1455.581446
22587.733485,-3552.988522,-11177.109724,-3677.258390
22587.733818,-1554.432478,-8142.265362,-6205.373534
22587.734151,1406.391290,-7105.977043,842.705048
22587.734484,-2442.679609,-9474.636058,-4366.744339
22587.734817,-3552.988522,-7179.997637,766.095498
22587.735150,-4145.153275,-10881.027347,2374.896044
22587.735482,2590.720797,-8586.388927,919.314598
22587.735815,6069.688724,-9178.553681,11414.822920
22587.736148,2960.823768,-7031.956449,4366.744339
22587.736481,2738.761985,-9844.739029,4366.744339
22587.736814,2590.720797,-9622.677246,0.000000
22587.737147,2812.782580,-9918.759623,-995.924147
22587.737480,592.164754,-9844.739029,-4290.134789
22587.737812,-2368.659014,-11769.274478,-76.609550
22587.738145,-4219.173869,-6513.812290,-5132.839837
22587.738478,-4441.235652,-7179.997637,0.000000
22587.738811,2294.638420,-8882.471304,-76.609550
22587.739144,1332.370696,-7476.080014,2451.505594
22587.739477,-370.102971,-9696.697840,689.485948
22587.739810,1776.494261,-7550.100608,2451.505594
22587.740142,-814.226536,-7846.182985,76.609550
22587.740475,4737.318029,-12805.562797,5056.230287
22587.740808,2368.659014,-13545.768739,3064.381992
22587.741141,2516.700203,-8956.491898,306.438199
22587.741474,1776.494261,-11029.068536,2604.724693
22587.741807,4663.297435,-8882.471304,-76.609550
22587.742140,-666.185348,-5995.668130,612.876398
22587.742472,-3552.988522,-5403.503377,-3677.258390
22587.742805,-1406.391290,-8734.430116,-3907.087040
22587.743138,-6217.729913,-10732.986159,-1838.629195
22587.743471,2516.700203,-7031.956449,842.705048
22587.743804,1628.453072,-10066.800811,3524.039291
22587.744137,888.247130,-12953.603985,2221.676944
22587.744470,74.020594,-10955.047942,229.828649
22587.744802,0.000000,-10732.986159,1838.629195
22587.745135,3552.988522,-4811.338623,1838.629195
22587.745468,2294.638420,-13619.789333,5439.278036
22587.745801,1258.350101,-5329.482782,-1685.410096
22587.746134,-2738.761985,-9474.636058,229.828649
22587.746467,1110.308913,-7105.977043,-2528.115143
22587.746800,3034.844362,-6365.771101,766.095498
22587.747132,-888.247130,-9474.636058,-2145.067394
22587.747465,-962.267725,-10436.903782,-995.924147
22587.747798,-3627.009116,-12435.459826,-76.609550
22587.748131,-1628.453072,-9548.656652,0.000000
22587.748464,-1924.535449,-13619.789333,6052.154434
22587.748797,-3330.926739,-7179.997637,612.876398
22587.749130,-3552.988522,-6587.832884,3677.258390
22587.749463,-5995.668130,-9252.574275,306.438199
22587.749795,-1554.432478,-5181.441594,1149.143247
22587.750128,-7846.182985,-8586.388927,1532.190996
22587.750461,-3552.988522,-2960.823768,-3600.648841
22587.750793,-9474.636058,-7772.162391,-5822.325785
22587.751126,-4663.297435,-13915.871710,-1302.362347
22587.751459,-4071.132681,-11843.295072,-3447.429741
22587.751792,-6809.894666,-14878.139434,6741.640382
22587.752124,-2146.597232,-9474.636058,4826.401637
22587.752457,-8882.471304,-8660.409521,4443.353888
22587.752790,-2294.638420,-7105.977043,1378.971896
22587.753123,-2664.741391,-7698.141797,3753.867940
22587.753455,-4219.173869,-6661.853478,2145.067394
22587.753788,-4811.338623,-7105.977043,-76.609550
22587.754121,-12213.398043,-9548.656652,-4749.792088
22587.754454,-11251.130318,-6587.832884,-5975.544884
22587.754786,-7179.997637,-11251.130318,-4366.744339
22587.755119,-9474.636058,-10140.821405,-3983.696590
22587.755452,-3627.009116,-11843.295072,-2834.553343
22587.755785,-7476.080014,-13027.624579,1762.019645
22587.756117,296.082377,-6587.832884,2757.943793
22587.756450,-740.205942,-8956.491898,8273.831378
22587.756783,2294.638420,-7550.100608,5975.544884
22587.757116,0.000000,-7772.162391,5822.325785
22587.757448,-7402.059420,-10066.800811,-2604.724693
22587.757781,-7624.121203,-15914.427753,-5822.325785
22587.758114,-13619.789333,-11917.315666,-1225.752797
22587.758447,-8364.327145,-7994.224174,-2528.115143
22587.758779,-10140.821405,-6439.791695,-1225.752797
22587.759112,-10658.965565,-2146.597232,-2451.505594
22587.759445,-7772.162391,-6957.935855,-76.609550
22587.759778,-10658.965565,-10732.986159,5515.887586
22587.760110,-1776.494261,-6957.935855,1991.848295
22587.760443,-8216.285956,-12953.603985,6128.763984
22587.760776,-3182.885551,-7402.059420,842.705048
22587.761109,-8438.347739,-13027.624579,-689.485948
22587.761441,-9474.636058,-9548.656652,-1991.848295
22587.761774,-6291.750507,-7179.997637,-3677.258390
22587.762107,-8956.491898,-14211.954086,-1302.362347
22587.762440,-7179.997637,-8882.471304,-1608.800546
22587.762772,-11325.150913,-9474.636058,-76.609550
22587.763105,-7328.038826,-7698.141797,2374.896044
22587.763438,-6957.935855,-4959.379811,6511.811733
22587.763771,-4811.338623,-4441.235652,1532.190996
22587.764103,-6513.812290,-6809.894666,3983.696590
22587.764436,-8364.327145,-12583.501014,-383.047749
22587.764769,-8290.306550,-12805.562797,0.000000
22587.765102,-9252.574275,-16580.613101,1762.019645
22587.765434,-9548.656652,-10140.821405,-4136.915689
22587.765767,-13619.789333,-9844.739029,-2451.505594
22587.766100,-11325.150913,-9326.594869,-4749.792088
22587.766433,-10881.027347,-7105.977043,-1302.362347
22587.766765,-10955.047942,-5995.668130,459.657299
22587.767098,-7328.038826,-6365.771101,3294.210641
22587.767431,-11917.315666,-6291.750507,1762.019645
22587.767764,-7402.059420,-8734.430116,4213.525239
22587.768096,-9548.656652,-9474.636058,1762.019645
22587.768429,-9474.636058,-9548.656652,2451.505594
22587.768762,-7254.018232,-15396.283594,2987.772442
22587.769095,-9326.594869,-11473.192101,1532.190996
22587.769427,-8808.450710,-8808.450710,-1532.190996
22587.769760,-12657.521608,-10881.027347,-2451.505594
22587.770093,-10807.006753,-10658.965565,-4903.011187
22587.770426,-15396.283594,-9548.656652,0.000000
22587.770758,-10140.821405,-5921.647536,-2528.115143
22587.771091,-13323.706956,-8364.327145,2911.162892
22587.771424,-15396.283594,-6587.832884,3064.381992
22587.771757,-8364.327145,-6513.812290,2374.896044
22587.772089,-10066.800811,-7179.997637,3370.820191
22587.772422,-7402.059420,-10510.924376,2374.896044
22587.772755,-6883.915261,-11769.274478,4519.963438
22587.773088,-7698.141797,-11769.274478,1762.019645
22587.773420,-9474.636058,-10732.986159,153.219100
22587.773753,-9400.615463,-9844.739029,-3524.039291
22587.774086,-7105.977043,-7994.224174,-1915.238745
22587.774419,-10807.006753,-10955.047942,-689.485948
22587.774751,-8660.409521,-7105.977043,-689.485948
22587.775084,-13027.624579,-9548.656652,0.000000
22587.775417,-8364.327145,-7994.224174,2374.896044
22587.775750,-7772.162391,-7698.141797,1225.752797
22587.776082,-8586.388927,-7179.997637,1838.629195
22587.776415,-5995.668130,-12435.459826,4213.525239
22587.776748,-9030.512492,-11473.192101,2451.505594
22587.777081,-5625.565159,-10584.944971,2451.505594
22587.777413,-8290.306550,-8142.265362,612.876398
22587.777746,-8734.430116,-5995.668130,-3370.820191
22587.778079,-12731.542202,-7476.080014,-1225.752797
22587.778412,-9548.656652,-9178.553681,-4673.182538
22587.778744,-11473.192101,-7179.997637,-4903.011187
22587.779077,-11843.295072,-11917.315666,-76.609550
22587.779410,-11547.212695,-8956.491898,-689.485948
22587.779743,-8216.285956,-8364.327145,2681.334243
22587.780075,-5625.565159,-6143.709319,4519.963438
22587.780408,-5921.647536,-9252.574275,4979.620737
22587.780741,-6143.709319,-11695.253884,2374.896044
22587.781074,-8882.471304,-12213.398043,3600.648841
22587.781406,-7179.997637,-10658.965565,-1225.752797
22587.781739,-7105.977043,-7772.162391,2451.505594
22587.782072,-10658.965565,-8956.491898,-76.609550
22587.782405,-10732.986159,-10066.800811,-3677.258390
22587.782737,-14063.912898,-8660.409521,-3907.087040
22587.783070,-10881.027347,-8586.388927,-2221.676944
22587.783403,-10881.027347,-8956.491898,995.924147
22587.783736,-10584.944971,-7105.977043,842.705048
22587.784068,-8956.491898,-9474.636058,2987.772442
22587.784401,-10658.965565,-7179.997637,1378.971896
22587.784734,-9474.636058,-10140.821405,4366.744339
22587.785067,-5403.503377,-12731.542202,4213.525239
22587.785399,-8068.244768,-8586.388927,459.657299
22587.785732,-10732.986159,-8364.327145,-1762.019645
22587.786065,-10658.965565,-9252.574275,-2451.505594
22587.786398,-10510.924376,-9844.739029,-536.266849
22587.786730,-13323.706956,-9844.739029,-2145.067394
22587.787063,-11325.150913,-7698.141797,-5515.887586
22587.787396,-13323.706956,-10881.027347,-76.609550
22587.787729,-8364.327145,-10658.965565,2374.896044
22587.788061,-7402.059420,-5403.503377,4903.011187
22587.788394,-6661.853478,-7550.100608,5439.278036
22587.788727,-6291.750507,-8216.285956,2528.115143
22587.789060,-7994.224174,-11695.253884,2145.067394
22587.789392,-10658.965565,-12657.521608,-1378.971896
22587.789725,-11843.295072,-12065.356855,-2451.505594
22587.790058,-11325.150913,-10584.944971,-3064.381992
22587.790391,-9104.533087,-8290.306550,-76.609550
22587.790723,-8882.471304,-5033.400406,0.000000
22587.791056,-6883.915261,-4737.318029,-1532.190996
22587.791389,-12435.459826,-7772.162391,-2451.505594
22587.791722,-11029.068536,-11547.212695,-3140.991542
22587.792054,-11917.315666,-12213.398043,-2451.505594
22587.792387,-10658.965565,-14656.077652,3600.648841
22587.792720,-5403.503377,-10658.965565,4213.525239
22587.793053,-4441.235652,-6587.832884,7354.516781
22587.793385,-3552.988522,-3775.050304,5515.887586
22587.793718,-5181.441594,-4811.338623,2451.505594
22587.794051,-7179.997637,-7550.100608,-2145.067394
22587.794384,-9548.656652,-11843.295072,-3140.991542
22587.794716,-11621.233289,-11325.150913,-7814.174080
22587.795049,-12879.583391,-11621.233289,-6128.763984
22587.795382,-11917.315666,-11843.295072,-6818.249932
22587.795715,-14063.912898,-10732.986159,-4903.011187
22587.796047,-11917.315666,-11843.295072,1455.581446
22587.796380,-10066.800811,-9622.677246,5209.449386
22587.796713,-6291.750507,-8290.306550,9806.022374
22587.797046,-3182.885551,-6661.853478,12104.308868
22587.797378,-3108.864956,-2368.659014,8963.317327
22587.797711,-3182.885551,-74.020594,4903.011187
22587.798044,-1554.432478,-6513.812290,-76.609550
22587.798377,-6735.874072,-9474.636058,-6818.249932
22587.798709,-11103.089130,-12065.356855,-11644.651570
22587.799042,-12213.398043,-14582.057057,-13636.499864
22587.799375,-12065.356855,-14952.160028,-10189.070123
22587.799708,-8882.471304,-13397.727550,-4213.525239
22587.800040,-4589.276840,-9992.780217,2451.505594
22587.800373,-1184.329507,-7476.080014,7660.954980
22587.800706,962.267725,-7698.141797,14019.547613
22587.801039,3478.967927,-5921.647536,10801.946522
22587.801371,0.000000,-5403.503377,10725.336972
22587.801704,0.000000,-7772.162391,8503.660028
22587.802037,-1554.432478,-7402.059420,-919.314598
22587.802370,-4441.235652,-8882.471304,-3447.429741
22587.802702,-6069.688724,-10436.903782,-5515.887586
22587.803035,-7772.162391,-11177.109724,-5745.716235
22587.803368,-8734.430116,-11473.192101,-4903.011187
22587.803701,-7254.018232,-11695.253884,-2528.115143
22587.804033,-5033.400406,-9770.718434,2987.772442
22587.804366,-1924.535449,-8808.450710,7737.564530
22587.804699,-370.102971,-7698.141797,9729.412825
22587.805032,-1776.494261,-5995.668130,7967.393179
22587.805364,-3256.906145,-7772.162391,9806.022374
22587.805697,-666.185348,-9474.636058,8503.660028
22587.806030,-1258.350101,-10066.800811,4519.963438
22587.806363,-3034.844362,-9474.636058,3294.210641
22587.806695,-4219.173869,-8290.306550,689.485948
22587.807028,-5107.421000,-7550.100608,76.609550
22587.807361,-5773.606348,-9474.636058,2374.896044
22587.807694,-4441.235652,-9844.739029,5286.058936
22587.808026,-3034.844362,-12435.459826,10648.727422
22587.808359,-4737.318029,-10732.986159,15245.300410
22587.808692,-666.185348,-9474.636058,13713.109414
22587.809025,-1258.350101,-9178.553681,15858.176809
22587.809357,0.000000,-7328.038826,17466.977354
22587.809690,370.102971,-7179.997637,17160.539155
22587.810023,-666.185348,-7550.100608,15475.129060
22587.810356,-2960.823768,-6587.832884,13942.938064
22587.810688,-4441.235652,-7328.038826,12717.185267
22587.811021,-4737.318029,-5995.668130,12257.527968
22587.811354,-2738.761985,-8882.471304,14632.424012
22587.811687,-3034.844362,-6365.771101,13789.718964
22587.812019,-2072.576638,-6883.915261,20224.921147
22587.812352,3330.926739,-8882.471304,25357.760984
22587.812685,1258.350101,-6365.771101,23902.179538
22587.813018,1628.453072,-7179.997637,22446.598091
22587.813350,3108.864956,-8290.306550,23212.693589
22587.813683,2664.741391,-7772.162391,22676.426741
22587.814016,1184.329507,-8216.285956,22063.550342
22587.814349,-1258.350101,-6809.894666,15015.471761
22587.814681,-4737.318029,-7179.997637,14709.033562
22587.815014,0.000000,-4737.318029,20761.187996
22587.815347,518.144159,-3552.988522,19228.997000
22587.815679,3108.864956,-3404.947333,21603.893044
22587.816012,2812.782580,-4219.173869,22063.550342
22587.816345,3182.885551,-4959.379811,20454.749797
22587.816678,1924.535449,-6439.791695,17160.539155
22587.817010,2294.638420,-11843.295072,15858.176809
22587.817343,1702.473667,-10140.821405,15321.909960
22587.817676,0.000000,-12731.542202,19458.825649
22587.818009,-74.020594,-9474.636058,14632.424012
22587.818341,-4737.318029,-3034.844362,11031.775171
22587.818674,-74.020594,-6513.812290,13406.671215
22587.819007,296.082377,-5403.503377,16241.224558
22587.819340,-1332.370696,-6439.791695,14555.814462
22587.819672,-2442.679609,-7920.203579,11491.432470
22587.820005,-2442.679609,-9474.636058,11568.042020
22587.820338,-1776.494261,-7179.997637,10878.556072
22587.820671,0.000000,-8808.450710,10112.460574
22587.821003,3330.926739,-10214.842000,10418.898773
22587.821336,1776.494261,-10140.821405,12257.527968
22587.821669,3108.864956,-11473.192101,13406.671215
22587.822002,-74.020594,-8142.265362,7124.688131
22587.822334,-3775.050304,-8364.327145,1838.629195
22587.822667,-1480.411884,-10658.965565,6052.154434
22587.823000,-2146.597232,-6587.832884,4290.134789
22587.823333,-74.020594,-8882.471304,6052.154434
22587.823665,-2368.659014,-8438.347739,5745.716235
22587.823998,-2442.679609,-10955.047942,7277.907231
22587.824331,1998.556043,-10658.965565,9729.412825
22587.824664,2220.617826,-7105.977043,7277.907231
22587.824996,592.164754,-4811.338623,3677.258390
22587.825329,5847.626942,-9474.636058,6052.154434
22587.825662,4663.297435,-13619.789333,6511.811733
22587.825995,2738.761985,-9474.636058,5362.668486
22587.826327,-962.267725,-7698.141797,-1991.848295
22587.826660,-222.061783,-8660.409521,-2374.896044
22587.826993,-518.144159,-10732.986159,0.000000
22587.827326,-1184.329507,-9548.656652,306.438199
22587.827658,814.226536,-11547.212695,2374.896044
22587.827991,-3256.906145,-7179.997637,3677.258390
22587.828324,2886.803174,-8882.471304,6052.154434
22587.828657,296.082377,-6291.750507,4519.963438
22587.828989,444.123565,-7105.977043,2987.772442
22587.829322,370.102971,-9104.533087,2145.067394
22587.829655,2368.659014,-8586.388927,4826.401637
22587.829988,3552.988522,-7772.162391,3524.039291
22587.830320,1480.411884,-10140.821405,4903.011187
22587.830653,2294.638420,-12139.377449,1532.190996
22587.830986,-962.267725,-12435.459826,3677.258390
22587.831319,-74.020594,-9474.636058,-1302.362347
22587.831651,-4737.318029,-10732.986159,0.000000
22587.831984,-1776.494261,-11325.150913,4290.134789
22587.832317,444.123565,-13175.665768,10035.851024
22587.832650,666.185348,-6661.853478,10035.851024
22587.832982,666.185348,-5921.647536,6358.592633
22587.833315,2294.638420,-5921.647536,5439.278036
22587.833648,0.000000,-7772.162391,8580.269578
22587.833981,3478.967927,-13027.624579,9729.412825
22587.834313,0.000000,-9548.656652,7660.954980
22587.834646,-1184.329507,-12657.521608,10648.727422
22587.834979,-962.267725,-7698.141797,6435.202183
22587.835312,-3552.988522,-4293.194464,536.266849
22587.835644,-2590.720797,-11177.109724,3983.696590
22587.835977,-518.144159,-12361.439231,10342.289223
22587.836310,-222.061783,-13027.624579,14479.204912
22587.836643,-1184.329507,-7624.121203,17160.539155
22587.836975,740.205942,-7031.956449,15245.300410
22587.837308,4589.276840,-9622.677246,19535.435199
22587.837641,4811.338623,-6439.791695,20607.968896
22587.837974,4663.297435,-7105.977043,18003.244203
22587.838306,666.185348,-3330.926739,14709.033562
22587.838639,1702.473667,-9178.553681,17083.929605
22587.838972,-2146.597232,-7476.080014,14709.033562
22587.839305,-2664.741391,-4219.173869,11797.870669
22587.839637,-1554.432478,-7105.977043,11568.042020
22587.839970,-1554.432478,-8660.409521,16241.224558
22587.840303,1406.391290,-10658.965565,22369.988542
22587.840636,2368.659014,-8068.244768,25051.322785
22587.840968,0.000000,-3923.091493,19612.044749
22587.841301,1184.329507,-5403.503377,23902.179538
22587.841634,4071.132681,-4737.318029,20148.311597
22587.841967,3182.885551,-3997.112087,16317.834107
22587.842299,2368.659014,-5995.668130,21450.673944
22587.842632,1702.473667,-8586.388927,19841.873398
22587.842965,-2294.638420,-7105.977043,20148.311597
22587.843298,-3330.926739,148.041188,10112.460574
22587.843630,-2960.823768,-592.164754,6281.983084
22587.843963,-2590.720797,-6735.874072,7354.516781
22587.844296,-2368.659014,-12213.398043,14632.424012
22587.844629,-74.020594,-14434.015869,15015.471761
22587.844961,-1776.494261,-7179.997637,11031.775171
22587.845294,2960.823768,-11029.068536,15858.176809
22587.845627,2812.782580,-7772.162391,17160.539155
22587.845960,3701.029710,-7254.018232,13100.233016
22587.846292,1702.473667,-5847.626942,10265.679673
22587.846625,-666.185348,-6809.894666,6818.249932
22587.846958,-1258.350101,-7698.141797,7277.907231
22587.847291,666.185348,-8882.471304,8503.660028
22587.847623,-2442.679609,-5995.668130,1532.190996
22587.847956,-2960.823768,-10732.986159,5132.839837
22587.848289,1702.473667,-14211.954086,7277.907231
22587.848622,2886.803174,-12139.377449,14632.424012
22587.848954,-592.164754,-8660.409521,14096.157163
22587.849287,2664.741391,-11621.233289,15781.567259
22587.849620,1702.473667,-8882.471304,14709.033562
22587.849953,1184.329507,-370.102971,6128.763984
22587.850285,2886.803174,-1036.288319,1378.971896
22587.850618,0.000000,-11917.315666,4903.011187
22587.850951,296.082377,-11547.212695,6052.154434
22587.851284,-2442.679609,-9548.656652,1225.752797
22587.851616,-74.020594,-10658.965565,1149.143247
22587.851949,-1036.288319,-5033.400406,-3907.087040
22587.852282,1776.494261,-9252.574275,0.000000
22587.852615,2590.720797,-10807.006753,-459.657299
22587.852947,0.000000,-11325.150913,0.000000
22587.853280,1998.556043,-13841.851115,2757.943793
22587.853613,1628.453072,-14137.933492,5209.449386
22587.853946,518.144159,-7550.100608,766.095498
22587.854278,1258.350101,-2738.761985,-2757.943793
22587.854611,-888.247130,-9548.656652,-4903.011187
22587.854944,1406.391290,-8882.471304,-919.314598
22587.855277,-1184.329507,-6587.832884,0.000000
22587.855609,-1258.350101,-8290.306550,-4979.620737
22587.855942,-740.205942,-3923.091493,-9193.145976
22587.856275,-2368.659014,-10732.986159,-2451.505594
22587.856607,3330.926739,-11843.295072,-383.047749
22587.856940,-1628.453072,-12657.521608,-6281.983084
22587.857273,2590.720797,-14656.077652,-689.485948
22587.857606,5255.462188,-14211.954086,4826.401637
22587.857938,3552.988522,-5995.668130,2451.505594
22587.858271,3552.988522,-4811.338623,-383.047749
22587.858604,-1258.350101,-7402.059420,-11108.384721
22587.858937,-3552.988522,-10732.986159,-9806.022374
22587.859269,-1406.391290,-14211.954086,-7431.126331
22587.859602,-2368.659014,-10955.047942,-7124.688131
22587.859935,-3256.906145,-11103.089130,-5592.497135
22587.860268,-296.082377,-7698.141797,-2604.724693
22587.860600,-666.185348,-5181.441594,-5286.058936
22587.860933,0.000000,-7179.997637,-4136.915689
22587.861266,4663.297435,-18357.107362,2374.896044
22587.861599,5847.626942,-16580.613101,7277.907231
22587.861931,2368.659014,-5995.668130,7354.516781
22587.862264,1554.432478,-1776.494261,-1838.629195
22587.862597,592.164754,-3108.864956,-6665.030833
22587.862930,-1110.308913,-12213.398043,-4749.792088
22587.863262,-74.020594,-13915.871710,-2604.724693
22587.863595,-3552.988522,-12509.480420,-2451.505594
22587.863928,592.164754,-7772.162391,-76.609550
22587.864261,-1406.391290,-4589.276840,-5745.716235
22587.864593,0.000000,-8364.327145,-3677.258390
22587.864926,4441.235652,-16580.613101,4519.963438
22587.865259,4811.338623,-11917.315666,3983.696590
22587.865592,4071.132681,-14211.954086,7277.907231
22587.865924,2516.700203,-9770.718434,9729.412825
22587.866257,2516.700203,-2220.617826,2987.772442
22587.866590,-3256.906145,-666.185348,-6741.640382
22587.866923,1406.391290,-6365.771101,-5822.325785
22587.867255,-4293.194464,-17690.922014,-1608.800546
22587.867588,0.000000,-14137.933492,6052.154434
22587.867921,-1258.350101,-11843.295072,8503.660028
22587.868254,-1258.350101,-2664.741391,2987.772442
22587.868586,0.000000,1110.308913,0.000000
22587.868919,0.000000,-16210.510130,7277.907231
22587.869252,5255.462188,-7624.121203,7354.516781
22587.869585,-666.185348,-9474.636058,4213.525239
22587.869917,1036.288319,-5995.668130,3677.258390
22587.870250,2442.679609,-8290.306550,4596.572988
22587.870583,1998.556043,-15618.345376,9193.145976
22587.870915,1184.329507,-4219.173869,1838.629195
22587.871248,-1258.350101,-6587.832884,-7048.078582
22587.871581,1184.329507,-10066.800811,2374.896044
22587.871914,-74.020594,-12139.377449,5439.278036
22587.872246,-1258.350101,-10066.800811,3447.429741
22587.872579,-4145.153275,-6217.729913,766.095498
22587.872912,-2368.659014,-8216.285956,1302.362347
22587.873245,2220.617826,-9474.636058,5898.935335
22587.873577,1406.391290,-12213.398043,12870.404366
22587.873910,3849.070898,-6809.894666,13483.280765
22587.874243,1406.391290,-2220.617826,4903.011187
22587.874576,4367.215058,-7105.977043,3600.648841
22587.874908,-1110.308913,-7179.997637,-2451.505594
22587.875241,370.102971,-15988.448347,6665.030833
22587.875574,1258.350101,-6365.771101,1532.190996
22587.875907,-4441.235652,-8808.450710,-1915.238745
22587.876239,-296.082377,-9770.718434,0.000000
22587.876572,2812.782580,-17468.860231,7431.126331
22587.876905,5255.462188,-13027.624579,11261.603821
22587.877238,0.000000,-74.020594,2451.505594
22587.877570,-2442.679609,-4589.276840,-5362.668486
22587.877903,2516.700203,-4811.338623,2757.943793
22587.878236,4663.297435,-16580.613101,9116.536426
22587.878569,1110.308913,-10658.965565,4826.401637
22587.878901,-740.205942,-2368.659014,-4366.744339
22587.879234,-1850.514855,-6217.729913,-5286.058936
22587.879567,-740.205942,-2294.638420,-5975.544884
22587.879900,444.123565,-18727.210333,153.219100
22587.880232,-1258.350101,-21910.095883,3600.648841
22587.880565,-4145.153275,-4811.338623,0.000000
22587.880898,814.226536,-9178.553681,-76.609550
22587.881231,5847.626942,-4145.153275,229.828649
22587.881563,3478.967927,-9400.615463,2528.115143
22587.881896,2294.638420,-12435.459826,-76.609550
22587.882229,-666.185348,-9326.594869,-2451.505594
22587.882562,-2812.782580,-9770.718434,-4979.620737
22587.882894,4293.194464,-8808.450710,76.609550
22587.883227,1036.288319,-7994.224174,-3753.867940
22587.883560,-740.205942,-370.102971,-12563.966167
22587.883893,-3775.050304,-16802.674883,-7890.783629
22587.884225,-1036.288319,-15988.448347,-3907.087040
22587.884558,0.000000,-11325.150913,612.876398
22587.884891,888.247130,-11547.212695,2068.457845
22587.885223,-1554.432478,-10658.965565,-2528.115143
22587.885556,0.000000,-9548.656652,5515.887586
22587.885889,4219.173869,-6661.853478,3140.991542
22587.886222,4589.276840,-7772.162391,4903.011187
22587.886554,2294.638420,-3256.906145,-153.219100
22587.886887,-2442.679609,-8216.285956,-1915.238745
22587.887220,-3330.926739,-12731.542202,-1532.190996
22587.887553,-1924.535449,-8290.306550,-7431.126331
22587.887885,-74.020594,-9474.636058,-8044.002729
22587.888218,-2960.823768,-8364.327145,-8350.440928
22587.888551,0.000000,-18135.045579,3064.381992
22587.888884,-74.020594,-12287.418637,1608.800546
22587.889216,592.164754,-7476.080014,4519.963438
22587.889549,962.267725,-7772.162391,-1149.143247
22587.889882,2442.679609,-9178.553681,-995.924147
22587.890215,4663.297435,-7179.997637,1455.581446
22587.890547,2590.720797,-5921.647536,0.000000
22587.890880,4663.297435,-8290.306550,1455.581446
22587.891213,0.000000,-9696.697840,3600.648841
22587.891546,-518.144159,-4441.235652,-4979.620737
22587.891878,-2442.679609,-8660.409521,-10342.289223
22587.892211,-666.185348,-16580.613101,-689.485948
22587.892544,-888.247130,-15766.386565,5822.325785
22587.892877,-2442.679609,-15248.242405,7354.516781
22587.893209,-444.123565,-3627.009116,4213.525239
22587.893542,0.000000,-370.102971,76.609550
22587.893875,2590.720797,-4959.379811,2757.943793
22587.894208,1184.329507,-15840.407159,6971.469032
22587.894540,-2442.679609,-11843.295072,2757.943793
22587.894873,-1628.453072,-2294.638420,612.876398
22587.895206,0.000000,-1554.432478,-4596.572988
22587.895539,4811.338623,-10362.883188,3140.991542
22587.895871,3182.885551,-21317.931130,7124.688131
22587.896204,1036.288319,-12213.398043,5822.325785
22587.896537,-370.102971,-3552.988522,-1915.238745
22587.896870,1184.329507,-11917.315666,7507.735880
22587.897202,4367.215058,-5773.606348,8580.269578
22587.897535,814.226536,-9548.656652,1225.752797
22587.897868,592.164754,-12731.542202,4826.401637
22587.898200,-666.185348,-4663.297435,3677.258390
22587.898533,-2072.576638,-9252.574275,7890.783629
22587.898866,814.226536,-4663.297435,9116.536426
22587.899199,-3923.091493,-5625.565159,-1915.238745
22587.899531,-2442.679609,-1184.329507,-8044.002729
22587.899864,444.123565,-11843.295072,-2681.334243
22587.900197,-1406.391290,-19837.519246,2681.334243
22587.900530,4663.297435,-5033.400406,6052.154434
22587.900862,1184.329507,-4515.256246,1378.971896
22587.901195,4663.297435,-10658.965565,3600.648841
22587.901528,2368.659014,-20207.622217,7354.516781
22587.901861,6217.729913,-15396.283594,10648.727422
22587.902193,2886.803174,-4515.256246,6128.763984
22587.902526,-6513.812290,2294.638420,-2451.505594
22587.902859,-3627.009116,-3552.988522,-6971.469032
22587.903192,-1406.391290,-8586.388927,-2528.115143
22587.903524,740.205942,-11103.089130,-1302.362347
22587.903857,-1924.535449,-11473.192101,-3677.258390
22587.904190,-2516.700203,-12213.398043,1072.533697
22587.904523,-444.123565,-4145.153275,1762.019645
22587.904855,-74.020594,-11843.295072,6052.154434
22587.905188,4071.132681,-74.020594,0.000000
22587.905521,1184.329507,-5699.585753,-1991.848295
22587.905854,-3034.844362,-18135.045579,0.000000
22587.906186,-1776.494261,-18505.148550,1149.143247
22587.906519,1184.329507,-8586.388927,4673.182538
22587.906852,888.247130,-1406.391290,-3600.648841
22587.907185,2368.659014,-9548.656652,-1838.629195
22587.907517,2442.679609,-10658.965565,-689.485948
22587.907850,3330.926739,-8364.327145,-1838.629195
22587.908183,0.000000,-8364.327145,0.000000
22587.908516,-2664.741391,-2516.700203,-5362.668486
22587.908848,-6513.812290,-12509.480420,-919.314598
22587.909181,-5921.647536,-17246.798449,-1072.533697
22587.909514,-592.164754,-13397.727550,-2528.115143
22587.909847,4663.297435,-12213.398043,3753.867940
22587.910179,10584.944971,-5329.482782,9116.536426
22587.910512,3478.967927,-8290.306550,4213.525239
22587.910845,0.000000,-8364.327145,4903.011187
22587.911178,3330.926739,-9474.636058,-76.609550
22587.911510,-666.185348,10658.965565,-10801.946522
22587.911843,-2368.659014,-6587.832884,-9346.365076
22587.912176,-6365.771101,-25611.125593,-612.876398
22587.912508,-8882.471304,-12657.521608,-5822.325785
22587.912841,-1258.350101,-11251.130318,-5592.497135
22587.913174,6439.791695,-13619.789333,6665.030833
22587.913507,10288.862594,-4737.318029,4826.401637
22587.913839,6291.750507,-7328.038826,5822.325785
22587.914172,5477.523971,-6439.791695,0.000000
22587.914505,222.061783,-1850.514855,-4596.572988
22587.914838,-3552.988522,-13101.645173,2451.505594
22587.915170,-4811.338623,-21910.095883,-3140.991542
22587.915503,-9474.636058,-3627.009116,-11951.089769
22587.915836,-4441.235652,1110.308913,-13176.842566
22587.916169,444.123565,-10288.862594,-4903.011187
22587.916501,2812.782580,-9474.636058,-689.485948
22587.916834,4663.297435,-27239.578666,16317.834107
22587.917167,2960.823768,-6883.915261,12487.356617
22587.917500,888.247130,11399.171507,-1915.238745
22587.917832,222.061783,-2294.638420,-5592.497135
22587.918165,4663.297435,-17468.860231,0.000000
22587.918498,-2368.659014,-15470.304188,3064.381992
22587.918831,-1184.329507,-9696.697840,-4519.963438
22587.919163,-2442.679609,-17320.819043,766.095498
22587.919496,74.020594,148.041188,-5745.716235
22587.919829,4367.215058,-7402.059420,-1072.533697
22587.920162,-1480.411884,-11547.212695,-2068.457845
22587.920494,2960.823768,-8290.306550,-1608.800546
22587.920827,-2368.659014,-12805.562797,4136.915689
22587.921160,-1628.453072,-10732.986159,0.000000
22587.921493,0.000000,-11917.315666,7354.516781
22587.921825,-2146.597232,-10658.965565,1608.800546
22587.922158,-666.185348,-2812.782580,-3600.648841
22587.922491,-74.020594,-10658.965565,2834.553343
22587.922824,7624.121203,-7402.059420,8503.660028
22587.923156,4071.132681,-11843.295072,10725.336972
22587.923489,-74.020594,-2812.782580,3753.867940
22587.923822,-666.185348,0.000000,-4979.620737
22587.924155,-7698.141797,-8660.409521,-4979.620737
22587.924487,296.082377,-14434.015869,-76.609550
22587.924820,-74.020594,-15396.283594,2374.896044
22587.925153,0.000000,-11917.315666,6128.763984
22587.925486,2516.700203,-7179.997637,3830.477490
22587.925818,3775.050304,-9770.718434,5286.058936
22587.926151,7328.038826,-13175.665768,11568.042020
22587.926484,5403.503377,-3997.112087,6818.249932
22587.926816,0.000000,6735.874072,-8580.269578
22587.927149,0.000000,-11843.295072,-76.609550
22587.927482,-4811.338623,-17098.757260,1838.629195
22587.927815,-4515.256246,-10732.986159,0.000000
22587.928147,-5921.647536,-5107.421000,-4596.572988
22587.928480,-4219.173869,-74.020594,-9193.145976
22587.928813,592.164754,-10362.883188,-1378.971896
22587.929146,2664.741391,-17246.798449,11721.261119
22587.929478,3256.906145,-20651.745782,12793.794817
22587.929811,3478.967927,-1554.432478,6281.983084
22587.930144,3404.947333,9474.636058,-6511.811733
22587.930477,2072.576638,-5551.544565,-3217.601092
22587.930809,-370.102971,-16432.571912,3524.039291
22587.931142,-1258.350101,-18357.107362,-689.485948
22587.931475,-4811.338623,-11769.274478,-2987.772442
22587.931808,-2368.659014,-6587.832884,-8580.269578
22587.932140,1998.556043,-9474.636058,-1915.238745
22587.932473,1406.391290,-3627.009116,-2451.505594
22587.932806,0.000000,-5995.668130,-6588.421283
22587.933139,0.000000,-16580.613101,-766.095498
22587.933471,1776.494261,-17838.963202,2987.772442
22587.933804,5847.626942,-11473.192101,9193.145976
22587.934137,1776.494261,-5625.565159,3294.210641
22587.934470,-1258.350101,-4219.173869,-4903.011187
22587.934802,-1776.494261,-8734.430116,-689.485948
22587.935135,-74.020594,-9178.553681,-1915.238745
22587.935468,-74.020594,-6809.894666,-2451.505594
22587.935801,3478.967927,-9474.636058,-76.609550
22587.936133,-2072.576638,-8290.306550,-4673.182538
