#time,accel_x,accel_y,accel_z
20158.500575,-3552.988522,-7179.997637,-3677.258390
20158.500908,1702.473667,-9474.636058,-3753.867940
20158.501242,2516.700203,-9770.718434,-76.609550
20158.501575,5403.503377,-8364.327145,1685.410096
20158.501908,7402.059420,-8216.285956,3600.648841
20158.502242,10288.862594,-8882.471304,4213.525239
20158.502575,10584.944971,-8586.388927,2911.162892
20158.502908,9474.636058,-7476.080014,0.000000
20158.503242,8290.306550,-9992.780217,1149.143247
20158.503575,7624.121203,-10362.883188,-2757.943793
20158.503909,5625.565159,-9252.574275,-3524.039291
20158.504242,7179.997637,-10066.800811,-3064.381992
20158.504575,6587.832884,-9030.512492,-2911.162892
20158.504909,8956.491898,-9252.574275,-306.438199
20158.505242,10732.986159,-8364.327145,2451.505594
20158.505576,11843.295072,-8364.327145,7737.564530
20158.505909,14137.933492,-8882.471304,3294.210641
20158.506242,10214.842000,-7772.162391,612.876398
20158.506576,9474.636058,-12065.356855,4443.353888
20158.506909,4663.297435,-10732.986159,-1532.190996
20158.507242,2368.659014,-11843.295072,-2298.286494
20158.507576,370.102971,-10288.862594,-2757.943793
20158.507909,1184.329507,-8734.430116,-306.438199
20158.508243,2368.659014,-5107.421000,0.000000
20158.508576,3849.070898,-6365.771101,1838.629195
20158.508909,5403.503377,-5255.462188,1838.629195
20158.509243,7624.121203,-7105.977043,3907.087040
20158.509576,11769.274478,-8290.306550,4826.401637
20158.509910,9400.615463,-8882.471304,995.924147
20158.510243,4737.318029,-10436.903782,-612.876398
20158.510576,6217.729913,-13027.624579,-76.609550
20158.510910,2886.803174,-11917.315666,-4519.963438
20158.511243,2072.576638,-12509.480420,-3370.820191
20158.511576,-74.020594,-11547.212695,-3830.477490
20158.511910,-1332.370696,-11251.130318,-1302.362347
20158.512243,1110.308913,-7402.059420,536.266849
20158.512577,1110.308913,-6365.771101,2145.067394
20158.512910,4811.338623,-4737.318029,4826.401637
20158.513243,5033.400406,-6291.750507,10648.727422
20158.513577,7476.080014,-5625.565159,6052.154434
20158.513910,4663.297435,-5403.503377,612.876398
20158.514244,2294.638420,-11251.130318,-1302.362347
20158.514577,148.041188,-10288.862594,-4366.744339
20158.514910,-3182.885551,-13249.686362,-5745.716235
20158.515244,-5181.441594,-13545.768739,-6665.030833
20158.515577,-8290.306550,-13101.645173,-4903.011187
20158.515910,-3627.009116,-11547.212695,-2221.676944
20158.516244,0.000000,-6587.832884,4596.572988
20158.516577,4663.297435,-5921.647536,6665.030833
20158.516911,7624.121203,-2960.823768,6971.469032
20158.517244,8438.347739,-3330.926739,6741.640382
20158.517577,12287.418637,-4589.276840,6665.030833
20158.517911,10510.924376,-7105.977043,2374.896044
20158.518244,7550.100608,-11325.150913,-1991.848295
20158.518578,7031.956449,-13619.789333,-4979.620737
20158.518911,370.102971,-14285.974681,-8580.269578
20158.519244,-74.020594,-16284.530724,-6205.373534
20158.519578,-666.185348,-15988.448347,-4979.620737
20158.519911,-3404.947333,-11917.315666,-1225.752797
20158.520244,592.164754,-10140.821405,4903.011187
20158.520578,4071.132681,-6809.894666,7277.907231
20158.520911,6439.791695,-4145.153275,9729.412825
20158.521245,8586.388927,-3108.864956,9729.412825
20158.521578,11177.109724,0.000000,7277.907231
20158.521911,7105.977043,-2738.761985,6281.983084
20158.522245,10584.944971,-7105.977043,-1608.800546
20158.522578,4737.318029,-7179.997637,-8580.269578
20158.522912,1776.494261,-14211.954086,-8044.002729
20158.523245,1110.308913,-15988.448347,-11031.775171
20158.523578,-3404.947333,-18579.169144,-9269.755526
20158.523912,-3478.967927,-17172.777854,-6358.592633
20158.524245,-4219.173869,-16358.551318,-842.705048
20158.524578,-3775.050304,-13027.624579,2987.772442
20158.524912,-3552.988522,-8364.327145,8886.707777
20158.525245,3997.112087,-3108.864956,13330.061665
20158.525579,7772.162391,740.205942,15551.738609
20158.525912,9992.780217,2368.659014,13713.109414
20158.526245,9992.780217,0.000000,7277.907231
20158.526579,6513.812290,-3627.009116,2145.067394
20158.526912,5847.626942,-9474.636058,-5592.497135
20158.527246,-3034.844362,-11917.315666,-14709.033562
20158.527579,-10510.924376,-18875.251521,-17696.806004
20158.527912,-12287.418637,-19023.292709,-16394.443657
20158.528246,-11991.336260,-19837.519246,-9269.755526
20158.528579,-9548.656652,-16950.716072,-1685.410096
20158.528912,-7698.141797,-12731.542202,7277.907231
20158.529246,-2146.597232,-4959.379811,12257.527968
20158.529579,2960.823768,-74.020594,20224.921147
20158.529913,9400.615463,3552.988522,18079.853753
20158.530246,11769.274478,2368.659014,13406.671215
20158.530579,7402.059420,1110.308913,7507.735880
20158.530913,6439.791695,-3552.988522,-3753.867940
20158.531246,148.041188,-7994.224174,-11491.432470
20158.531580,-6883.915261,-16136.489536,-18079.853753
20158.531913,-12287.418637,-20207.622217,-20914.407095
20158.532246,-12287.418637,-22280.198854,-16854.100956
20158.532580,-12213.398043,-20355.663405,-9806.022374
20158.532913,-9474.636058,-15618.345376,-2451.505594
20158.533246,-4737.318029,-11917.315666,10572.117872
20158.533580,5847.626942,-5921.647536,18922.558801
20158.533913,9992.780217,3775.050304,22063.550342
20158.534247,13471.748144,4145.153275,20991.016645
20158.534580,12731.542202,3404.947333,13330.061665
20158.534913,12361.439231,1628.453072,4519.963438
20158.535247,7328.038826,-3256.906145,-5132.839837
20158.535580,-1036.288319,-9992.780217,-14172.766713
20158.535914,-5403.503377,-18949.272115,-21833.721693
20158.536247,-9548.656652,-21688.034101,-21757.112143
20158.536580,-12435.459826,-23760.610738,-13483.280765
20158.536914,-9474.636058,-22280.198854,-4443.353888
20158.537247,-5033.400406,-17320.819043,3447.429741
20158.537580,4071.132681,-9474.636058,15015.471761
20158.537914,11843.295072,-1998.556043,22906.255390
20158.538247,14434.015869,3256.906145,23212.693589
20158.538581,15322.262999,2960.823768,17083.929605
20158.538914,10584.944971,1184.329507,8503.660028
20158.539247,7994.224174,1110.308913,0.000000
20158.539581,3923.091493,-5551.544565,-9806.022374
20158.539914,-4145.153275,-11325.150913,-17313.758255
20158.540248,-7179.997637,-17690.922014,-19918.482948
20158.540581,-9400.615463,-23538.548956,-16317.834107
20158.540914,-8438.347739,-22354.219448,-10112.460574
20158.541248,-7179.997637,-22502.260637,-1608.800546
20158.541581,-1850.514855,-17024.736666,7201.297681
20158.541914,3552.988522,-8512.368333,15628.348159
20158.542248,8882.471304,-1406.391290,19918.482948
20158.542581,10510.924376,2664.741391,18616.120601
20158.542915,11769.274478,3256.906145,13406.671215
20158.543248,4737.318029,3478.967927,6741.640382
20158.543581,4515.256246,-2220.617826,-4979.620737
20158.543915,-4367.215058,-5329.482782,-14172.766713
20158.544248,-8586.388927,-13101.645173,-17160.539155
20158.544582,-9548.656652,-18949.272115,-17313.758255
20158.544915,-11177.109724,-22872.363608,-11721.261119
20158.545248,-9844.739029,-22280.198854,-4903.011187
20158.545582,-5921.647536,-19911.539840,3830.477490
20158.545915,74.020594,-11103.089130,10955.165621
20158.546248,6735.874072,-7105.977043,19228.997000
20158.546582,8808.450710,-1776.494261,16777.491406
20158.546915,5329.482782,3330.926739,14096.157163
20158.547249,5625.565159,3330.926739,8580.269578
20158.547582,1924.535449,2294.638420,-1225.752797
20158.547915,-1850.514855,-1628.453072,-8350.440928
20158.548249,-5995.668130,-7105.977043,-14632.424012
20158.548582,-8882.471304,-15100.201217,-15092.081311
20158.548916,-10658.965565,-18135.045579,-14709.033562
20158.549249,-7772.162391,-23094.425390,-8963.317327
20158.549582,-5995.668130,-22502.260637,-689.485948
20158.549916,-2368.659014,-15470.304188,7354.516781
20158.550249,5847.626942,-11843.295072,14632.424012
20158.550582,8364.327145,-4737.318029,16394.443657
20158.550916,8956.491898,-962.267725,13636.499864
20158.551249,9252.574275,2812.782580,8427.050478
20158.551583,7254.018232,0.000000,3830.477490
20158.551916,4737.318029,-1628.453072,-3370.820191
20158.552249,-74.020594,-5625.565159,-10495.508323
20158.552583,-4441.235652,-9844.739029,-12257.527968
20158.552916,-6661.853478,-14285.974681,-12257.527968
20158.553249,-3627.009116,-21021.848753,-7431.126331
20158.553583,-1258.350101,-23686.590144,-2528.115143
20158.553916,518.144159,-16654.633695,3677.258390
20158.554249,5403.503377,-13249.686362,10955.165621
20158.554583,8290.306550,-7179.997637,12257.527968
20158.554916,10584.944971,-5625.565159,14019.547613
20158.555250,6513.812290,-1258.350101,8503.660028
20158.555583,4663.297435,222.061783,1302.362347
20158.555916,1628.453072,-1184.329507,-3677.258390
20158.556250,-3552.988522,-2442.679609,-9193.145976
20158.556583,-3849.070898,-5551.544565,-10418.898773
20158.556916,-3627.009116,-13027.624579,-9882.631924
20158.557250,-4219.173869,-15692.365970,-8963.317327
20158.557583,-5921.647536,-19615.457463,-1225.752797
20158.557916,-1850.514855,-17764.942608,2374.896044
20158.558250,2368.659014,-15988.448347,8503.660028
20158.558583,5329.482782,-10140.821405,11261.603821
20158.558916,7920.203579,-6809.894666,11874.480219
20158.559250,6513.812290,-3923.091493,9806.022374
20158.559583,5477.523971,-666.185348,5592.497135
20158.559917,2294.638420,-2368.659014,-2681.334243
20158.560250,-3256.906145,-3627.009116,-9806.022374
20158.560583,-4737.318029,-7994.224174,-9882.631924
20158.560917,-7105.977043,-11917.315666,-11644.651570
20158.561250,-7254.018232,-15692.365970,-7431.126331
20158.561583,-6587.832884,-17394.839637,-1991.848295
20158.561917,-4219.173869,-15322.262999,3140.991542
20158.562250,1702.473667,-14211.954086,9116.536426
20158.562583,2960.823768,-9548.656652,14019.547613
20158.562917,5847.626942,-5477.523971,8580.269578
20158.563250,2960.823768,-3182.885551,7660.954980
20158.563584,1480.411884,-2664.741391,3600.648841
20158.563917,-370.102971,-4737.318029,-2528.115143
20158.564250,-4071.132681,-3997.112087,-7431.126331
20158.564584,-5477.523971,-6587.832884,-10035.851024
20158.564917,-7031.956449,-9844.739029,-10495.508323
20158.565250,-7550.100608,-12805.562797,-9039.926876
20158.565584,-4367.215058,-17764.942608,-2834.553343
20158.565917,-3256.906145,-14359.995275,1991.848295
20158.566250,1184.329507,-11917.315666,7660.954980
20158.566584,5477.523971,-10955.047942,12870.404366
20158.566917,7476.080014,-5921.647536,10955.165621
20158.567250,7105.977043,-3923.091493,9806.022374
20158.567584,5477.523971,-3108.864956,4213.525239
20158.567917,3627.009116,-3849.070898,-536.266849
20158.568251,-1776.494261,-4811.338623,-6435.202183
20158.568584,-3923.091493,-7550.100608,-11491.432470
20158.568917,-7105.977043,-9548.656652,-11644.651570
20158.569251,-7105.977043,-13693.809927,-7048.078582
20158.569584,-1850.514855,-15396.283594,-3753.867940
20158.569917,-370.102971,-13323.706956,2528.115143
20158.570251,2960.823768,-11917.315666,8580.269578
20158.570584,7031.956449,-10214.842000,11414.822920
20158.570917,8808.450710,-6439.791695,10878.556072
20158.571251,7105.977043,-5403.503377,9806.022374
20158.571584,7031.956449,-3849.070898,3140.991542
20158.571918,3775.050304,-4219.173869,-1685.410096
20158.572251,1110.308913,-6661.853478,-5975.544884
20158.572584,-1776.494261,-7698.141797,-9269.755526
20158.572918,-5921.647536,-9548.656652,-12257.527968
20158.573251,-4811.338623,-14211.954086,-9882.631924
20158.573584,-4811.338623,-14952.160028,-7048.078582
20158.573918,-2960.823768,-15470.304188,3294.210641
20158.574251,2294.638420,-14211.954086,7890.783629
20158.574584,2960.823768,-9844.739029,11338.213370
20158.574918,7476.080014,-6069.688724,12180.918418
20158.575251,7846.182985,-3849.070898,10495.508323
20158.575584,6735.874072,-3404.947333,6052.154434
20158.575918,1776.494261,-5477.523971,1072.533697
20158.576251,-1258.350101,-6217.729913,-7584.345430
20158.576585,-5921.647536,-7179.997637,-12257.527968
20158.576918,-6513.812290,-10732.986159,-9882.631924
20158.577251,-6883.915261,-13101.645173,-9652.803275
20158.577585,-7105.977043,-15470.304188,-3217.601092
20158.577918,-4293.194464,-13397.727550,995.924147
20158.578251,-1924.535449,-13027.624579,6741.640382
20158.578585,3923.091493,-8956.491898,11184.994271
20158.578918,6439.791695,-7698.141797,12793.794817
20158.579251,8216.285956,-1332.370696,7967.393179
20158.579585,6217.729913,-3997.112087,7890.783629
20158.579918,4663.297435,-6809.894666,-76.609550
20158.580252,-814.226536,-4811.338623,-6741.640382
20158.580585,-2738.761985,-8882.471304,-10035.851024
20158.580918,-5921.647536,-9770.718434,-12334.137518
20158.581252,-6661.853478,-13471.748144,-10725.336972
20158.581585,-5773.606348,-15322.262999,-6511.811733
20158.581918,-5625.565159,-14285.974681,-1685.410096
20158.582252,-3404.947333,-14285.974681,3677.258390
20158.582585,2072.576638,-11843.295072,10955.165621
20158.582918,5847.626942,-7698.141797,11568.042020
20158.583252,7624.121203,-1258.350101,11031.775171
20158.583585,9252.574275,-3256.906145,9422.974625
20158.583919,5107.421000,-1776.494261,2911.162892
20158.584252,2368.659014,-4589.276840,-2374.896044
20158.584585,-1258.350101,-7254.018232,-8120.612279
20158.584919,-4737.318029,-8364.327145,-12257.527968
20158.585252,-6883.915261,-14285.974681,-12257.527968
20158.585585,-6513.812290,-16210.510130,-7967.393179
20158.585919,-3775.050304,-16136.489536,-2374.896044
20158.586252,-296.082377,-14804.118840,6435.202183
20158.586585,4663.297435,-11843.295072,10955.165621
20158.586919,5847.626942,-7402.059420,11031.775171
20158.587252,7105.977043,-2442.679609,9959.241474
20158.587585,6513.812290,-2146.597232,9499.584175
20158.587919,5329.482782,-2590.720797,3677.258390
20158.588252,3108.864956,-4737.318029,-1915.238745
20158.588586,0.000000,-6587.832884,-7277.907231
20158.588919,-3849.070898,-9252.574275,-11031.775171
20158.589252,-4515.256246,-13619.789333,-12334.137518
20158.589586,-7105.977043,-16654.633695,-8580.269578
20158.589919,-6291.750507,-14285.974681,-4903.011187
20158.590252,-1480.411884,-16580.613101,3294.210641
20158.590586,2294.638420,-14804.118840,9116.536426
20158.590919,5847.626942,-9474.636058,13713.109414
20158.591252,7920.203579,-4737.318029,14325.985813
20158.591586,7846.182985,-1258.350101,11721.261119
20158.591919,6217.729913,-1406.391290,6128.763984
20158.592253,2516.700203,-3034.844362,-842.705048
20158.592586,-74.020594,-7105.977043,-5592.497135
20158.592919,-6513.812290,-8364.327145,-12257.527968
20158.593253,-6809.894666,-12731.542202,-12334.137518
20158.593586,-6883.915261,-15470.304188,-11338.213370
20158.593919,-6513.812290,-14878.139434,-5362.668486
20158.594253,-1850.514855,-15322.262999,153.219100
20158.594586,222.061783,-14063.912898,7737.564530
20158.594919,3775.050304,-9548.656652,11491.432470
20158.595253,6809.894666,-5255.462188,13942.938064
20158.595586,8216.285956,-2368.659014,10955.165621
20158.595919,4737.318029,-2886.803174,8044.002729
20158.596253,4663.297435,-4663.297435,2068.457845
20158.596586,-74.020594,-3997.112087,-7048.078582
20158.596920,-4145.153275,-8364.327145,-9193.145976
20158.597253,-5625.565159,-9548.656652,-12257.527968
20158.597586,-6439.791695,-14952.160028,-9806.022374
20158.597920,-5551.544565,-15766.386565,-6205.373534
20158.598253,-4441.235652,-15914.427753,-612.876398
20158.598586,-2960.823768,-13693.809927,3677.258390
20158.598920,4071.132681,-13619.789333,11568.042020
20158.599253,5107.421000,-6217.729913,11874.480219
20158.599586,4737.318029,-74.020594,11031.775171
20158.599920,5329.482782,-3923.091493,7507.735880
20158.600253,2664.741391,-962.267725,919.314598
20158.600587,1850.514855,-3849.070898,-3217.601092
20158.600920,-1554.432478,-7772.162391,-7890.783629
20158.601253,-4367.215058,-9400.615463,-11491.432470
20158.601587,-6365.771101,-13693.809927,-10725.336972
20158.601920,-3775.050304,-16358.551318,-5822.325785
20158.602253,-1702.473667,-16136.489536,-842.705048
20158.602587,74.020594,-15248.242405,5362.668486
20158.602920,4663.297435,-13027.624579,10955.165621
20158.603253,5847.626942,-6809.894666,11031.775171
20158.603587,6513.812290,-2442.679609,8580.269578
20158.603920,5329.482782,-3627.009116,9269.755526
20158.604253,3478.967927,-2368.659014,842.705048
20158.604587,0.000000,-3627.009116,-3064.381992
20158.604920,-1998.556043,-6883.915261,-8273.831378
20158.605254,-4441.235652,-8216.285956,-10265.679673
20158.605587,-4367.215058,-12435.459826,-9882.631924
20158.605920,-4071.132681,-14804.118840,-7277.907231
20158.606254,-3034.844362,-14582.057057,-3677.258390
20158.606587,-888.247130,-18357.107362,4060.306139
20158.606920,2294.638420,-16580.613101,8503.660028
20158.607254,3330.926739,-9252.574275,9193.145976
20158.607587,6439.791695,-7105.977043,12027.699319
20158.607920,5995.668130,-2442.679609,9193.145976
20158.608254,5329.482782,-2072.576638,4826.401637
20158.608587,2812.782580,-2442.679609,-612.876398
20158.608921,0.000000,-4811.338623,-5515.887586
20158.609254,-2738.761985,-6587.832884,-12257.527968
20158.609587,-4441.235652,-13545.768739,-9269.755526
20158.609921,-3923.091493,-16432.571912,-8044.002729
20158.610254,-4219.173869,-15692.365970,-5209.449386
20158.610587,-3552.988522,-15766.386565,536.266849
20158.610921,-74.020594,-13619.789333,5745.716235
20158.611254,2886.803174,-9474.636058,9652.803275
20158.611587,4811.338623,-5995.668130,11568.042020
20158.611921,7031.956449,-3552.988522,11261.603821
20158.612254,2368.659014,-1554.432478,5669.106685
20158.612587,2294.638420,-4737.318029,-689.485948
20158.612921,-2368.659014,-4219.173869,-4136.915689
20158.613254,-1850.514855,-8290.306550,-7354.516781
20158.613588,-2812.782580,-10955.047942,-9806.022374
20158.613921,-2886.803174,-14211.954086,-8044.002729
20158.614254,-3108.864956,-16136.489536,-5286.058936
20158.614588,-2368.659014,-17616.901420,-459.657299
20158.614921,-666.185348,-15100.201217,3447.429741
20158.615254,2960.823768,-13471.748144,9729.412825
20158.615588,3182.885551,-5995.668130,8733.488677
20158.615921,3552.988522,-2442.679609,11797.870669
20158.616254,6735.874072,-2368.659014,7277.907231
20158.616588,4737.318029,-444.123565,2451.505594
20158.616921,3182.885551,-3552.988522,-995.924147
20158.617255,-148.041188,-5551.544565,-6281.983084
20158.617588,-2368.659014,-10140.821405,-9499.584175
20158.617921,-4515.256246,-14063.912898,-10035.851024
20158.618255,-3997.112087,-17764.942608,-7124.688131
20158.618588,-4219.173869,-18431.127956,-3064.381992
20158.618921,-222.061783,-15766.386565,2145.067394
20158.619255,1998.556043,-13027.624579,8044.002729
20158.619588,5551.544565,-8882.471304,9729.412825
20158.619921,5329.482782,-3182.885551,9806.022374
20158.620255,6217.729913,-3849.070898,9116.536426
20158.620588,4071.132681,-74.020594,2451.505594
20158.620922,592.164754,-2442.679609,-1225.752797
20158.621255,1702.473667,-5625.565159,-5898.935335
20158.621588,-2368.659014,-9252.574275,-8656.879127
20158.621922,-3256.906145,-12435.459826,-9576.193725
20158.622255,-5255.462188,-16136.489536,-8810.098227
20158.622588,-6365.771101,-16654.633695,-6128.763984
20158.622922,-2072.576638,-18357.107362,2374.896044
20158.623255,-74.020594,-15396.283594,6052.154434
20158.623588,1184.329507,-7772.162391,10418.898773
20158.623922,6883.915261,-7698.141797,13406.671215
20158.624255,3923.091493,-74.020594,7967.393179
20158.624588,4663.297435,-1480.411884,4979.620737
20158.624922,1850.514855,-2368.659014,-536.266849
20158.625255,-740.205942,-5403.503377,-5056.230287
20158.625589,-4737.318029,-8364.327145,-9806.022374
20158.625922,-666.185348,-13027.624579,-9882.631924
20158.626255,-4293.194464,-14285.974681,-7354.516781
20158.626589,-6513.812290,-15766.386565,-2451.505594
20158.626922,-666.185348,-17172.777854,-76.609550
20158.627255,-2960.823768,-14434.015869,6128.763984
20158.627589,1554.432478,-9992.780217,7660.954980
20158.627922,2812.782580,-6217.729913,9806.022374
20158.628255,4811.338623,-2442.679609,9346.365076
20158.628589,4663.297435,-3849.070898,7890.783629
20158.628922,1998.556043,-3552.988522,-76.609550
20158.629256,-2368.659014,-3034.844362,-2451.505594
20158.629589,-1850.514855,-8734.430116,-6205.373534
20158.629922,-1850.514855,-7698.141797,-9269.755526
20158.630256,-4441.235652,-12509.480420,-6128.763984
20158.630589,-3997.112087,-15840.407159,-6741.640382
20158.630922,-2442.679609,-17172.777854,-1608.800546
20158.631256,-1924.535449,-16062.468941,3294.210641
20158.631589,3478.967927,-13471.748144,8503.660028
20158.631922,3330.926739,-7920.203579,8273.831378
20158.632256,5477.523971,-3775.050304,8427.050478
20158.632589,4737.318029,-2294.638420,7277.907231
20158.632922,3849.070898,-74.020594,1378.971896
20158.633256,1776.494261,-1850.514855,-1838.629195
20158.633589,3182.885551,-8290.306550,-4366.744339
20158.633923,-1628.453072,-7179.997637,-8580.269578
20158.634256,-4145.153275,-12509.480420,-8273.831378
20158.634589,-3997.112087,-15988.448347,-7431.126331
20158.634923,-2664.741391,-14878.139434,-2298.286494
20158.635256,-1184.329507,-14952.160028,2604.724693
20158.635589,1184.329507,-12139.377449,6052.154434
20158.635923,2368.659014,-8364.327145,7354.516781
20158.636256,4367.215058,-4145.153275,6128.763984
20158.636589,5033.400406,-5921.647536,7277.907231
20158.636923,4663.297435,-1480.411884,1225.752797
20158.637256,1702.473667,-3404.947333,-2451.505594
20158.637590,0.000000,-4367.215058,-4596.572988
20158.637923,-296.082377,-9400.615463,-6052.154434
20158.638256,-2368.659014,-11029.068536,-7967.393179
20158.638590,-2738.761985,-15840.407159,-6894.859482
20158.638923,-1258.350101,-17764.942608,-2528.115143
20158.639256,-3849.070898,-15470.304188,2451.505594
20158.639590,-74.020594,-14211.954086,4826.401637
20158.639923,0.000000,-8364.327145,7660.954980
20158.640256,3923.091493,-6513.812290,9729.412825
20158.640590,6439.791695,-3404.947333,9422.974625
20158.640923,3627.009116,-2220.617826,5132.839837
20158.641256,1036.288319,-3552.988522,-76.609550
20158.641590,-666.185348,-5477.523971,-4366.744339
20158.641923,-2072.576638,-7476.080014,-6894.859482
20158.642257,-3552.988522,-10881.027347,-5898.935335
20158.642590,-4737.318029,-13101.645173,-8580.269578
20158.642923,-4737.318029,-14285.974681,-4290.134789
20158.643257,-2960.823768,-17764.942608,1455.581446
20158.643590,-666.185348,-12287.418637,2834.553343
20158.643923,1628.453072,-11251.130318,7277.907231
20158.644257,3256.906145,-6735.874072,8656.879127
20158.644590,4145.153275,-3849.070898,7584.345430
20158.644923,3997.112087,-2738.761985,5056.230287
20158.645257,3182.885551,-4737.318029,-76.609550
20158.645590,0.000000,-3627.009116,-2451.505594
20158.645924,2294.638420,-8290.306550,-3140.991542
20158.646257,-74.020594,-9474.636058,-7431.126331
20158.646590,-3330.926739,-11251.130318,-7890.783629
20158.646924,-2442.679609,-15988.448347,-4903.011187
20158.647257,-4293.194464,-16062.468941,-2451.505594
20158.647590,-2590.720797,-14285.974681,1838.629195
20158.647924,-296.082377,-11917.315666,5745.716235
20158.648257,3478.967927,-8882.471304,7277.907231
20158.648590,3182.885551,-2960.823768,7048.078582
20158.648924,4441.235652,-2590.720797,5515.887586
20158.649257,3552.988522,-2146.597232,2145.067394
20158.649590,2368.659014,-2442.679609,-2145.067394
20158.649924,3775.050304,-8290.306550,-2528.115143
20158.650257,-814.226536,-8290.306550,-7431.126331
20158.650591,-2368.659014,-11917.315666,-6128.763984
20158.650924,-370.102971,-15988.448347,-5745.716235
20158.651257,-1850.514855,-15026.180623,-3677.258390
20158.651590,-740.205942,-15248.242405,1455.581446
20158.651923,0.000000,-13027.624579,5362.668486
20158.652257,1332.370696,-9770.718434,6971.469032
20158.652590,2368.659014,-5403.503377,8886.707777
20158.652923,5847.626942,-3552.988522,5745.716235
20158.653256,296.082377,-1850.514855,3677.258390
20158.653589,1702.473667,-1554.432478,-1608.800546
20158.653922,2294.638420,-7105.977043,-1915.238745
20158.654256,-2072.576638,-5995.668130,-6741.640382
20158.654589,-2368.659014,-10732.986159,-6128.763984
20158.654922,-2886.803174,-15100.201217,-6818.249932
20158.655255,-5033.400406,-16728.654289,-4213.525239
20158.655588,-3034.844362,-16580.613101,-689.485948
20158.655921,-1258.350101,-16580.613101,2987.772442
20158.656255,-1776.494261,-9548.656652,6128.763984
20158.656588,3775.050304,-7105.977043,9729.412825
20158.656921,7031.956449,-2960.823768,7584.345430
20158.657254,4663.297435,-2294.638420,7890.783629
20158.657587,5403.503377,-1258.350101,1838.629195
20158.657920,2738.761985,-5403.503377,-1072.533697
20158.658254,888.247130,-8290.306550,-4979.620737
20158.658587,-2368.659014,-10140.821405,-8427.050478
20158.658920,-2442.679609,-15100.201217,-8503.660028
20158.659253,-6513.812290,-16654.633695,-3064.381992
20158.659586,-2442.679609,-16284.530724,-1302.362347
20158.659919,-3182.885551,-14211.954086,1455.581446
20158.660253,-1924.535449,-8882.471304,4213.525239
20158.660586,2294.638420,-6809.894666,7890.783629
20158.660919,5107.421000,-2442.679609,8120.612279
20158.661252,3997.112087,-2294.638420,5898.935335
20158.661585,3552.988522,-3256.906145,2451.505594
20158.661918,0.000000,-4811.338623,0.000000
20158.662252,2294.638420,-8290.306550,-2528.115143
20158.662585,1998.556043,-9474.636058,-7431.126331
20158.662918,-2812.782580,-12213.398043,-7201.297681
20158.663251,-3997.112087,-17172.777854,-4979.620737
20158.663584,-3923.091493,-16580.613101,-2374.896044
20158.663917,-2146.597232,-15470.304188,1838.629195
20158.664250,-1110.308913,-12435.459826,5132.839837
20158.664584,2368.659014,-8734.430116,8886.707777
20158.664917,3108.864956,-2590.720797,8120.612279
20158.665250,4663.297435,-2368.659014,7354.516781
20158.665583,4737.318029,0.000000,3677.258390
20158.665916,3478.967927,-5107.421000,1532.190996
20158.666249,2368.659014,-5403.503377,-2451.505594
20158.666583,-1924.535449,-7179.997637,-9422.974625
20158.666916,-2220.617826,-15396.283594,-7431.126331
20158.667249,-4811.338623,-16062.468941,-8427.050478
20158.667582,-4219.173869,-16580.613101,-3140.991542
20158.667915,-2664.741391,-16802.674883,2374.896044
20158.668248,-2664.741391,-12879.583391,3753.867940
20158.668582,-148.041188,-9178.553681,5745.716235
20158.668915,2960.823768,-3775.050304,8580.269578
20158.669248,6143.709319,-3552.988522,9116.536426
20158.669581,1924.535449,-74.020594,4903.011187
20158.669914,5551.544565,-6143.709319,4826.401637
20158.670247,2294.638420,-3997.112087,-2451.505594
20158.670581,0.000000,-5995.668130,-4903.011187
20158.670914,-962.267725,-13619.789333,-7737.564530
20158.671247,-4293.194464,-15840.407159,-8044.002729
20158.671580,-5847.626942,-17394.839637,-5975.544884
20158.671913,-4589.276840,-17246.798449,-1685.410096
20158.672246,-3034.844362,-14211.954086,2834.553343
20158.672580,-3552.988522,-9548.656652,7967.393179
20158.672913,4663.297435,-5181.441594,11568.042020
20158.673246,7031.956449,-2368.659014,8197.221829
20158.673579,5033.400406,-74.020594,7354.516781
20158.673912,4663.297435,-2664.741391,1532.190996
20158.674245,3108.864956,-4589.276840,-1149.143247
20158.674579,1406.391290,-7624.121203,-4979.620737
20158.674912,-962.267725,-11843.295072,-8044.002729
20158.675245,-2664.741391,-14285.974681,-9193.145976
20158.675578,-6513.812290,-17246.798449,-3140.991542
20158.675911,-2442.679609,-17764.942608,-2068.457845
20158.676244,-3034.844362,-15396.283594,1149.143247
20158.676578,0.000000,-10288.862594,6128.763984
20158.676911,3034.844362,-5107.421000,7660.954980
20158.677244,5107.421000,-2738.761985,9576.193725
20158.677577,4737.318029,-962.267725,7431.126331
20158.677910,3849.070898,-3478.967927,3907.087040
20158.678243,2368.659014,-2516.700203,-536.266849
20158.678577,1258.350101,-7105.977043,-3907.087040
20158.678910,-1110.308913,-9992.780217,-7431.126331
20158.679243,-1554.432478,-13397.727550,-8656.879127
20158.679576,-3034.844362,-18949.272115,-6205.373534
20158.679909,-3627.009116,-16876.695478,-5745.716235
20158.680242,-5921.647536,-16802.674883,1455.581446
20158.680576,-592.164754,-13545.768739,6971.469032
20158.680909,2294.638420,-7698.141797,7584.345430
20158.681242,5921.647536,-3849.070898,9806.022374
20158.681575,5847.626942,-2072.576638,7814.174080
20158.681908,5921.647536,-2368.659014,5286.058936
20158.682241,6217.729913,-3404.947333,2451.505594
20158.682574,2886.803174,-5921.647536,-3447.429741
20158.682908,-296.082377,-10066.800811,-7431.126331
20158.683241,-3552.988522,-12213.398043,-7660.954980
20158.683574,-4219.173869,-18209.066173,-6205.373534
20158.683907,-3627.009116,-16580.613101,-5592.497135
20158.684240,-5107.421000,-16580.613101,-689.485948
20158.684573,-3330.926739,-12287.418637,3064.381992
20158.684907,0.000000,-8808.450710,7277.907231
20158.685240,3256.906145,-3997.112087,8656.879127
20158.685573,2368.659014,-1850.514855,7354.516781
20158.685906,5847.626942,-2072.576638,4060.306139
20158.686239,4737.318029,-3330.926739,4826.401637
20158.686572,2294.638420,-4737.318029,-2757.943793
20158.686906,0.000000,-8068.244768,-6741.640382
20158.687239,-1998.556043,-10436.903782,-9806.022374
20158.687572,-4515.256246,-17024.736666,-8197.221829
20158.687905,-4885.359217,-17394.839637,-7048.078582
20158.688238,-5329.482782,-17098.757260,-2145.067394
20158.688571,-1850.514855,-16580.613101,4826.401637
20158.688905,-370.102971,-7772.162391,5515.887586
20158.689238,4663.297435,-5921.647536,9729.412825
20158.689571,5847.626942,-518.144159,7507.735880
20158.689904,5921.647536,-2442.679609,9116.536426
20158.690237,7328.038826,-2368.659014,4596.572988
20158.690570,3478.967927,-5847.626942,-76.609550
20158.690904,-666.185348,-8660.409521,-6894.859482
20158.691237,-1480.411884,-9548.656652,-9116.536426
20158.691570,-4811.338623,-16580.613101,-9882.631924
20158.691903,-4737.318029,-15470.304188,-3677.258390
20158.692236,-3923.091493,-16580.613101,-3753.867940
20158.692569,-3552.988522,-13693.809927,536.266849
20158.692903,0.000000,-11325.150913,8503.660028
20158.693236,4589.276840,-7698.141797,10035.851024
20158.693569,5329.482782,-3478.967927,9652.803275
20158.693902,6143.709319,-1554.432478,6741.640382
20158.694235,6661.853478,-1554.432478,3753.867940
20158.694568,3478.967927,-4441.235652,842.705048
20158.694902,2664.741391,-5995.668130,-3447.429741
20158.695235,0.000000,-8956.491898,-7048.078582
20158.695568,-3034.844362,-13693.809927,-9806.022374
20158.695901,-4515.256246,-16284.530724,-8197.221829
20158.696234,-4811.338623,-18949.272115,-6205.373534
20158.696567,-5329.482782,-16062.468941,0.000000
20158.696901,-1184.329507,-14211.954086,7277.907231
20158.697234,1702.473667,-7105.977043,6128.763984
20158.697567,3108.864956,-3330.926739,10112.460574
20158.697900,8512.368333,-2368.659014,8503.660028
20158.698233,6957.935855,-1406.391290,6818.249932
20158.698566,6513.812290,-2960.823768,3294.210641
20158.698900,5107.421000,-5181.441594,-1915.238745
20158.699233,1628.453072,-8142.265362,-6665.030833
20158.699566,-2368.659014,-11325.150913,-8580.269578
20158.699899,-2146.597232,-17616.901420,-7431.126331
20158.700232,-3627.009116,-16876.695478,-8886.707777
20158.700565,-4737.318029,-16654.633695,-1455.581446
20158.700898,-666.185348,-14063.912898,1302.362347
20158.701232,2886.803174,-9474.636058,7124.688131
20158.701565,5551.544565,-4293.194464,9806.022374
20158.701898,7624.121203,-1924.535449,9729.412825
20158.702231,5329.482782,-1554.432478,7354.516781
20158.702564,2368.659014,-2442.679609,5439.278036
20158.702897,4071.132681,-3849.070898,-2911.162892
20158.703231,0.000000,-5995.668130,-6741.640382
20158.703564,-2960.823768,-10140.821405,-7814.174080
20158.703897,-5551.544565,-14878.139434,-9193.145976
20158.704230,-7328.038826,-17838.963202,-7431.126331
20158.704563,-7772.162391,-17394.839637,-3753.867940
20158.704896,-7328.038826,-15396.283594,306.438199
20158.705230,-222.061783,-11547.212695,6971.469032
20158.705563,1184.329507,-6513.812290,12180.918418
20158.705896,5551.544565,-74.020594,8120.612279
20158.706229,5033.400406,-1850.514855,11261.603821
20158.706562,7031.956449,-2960.823768,7124.688131
20158.706895,3849.070898,-3775.050304,2374.896044
20158.707229,296.082377,-8364.327145,-4826.401637
20158.707562,-3404.947333,-10140.821405,-9499.584175
20158.707895,-6513.812290,-16580.613101,-9729.412825
20158.708228,-7994.224174,-16580.613101,-8044.002729
20158.708561,-6587.832884,-17172.777854,-4979.620737
20158.708894,-7105.977043,-14285.974681,0.000000
20158.709228,-2368.659014,-11991.336260,7124.688131
20158.709561,1110.308913,-5033.400406,7660.954980
20158.709894,4737.318029,-1554.432478,12410.747068
20158.710227,5403.503377,-1332.370696,9729.412825
20158.710560,6217.729913,-1184.329507,6052.154434
20158.710893,2664.741391,-3849.070898,1685.410096
20158.711227,962.267725,-4737.318029,-4366.744339
20158.711560,-370.102971,-9178.553681,-8656.879127
20158.711893,-2664.741391,-12805.562797,-10572.117872
20158.712226,-5551.544565,-18209.066173,-9652.803275
20158.712559,-6957.935855,-16950.716072,-7354.516781
20158.712892,-4811.338623,-18653.189738,-1302.362347
20158.713226,-74.020594,-15100.201217,6971.469032
20158.713559,3182.885551,-7476.080014,7354.516781
20158.713892,5033.400406,-2442.679609,9806.022374
20158.714225,9474.636058,-2442.679609,11951.089769
20158.714558,8142.265362,1110.308913,7660.954980
20158.714891,8364.327145,-2368.659014,4136.915689
20158.715225,5255.462188,-5477.523971,-1455.581446
20158.715558,1628.453072,-8290.306550,-7201.297681
20158.715891,-4145.153275,-11029.068536,-12257.527968
20158.716224,-1850.514855,-18357.107362,-11108.384721
20158.716557,-4219.173869,-17764.942608,-8656.879127
20158.716890,-6513.812290,-17838.963202,-1762.019645
20158.717224,-74.020594,-15988.448347,4213.525239
20158.717557,296.082377,-9548.656652,7660.954980
20158.717890,5181.441594,-3182.885551,10418.898773
20158.718223,9104.533087,-1702.473667,12104.308868
20158.718556,9104.533087,-1184.329507,9729.412825
20158.718889,6809.894666,-1258.350101,5515.887586
20158.719223,4663.297435,-4737.318029,-1915.238745
20158.719556,740.205942,-4811.338623,-7967.393179
20158.719889,-4737.318029,-11325.150913,-9576.193725
20158.720222,-6291.750507,-16580.613101,-13100.233016
20158.720555,-8142.265362,-18653.189738,-9882.631924
20158.720888,-8364.327145,-19541.436869,-5592.497135
20158.721221,-4367.215058,-15618.345376,2451.505594
20158.721555,-518.144159,-11621.233289,8427.050478
20158.721888,4663.297435,-5921.647536,12180.918418
20158.722221,7031.956449,-74.020594,10418.898773
20158.722554,7105.977043,-74.020594,11721.261119
20158.722887,9400.615463,-3552.988522,7277.907231
20158.723220,1554.432478,-2516.700203,-2145.067394
20158.723554,518.144159,-7994.224174,-4979.620737
20158.723887,-5551.544565,-10658.965565,-10955.165621
20158.724220,-6513.812290,-15026.180623,-12257.527968
20158.724553,-8956.491898,-17616.901420,-9193.145976
20158.724886,-7476.080014,-18357.107362,-3140.991542
20158.725219,-6513.812290,-14285.974681,919.314598
20158.725553,-2368.659014,-11917.315666,6971.469032
20158.725886,2072.576638,-6513.812290,10955.165621
20158.726219,3552.988522,-666.185348,12257.527968
20158.726552,6513.812290,-1258.350101,12793.794817
20158.726885,5255.462188,0.000000,4519.963438
20158.727218,0.000000,-2442.679609,1225.752797
20158.727552,2146.597232,-5847.626942,-4366.744339
20158.727885,-2442.679609,-8290.306550,-9882.631924
20158.728218,-4367.215058,-13471.748144,-12563.966167
20158.728551,-8364.327145,-17838.963202,-11644.651570
20158.728884,-7994.224174,-18431.127956,-7584.345430
20158.729217,-5921.647536,-17912.983796,0.000000
20158.729551,-1184.329507,-14285.974681,7431.126331
20158.729884,3478.967927,-7772.162391,7967.393179
20158.730217,7105.977043,-3627.009116,12257.527968
20158.730550,9474.636058,-962.267725,13253.452115
20158.730883,8882.471304,-666.185348,6741.640382
20158.731216,8364.327145,-2812.782580,3294.210641
20158.731550,5329.482782,-4515.256246,-1378.971896
20158.731883,-518.144159,-9178.553681,-8273.831378
20158.732216,-1258.350101,-13027.624579,-12334.137518
20158.732549,-6809.894666,-18949.272115,-10189.070123
20158.732882,-6587.832884,-15766.386565,-9806.022374
20158.733215,-5625.565159,-17246.798449,-689.485948
20158.733549,-666.185348,-15396.283594,4826.401637
20158.733882,2294.638420,-10362.883188,9729.412825
20158.734215,7179.997637,-2960.823768,12257.527968
20158.734548,9992.780217,-1480.411884,13483.280765
20158.734881,8068.244768,-1110.308913,9193.145976
20158.735214,6513.812290,-370.102971,3217.601092
20158.735548,5551.544565,-4737.318029,-842.705048
20158.735881,0.000000,-5995.668130,-9499.584175
20158.736214,-3552.988522,-11103.089130,-10342.289223
20158.736547,-7179.997637,-17172.777854,-14325.985813
20158.736880,-8734.430116,-16950.716072,-10648.727422
20158.737213,-8882.471304,-18209.066173,-3830.477490
20158.737547,-4219.173869,-15914.427753,2451.505594
20158.737880,-666.185348,-11251.130318,9116.536426
20158.738213,4737.318029,-4219.173869,14096.157163
20158.738546,9400.615463,888.247130,11338.213370
20158.738879,7402.059420,-2368.659014,11874.480219
20158.739212,8808.450710,-3404.947333,6971.469032
20158.739545,2146.597232,-3182.885551,-1225.752797
20158.739879,-1406.391290,-4885.359217,-7354.516781
20158.740212,-5773.606348,-9992.780217,-11874.480219
20158.740545,-7550.100608,-16062.468941,-14019.547613
20158.740878,-7698.141797,-18801.230927,-9576.193725
20158.741211,-8290.306550,-17246.798449,-4596.572988
20158.741544,-3330.926739,-15988.448347,459.657299
20158.741878,-740.205942,-12435.459826,8044.002729
20158.742211,5773.606348,-5255.462188,12793.794817
20158.742544,7624.121203,-3478.967927,14479.204912
20158.742877,8290.306550,-74.020594,11644.651570
20158.743210,8216.285956,-888.247130,6052.154434
20158.743543,3775.050304,-74.020594,0.000000
20158.743877,2960.823768,-6365.771101,-4060.306139
20158.744210,-1258.350101,-9474.636058,-9882.631924
20158.744543,-5921.647536,-13397.727550,-13330.061665
20158.744876,-7476.080014,-18431.127956,-11568.042020
20158.745209,-8586.388927,-17987.004391,-7354.516781
20158.745542,-7105.977043,-17838.963202,-1838.629195
20158.745876,-1258.350101,-15322.262999,6665.030833
20158.746209,4663.297435,-7105.977043,9882.631924
20158.746542,7698.141797,-1850.514855,13100.233016
20158.746875,9474.636058,-74.020594,14402.595362
20158.747208,9400.615463,0.000000,6665.030833
20158.747541,6661.853478,-3330.926739,4519.963438
20158.747875,3701.029710,-4663.297435,-3524.039291
20158.748208,-592.164754,-9178.553681,-9882.631924
20158.748541,-4145.153275,-13693.809927,-14249.376263
20158.748874,-5107.421000,-18949.272115,-12334.137518
20158.749207,-4811.338623,-16358.551318,-9806.022374
20158.749540,-3997.112087,-17912.983796,-76.609550
20158.749874,592.164754,-16580.613101,7277.907231
20158.750207,4663.297435,-9474.636058,9729.412825
20158.750540,8216.285956,-4737.318029,14019.547613
20158.750873,8882.471304,-1110.308913,13559.890315
20158.751206,7402.059420,592.164754,8886.707777
20158.751540,5551.544565,-2072.576638,3983.696590
20158.751873,2664.741391,-2146.597232,-1838.629195
20158.752206,-2368.659014,-6143.709319,-9193.145976
20158.752539,-3923.091493,-14211.954086,-13559.890315
20158.752873,-9252.574275,-16136.489536,-15168.690860
20158.753206,-13619.789333,-17838.963202,-9806.022374
20158.753539,-8364.327145,-20133.601622,-5592.497135
20158.753872,-7105.977043,-16802.674883,2681.334243
20158.754206,-74.020594,-11547.212695,9116.536426
20158.754539,4293.194464,-4219.173869,15321.909960
20158.754872,7179.997637,-74.020594,14709.033562
20158.755205,7105.977043,0.000000,11874.480219
20158.755539,6291.750507,-1184.329507,6052.154434
20158.755872,4145.153275,-2590.720797,0.000000
20158.756205,1110.308913,-8290.306550,-4979.620737
20158.756538,-2442.679609,-13027.624579,-11721.261119
20158.756872,-7476.080014,-16358.551318,-15321.909960
20158.757205,-9474.636058,-19467.416275,-12257.527968
20158.757538,-8512.368333,-19837.519246,-4366.744339
20158.757871,-5329.482782,-16580.613101,2451.505594
20158.758205,222.061783,-11251.130318,9116.536426
20158.758538,5995.668130,-4589.276840,14938.862211
20158.758871,10584.944971,-296.082377,16011.395908
20158.759204,9104.533087,0.000000,11874.480219
20158.759538,6513.812290,-148.041188,6205.373534
20158.759871,2368.659014,-370.102971,0.000000
20158.760204,2294.638420,-7698.141797,-6818.249932
20158.760537,-4293.194464,-9178.553681,-14479.204912
20158.760871,-6291.750507,-15248.242405,-14785.643111
20158.761204,-6291.750507,-18949.272115,-11721.261119
20158.761537,-6365.771101,-19023.292709,-6435.202183
20158.761870,-3701.029710,-17838.963202,919.314598
20158.762204,1184.329507,-12879.583391,7814.174080
20158.762537,8216.285956,-10510.924376,14632.424012
20158.762870,10658.965565,-962.267725,14709.033562
20158.763203,10658.965565,-2294.638420,15245.300410
20158.763537,9400.615463,0.000000,7277.907231
20158.763870,5329.482782,-666.185348,1532.190996
20158.764203,2072.576638,-4589.276840,-5669.106685
20158.764536,-2664.741391,-9622.677246,-12180.918418
20158.764870,-6661.853478,-14063.912898,-15245.300410
20158.765203,-8068.244768,-19171.333898,-12870.404366
20158.765536,-7772.162391,-17468.860231,-8656.879127
20158.765869,-4737.318029,-19541.436869,-76.609550
20158.766203,-74.020594,-16580.613101,7277.907231
20158.766536,3775.050304,-7772.162391,11338.213370
20158.766869,8586.388927,-2738.761985,17160.539155
20158.767202,7550.100608,-740.205942,12870.404366
20158.767536,6735.874072,-814.226536,7890.783629
20158.767869,5255.462188,-1480.411884,2987.772442
20158.768202,2368.659014,-3997.112087,-3064.381992
20158.768535,-3849.070898,-6587.832884,-11644.651570
20158.768869,-5551.544565,-14063.912898,-12640.575717
20158.769202,-7772.162391,-17764.942608,-13713.109414
20158.769535,-10288.862594,-16654.633695,-11031.775171
20158.769868,-8290.306550,-20059.581028,-1838.629195
20158.770202,-5921.647536,-16210.510130,3677.258390
20158.770535,1184.329507,-10807.006753,11184.994271
20158.770868,6587.832884,-3108.864956,15934.786358
20158.771201,8660.409521,0.000000,14709.033562
20158.771535,5551.544565,1110.308913,9806.022374
20158.771868,6217.729913,0.000000,5056.230287
20158.772201,962.267725,-3478.967927,-1915.238745
20158.772534,-2664.741391,-7105.977043,-10112.460574
20158.772868,-5107.421000,-12435.459826,-14785.643111
20158.773201,-8068.244768,-16802.674883,-14632.424012
20158.773534,-8586.388927,-18431.127956,-11644.651570
20158.773867,-7698.141797,-20355.663405,-2528.115143
20158.774201,-3775.050304,-16876.695478,2145.067394
20158.774534,2368.659014,-11325.150913,12717.185267
20158.774867,7920.203579,-3997.112087,15934.786358
20158.775200,9474.636058,-1110.308913,16317.834107
20158.775534,8142.265362,-1184.329507,11874.480219
20158.775867,6809.894666,2368.659014,5132.839837
20158.776200,4071.132681,-148.041188,-2451.505594
20158.776533,1850.514855,-6809.894666,-7431.126331
20158.776867,-6217.729913,-8438.347739,-15092.081311
20158.777200,-8586.388927,-14878.139434,-15551.738609
20158.777533,-7476.080014,-18949.272115,-12334.137518
20158.777866,-7772.162391,-19541.436869,-6741.640382
20158.778200,-4589.276840,-17912.983796,459.657299
20158.778533,2072.576638,-14211.954086,9116.536426
20158.778866,5921.647536,-4811.338623,14709.033562
20158.779199,9400.615463,-370.102971,12257.527968
20158.779533,10955.047942,-2368.659014,13406.671215
20158.779866,9400.615463,592.164754,5822.325785
20158.780199,5255.462188,-1258.350101,612.876398
20158.780532,1184.329507,-3627.009116,-7431.126331
20158.780866,-3849.070898,-10436.903782,-12947.013916
20158.781199,-5477.523971,-14434.015869,-15092.081311
20158.781532,-7031.956449,-18949.272115,-11414.822920
20158.781865,-4811.338623,-18949.272115,-4979.620737
20158.782199,-7105.977043,-18135.045579,1532.190996
20158.782532,-74.020594,-14211.954086,6052.154434
20158.782865,3849.070898,-6143.709319,14096.157163
20158.783198,8808.450710,-3552.988522,16777.491406
20158.783532,9400.615463,-888.247130,12257.527968
20158.783865,6143.709319,370.102971,7277.907231
20158.784198,3627.009116,-2664.741391,2374.896044
20158.784531,0.000000,-3330.926739,-5056.230287
20158.784865,-5255.462188,-7698.141797,-12640.575717
20158.785198,-5107.421000,-13027.624579,-14172.766713
20158.785531,-10066.800811,-16654.633695,-12257.527968
20158.785864,-11843.295072,-17838.963202,-9193.145976
20158.786198,-6587.832884,-20133.601622,-3140.991542
20158.786531,-2442.679609,-15988.448347,6741.640382
20158.786864,3775.050304,-9326.594869,12563.966167
20158.787197,6439.791695,-3256.906145,15092.081311
20158.787531,7624.121203,-1924.535449,13176.842566
20158.787864,5329.482782,2294.638420,9806.022374
20158.788197,5107.421000,0.000000,4290.134789
20158.788530,1998.556043,-3404.947333,-2374.896044
20158.788864,-4145.153275,-6513.812290,-9576.193725
20158.789197,-7402.059420,-11991.336260,-14096.157163
20158.789530,-9474.636058,-15766.386565,-14402.595362
20158.789863,-7772.162391,-19837.519246,-8656.879127
20158.790197,-7772.162391,-19541.436869,-5592.497135
20158.790530,-4737.318029,-15470.304188,4903.011187
20158.790863,2664.741391,-12065.356855,13866.328514
20158.791196,5403.503377,-3034.844362,14096.157163
20158.791530,9178.553681,-888.247130,14096.157163
20158.791863,8586.388927,222.061783,11568.042020
20158.792196,8216.285956,888.247130,4673.182538
20158.792529,5625.565159,-2442.679609,0.000000
20158.792863,1702.473667,-5921.647536,-9269.755526
20158.793196,-3849.070898,-10732.986159,-14709.033562
20158.793529,-4589.276840,-17172.777854,-12947.013916
20158.793862,-4811.338623,-19245.354492,-11644.651570
20158.794196,-4737.318029,-19615.457463,-4903.011187
20158.794529,-370.102971,-18061.024985,2298.286494
20158.794862,4663.297435,-13619.789333,9422.974625
20158.795195,9030.512492,-6513.812290,15092.081311
20158.795529,11769.274478,-2368.659014,15858.176809
20158.795862,13841.851115,1184.329507,9729.412825
20158.796195,9474.636058,814.226536,7814.174080
20158.796528,10362.883188,-3552.988522,3600.648841
20158.796862,2294.638420,-4737.318029,-6894.859482
20158.797195,-2072.576638,-10214.842000,-12487.356617
20158.797528,-1998.556043,-14582.057057,-14479.204912
20158.797862,-3552.988522,-19615.457463,-11644.651570
20158.798195,-4145.153275,-19763.498651,-7660.954980
20158.798528,-1554.432478,-19837.519246,-1915.238745
20158.798861,3478.967927,-13027.624579,5898.935335
20158.799195,7105.977043,-8364.327145,15475.129060
20158.799528,12065.356855,-3552.988522,17696.806004
20158.799861,12361.439231,1554.432478,11031.775171
20158.800194,8438.347739,-1110.308913,9116.536426
20158.800528,6513.812290,-666.185348,2451.505594
20158.800861,814.226536,-4367.215058,-4979.620737
20158.801194,-4737.318029,-8068.244768,-11031.775171
20158.801527,-7994.224174,-11843.295072,-14479.204912
20158.801861,-10881.027347,-17542.880825,-13483.280765
20158.802194,-12435.459826,-19319.375086,-8886.707777
20158.802527,-10436.903782,-19319.375086,-2451.505594
20158.802860,-5625.565159,-14878.139434,7354.516781
20158.803194,740.205942,-9474.636058,14632.424012
20158.803527,3775.050304,-2368.659014,13559.890315
20158.803860,3108.864956,1924.535449,11874.480219
20158.804193,1480.411884,2146.597232,8580.269578
20158.804527,592.164754,-370.102971,3064.381992
20158.804860,-4145.153275,-4811.338623,-4213.525239
20158.805193,-9178.553681,-8142.265362,-11797.870669
20158.805526,-11769.274478,-12509.480420,-15704.957709
20158.805860,-11917.315666,-18801.230927,-12947.013916
20158.806193,-13027.624579,-19023.292709,-7890.783629
20158.806526,-7772.162391,-17172.777854,-3677.258390
20158.806859,-4145.153275,-14730.098246,8120.612279
20158.807193,2368.659014,-9252.574275,15245.300410
20158.807526,7031.956449,-3849.070898,17083.929605
20158.807859,7254.018232,-1332.370696,15092.081311
20158.808192,5477.523971,814.226536,9729.412825
20158.808526,3256.906145,370.102971,2451.505594
20158.808859,888.247130,-2886.803174,-4519.963438
20158.809192,-2960.823768,-7476.080014,-8810.098227
20158.809525,-5921.647536,-9548.656652,-16547.662757
20158.809859,-7105.977043,-17394.839637,-12334.137518
20158.810192,-5403.503377,-18801.230927,-11108.384721
20158.810525,-5033.400406,-19541.436869,-4826.401637
20158.810858,1110.308913,-16284.530724,4060.306139
20158.811192,7105.977043,-10881.027347,12334.137518
20158.811525,10140.821405,-5181.441594,14709.033562
20158.811858,13989.892304,-296.082377,14785.643111
20158.812191,12361.439231,-2368.659014,11568.042020
20158.812525,9474.636058,1702.473667,6052.154434
20158.812858,7920.203579,-6809.894666,-76.609550
20158.813191,1702.473667,-5255.462188,-12104.308868
20158.813524,-3256.906145,-11917.315666,-13483.280765
20158.813858,-3923.091493,-15174.221811,-15015.471761
20158.814191,-2812.782580,-19245.354492,-10495.508323
20158.814524,-3404.947333,-20651.745782,-3677.258390
20158.814857,1776.494261,-16580.613101,4596.572988
20158.815191,3478.967927,-11917.315666,7660.954980
20158.815524,8290.306550,-7920.203579,17083.929605
20158.815857,10881.027347,-888.247130,14019.547613
20158.816190,10288.862594,1184.329507,10418.898773
20158.816524,5921.647536,1702.473667,6128.763984
20158.816857,3330.926739,-2072.576638,-1225.752797
20158.817190,-1702.473667,-6217.729913,-8886.707777
20158.817523,-4441.235652,-9178.553681,-13483.280765
20158.817857,-5477.523971,-14211.954086,-13942.938064
20158.818190,-6587.832884,-16728.654289,-13406.671215
20158.818523,-6661.853478,-20429.683999,-6818.249932
20158.818856,-5181.441594,-18949.272115,1302.362347
20158.819190,-888.247130,-13915.871710,8427.050478
20158.819523,3330.926739,-8364.327145,15858.176809
20158.819856,6439.791695,-2368.659014,13866.328514
20158.820189,4737.318029,814.226536,12257.527968
20158.820523,4737.318029,1406.391290,9499.584175
20158.820856,1110.308913,-296.082377,383.047749
20158.821189,-4737.318029,-4811.338623,-4903.011187
20158.821522,-7920.203579,-8068.244768,-12257.527968
20158.821856,-9918.759623,-13619.789333,-14709.033562
20158.822189,-10436.903782,-17764.942608,-12334.137518
20158.822522,-8956.491898,-20429.683999,-6818.249932
20158.822855,-4811.338623,-18949.272115,-689.485948
20158.823189,-4737.318029,-13249.686362,9039.926876
20158.823522,0.000000,-8364.327145,14096.157163
20158.823855,5255.462188,-4145.153275,14632.424012
20158.824188,5847.626942,-1036.288319,14938.862211
20158.824522,4219.173869,1110.308913,7431.126331
20158.824855,814.226536,-592.164754,612.876398
20158.825188,-74.020594,-3849.070898,-4826.401637
20158.825521,-3552.988522,-4811.338623,-9652.803275
20158.825855,-4811.338623,-10732.986159,-15934.786358
20158.826188,-6217.729913,-17320.819043,-11721.261119
20158.826521,-7179.997637,-20281.642811,-10189.070123
20158.826854,-4367.215058,-17542.880825,-2298.286494
20158.827188,370.102971,-16580.613101,5439.278036
20158.827521,5107.421000,-11325.150913,11644.651570
20158.827854,8142.265362,-5107.421000,14785.643111
20158.828187,9770.718434,-666.185348,13330.061665
20158.828521,9474.636058,0.000000,9193.145976
20158.828854,6883.915261,962.267725,2451.505594
20158.829187,7031.956449,-5625.565159,-1302.362347
20158.829520,-370.102971,-6143.709319,-11644.651570
20158.829854,-3256.906145,-12213.398043,-14709.033562
20158.830187,-4071.132681,-17542.880825,-14402.595362
20158.830520,-2960.823768,-20577.725188,-8044.002729
20158.830853,-1332.370696,-18949.272115,-1302.362347
20158.831187,1110.308913,-15618.345376,5439.278036
20158.831520,5847.626942,-12435.459826,12180.918418
20158.831853,5921.647536,-7179.997637,16317.834107
20158.832186,7698.141797,-370.102971,14632.424012
20158.832520,7031.956449,2886.803174,7967.393179
20158.832853,6217.729913,-1480.411884,4826.401637
20158.833186,1924.535449,-3330.926739,-2145.067394
20158.833519,-1850.514855,-5921.647536,-9729.412825
20158.833853,-3923.091493,-9178.553681,-12334.137518
20158.834186,-6661.853478,-14804.118840,-12947.013916
20158.834519,-5403.503377,-18949.272115,-9269.755526
20158.834852,-6439.791695,-19171.333898,-2911.162892
20158.835186,-5255.462188,-17246.798449,1532.190996
20158.835519,-666.185348,-13619.789333,7890.783629
20158.835852,2516.700203,-8882.471304,12563.966167
20158.836185,6883.915261,-3404.947333,13406.671215
20158.836519,3552.988522,518.144159,9806.022374
20158.836852,3552.988522,0.000000,7277.907231
20158.837185,666.185348,-74.020594,0.000000
20158.837518,-4589.276840,-3627.009116,-6128.763984
20158.837852,-3034.844362,-8290.306550,-10495.508323
20158.838185,-7698.141797,-14434.015869,-12180.918418
20158.838518,-7624.121203,-17912.983796,-11644.651570
20158.838851,-5995.668130,-19541.436869,-6205.373534
20158.839185,-3330.926739,-16728.654289,229.828649
20158.839518,0.000000,-14285.974681,8810.098227
20158.839851,5847.626942,-11843.295072,12793.794817
20158.840184,5995.668130,-2442.679609,12257.527968
20158.840518,7698.141797,-370.102971,12870.404366
20158.840851,7920.203579,888.247130,5822.325785
20158.841184,5403.503377,-814.226536,2374.896044
20158.841517,2812.782580,-3182.885551,-3830.477490
20158.841851,-1110.308913,-7476.080014,-9116.536426
20158.842184,-3552.988522,-11325.150913,-12717.185267
20158.842517,-4145.153275,-18875.251521,-9882.631924
20158.842850,-4441.235652,-18135.045579,-7354.516781
20158.843184,-1258.350101,-17246.798449,-3677.258390
20158.843517,222.061783,-17616.901420,6971.469032
20158.843850,6661.853478,-11917.315666,14019.547613
20158.844183,7105.977043,-4219.173869,13789.718964
20158.844517,10214.842000,0.000000,12640.575717
20158.844850,7105.977043,1110.308913,7967.393179
20158.845183,6439.791695,-1184.329507,3600.648841
20158.845516,3478.967927,-4737.318029,-4979.620737
20158.845850,-1480.411884,-7179.997637,-9806.022374
20158.846183,-1776.494261,-13027.624579,-11108.384721
20158.846516,-2442.679609,-18949.272115,-12947.013916
20158.846849,-2960.823768,-19023.292709,-5975.544884
20158.847183,-1258.350101,-19097.313304,-995.924147
20158.847516,2294.638420,-15396.283594,4290.134789
20158.847849,4145.153275,-13545.768739,10035.851024
20158.848182,8216.285956,-6513.812290,14632.424012
20158.848516,7328.038826,-2664.741391,12257.527968
20158.848849,6143.709319,296.082377,7967.393179
20158.849182,3627.009116,-740.205942,2681.334243
20158.849515,-2220.617826,-1258.350101,-3677.258390
20158.849849,-3552.988522,-5403.503377,-5822.325785
20158.850182,-5107.421000,-11547.212695,-10801.946522
20158.850515,-6735.874072,-11917.315666,-12870.404366
20158.850848,-8290.306550,-18431.127956,-7507.735880
20158.851182,-7179.997637,-18357.107362,-4979.620737
20158.851515,-6809.894666,-17690.922014,1685.410096
20158.851848,-3849.070898,-14285.974681,7048.078582
20158.852181,962.267725,-8586.388927,11797.870669
20158.852514,2664.741391,-2294.638420,13789.718964
20158.852847,3478.967927,1702.473667,9806.022374
20158.853181,2886.803174,0.000000,6052.154434
20158.853514,-1998.556043,-74.020594,0.000000
20158.853847,-5773.606348,-4811.338623,-5515.887586
20158.854180,-7105.977043,-8364.327145,-10418.898773
20158.854513,-8586.388927,-14359.995275,-11414.822920
20158.854846,-7328.038826,-17764.942608,-9346.365076
20158.855180,-7550.100608,-17616.901420,-4596.572988
20158.855513,-3923.091493,-18949.272115,1762.019645
20158.855846,-2072.576638,-12213.398043,7354.516781
20158.856179,1702.473667,-8290.306550,8810.098227
20158.856512,3552.988522,-2442.679609,12257.527968
20158.856845,6365.771101,-1776.494261,11568.042020
20158.857179,7031.956449,-1184.329507,6358.592633
20158.857512,3552.988522,-1776.494261,1608.800546
20158.857845,2812.782580,-4663.297435,-3830.477490
20158.858178,666.185348,-7402.059420,-8350.440928
20158.858511,0.000000,-12509.480420,-10265.679673
20158.858844,-1184.329507,-17987.004391,-7124.688131
20158.859178,-2442.679609,-16654.633695,-7967.393179
20158.859511,-2738.761985,-19023.292709,-2451.505594
20158.859844,2368.659014,-15396.283594,5898.935335
20158.860177,4663.297435,-10510.924376,8963.317327
20158.860510,8216.285956,-4441.235652,11874.480219
20158.860844,10288.862594,1036.288319,10725.336972
20158.861177,7772.162391,-962.267725,8350.440928
20158.861510,7179.997637,1702.473667,1838.629195
20158.861843,4663.297435,-6513.812290,-2528.115143
20158.862176,-2368.659014,-5995.668130,-8580.269578
20158.862509,-1258.350101,-14804.118840,-9882.631924
20158.862843,-74.020594,-16580.613101,-11721.261119
20158.863176,-1332.370696,-19245.354492,-7048.078582
20158.863509,-666.185348,-18949.272115,-1915.238745
20158.863842,1480.411884,-15692.365970,4826.401637
20158.864175,2146.597232,-12509.480420,8963.317327
20158.864508,5255.462188,-6143.709319,11031.775171
20158.864842,7031.956449,0.000000,10955.165621
20158.865175,5699.585753,518.144159,8810.098227
20158.865508,4663.297435,0.000000,2834.553343
20158.865841,1036.288319,-3997.112087,-1378.971896
20158.866174,-4145.153275,-4811.338623,-7967.393179
20158.866507,-3330.926739,-13027.624579,-10495.508323
20158.866841,-5477.523971,-13101.645173,-13100.233016
20158.867174,-8290.306550,-19023.292709,-7660.954980
20158.867507,-5995.668130,-20429.683999,-4979.620737
20158.867840,-3923.091493,-16580.613101,306.438199
20158.868173,-2368.659014,-13841.851115,7660.954980
20158.868506,1628.453072,-7179.997637,12104.308868
20158.868840,3108.864956,-1850.514855,12793.794817
20158.869173,2960.823768,518.144159,10725.336972
20158.869506,2664.741391,0.000000,6052.154434
20158.869839,-2368.659014,-74.020594,-1225.752797
20158.870172,-4737.318029,-6291.750507,-4213.525239
20158.870505,-4811.338623,-10658.965565,-10189.070123
20158.870839,-7698.141797,-13101.645173,-9806.022374
20158.871172,-6883.915261,-17987.004391,-9116.536426
20158.871505,-5995.668130,-19541.436869,-4673.182538
20158.871838,-4071.132681,-16580.613101,766.095498
20158.872171,-74.020594,-14211.954086,7890.783629
20158.872504,3182.885551,-11251.130318,9729.412825
20158.872838,592.164754,-2442.679609,12257.527968
20158.873171,4145.153275,0.000000,11797.870669
20158.873504,4663.297435,592.164754,4213.525239
20158.873837,3330.926739,-2072.576638,2987.772442
20158.874170,1036.288319,-3701.029710,-3447.429741
20158.874503,-666.185348,-7328.038826,-7584.345430
20158.874837,-1850.514855,-12435.459826,-9882.631924
20158.875170,-3552.988522,-15470.304188,-10112.460574
20158.875503,-3034.844362,-20725.766376,-7737.564530
20158.875836,-3552.988522,-15766.386565,0.000000
20158.876169,296.082377,-17172.777854,4826.401637
20158.876502,3775.050304,-11547.212695,7277.907231
20158.876836,4737.318029,-4441.235652,10955.165621
20158.877169,7994.224174,-740.205942,10035.851024
20158.877502,7550.100608,148.041188,7048.078582
20158.877835,6143.709319,-444.123565,1225.752797
20158.878168,4145.153275,-4737.318029,-2911.162892
20158.878501,0.000000,-7179.997637,-8273.831378
20158.878835,1554.432478,-13619.789333,-8656.879127
20158.879168,-74.020594,-17468.860231,-10189.070123
20158.879501,-2072.576638,-19023.292709,-5822.325785
20158.879834,-740.205942,-18357.107362,-689.485948
20158.880167,-74.020594,-16876.695478,3753.867940
20158.880500,1776.494261,-11621.233289,7201.297681
20158.880834,3330.926739,-7179.997637,9729.412825
20158.881167,5329.482782,-1258.350101,10418.898773
20158.881500,3552.988522,814.226536,8580.269578
20158.881833,3182.885551,-296.082377,3447.429741
20158.882166,-444.123565,-2590.720797,-1838.629195
20158.882499,-1258.350101,-6809.894666,-5669.106685
20158.882833,-2072.576638,-8364.327145,-7967.393179
20158.883166,-4811.338623,-13027.624579,-11108.384721
20158.883499,-7105.977043,-18135.045579,-7354.516781
20158.883832,-5403.503377,-19985.560434,-3140.991542
20158.884165,-3923.091493,-18949.272115,1762.019645
20158.884498,-2368.659014,-13545.768739,7431.126331
20158.884832,-592.164754,-8216.285956,10112.460574
20158.885165,1998.556043,-1258.350101,10265.679673
20158.885498,3034.844362,1406.391290,9269.755526
20158.885831,5255.462188,296.082377,7277.907231
20158.886164,0.000000,-74.020594,612.876398
20158.886497,0.000000,-5107.421000,-2451.505594
20158.886831,-1258.350101,-10066.800811,-7737.564530
20158.887164,-6217.729913,-11917.315666,-12257.527968
20158.887497,-4811.338623,-19837.519246,-10495.508323
20158.887830,-4219.173869,-19541.436869,-5209.449386
20158.888163,-2738.761985,-17764.942608,306.438199
20158.888496,-518.144159,-13915.871710,5439.278036
20158.888830,3478.967927,-7698.141797,8503.660028
20158.889163,1776.494261,-2442.679609,11338.213370
20158.889496,7328.038826,0.000000,11568.042020
20158.889829,8216.285956,592.164754,4826.401637
20158.890162,2960.823768,-2442.679609,2604.724693
20158.890495,3775.050304,-3775.050304,-3830.477490
20158.890829,1776.494261,-9030.512492,-6435.202183
20158.891162,-592.164754,-12139.377449,-9729.412825
20158.891495,-2146.597232,-16432.571912,-10342.289223
20158.891828,-2368.659014,-17246.798449,-7814.174080
20158.892161,-3552.988522,-17246.798449,689.485948
20158.892494,2294.638420,-14804.118840,2374.896044
20158.892828,2590.720797,-8882.471304,6052.154434
20158.893161,2368.659014,-3627.009116,11031.775171
20158.893494,7031.956449,740.205942,7890.783629
20158.893827,7105.977043,74.020594,6358.592633
20158.894160,4663.297435,-1184.329507,2221.676944
20158.894493,3701.029710,-3478.967927,-2911.162892
20158.894827,1924.535449,-7179.997637,-5286.058936
20158.895160,370.102971,-12287.418637,-8044.002729
20158.895493,-296.082377,-16136.489536,-9346.365076
20158.895826,-666.185348,-19689.478057,-5515.887586
20158.896159,-592.164754,-19985.560434,-1455.581446
20158.896492,-74.020594,-15988.448347,842.705048
20158.896826,0.000000,-12509.480420,6435.202183
20158.897159,2368.659014,-5995.668130,11108.384721
20158.897492,3478.967927,-4441.235652,8503.660028
20158.897825,4737.318029,1110.308913,6128.763984
20158.898158,1702.473667,-1480.411884,3447.429741
20158.898491,888.247130,-2220.617826,-919.314598
20158.898825,518.144159,-5181.441594,-2528.115143
20158.899158,-3627.009116,-10658.965565,-7431.126331
20158.899491,-1924.535449,-14211.954086,-8044.002729
20158.899824,-7994.224174,-17838.963202,-7354.516781
20158.900157,-5329.482782,-19837.519246,-2757.943793
20158.900490,-5107.421000,-18357.107362,-1302.362347
20158.900824,-4811.338623,-15692.365970,4213.525239
20158.901157,-3330.926739,-8290.306550,6588.421283
20158.901490,-222.061783,-3034.844362,9269.755526
20158.901823,2516.700203,814.226536,9882.631924
20158.902156,0.000000,1998.556043,7354.516781
20158.902489,2294.638420,0.000000,1149.143247
20158.902823,-2368.659014,-4811.338623,1149.143247
20158.903156,-2442.679609,-9178.553681,-5745.716235
20158.903489,-6217.729913,-9918.759623,-10725.336972
20158.903822,-5625.565159,-16950.716072,-7967.393179
20158.904155,-6957.935855,-18727.210333,-6435.202183
20158.904488,-4811.338623,-16876.695478,-2834.553343
20158.904822,-2738.761985,-15396.283594,2681.334243
20158.905155,1184.329507,-10140.821405,8044.002729
20158.905488,2886.803174,-2442.679609,7354.516781
20158.905821,7031.956449,-2072.576638,10955.165621
20158.906154,5847.626942,1184.329507,3983.696590
20158.906487,5625.565159,-1628.453072,4213.525239
20158.906821,5033.400406,-4589.276840,766.095498
20158.907154,2960.823768,-8364.327145,-3600.648841
20158.907487,1776.494261,-10288.862594,-7737.564530
20158.907820,-2368.659014,-17542.880825,-9039.926876
20158.908153,-1554.432478,-18357.107362,-8656.879127
20158.908486,-4737.318029,-19023.292709,-2451.505594
20158.908820,-74.020594,-16580.613101,0.000000
20158.909153,1480.411884,-10140.821405,4979.620737
20158.909486,3552.988522,-5995.668130,11491.432470
20158.909819,9770.718434,0.000000,11338.213370
20158.910152,6809.894666,0.000000,8810.098227
20158.910485,7772.162391,1258.350101,3830.477490
20158.910819,6143.709319,-3849.070898,842.705048
20158.911152,3108.864956,-8290.306550,-4979.620737
20158.911485,148.041188,-10140.821405,-8120.612279
20158.911818,-2442.679609,-16580.613101,-9806.022374
20158.912151,-1776.494261,-19393.395680,-7737.564530
20158.912484,-3552.988522,-18801.230927,-3447.429741
20158.912818,-74.020594,-18357.107362,-76.609550
20158.913151,-1924.535449,-11325.150913,3677.258390
20158.913484,592.164754,-8956.491898,11261.603821
20158.913817,7031.956449,-888.247130,9576.193725
20158.914150,4737.318029,-74.020594,10418.898773
20158.914483,7031.956449,0.000000,6665.030833
20158.914817,3256.906145,-2886.803174,3447.429741
20158.915150,1036.288319,-5921.647536,-1991.848295
20158.915483,-1332.370696,-9104.533087,-7277.907231
20158.915816,-3923.091493,-13619.789333,-10342.289223
20158.916149,-7105.977043,-19023.292709,-9193.145976
20158.916482,-5995.668130,-18949.272115,-6818.249932
20158.916816,-5995.668130,-16876.695478,-4290.134789
20158.917149,-6513.812290,-14434.015869,3830.477490
20158.917482,-1258.350101,-9178.553681,6894.859482
20158.917815,1850.514855,-2664.741391,10801.946522
20158.918148,3182.885551,148.041188,10265.679673
20158.918481,2960.823768,2442.679609,7048.078582
20158.918815,888.247130,-666.185348,2451.505594
20158.919148,0.000000,-3627.009116,766.095498
20158.919481,-666.185348,-8290.306550,-7124.688131
20158.919814,-5921.647536,-11917.315666,-12870.404366
20158.920147,-5329.482782,-18283.086767,-8810.098227
20158.920480,-6587.832884,-18135.045579,-7967.393179
20158.920814,-4589.276840,-17912.983796,-1915.238745
20158.921147,-3034.844362,-15100.201217,3140.991542
20158.921480,-1036.288319,-10362.883188,7660.954980
20158.921813,4071.132681,-4737.318029,10955.165621
20158.922146,4145.153275,-1850.514855,13406.671215
20158.922479,6439.791695,2368.659014,5592.497135
20158.922813,2960.823768,-1258.350101,5362.668486
20158.923146,5329.482782,-3404.947333,2987.772442
20158.923479,2368.659014,-5403.503377,-2221.676944
20158.923812,0.000000,-10732.986159,-7890.783629
20158.924145,-2072.576638,-16654.633695,-9806.022374
20158.924478,-4811.338623,-19985.560434,-8656.879127
20158.924812,-5403.503377,-18949.272115,-4979.620737
20158.925145,-3034.844362,-17764.942608,-842.705048
20158.925478,-1776.494261,-10732.986159,3600.648841
20158.925811,2368.659014,-4811.338623,11031.775171
20158.926144,9104.533087,0.000000,12793.794817
20158.926478,7846.182985,1110.308913,10265.679673
20158.926811,8068.244768,-888.247130,5898.935335
20158.927144,7550.100608,-2738.761985,2374.896044
20158.927477,4959.379811,-6439.791695,-3600.648841
20158.927810,1110.308913,-11843.295072,-8120.612279
20158.928143,1110.308913,-16580.613101,-9882.631924
20158.928477,-2960.823768,-21095.869347,-7431.126331
20158.928810,-3552.988522,-19171.333898,-4596.572988
20158.929143,-3627.009116,-17616.901420,-842.705048
20158.929476,-1258.350101,-14211.954086,4519.963438
20158.929809,2516.700203,-9326.594869,10955.165621
20158.930142,4071.132681,-888.247130,9193.145976
20158.930476,3108.864956,2294.638420,7354.516781
20158.930809,3849.070898,1110.308913,6128.763984
20158.931142,4071.132681,-74.020594,2451.505594
20158.931475,1776.494261,-5033.400406,-1608.800546
20158.931808,-1332.370696,-10214.842000,-7124.688131
20158.932141,-3849.070898,-14063.912898,-10725.336972
20158.932475,-8142.265362,-19023.292709,-11644.651570
20158.932808,-5403.503377,-20133.601622,-7431.126331
20158.933141,-7179.997637,-19245.354492,-4366.744339
20158.933474,-7105.977043,-14878.139434,3983.696590
20158.933807,-1258.350101,-10658.965565,9729.412825
20158.934140,296.082377,-1554.432478,11491.432470
20158.934474,2960.823768,2738.761985,11031.775171
20158.934807,4219.173869,1850.514855,9116.536426
20158.935140,5033.400406,1554.432478,5898.935335
20158.935473,1184.329507,-3034.844362,0.000000
20158.935806,-74.020594,-8586.388927,-7431.126331
20158.936139,-4145.153275,-11917.315666,-11568.042020
20158.936473,-8290.306550,-19319.375086,-10725.336972
20158.936806,-5107.421000,-20133.601622,-10189.070123
20158.937139,-5921.647536,-20651.745782,-4673.182538
20158.937472,-3108.864956,-15914.427753,1225.752797
20158.937805,740.205942,-10436.903782,7354.516781
20158.938138,4367.215058,-4219.173869,10035.851024
20158.938472,9104.533087,-1776.494261,12793.794817
20158.938805,8216.285956,2072.576638,6435.202183
20158.939138,7105.977043,1110.308913,6741.640382
20158.939471,8216.285956,-4737.318029,2374.896044
20158.939804,4367.215058,-5329.482782,-6358.592633
20158.940137,3849.070898,-10881.027347,-6818.249932
20158.940471,0.000000,-17542.880825,-9576.193725
20158.940804,-1702.473667,-19837.519246,-9882.631924
20158.941137,-4885.359217,-19985.560434,-7277.907231
20158.941470,-1998.556043,-18949.272115,-76.609550
20158.941803,-370.102971,-12879.583391,5056.230287
20158.942136,4441.235652,-6069.688724,9576.193725
20158.942470,6735.874072,-222.061783,10878.556072
20158.942803,7254.018232,3182.885551,9193.145976
20158.943136,8290.306550,1406.391290,9729.412825
20158.943469,7328.038826,-1702.473667,3600.648841
20158.943802,3478.967927,-2738.761985,-4903.011187
20158.944135,1480.411884,-10881.027347,-6818.249932
20158.944469,-2590.720797,-17764.942608,-11108.384721
20158.944802,-2368.659014,-18579.169144,-9346.365076
20158.945135,-6661.853478,-22650.301825,-8044.002729
20158.945468,-4441.235652,-17838.963202,-3294.210641
20158.945801,-4737.318029,-16654.633695,3064.381992
20158.946134,1184.329507,-7476.080014,9959.241474
20158.946468,4071.132681,-1480.411884,9806.022374
20158.946801,5181.441594,4663.297435,8580.269578
20158.947134,7698.141797,1110.308913,12180.918418
20158.947467,2664.741391,-74.020594,3370.820191
20158.947800,4071.132681,-3552.988522,-842.705048
20158.948133,-2886.803174,-8734.430116,-6971.469032
20158.948467,-4663.297435,-13249.686362,-11491.432470
20158.948800,-8364.327145,-19541.436869,-12334.137518
20158.949133,-12287.418637,-21391.951724,-9882.631924
20158.949466,-9548.656652,-18209.066173,-8273.831378
20158.949799,-9474.636058,-17246.798449,2451.505594
20158.950132,-1184.329507,-10955.047942,9729.412825
20158.950466,-444.123565,-3849.070898,13023.623466
20158.950799,4441.235652,2738.761985,11951.089769
20158.951132,3923.091493,2886.803174,11414.822920
20158.951465,4145.153275,1924.535449,7431.126331
20158.951798,1628.453072,-962.267725,229.828649
20158.952131,-888.247130,-8882.471304,-4979.620737
20158.952465,-7105.977043,-10732.986159,-13100.233016
20158.952798,-9474.636058,-17838.963202,-13483.280765
20158.953131,-8660.409521,-23094.425390,-9882.631924
20158.953464,-7476.080014,-18949.272115,-6971.469032
20158.953797,-5921.647536,-16654.633695,1225.752797
20158.954130,518.144159,-10807.006753,7431.126331
20158.954463,5255.462188,-4145.153275,12793.794817
20158.954797,8290.306550,1110.308913,13789.718964
20158.955130,10584.944971,1776.494261,9652.803275
20158.955463,8586.388927,74.020594,8810.098227
20158.955796,8216.285956,-4589.276840,3600.648841
20158.956129,2960.823768,-6291.750507,-3983.696590
20158.956462,74.020594,-9104.533087,-12257.527968
20158.956795,-4145.153275,-17838.963202,-10495.508323
20158.957128,-4219.173869,-20133.601622,-12640.575717
20158.957461,-5921.647536,-21095.869347,-7967.393179
20158.957794,-2442.679609,-18653.189738,689.485948
20158.958127,592.164754,-12213.398043,6435.202183
20158.958460,4737.318029,-4811.338623,11031.775171
20158.958794,10214.842000,1480.411884,13789.718964
20158.959127,9918.759623,222.061783,13636.499864
20158.959460,10658.965565,2146.597232,9806.022374
20158.959793,7624.121203,-2664.741391,995.924147
20158.960126,2664.741391,-3627.009116,-4903.011187
20158.960459,148.041188,-13323.706956,-8656.879127
20158.960792,-1554.432478,-14804.118840,-14785.643111
20158.961125,-5921.647536,-21539.992912,-10418.898773
20158.961458,-6069.688724,-20059.581028,-8886.707777
20158.961791,-4589.276840,-19615.457463,-1149.143247
20158.962124,-2294.638420,-14582.057057,4290.134789
20158.962457,4367.215058,-9474.636058,10955.165621
20158.962790,5107.421000,-74.020594,11951.089769
20158.963124,9474.636058,518.144159,15934.786358
20158.963457,8512.368333,0.000000,9729.412825
20158.963790,5403.503377,814.226536,3983.696590
20158.964123,2368.659014,-5921.647536,-1302.362347
20158.964456,-1924.535449,-8142.265362,-8580.269578
20158.964789,-4441.235652,-13693.809927,-12640.575717
20158.965122,-8586.388927,-20577.725188,-13483.280765
20158.965455,-8364.327145,-19837.519246,-11414.822920
20158.965788,-9548.656652,-19023.292709,-7354.516781
20158.966121,-5329.482782,-16802.674883,3140.991542
20158.966454,-1184.329507,-11029.068536,11568.042020
20158.966787,3478.967927,-962.267725,11644.651570
20158.967120,7031.956449,1184.329507,13713.109414
20158.967454,7031.956449,2368.659014,10955.165621
20158.967787,6365.771101,740.205942,6741.640382
20158.968120,2442.679609,-3034.844362,306.438199
20158.968453,-1184.329507,-6291.750507,-7354.516781
20158.968786,-5921.647536,-13619.789333,-10725.336972
20158.969119,-5995.668130,-20725.766376,-13713.109414
20158.969452,-9696.697840,-19911.539840,-12257.527968
20158.969785,-9104.533087,-19023.292709,-5056.230287
20158.970118,-4811.338623,-17172.777854,153.219100
20158.970451,-1554.432478,-11103.089130,8350.440928
20158.970784,3034.844362,-3108.864956,12180.918418
20158.971117,5477.523971,148.041188,13406.671215
20158.971451,7105.977043,2886.803174,10418.898773
20158.971784,6587.832884,666.185348,6052.154434
20158.972117,4219.173869,-2072.576638,1532.190996
20158.972450,2664.741391,-5477.523971,-4826.401637
20158.972783,-666.185348,-11843.295072,-9882.631924
20158.973116,-4515.256246,-18949.272115,-12947.013916
20158.973449,-9474.636058,-19615.457463,-11338.213370
20158.973782,-7179.997637,-22206.178260,-7431.126331
20158.974115,-3034.844362,-18949.272115,-1915.238745
20158.974448,1406.391290,-14211.954086,8503.660028
20158.974781,5477.523971,-6513.812290,13100.233016
20158.975114,9474.636058,0.000000,15781.567259
20158.975447,10584.944971,2590.720797,13483.280765
20158.975781,9178.553681,1998.556043,8120.612279
20158.976114,7105.977043,-2368.659014,3600.648841
20158.976447,1258.350101,-2442.679609,-4903.011187
20158.976780,-740.205942,-12731.542202,-10189.070123
20158.977113,-4219.173869,-16580.613101,-15398.519510
20158.977446,-7254.018232,-21391.951724,-12793.794817
20158.977779,-5995.668130,-21317.931130,-8963.317327
20158.978112,-4145.153275,-19541.436869,-1225.752797
20158.978445,-1184.329507,-14359.995275,5209.449386
20158.978778,3330.926739,-6809.894666,11568.042020
20158.979111,8216.285956,-1776.494261,14632.424012
20158.979444,9770.718434,1258.350101,15321.909960
20158.979778,9400.615463,1184.329507,9116.536426
20158.980111,3552.988522,-1258.350101,4903.011187
20158.980444,2960.823768,-3034.844362,-1532.190996
20158.980777,-1702.473667,-8290.306550,-9193.145976
20158.981110,-4145.153275,-13545.768739,-14249.376263
20158.981443,-7994.224174,-20133.601622,-13713.109414
20158.981776,-10066.800811,-21243.910535,-11108.384721
20158.982109,-10140.821405,-19319.375086,-6588.421283
20158.982442,-5255.462188,-18653.189738,4213.525239
20158.982775,-74.020594,-11843.295072,10955.165621
20158.983108,2368.659014,-666.185348,15015.471761
20158.983441,11177.109724,2368.659014,19228.997000
20158.983774,5329.482782,3478.967927,12257.527968
20158.984108,6513.812290,2146.597232,6358.592633
20158.984441,3701.029710,-1776.494261,229.828649
20158.984774,-1702.473667,-7179.997637,-8273.831378
20158.985107,-4737.318029,-13101.645173,-14402.595362
20158.985440,-7179.997637,-22502.260637,-16164.615008
20158.985773,-9548.656652,-20947.828159,-13789.718964
20158.986106,-8956.491898,-19023.292709,-7354.516781
20158.986439,-888.247130,-17764.942608,4213.525239
20158.986772,740.205942,-10881.027347,9269.755526
20158.987105,7254.018232,-3034.844362,14096.157163
20158.987438,11029.068536,1776.494261,16241.224558
20158.987771,10214.842000,1924.535449,13176.842566
20158.988104,8290.306550,2294.638420,8580.269578
20158.988438,6069.688724,-1110.308913,2145.067394
20158.988771,2368.659014,-5477.523971,-6205.373534
20158.989104,-2146.597232,-10881.027347,-13253.452115
20158.989437,-5995.668130,-17616.901420,-16011.395908
20158.989770,-9178.553681,-21391.951724,-14555.814462
20158.990103,-8438.347739,-22502.260637,-7431.126331
20158.990436,-4515.256246,-18949.272115,-1302.362347
20158.990769,-2812.782580,-12657.521608,6741.640382
20158.991102,7031.956449,-5033.400406,16471.053207
20158.991435,9326.594869,2294.638420,16547.662757
20158.991768,9696.697840,2516.700203,13942.938064
20158.992101,10140.821405,3034.844362,9116.536426
20158.992435,5625.565159,-74.020594,1838.629195
20158.992768,1258.350101,-3034.844362,-6128.763984
20158.993101,-74.020594,-12435.459826,-12334.137518
20158.993434,-5995.668130,-18357.107362,-16624.272307
20158.993767,-7402.059420,-21095.869347,-13789.718964
20158.994100,-7772.162391,-21910.095883,-8963.317327
20158.994433,-5181.441594,-19615.457463,-919.314598
20158.994766,-1998.556043,-14952.160028,6894.859482
20158.995099,3627.009116,-6365.771101,12717.185267
20158.995432,7698.141797,0.000000,16547.662757
20158.995765,6217.729913,4071.132681,15934.786358
20158.996098,9400.615463,2664.741391,8503.660028
20158.996431,3997.112087,1998.556043,4290.134789
20158.996765,0.000000,-3034.844362,-2451.505594
20158.997098,-2664.741391,-8364.327145,-12563.966167
20158.997431,-7328.038826,-16506.592507,-16624.272307
20158.997764,-10288.862594,-21614.013506,-16394.443657
20158.998097,-11695.253884,-22428.240043,-12257.527968
20158.998430,-7772.162391,-22502.260637,-4979.620737
20158.998763,-5625.565159,-16950.716072,6818.249932
20158.999096,2294.638420,-9474.636058,12180.918418
20158.999429,6365.771101,1110.308913,17160.539155
20158.999762,8142.265362,1702.473667,16547.662757
20159.000095,9400.615463,2368.659014,12180.918418
20159.000428,5551.544565,962.267725,6511.811733
20159.000762,1998.556043,-1776.494261,-1991.848295
20159.001095,-3256.906145,-6439.791695,-10112.460574
20159.001428,-8290.306550,-11917.315666,-16854.100956
20159.001761,-6291.750507,-22502.260637,-14785.643111
20159.002094,-10955.047942,-20799.786970,-11644.651570
20159.002427,-9474.636058,-19023.292709,-6128.763984
20159.002760,-3923.091493,-18949.272115,2681.334243
20159.003093,3478.967927,-10510.924376,11414.822920
20159.003426,7772.162391,-1776.494261,15858.176809
20159.003759,9622.677246,1998.556043,15704.957709
20159.004092,9918.759623,2368.659014,11951.089769
20159.004425,6513.812290,3478.967927,5898.935335
20159.004758,6439.791695,-2072.576638,-383.047749
20159.005092,1998.556043,-5921.647536,-8503.660028
20159.005425,-3404.947333,-12879.583391,-14709.033562
20159.005758,-4811.338623,-19319.375086,-15704.957709
20159.006091,-7476.080014,-22206.178260,-14479.204912
20159.006424,-6217.729913,-22946.384202,-4979.620737
20159.006757,-1998.556043,-21021.848753,1455.581446
20159.007090,1776.494261,-10732.986159,10418.898773
20159.007423,9474.636058,-3627.009116,18999.168350
20159.007756,11769.274478,3256.906145,16088.005458
20159.008089,11547.212695,1924.535449,13866.328514
20159.008422,9252.574275,3478.967927,7354.516781
20159.008755,5107.421000,-2442.679609,612.876398
20159.009088,0.000000,-3034.844362,-8580.269578
20159.009422,-3923.091493,-15396.283594,-14785.643111
20159.009755,-6291.750507,-18357.107362,-17237.148705
20159.010088,-10584.944971,-20799.786970,-14096.157163
20159.010421,-5995.668130,-21910.095883,-6818.249932
20159.010754,-5921.647536,-19319.375086,2145.067394
20159.011087,1406.391290,-11991.336260,8810.098227
20159.011420,6513.812290,-5403.503377,17160.539155
20159.011753,8364.327145,666.185348,16471.053207
20159.012086,9770.718434,1998.556043,14019.547613
20159.012419,9400.615463,0.000000,7890.783629
20159.012752,4293.194464,814.226536,612.876398
20159.013085,0.000000,-4219.173869,-3907.087040
20159.013419,-3923.091493,-10658.965565,-13866.328514
20159.013752,-8290.306550,-16062.468941,-15475.129060
20159.014085,-10362.883188,-21465.972318,-14709.033562
20159.014418,-9474.636058,-21984.116477,-10035.851024
20159.014751,-8882.471304,-20947.828159,-1762.019645
20159.015084,-814.226536,-15988.448347,7890.783629
20159.015417,2294.638420,-5921.647536,12180.918418
20159.015750,4885.359217,1702.473667,17466.977354
20159.016083,9400.615463,2368.659014,17083.929605
20159.016416,8216.285956,5625.565159,8963.317327
20159.016749,3701.029710,0.000000,5745.716235
20159.017082,-518.144159,-3034.844362,-5056.230287
20159.017415,-5847.626942,-9474.636058,-13406.671215
20159.017749,-7846.182985,-15248.242405,-16854.100956
20159.018082,-8438.347739,-21317.931130,-13866.328514
20159.018415,-9326.594869,-20947.828159,-11644.651570
20159.018748,-7179.997637,-21243.910535,-3753.867940
20159.019081,-1184.329507,-15914.427753,6818.249932
20159.019414,3108.864956,-7772.162391,13483.280765
20159.019747,7105.977043,-666.185348,18692.730151
20159.020080,11177.109724,592.164754,14632.424012
20159.020413,6957.935855,4589.276840,8350.440928
20159.020746,4737.318029,1998.556043,5515.887586
20159.021079,3034.844362,-888.247130,-2528.115143
20159.021412,-1184.329507,-7105.977043,-9422.974625
20159.021746,-4441.235652,-13249.686362,-14325.985813
20159.022079,-6587.832884,-18949.272115,-14938.862211
20159.022412,-7105.977043,-22946.384202,-10878.556072
20159.022745,-7179.997637,-20947.828159,-6741.640382
20159.023078,-1258.350101,-18949.272115,2374.896044
20159.023411,1850.514855,-10140.821405,11031.775171
20159.023744,7105.977043,-1258.350101,16547.662757
20159.024077,10066.800811,1702.473667,15321.909960
20159.024410,10658.965565,1850.514855,13100.233016
20159.024743,9548.656652,2220.617826,7431.126331
20159.025076,6365.771101,-1480.411884,-76.609550
20159.025409,-148.041188,-7105.977043,-8656.879127
20159.025742,-5921.647536,-12509.480420,-14709.033562
20159.026076,-6587.832884,-16284.530724,-17160.539155
20159.026409,-7105.977043,-21688.034101,-11491.432470
20159.026742,-4811.338623,-22206.178260,-3753.867940
20159.027075,-1258.350101,-20133.601622,2987.772442
20159.027408,1702.473667,-13027.624579,10648.727422
20159.027741,5107.421000,-4071.132681,14479.204912
20159.028074,8512.368333,1184.329507,15245.300410
20159.028407,8142.265362,2146.597232,12563.966167
20159.028740,8216.285956,1406.391290,9729.412825
20159.029073,1480.411884,-74.020594,612.876398
20159.029406,-4737.318029,-3627.009116,-6128.763984
20159.029739,-3627.009116,-11547.212695,-13866.328514
20159.030072,-8290.306550,-14730.098246,-16471.053207
20159.030406,-8068.244768,-20873.807564,-14249.376263
20159.030739,-9992.780217,-22206.178260,-9346.365076
20159.031072,-7031.956449,-21317.931130,-689.485948
20159.031405,-1702.473667,-14285.974681,7967.393179
20159.031738,4367.215058,-7105.977043,14632.424012
20159.032071,5033.400406,2294.638420,17160.539155
20159.032404,8882.471304,1184.329507,17083.929605
20159.032737,8808.450710,5625.565159,7507.735880
20159.033070,2960.823768,3330.926739,2604.724693
20159.033403,-74.020594,-3849.070898,-5898.935335
20159.033736,-5551.544565,-9400.615463,-13176.842566
20159.034069,-8216.285956,-15914.427753,-16854.100956
20159.034403,-8660.409521,-21317.931130,-15551.738609
20159.034736,-8364.327145,-23094.425390,-11721.261119
20159.035069,-6217.729913,-19615.457463,-2681.334243
20159.035402,74.020594,-15692.365970,7431.126331
20159.035735,5329.482782,-7772.162391,15168.690860
20159.036068,8290.306550,518.144159,17160.539155
20159.036401,10584.944971,0.000000,14632.424012
20159.036734,8586.388927,4663.297435,8503.660028
20159.037067,5921.647536,-518.144159,6971.469032
20159.037400,3775.050304,-3256.906145,-3447.429741
20159.037733,-2146.597232,-5995.668130,-12870.404366
20159.038066,-4145.153275,-13989.892304,-15398.519510
20159.038399,-5107.421000,-19245.354492,-14632.424012
20159.038733,-6143.709319,-21465.972318,-10189.070123
20159.039066,-2960.823768,-21910.095883,-3140.991542
20159.039399,1998.556043,-18949.272115,6665.030833
20159.039732,3552.988522,-9548.656652,13176.842566
20159.040065,6809.894666,-74.020594,15934.786358
20159.040398,11177.109724,592.164754,16471.053207
20159.040731,7105.977043,4367.215058,11031.775171
20159.041064,7624.121203,3404.947333,4903.011187
20159.041397,2368.659014,-3182.885551,-2834.553343
20159.041730,-2516.700203,-7179.997637,-11797.870669
20159.042063,-6291.750507,-14804.118840,-15475.129060
20159.042396,-4811.338623,-21317.931130,-16011.395908
20159.042729,-7105.977043,-20799.786970,-11031.775171
20159.043063,-4589.276840,-22206.178260,-3370.820191
20159.043396,1702.473667,-18357.107362,4213.525239
20159.043729,5551.544565,-12361.439231,13406.671215
20159.044062,7105.977043,-4219.173869,17007.320056
20159.044395,9400.615463,962.267725,15398.519510
20159.044728,7846.182985,962.267725,12870.404366
20159.045061,3552.988522,2886.803174,4903.011187
20159.045394,2886.803174,-1036.288319,-2451.505594
20159.045727,-4737.318029,-5403.503377,-6741.640382
20159.046060,-3923.091493,-11843.295072,-13559.890315
20159.046393,-7328.038826,-16580.613101,-14785.643111
20159.046726,-9474.636058,-20281.642811,-12640.575717
20159.047060,-8068.244768,-21910.095883,-7124.688131
20159.047393,-5995.668130,-19837.519246,1378.971896
20159.047726,-222.061783,-13767.830521,9729.412825
20159.048059,4293.194464,-6217.729913,15475.129060
20159.048392,4737.318029,-74.020594,15934.786358
20159.048725,8216.285956,2368.659014,13406.671215
20159.049058,4663.297435,5847.626942,5515.887586
20159.049391,1480.411884,-1184.329507,1762.019645
20159.049724,-3552.988522,-5033.400406,-6818.249932
20159.050057,-7402.059420,-9844.739029,-13100.233016
20159.050390,-8068.244768,-15618.345376,-14325.985813
20159.050723,-9474.636058,-20355.663405,-13023.623466
20159.051056,-7105.977043,-21539.992912,-7354.516781
20159.051390,-6513.812290,-19171.333898,1225.752797
20159.051723,-370.102971,-13767.830521,8273.831378
20159.052056,3849.070898,-7254.018232,13636.499864
20159.052389,6809.894666,-1110.308913,14785.643111
20159.052722,7105.977043,1406.391290,13483.280765
20159.053055,6587.832884,4737.318029,7584.345430
20159.053388,2960.823768,-74.020594,4290.134789
20159.053721,1702.473667,-3849.070898,-5898.935335
20159.054054,-2442.679609,-9178.553681,-12027.699319
20159.054387,-4441.235652,-15396.283594,-13636.499864
20159.054720,-5699.585753,-19615.457463,-14096.157163
20159.055053,-5995.668130,-22206.178260,-9959.241474
20159.055387,-4589.276840,-21317.931130,-1915.238745
20159.055720,2294.638420,-17764.942608,8197.221829
20159.056053,3552.988522,-8364.327145,13483.280765
20159.056386,7698.141797,-2442.679609,18922.558801
20159.056719,11769.274478,2368.659014,14479.204912
20159.057052,8290.306550,4071.132681,10418.898773
20159.057385,6439.791695,3182.885551,2757.943793
20159.057718,4663.297435,-3997.112087,-3370.820191
20159.058051,-1110.308913,-9104.533087,-11568.042020
20159.058384,-3552.988522,-14211.954086,-14709.033562
20159.058717,-6513.812290,-19023.292709,-15168.690860
20159.059050,-4737.318029,-21984.116477,-8044.002729
20159.059383,-3034.844362,-21614.013506,-3600.648841
20159.059717,1110.308913,-14582.057057,2451.505594
20159.060050,4959.379811,-11843.295072,13406.671215
20159.060383,7105.977043,-2442.679609,15934.786358
20159.060716,9400.615463,1480.411884,15245.300410
20159.061049,7328.038826,2368.659014,10878.556072
20159.061382,5773.606348,1628.453072,4826.401637
20159.061715,0.000000,-3034.844362,-3064.381992
20159.062048,-74.020594,-9474.636058,-7431.126331
20159.062381,-5995.668130,-10807.006753,-14709.033562
20159.062714,-6513.812290,-17838.963202,-14709.033562
20159.063047,-5403.503377,-23094.425390,-9882.631924
20159.063380,-7254.018232,-20947.828159,-6128.763984
20159.063714,-2146.597232,-18653.189738,2681.334243
20159.064047,1110.308913,-13619.789333,10189.070123
20159.064380,5699.585753,-5773.606348,15245.300410
20159.064713,6513.812290,1110.308913,14709.033562
20159.065046,7920.203579,3701.029710,12487.356617
20159.065379,4737.318029,3478.967927,6741.640382
20159.065712,1184.329507,-666.185348,-689.485948
20159.066045,-3034.844362,-7105.977043,-7737.564530
20159.066378,-6587.832884,-9548.656652,-14709.033562
20159.066711,-9474.636058,-16802.674883,-14172.766713
20159.067044,-7179.997637,-22502.260637,-12334.137518
20159.067377,-7254.018232,-20207.622217,-6741.640382
20159.067710,-3034.844362,-18801.230927,2068.457845
20159.068044,740.205942,-12953.603985,8350.440928
20159.068377,4441.235652,-6661.853478,13559.890315
20159.068710,6069.688724,-1036.288319,15398.519510
20159.069043,4737.318029,4071.132681,11031.775171
20159.069376,5847.626942,3330.926739,2987.772442
20159.069709,592.164754,-1258.350101,1455.581446
20159.070042,-370.102971,-4663.297435,-6511.811733
20159.070375,-3182.885551,-8364.327145,-12257.527968
20159.070708,-5699.585753,-14285.974681,-13253.452115
20159.071041,-6217.729913,-19319.375086,-12257.527968
20159.071374,-4959.379811,-21317.931130,-7660.954980
20159.071707,-3330.926739,-19837.519246,-1302.362347
20159.072041,592.164754,-16358.551318,7354.516781
20159.072374,5699.585753,-8216.285956,11644.651570
20159.072707,7105.977043,-2146.597232,17543.586904
20159.073040,9400.615463,1480.411884,12180.918418
20159.073373,5551.544565,2960.823768,6665.030833
20159.073706,4737.318029,518.144159,1838.629195
20159.074039,2368.659014,-4589.276840,-3753.867940
20159.074372,-814.226536,-8808.450710,-10418.898773
20159.074705,-5181.441594,-15174.221811,-14632.424012
20159.075038,-4515.256246,-21317.931130,-13559.890315
20159.075371,-6365.771101,-20207.622217,-7967.393179
20159.075704,-666.185348,-19837.519246,-1915.238745
20159.076037,1702.473667,-15396.283594,4213.525239
20159.076371,2368.659014,-9548.656652,12487.356617
20159.076704,7031.956449,-4737.318029,14632.424012
20159.077037,8216.285956,1480.411884,13559.890315
20159.077370,5921.647536,1702.473667,9116.536426
20159.077703,2664.741391,-74.020594,3140.991542
20159.078036,-1702.473667,-3627.009116,-4136.915689
20159.078369,-2294.638420,-7772.162391,-6511.811733
20159.078702,-4811.338623,-11621.233289,-13789.718964
20159.079035,-4737.318029,-16654.633695,-12870.404366
20159.079368,-5329.482782,-21762.054695,-6511.811733
20159.079701,-3627.009116,-20577.725188,-3753.867940
20159.080034,-3552.988522,-18653.189738,2374.896044
20159.080368,0.000000,-11695.253884,8503.660028
20159.080701,3849.070898,-5255.462188,13483.280765
20159.081034,5995.668130,1554.432478,13253.452115
20159.081367,6513.812290,1554.432478,11874.480219
20159.081700,4293.194464,2442.679609,5209.449386
20159.082033,1924.535449,-1924.535449,-612.876398
20159.082366,-148.041188,-6365.771101,-6435.202183
20159.082699,-4811.338623,-11103.089130,-12717.185267
20159.083032,-6217.729913,-17838.963202,-12487.356617
20159.083365,-3552.988522,-20651.745782,-8044.002729
20159.083698,-4219.173869,-19837.519246,-6665.030833
20159.084031,-2368.659014,-17024.736666,1225.752797
20159.084364,2294.638420,-13027.624579,8197.221829
20159.084698,3552.988522,-7179.997637,12334.137518
20159.085031,6069.688724,518.144159,12563.966167
20159.085364,7254.018232,1184.329507,10725.336972
20159.085697,3256.906145,2294.638420,5209.449386
20159.086030,1776.494261,-1258.350101,3140.991542
20159.086363,1110.308913,-4441.235652,-6588.421283
20159.086696,-2146.597232,-7476.080014,-11951.089769
20159.087029,-2664.741391,-16136.489536,-11414.822920
20159.087362,-3034.844362,-18283.086767,-11644.651570
20159.087695,-3404.947333,-20799.786970,-6665.030833
20159.088028,-1258.350101,-19541.436869,-1302.362347
20159.088361,1702.473667,-15396.283594,6665.030833
20159.088695,5107.421000,-10584.944971,13713.109414
20159.089028,8808.450710,-4737.318029,16471.053207
20159.089361,6291.750507,4367.215058,11031.775171
20159.089694,6735.874072,2590.720797,9729.412825
20159.090027,3849.070898,592.164754,2374.896044
20159.090360,2368.659014,-3034.844362,-3140.991542
20159.090693,-2146.597232,-8586.388927,-10495.508323
20159.091026,-3627.009116,-15840.407159,-13866.328514
20159.091359,-4145.153275,-20799.786970,-12027.699319
20159.091692,-5329.482782,-20503.704593,-9346.365076
20159.092025,-3552.988522,-20799.786970,-2451.505594
20159.092358,0.000000,-14285.974681,3677.258390
20159.092691,2664.741391,-11843.295072,13713.109414
20159.093025,7994.224174,-4071.132681,17083.929605
20159.093358,5773.606348,4071.132681,11031.775171
20159.093691,5329.482782,962.267725,9729.412825
20159.094024,2812.782580,370.102971,3524.039291
20159.094357,370.102971,-3330.926739,-2528.115143
20159.094690,-1850.514855,-8882.471304,-7124.688131
20159.095023,-8290.306550,-13101.645173,-11644.651570
20159.095356,-5107.421000,-17172.777854,-13559.890315
20159.095689,-7179.997637,-19911.539840,-11644.651570
20159.096022,-7105.977043,-20207.622217,-3447.429741
20159.096355,-4737.318029,-16358.551318,995.924147
20159.096688,-962.267725,-12139.377449,9039.926876
20159.097022,3627.009116,-5329.482782,13713.109414
20159.097355,4071.132681,1406.391290,13023.623466
20159.097688,6439.791695,2368.659014,10955.165621
20159.098021,3552.988522,1258.350101,6971.469032
20159.098354,2590.720797,-666.185348,-306.438199
20159.098687,-1924.535449,-6735.874072,-5592.497135
20159.099020,-4515.256246,-10732.986159,-12257.527968
20159.099353,-3034.844362,-18949.272115,-11108.384721
20159.099686,-6217.729913,-21317.931130,-8580.269578
20159.100019,-3923.091493,-22798.343014,-4979.620737
20159.100352,-3108.864956,-16062.468941,612.876398
20159.100685,0.000000,-12509.480420,7354.516781
20159.101019,4663.297435,-5329.482782,11874.480219
20159.101352,5921.647536,592.164754,13253.452115
20159.101685,6217.729913,2368.659014,11184.994271
20159.102018,5033.400406,1332.370696,7124.688131
20159.102351,1628.453072,-74.020594,-842.705048
20159.102684,-74.020594,-3404.947333,-7048.078582
20159.103017,-1776.494261,-10584.944971,-9193.145976
20159.103350,-74.020594,-16580.613101,-9882.631924
20159.103683,-666.185348,-21021.848753,-8963.317327
20159.104016,-3552.988522,-20207.622217,-7967.393179
20159.104349,-1406.391290,-19763.498651,-1838.629195
20159.104682,0.000000,-15766.386565,4979.620737
20159.105015,3849.070898,-9252.574275,10418.898773
20159.105349,4737.318029,-1554.432478,12870.404366
20159.105682,9992.780217,0.000000,12793.794817
20159.106015,5995.668130,4293.194464,7354.516781
20159.106348,3552.988522,2886.803174,3983.696590
20159.106681,2294.638420,-5921.647536,-2834.553343
20159.107014,-2072.576638,-7179.997637,-8580.269578
20159.107347,-4219.173869,-15396.283594,-12640.575717
20159.107680,-4737.318029,-19393.395680,-12180.918418
20159.108013,-4737.318029,-22354.219448,-8120.612279
20159.108346,-1702.473667,-20133.601622,-383.047749
20159.108679,-74.020594,-18357.107362,3600.648841
20159.109012,1184.329507,-7772.162391,9806.022374
20159.109346,4737.318029,-4367.215058,14862.252661
20159.109679,7031.956449,592.164754,10955.165621
20159.110012,2960.823768,3478.967927,8580.269578
20159.110345,3182.885551,592.164754,2221.676944
20159.110678,0.000000,-2738.761985,-1915.238745
20159.111011,-2960.823768,-7550.100608,-7660.954980
20159.111344,-2146.597232,-12435.459826,-10112.460574
20159.111677,-5625.565159,-17912.983796,-11797.870669
20159.112010,-5921.647536,-21317.931130,-9346.365076
20159.112343,-4367.215058,-20725.766376,-3294.210641
20159.112676,-4515.256246,-16580.613101,919.314598
20159.113009,-1628.453072,-10140.821405,9193.145976
20159.113342,3478.967927,-7105.977043,13406.671215
20159.113676,4663.297435,1184.329507,10955.165621
20159.114009,2664.741391,3478.967927,9806.022374
20159.114342,4367.215058,1776.494261,4519.963438
20159.114675,0.000000,-666.185348,-1225.752797
20159.115008,-888.247130,-7031.956449,-6052.154434
20159.115341,-3108.864956,-11325.150913,-9806.022374
20159.115674,-5625.565159,-16950.716072,-10878.556072
20159.116007,-3627.009116,-21317.931130,-9499.584175
20159.116340,-1554.432478,-22502.260637,-3753.867940
20159.116673,-3552.988522,-16062.468941,1225.752797
20159.117006,0.000000,-10732.986159,7354.516781
20159.117339,2664.741391,-4811.338623,10418.898773
20159.117673,5033.400406,-74.020594,12334.137518
20159.118006,5477.523971,1850.514855,9729.412825
20159.118339,4071.132681,888.247130,4749.792088
20159.118672,2294.638420,-2960.823768,-383.047749
20159.119005,-1480.411884,-4219.173869,-5822.325785
20159.119338,-1258.350101,-9474.636058,-9269.755526
20159.119671,-4145.153275,-13101.645173,-10418.898773
20159.120004,-1998.556043,-18949.272115,-7967.393179
20159.120337,-666.185348,-21243.910535,-3830.477490
20159.120670,-2960.823768,-18949.272115,229.828649
20159.121003,-592.164754,-14285.974681,4979.620737
20159.121336,1406.391290,-9918.759623,8810.098227
20159.121669,3997.112087,-2294.638420,10265.679673
20159.122003,3552.988522,3478.967927,11184.994271
20159.122336,5551.544565,4071.132681,4903.011187
20159.122669,1184.329507,-74.020594,2757.943793
20159.123002,3849.070898,-5773.606348,-1302.362347
20159.123335,2294.638420,-9474.636058,-6511.811733
20159.123668,-1554.432478,-15100.201217,-9959.241474
20159.124001,-2220.617826,-19245.354492,-10495.508323
20159.124334,-1406.391290,-21465.972318,-5745.716235
20159.124667,-2072.576638,-18949.272115,-1915.238745
20159.125000,-74.020594,-16580.613101,4213.525239
20159.125333,0.000000,-9548.656652,8886.707777
20159.125666,3404.947333,-4737.318029,12180.918418
20159.126000,5551.544565,592.164754,9729.412825
20159.126333,3701.029710,4663.297435,5592.497135
20159.126666,3182.885551,592.164754,3600.648841
20159.126999,1702.473667,-2960.823768,-1608.800546
20159.127332,0.000000,-6809.894666,-4443.353888
20159.127665,-2368.659014,-12953.603985,-8427.050478
20159.127998,-1850.514855,-17172.777854,-11108.384721
20159.128331,-5329.482782,-21910.095883,-8733.488677
20159.128664,-6439.791695,-20207.622217,-6128.763984
20159.128997,-6217.729913,-17542.880825,536.266849
20159.129330,-3256.906145,-12509.480420,5209.449386
20159.129663,2886.803174,-5921.647536,9729.412825
20159.129996,2960.823768,2812.782580,10648.727422
20159.130330,4737.318029,3478.967927,12104.308868
20159.130663,4367.215058,1332.370696,6665.030833
20159.130996,1924.535449,814.226536,1225.752797
20159.131329,666.185348,-6365.771101,-2757.943793
20159.131662,-1628.453072,-10955.047942,-8350.440928
20159.131995,-1850.514855,-17764.942608,-11414.822920
20159.132328,-2442.679609,-22206.178260,-9882.631924
20159.132661,-5403.503377,-19911.539840,-7048.078582
20159.132994,-3552.988522,-18949.272115,-76.609550
20159.133327,-74.020594,-16580.613101,4826.401637
20159.133660,-74.020594,-7179.997637,7507.735880
20159.133993,4663.297435,0.000000,13100.233016
20159.134327,5847.626942,2664.741391,10955.165621
20159.134660,4515.256246,2886.803174,7431.126331
20159.134993,4293.194464,1110.308913,3294.210641
20159.135326,2368.659014,-3034.844362,-2451.505594
20159.135659,2146.597232,-7179.997637,-9806.022374
20159.135992,-1184.329507,-15692.365970,-8963.317327
20159.136325,-1554.432478,-20725.766376,-11414.822920
20159.136658,-4219.173869,-21095.869347,-9806.022374
20159.136991,-4515.256246,-20429.683999,-3447.429741
20159.137324,-1480.411884,-16136.489536,3447.429741
20159.137657,0.000000,-10584.944971,8503.660028
20159.137990,3404.947333,-2368.659014,11568.042020
20159.138323,5921.647536,2738.761985,12410.747068
20159.138657,5033.400406,5551.544565,9806.022374
20159.138990,8808.450710,1480.411884,7277.907231
20159.139323,4071.132681,-370.102971,0.000000
20159.139656,2516.700203,-9178.553681,-4903.011187
20159.139989,-1184.329507,-13101.645173,-12257.527968
20159.140322,-2590.720797,-19985.560434,-12870.404366
20159.140655,-4589.276840,-23020.404796,-10265.679673
20159.140988,-4293.194464,-21169.889941,-6052.154434
20159.141321,-1406.391290,-18949.272115,1762.019645
20159.141654,0.000000,-12287.418637,8963.317327
20159.141987,4663.297435,-3404.947333,10418.898773
20159.142320,7031.956449,3478.967927,12257.527968
20159.142654,7994.224174,1184.329507,12793.794817
20159.142987,4885.359217,3478.967927,4903.011187
20159.143320,2072.576638,-2146.597232,2068.457845
20159.143653,0.000000,-5255.462188,-4596.572988
20159.143986,-3552.988522,-11325.150913,-10572.117872
20159.144319,-4811.338623,-17764.942608,-12334.137518
20159.144652,-6513.812290,-21836.075289,-9882.631924
20159.144985,-7698.141797,-21465.972318,-7124.688131
20159.145318,-6217.729913,-19541.436869,-1991.848295
20159.145651,-4145.153275,-13841.851115,3677.258390
20159.145984,1702.473667,-8290.306550,11568.042020
20159.146317,3552.988522,1702.473667,12257.527968
20159.146650,4885.359217,1480.411884,14019.547613
20159.146984,5255.462188,5181.441594,6741.640382
20159.147317,1184.329507,2294.638420,3064.381992
20159.147650,2812.782580,-5921.647536,-689.485948
20159.147983,-1184.329507,-8734.430116,-7967.393179
20159.148316,-4663.297435,-16654.633695,-12104.308868
20159.148649,-4737.318029,-21317.931130,-10648.727422
20159.148982,-5995.668130,-22206.178260,-8044.002729
20159.149315,-4441.235652,-19467.416275,-76.609550
20159.149648,-1258.350101,-15988.448347,4826.401637
20159.149981,814.226536,-6735.874072,7660.954980
20159.150314,3552.988522,-74.020594,13483.280765
20159.150647,6439.791695,3108.864956,9806.022374
20159.150981,5847.626942,2664.741391,8044.002729
20159.151314,4219.173869,148.041188,3830.477490
20159.151647,3701.029710,-3182.885551,-306.438199
20159.151980,592.164754,-6143.709319,-6741.640382
20159.152313,0.000000,-16580.613101,-7431.126331
20159.152646,-2442.679609,-18431.127956,-12717.185267
20159.152979,-5847.626942,-20799.786970,-9806.022374
20159.153312,-3182.885551,-23094.425390,-3140.991542
20159.153645,-4737.318029,-16358.551318,612.876398
20159.153978,-74.020594,-11695.253884,6665.030833
20159.154311,3627.009116,-2886.803174,11338.213370
20159.154644,6809.894666,1776.494261,11797.870669
20159.154977,6809.894666,3182.885551,10418.898773
20159.155311,9400.615463,0.000000,7277.907231
20159.155644,4589.276840,-74.020594,1225.752797
20159.155977,2812.782580,-7624.121203,-2451.505594
20159.156310,-74.020594,-15988.448347,-9882.631924
20159.156643,-4737.318029,-19023.292709,-12257.527968
20159.156976,-4811.338623,-23686.590144,-9806.022374
20159.157309,-5107.421000,-21391.951724,-5745.716235
20159.157642,-5329.482782,-18431.127956,1302.362347
20159.157975,-1332.370696,-12435.459826,4903.011187
20159.158308,3108.864956,-4737.318029,11797.870669
20159.158641,5181.441594,1850.514855,12870.404366
20159.158974,5773.606348,3997.112087,10725.336972
20159.159307,4663.297435,2368.659014,5132.839837
20159.159640,3478.967927,814.226536,919.314598
20159.159973,592.164754,-5403.503377,-3140.991542
20159.160306,-2442.679609,-11843.295072,-11721.261119
20159.160640,-4737.318029,-16062.468941,-12717.185267
20159.160973,-5995.668130,-23390.507767,-11108.384721
20159.161306,-6809.894666,-21095.869347,-8580.269578
20159.161639,-6439.791695,-19911.539840,-2298.286494
20159.161972,-3108.864956,-14952.160028,4826.401637
20159.162305,0.000000,-5107.421000,10418.898773
20159.162638,6439.791695,296.082377,11031.775171
20159.162971,6513.812290,1850.514855,14632.424012
20159.163304,6735.874072,3256.906145,8503.660028
20159.163637,5847.626942,2886.803174,3677.258390
20159.163970,2368.659014,-3034.844362,-612.876398
20159.164303,-1184.329507,-9622.677246,-7660.954980
20159.164636,-2886.803174,-16062.468941,-12027.699319
20159.164969,-5699.585753,-22576.281231,-11951.089769
20159.165302,-5181.441594,-23020.404796,-7967.393179
20159.165636,-6291.750507,-19023.292709,-4903.011187
20159.165969,-888.247130,-16580.613101,4826.401637
20159.166302,2294.638420,-8290.306550,8733.488677
20159.166635,3552.988522,-74.020594,11031.775171
20159.166968,6513.812290,2368.659014,12257.527968
20159.167301,7624.121203,1554.432478,9729.412825
20159.167634,6957.935855,2220.617826,5286.058936
20159.167967,3997.112087,-3182.885551,-229.828649
20159.168300,1998.556043,-8882.471304,-7431.126331
20159.168633,-2368.659014,-12509.480420,-10725.336972
20159.168966,-3034.844362,-19615.457463,-13559.890315
20159.169299,-3627.009116,-21614.013506,-12257.527968
20159.169632,-6809.894666,-22428.240043,-4979.620737
20159.169965,-2442.679609,-18949.272115,-76.609550
20159.170298,-148.041188,-11695.253884,7584.345430
20159.170632,3256.906145,-2812.782580,11568.042020
20159.170965,6217.729913,2590.720797,13100.233016
20159.171298,8068.244768,3552.988522,11414.822920
20159.171631,8882.471304,1184.329507,9729.412825
20159.171964,4515.256246,-74.020594,0.000000
20159.172297,2516.700203,-8290.306550,-3677.258390
20159.172630,-74.020594,-15100.201217,-9882.631924
20159.172963,-3034.844362,-19541.436869,-13253.452115
20159.173296,-4663.297435,-23390.507767,-10495.508323
20159.173629,-6883.915261,-22206.178260,-7354.516781
20159.173962,-4737.318029,-18949.272115,-229.828649
20159.174295,-2294.638420,-12139.377449,7048.078582
20159.174628,3182.885551,-5921.647536,12180.918418
20159.174961,4737.318029,1184.329507,13866.328514
20159.175294,6217.729913,4367.215058,12104.308868
20159.175627,6513.812290,3775.050304,8580.269578
20159.175961,2664.741391,-74.020594,1838.629195
20159.176294,1184.329507,-5921.647536,-3447.429741
20159.176627,-666.185348,-13027.624579,-9882.631924
20159.176960,-6513.812290,-16062.468941,-12257.527968
20159.177293,-6217.729913,-22502.260637,-11414.822920
20159.177626,-8660.409521,-23390.507767,-11721.261119
20159.177959,-7846.182985,-21243.910535,-3600.648841
20159.178292,-4737.318029,-14804.118840,3830.477490
20159.178625,666.185348,-7105.977043,10878.556072
20159.178958,2368.659014,1702.473667,14096.157163
20159.179291,7105.977043,3034.844362,16471.053207
20159.179624,8216.285956,5847.626942,9806.022374
20159.179957,2368.659014,2294.638420,7967.393179
20159.180290,4663.297435,-4145.153275,-1915.238745
20159.180623,-1998.556043,-7772.162391,-9806.022374
20159.180957,-3182.885551,-16580.613101,-14172.766713
20159.181290,-6217.729913,-22280.198854,-13483.280765
20159.181623,-7920.203579,-23760.610738,-11338.213370
20159.181956,-3923.091493,-21910.095883,-3294.210641
20159.182289,-2072.576638,-18949.272115,6665.030833
20159.182622,1406.391290,-7846.182985,8886.707777
20159.182955,4145.153275,-74.020594,13483.280765
20159.183288,8586.388927,2812.782580,15858.176809
20159.183621,8290.306550,4367.215058,13789.718964
20159.183954,7105.977043,1924.535449,6665.030833
20159.184287,5477.523971,-2072.576638,459.657299
20159.184620,1776.494261,-8216.285956,-6358.592633
20159.184953,-1850.514855,-12731.542202,-13866.328514
20159.185286,-3627.009116,-22502.260637,-15092.081311
20159.185619,-9104.533087,-22576.281231,-14709.033562
20159.185953,-6957.935855,-23686.590144,-7124.688131
20159.186286,-3627.009116,-20725.766376,-76.609550
20159.186619,1110.308913,-11251.130318,8503.660028
20159.186952,4589.276840,-3108.864956,14632.424012
20159.187285,9474.636058,4515.256246,15934.786358
20159.187618,9400.615463,4441.235652,13789.718964
20159.187951,8290.306550,4663.297435,7354.516781
20159.188284,6143.709319,-74.020594,612.876398
20159.188617,2368.659014,-8512.368333,-4290.134789
20159.188950,-962.267725,-14211.954086,-11414.822920
20159.189283,-5403.503377,-19319.375086,-15704.957709
20159.189616,-7476.080014,-25759.166782,-13559.890315
20159.189949,-9474.636058,-22428.240043,-9269.755526
20159.190282,-7254.018232,-19911.539840,-1302.362347
20159.190615,-1776.494261,-11843.295072,7277.907231
20159.190948,1184.329507,-2442.679609,13789.718964
20159.191282,7105.977043,4219.173869,15475.129060
20159.191615,7772.162391,4515.256246,15092.081311
20159.191948,7254.018232,4811.338623,9422.974625
20159.192281,4071.132681,-296.082377,2451.505594
20159.192614,0.000000,-4811.338623,-6128.763984
20159.192947,-1850.514855,-13619.789333,-12334.137518
20159.193280,-7994.224174,-16654.633695,-15321.909960
20159.193613,-6291.750507,-25907.207970,-15934.786358
20159.193946,-7179.997637,-24278.754898,-9882.631924
20159.194279,-8882.471304,-21095.869347,-2451.505594
20159.194612,-3256.906145,-14952.160028,5822.325785
20159.194945,888.247130,-6365.771101,12487.356617
20159.195278,5995.668130,2072.576638,15628.348159
20159.195611,9474.636058,4071.132681,17160.539155
20159.195944,8808.450710,7920.203579,9806.022374
20159.196278,4737.318029,4071.132681,6128.763984
20159.196611,4071.132681,-4737.318029,-2528.115143
20159.196944,-2442.679609,-7772.162391,-12563.966167
20159.197277,-5921.647536,-18135.045579,-15398.519510
20159.197610,-7920.203579,-24426.796086,-16700.881856
20159.197943,-8512.368333,-24870.919651,-12793.794817
20159.198276,-7179.997637,-22798.343014,-4366.744339
20159.198609,-1258.350101,-16580.613101,5745.716235
20159.198942,814.226536,-5995.668130,9806.022374
20159.199275,7254.018232,0.000000,15934.786358
20159.199608,11103.089130,1184.329507,18309.682402
20159.199941,8290.306550,7031.956449,12257.527968
20159.200274,8808.450710,3108.864956,6511.811733
20159.200607,4219.173869,-2886.803174,-842.705048
20159.200940,1110.308913,-6587.832884,-8810.098227
20159.201273,-2442.679609,-14804.118840,-14709.033562
20159.201607,-5403.503377,-21317.931130,-17237.148705
20159.201940,-10658.965565,-22576.281231,-14709.033562
20159.202273,-8216.285956,-26055.249158,-7431.126331
20159.202606,-2442.679609,-21317.931130,2068.457845
20159.202939,0.000000,-9548.656652,8580.269578
20159.203272,6439.791695,-1776.494261,16164.615008
20159.203605,9178.553681,4515.256246,17466.977354
20159.203938,9622.677246,5551.544565,14249.376263
20159.204271,8882.471304,4737.318029,7967.393179
20159.204604,4367.215058,-2368.659014,2068.457845
20159.204937,1554.432478,-6069.688724,-6894.859482
20159.205270,-3997.112087,-13545.768739,-13636.499864
20159.205603,-6365.771101,-21021.848753,-17390.367805
20159.205936,-10362.883188,-24944.940245,-14709.033562
20159.206269,-8364.327145,-25759.166782,-10495.508323
20159.206603,-6735.874072,-19023.292709,-1838.629195
20159.206936,-3552.988522,-11029.068536,10418.898773
20159.207269,5255.462188,-4737.318029,17083.929605
20159.207602,8290.306550,4663.297435,17160.539155
20159.207935,10955.047942,5477.523971,16394.443657
20159.208268,9400.615463,4737.318029,9499.584175
20159.208601,4885.359217,-444.123565,2604.724693
20159.208934,2294.638420,-5625.565159,-6205.373534
20159.209267,-3627.009116,-13915.871710,-12947.013916
20159.209600,-8882.471304,-16654.633695,-17160.539155
20159.209933,-7920.203579,-24574.837274,-14862.252661
20159.210266,-9474.636058,-26055.249158,-9882.631924
20159.210599,-5995.668130,-21688.034101,-2451.505594
20159.210932,-3627.009116,-15470.304188,6435.202183
20159.211265,1406.391290,-6217.729913,13636.499864
20159.211599,7105.977043,2442.679609,17773.415554
20159.211932,9400.615463,6957.935855,15321.909960
20159.212265,11029.068536,5329.482782,11568.042020
20159.212598,3552.988522,2294.638420,5209.449386
20159.212931,4663.297435,-4145.153275,-4060.306139
20159.213264,-4441.235652,-9474.636058,-12257.527968
20159.213597,-6365.771101,-17246.798449,-17083.929605
20159.213930,-8882.471304,-23760.610738,-16854.100956
20159.214263,-9030.512492,-25167.002028,-12180.918418
20159.214596,-6069.688724,-21762.054695,-3753.867940
20159.214929,-3552.988522,-14582.057057,6281.983084
20159.215262,4367.215058,-6513.812290,12180.918418
20159.215595,8882.471304,0.000000,18386.291952
20159.215928,12361.439231,2368.659014,18309.682402
20159.216261,8438.347739,6143.709319,10112.460574
20159.216594,4737.318029,2886.803174,3677.258390
20159.216928,2368.659014,-2812.782580,-3140.991542
20159.217261,-1554.432478,-8364.327145,-9959.241474
20159.217594,-3627.009116,-14656.077652,-15704.957709
20159.217927,-5403.503377,-22502.260637,-15092.081311
20159.218260,-10288.862594,-22576.281231,-14096.157163
20159.218593,-5995.668130,-24574.837274,-5592.497135
20159.218926,-2442.679609,-18949.272115,4213.525239
20159.219259,0.000000,-8660.409521,12257.527968
20159.219592,5033.400406,-74.020594,18386.291952
20159.219925,8808.450710,3923.091493,16854.100956
20159.220258,8512.368333,4737.318029,12104.308868
20159.220591,7772.162391,3256.906145,6052.154434
20159.220924,7031.956449,-2072.576638,1762.019645
20159.221257,-1110.308913,-6291.750507,-7967.393179
20159.221590,-3701.029710,-13545.768739,-15092.081311
20159.221924,-7402.059420,-21465.972318,-16700.881856
20159.222257,-7476.080014,-24500.816680,-13636.499864
20159.222590,-6217.729913,-23834.631332,-5056.230287
20159.222923,-3923.091493,-17690.922014,689.485948
20159.223256,-74.020594,-10436.903782,7660.954980
20159.223589,5329.482782,-4515.256246,18309.682402
20159.223922,9104.533087,3701.029710,16854.100956
20159.224255,7402.059420,4367.215058,14862.252661
20159.224588,7624.121203,3997.112087,7507.735880
20159.224921,4515.256246,370.102971,1838.629195
20159.225254,666.185348,-4811.338623,-6205.373534
20159.225587,-1850.514855,-11251.130318,-13559.890315
20159.225920,-8068.244768,-16950.716072,-17773.415554
20159.226253,-7179.997637,-23686.590144,-13942.938064
20159.226586,-7772.162391,-26055.249158,-10189.070123
20159.226920,-7179.997637,-20947.828159,-3830.477490
20159.227253,-3256.906145,-16284.530724,5745.716235
20159.227586,3182.885551,-6809.894666,14172.766713
20159.227919,8882.471304,2590.720797,18616.120601
20159.228252,10288.862594,4663.297435,17160.539155
20159.228585,10066.800811,7031.956449,10035.851024
20159.228918,6143.709319,4663.297435,4903.011187
20159.229251,3627.009116,-5329.482782,-2528.115143
20159.229584,-1850.514855,-11251.130318,-12947.013916
20159.229917,-7550.100608,-16950.716072,-17773.415554
20159.230250,-7476.080014,-23686.590144,-17620.196454
20159.230583,-9548.656652,-25389.063811,-12027.699319
20159.230916,-8142.265362,-21391.951724,-3983.696590
20159.231249,-4737.318029,-15544.324782,5132.839837
20159.231582,2368.659014,-7772.162391,14709.033562
20159.231915,8290.306550,1184.329507,21450.673944
20159.232249,11029.068536,2960.823768,18003.244203
20159.232582,7105.977043,6439.791695,12257.527968
20159.232915,4737.318029,3182.885551,7737.564530
20159.233248,4071.132681,-2368.659014,-3753.867940
20159.233581,-740.205942,-7994.224174,-10572.117872
20159.233914,-5551.544565,-15248.242405,-17160.539155
20159.234247,-7402.059420,-22872.363608,-17466.977354
20159.234580,-9474.636058,-24352.775492,-13483.280765
20159.234913,-7920.203579,-24056.693115,-5898.935335
20159.235246,-4589.276840,-18135.045579,3830.477490
20159.235579,2886.803174,-9918.759623,12793.794817
20159.235912,8216.285956,0.000000,19228.997000
20159.236245,9548.656652,3552.988522,18309.682402
20159.236578,8734.430116,7031.956449,12870.404366
20159.236911,9400.615463,3108.864956,9729.412825
20159.237245,5847.626942,0.000000,-1608.800546
20159.237578,814.226536,-7402.059420,-9422.974625
20159.237911,-5255.462188,-15914.427753,-16471.053207
20159.238244,-8290.306550,-22206.178260,-19382.216099
20159.238577,-9252.574275,-25018.960840,-15628.348159
20159.238910,-7402.059420,-25167.002028,-7737.564530
20159.239243,-3552.988522,-19245.354492,4213.525239
20159.239576,0.000000,-9844.739029,14096.157163
20159.239909,8808.450710,-3552.988522,19228.997000
20159.240242,10436.903782,2960.823768,19228.997000
20159.240575,8882.471304,6883.915261,14709.033562
20159.240908,9104.533087,5033.400406,8044.002729
20159.241241,3627.009116,518.144159,459.657299
20159.241574,-592.164754,-5255.462188,-8427.050478
20159.241907,-5403.503377,-12435.459826,-17083.929605
20159.242241,-8364.327145,-20725.766376,-19688.654299
20159.242574,-10066.800811,-25092.981434,-15934.786358
20159.242907,-7476.080014,-26943.496289,-11108.384721
20159.243240,-6439.791695,-20355.663405,-1225.752797
20159.243573,0.000000,-13101.645173,10418.898773
20159.243906,5773.606348,-3034.844362,17466.977354
20159.244239,9400.615463,3034.844362,19152.387450
20159.244572,10436.903782,4811.338623,16700.881856
20159.244905,9844.739029,5773.606348,10495.508323
20159.245238,4293.194464,4071.132681,1225.752797
20159.245571,2738.761985,-5921.647536,-5592.497135
20159.245904,-5995.668130,-10658.965565,-16777.491406
20159.246237,-9474.636058,-17838.963202,-18999.168350
20159.246570,-7476.080014,-24426.796086,-15551.738609
20159.246903,-9178.553681,-25241.022622,-10878.556072
20159.247236,-6513.812290,-21762.054695,-1685.410096
20159.247570,-370.102971,-14508.036463,8044.002729
20159.247903,5477.523971,-6069.688724,17773.415554
20159.248236,9474.636058,1998.556043,21450.673944
20159.248569,12953.603985,4737.318029,16471.053207
20159.248902,8142.265362,5847.626942,10725.336972
20159.249235,2368.659014,2886.803174,5056.230287
20159.249568,2886.803174,-4737.318029,-4979.620737
20159.249901,-5625.565159,-8956.491898,-14096.157163
20159.250234,-6439.791695,-15840.407159,-18309.682402
20159.250567,-6957.935855,-21762.054695,-16164.615008
20159.250900,-6883.915261,-25167.002028,-11874.480219
20159.251233,-8290.306550,-22576.281231,-3983.696590
20159.251566,-2220.617826,-17098.757260,5975.544884
20159.251899,4071.132681,-9030.512492,14632.424012
20159.252232,7698.141797,-444.123565,18462.901502
20159.252566,10584.944971,3552.988522,16471.053207
20159.252899,8068.244768,6735.874072,11644.651570
20159.253232,6513.812290,3701.029710,7814.174080
20159.253565,5847.626942,0.000000,-2528.115143
20159.253898,-2664.741391,-7031.956449,-11338.213370
20159.254231,-4959.379811,-15026.180623,-16011.395908
20159.254564,-8512.368333,-21465.972318,-18692.730151
20159.254897,-8438.347739,-26055.249158,-13942.938064
20159.255230,-6883.915261,-24130.713709,-6052.154434
20159.255564,-2812.782580,-16654.633695,3677.258390
20159.255897,2294.638420,-7772.162391,12870.404366
20159.256230,9104.533087,-2960.823768,19535.435199
20159.256563,11769.274478,592.164754,19535.435199
20159.256896,9252.574275,4885.359217,13100.233016
20159.257229,5329.482782,4145.153275,6665.030833
20159.257562,1850.514855,-222.061783,-1762.019645
20159.257896,-4145.153275,-6809.894666,-9422.974625
20159.258229,-7402.059420,-12509.480420,-17160.539155
20159.258562,-8142.265362,-19985.560434,-16547.662757
20159.258895,-8438.347739,-21688.034101,-14096.157163
20159.259228,-6587.832884,-26055.249158,-6205.373534
20159.259561,-3627.009116,-19245.354492,1072.533697
20159.259894,296.082377,-11325.150913,11338.213370
20159.260228,4737.318029,-3330.926739,15934.786358
20159.260561,9178.553681,2368.659014,17696.806004
20159.260894,9326.594869,3775.050304,14709.033562
20159.261227,8512.368333,4885.359217,8427.050478
20159.261560,6439.791695,0.000000,2068.457845
20159.261893,-1776.494261,-4811.338623,-6741.640382
20159.262227,-4811.338623,-11547.212695,-16011.395908
20159.262560,-8142.265362,-17838.963202,-18079.853753
20159.262893,-7698.141797,-24204.734303,-14709.033562
20159.263226,-7179.997637,-26647.413912,-7431.126331
20159.263559,-5403.503377,-19837.519246,-1225.752797
20159.263892,0.000000,-13175.665768,9806.022374
20159.264225,5181.441594,-4959.379811,16854.100956
20159.264559,8364.327145,3923.091493,17466.977354
20159.264892,11177.109724,1776.494261,15858.176809
20159.265225,6069.688724,6439.791695,9959.241474
20159.265558,5329.482782,0.000000,4826.401637
20159.265891,-74.020594,-3849.070898,-8197.221829
20159.266224,-3849.070898,-9548.656652,-13483.280765
20159.266557,-5255.462188,-16284.530724,-17160.539155
20159.266891,-5625.565159,-21391.951724,-14785.643111
20159.267224,-7254.018232,-24130.713709,-10725.336972
20159.267557,-5329.482782,-20503.704593,-3447.429741
20159.267890,-148.041188,-17616.901420,7277.907231
20159.268223,3701.029710,-8364.327145,14862.252661
20159.268556,8290.306550,0.000000,17696.806004
20159.268890,9696.697840,3108.864956,16317.834107
20159.269223,9104.533087,6217.729913,9729.412825
20159.269556,6513.812290,3256.906145,7048.078582
20159.269889,4071.132681,-4145.153275,-3753.867940
20159.270222,-4145.153275,-7179.997637,-11644.651570
20159.270555,-6809.894666,-16950.716072,-15628.348159
20159.270888,-6143.709319,-21169.889941,-17160.539155
20159.271222,-8216.285956,-25759.166782,-12104.308868
20159.271555,-5921.647536,-22428.240043,-4443.353888
20159.271888,-1480.411884,-16876.695478,5669.106685
20159.272221,1776.494261,-7772.162391,11644.651570
20159.272554,8660.409521,-3552.988522,18003.244203
20159.272887,7624.121203,2368.659014,15245.300410
20159.273220,6513.812290,5847.626942,13483.280765
20159.273554,7031.956449,1776.494261,7277.907231
20159.273887,1332.370696,-370.102971,-2298.286494
20159.274220,-2442.679609,-6809.894666,-10035.851024
20159.274553,-5921.647536,-13619.789333,-15092.081311
20159.274886,-6587.832884,-19245.354492,-16241.224558
20159.275219,-8882.471304,-23464.528361,-12870.404366
20159.275552,-5403.503377,-27239.578666,-6205.373534
20159.275886,-4219.173869,-18431.127956,1838.629195
20159.276219,444.123565,-9548.656652,11031.775171
20159.276552,6217.729913,-3404.947333,17696.806004
20159.276885,8290.306550,2886.803174,18309.682402
20159.277218,8216.285956,5329.482782,13406.671215
20159.277551,7179.997637,5995.668130,6358.592633
20159.277885,2812.782580,0.000000,-1378.971896
20159.278218,-666.185348,-7105.977043,-8656.879127
20159.278551,-5995.668130,-12435.459826,-17237.148705
20159.278884,-9474.636058,-20207.622217,-15628.348159
20159.279217,-6587.832884,-25167.002028,-12947.013916
20159.279550,-4811.338623,-24278.754898,-8656.879127
