#time,accel_x,accel_y,accel_z
20089.896815,8216.285956,-9178.553681,2374.896044
20089.897148,8290.306550,-7179.997637,5822.325785
20089.897482,10584.944971,-7846.182985,4290.134789
20089.897815,10584.944971,-8290.306550,2834.553343
20089.898149,7994.224174,-9178.553681,-229.828649
20089.898482,6439.791695,-9474.636058,-3294.210641
20089.898816,7624.121203,-13027.624579,-3753.867940
20089.899149,4737.318029,-8956.491898,-2451.505594
20089.899483,8216.285956,-10362.883188,-1915.238745
20089.899816,11177.109724,-8882.471304,-1608.800546
20089.900150,13545.768739,-11103.089130,4826.401637
20089.900483,14211.954086,-8068.244768,4596.572988
20089.900817,14804.118840,-9696.697840,4596.572988
20089.901150,12435.459826,-10584.944971,3677.258390
20089.901484,7105.977043,-10732.986159,306.438199
20089.901817,5847.626942,-10658.965565,-2757.943793
20089.902151,592.164754,-9548.656652,-1838.629195
20089.902484,3404.947333,-11547.212695,-689.485948
20089.902818,2294.638420,-9474.636058,-76.609550
20089.903151,2072.576638,-5477.523971,-76.609550
20089.903485,2812.782580,-6513.812290,459.657299
20089.903818,5255.462188,-6143.709319,1608.800546
20089.904152,7476.080014,-6587.832884,4060.306139
20089.904485,9474.636058,-7402.059420,4136.915689
20089.904819,5329.482782,-7772.162391,0.000000
20089.905152,6809.894666,-11843.295072,-76.609550
20089.905486,6291.750507,-13619.789333,-2528.115143
20089.905819,1184.329507,-10732.986159,-3677.258390
20089.906153,-1184.329507,-12435.459826,-4366.744339
20089.906486,-1628.453072,-11621.233289,-3753.867940
20089.906820,-1998.556043,-9844.739029,-1149.143247
20089.907153,0.000000,-7846.182985,1149.143247
20089.907487,296.082377,-7476.080014,4903.011187
20089.907820,1776.494261,-4811.338623,5515.887586
20089.908154,5329.482782,-5403.503377,7737.564530
20089.908487,5847.626942,-4663.297435,5975.544884
20089.908821,5033.400406,-7105.977043,2374.896044
20089.909154,1776.494261,-9252.574275,0.000000
20089.909488,-74.020594,-11843.295072,-5286.058936
20089.909822,-4737.318029,-12213.398043,-4903.011187
20089.910155,-5995.668130,-15396.283594,-5592.497135
20089.910489,-7772.162391,-13619.789333,-6205.373534
20089.910822,-6513.812290,-11843.295072,-1685.410096
20089.911156,-1036.288319,-6883.915261,2221.676944
20089.911489,3478.967927,-4589.276840,6052.154434
20089.911823,7105.977043,-2960.823768,7660.954980
20089.912156,10288.862594,-5921.647536,9729.412825
20089.912490,10214.842000,-2590.720797,6128.763984
20089.912823,9474.636058,-6587.832884,4519.963438
20089.913157,8216.285956,-10510.924376,-2834.553343
20089.913490,2960.823768,-9844.739029,-5975.544884
20089.913824,3182.885551,-15248.242405,-7431.126331
20089.914157,666.185348,-15396.283594,-6894.859482
20089.914491,-2220.617826,-14952.160028,-4826.401637
20089.914824,-3330.926739,-12657.521608,-2451.505594
20089.915158,-1258.350101,-10658.965565,842.705048
20089.915491,0.000000,-5995.668130,5669.106685
20089.915825,6735.874072,-4737.318029,10112.460574
20089.916158,10584.944971,-4145.153275,9729.412825
20089.916492,10066.800811,-370.102971,9806.022374
20089.916825,11177.109724,-1924.535449,2528.115143
20089.917159,9992.780217,-6217.729913,0.000000
20089.917492,7772.162391,-7994.224174,-5592.497135
20089.917826,4219.173869,-12953.603985,-9422.974625
20089.918159,888.247130,-15174.221811,-12717.185267
20089.918493,-4737.318029,-16950.716072,-9346.365076
20089.918826,-666.185348,-17764.942608,-7584.345430
20089.919160,-1184.329507,-13693.809927,-3294.210641
20089.919493,0.000000,-13693.809927,4903.011187
20089.919827,-74.020594,-9622.677246,4979.620737
20089.920160,2220.617826,-7476.080014,10648.727422
20089.920494,4811.338623,-2220.617826,13483.280765
20089.920827,5921.647536,518.144159,12717.185267
20089.921161,6217.729913,1702.473667,7507.735880
20089.921494,6587.832884,-3478.967927,4060.306139
20089.921828,2220.617826,-5551.544565,-2145.067394
20089.922161,-740.205942,-8882.471304,-9116.536426
20089.922495,-4811.338623,-15914.427753,-12334.137518
20089.922829,-9326.594869,-18949.272115,-14785.643111
20089.923162,-12509.480420,-16950.716072,-13483.280765
20089.923496,-13915.871710,-17246.798449,-6741.640382
20089.923829,-9548.656652,-17468.860231,-76.609550
20089.924163,-6957.935855,-10584.944971,6128.763984
20089.924496,-1406.391290,-5625.565159,14862.252661
20089.924830,3182.885551,-666.185348,17850.025103
20089.925163,6957.935855,2664.741391,17007.320056
20089.925497,7031.956449,3849.070898,12793.794817
20089.925830,7698.141797,0.000000,6665.030833
20089.926164,2368.659014,-1554.432478,-2451.505594
20089.926497,-296.082377,-10140.821405,-9882.631924
20089.926831,-5107.421000,-15988.448347,-18692.730151
20089.927164,-9844.739029,-22058.137072,-18462.901502
20089.927498,-10881.027347,-21688.034101,-16854.100956
20089.927831,-9030.512492,-22502.260637,-8656.879127
20089.928165,-7105.977043,-18431.127956,1762.019645
20089.928498,-5329.482782,-11325.150913,9806.022374
20089.928832,3478.967927,-7105.977043,17083.929605
20089.929165,5921.647536,4071.132681,22063.550342
20089.929499,11251.130318,4959.379811,23519.131789
20089.929832,12065.356855,5921.647536,15245.300410
20089.930166,10066.800811,5847.626942,5515.887586
20089.930499,7402.059420,-1554.432478,-4673.182538
20089.930833,2664.741391,-7624.121203,-15015.471761
20089.931166,-3775.050304,-16950.716072,-21374.064394
20089.931500,-8142.265362,-23982.672521,-22982.864940
20089.931833,-8956.491898,-25167.002028,-21757.112143
20089.932167,-8290.306550,-26425.352129,-9806.022374
20089.932500,-4737.318029,-21984.116477,3294.210641
20089.932834,1702.473667,-11991.336260,11414.822920
20089.933167,7698.141797,-2442.679609,22063.550342
20089.933501,14730.098246,2368.659014,27349.609279
20089.933834,13989.892304,7624.121203,24208.617737
20089.934168,13249.686362,7550.100608,15245.300410
20089.934501,9622.677246,2368.659014,3600.648841
20089.934835,3552.988522,-74.020594,-7354.516781
20089.935169,2294.638420,-9474.636058,-16317.834107
20089.935502,-4811.338623,-18357.107362,-22140.159892
20089.935836,-10658.965565,-22576.281231,-23289.303139
20089.936169,-9474.636058,-25537.104999,-18079.853753
20089.936503,-7624.121203,-27535.661042,-8044.002729
20089.936836,-6587.832884,-22428.240043,2374.896044
20089.937170,-3478.967927,-14211.954086,10725.336972
20089.937503,2886.803174,-7105.977043,19535.435199
20089.937837,7254.018232,3775.050304,24515.055936
20089.938170,9548.656652,9770.718434,22369.988542
20089.938504,7846.182985,7920.203579,15015.471761
20089.938837,5699.585753,6439.791695,3753.867940
20089.939171,3478.967927,-1184.329507,-4979.620737
20089.939504,1110.308913,-4737.318029,-14709.033562
20089.939838,-8290.306550,-15470.304188,-18386.291952
20089.940171,-8660.409521,-25463.084405,-21833.721693
20089.940505,-10881.027347,-27905.764013,-18079.853753
20089.940838,-11251.130318,-29238.134709,-7431.126331
20089.941172,-9474.636058,-23316.487173,1762.019645
20089.941505,-7624.121203,-14878.139434,8580.269578
20089.941839,-740.205942,-5921.647536,17237.148705
20089.942172,5847.626942,3849.070898,22599.817191
20089.942506,6439.791695,12657.521608,21450.673944
20089.942839,9400.615463,9474.636058,18003.244203
20089.943173,8808.450710,7105.977043,5439.278036
20089.943506,4145.153275,2590.720797,-2451.505594
20089.943840,3478.967927,-5921.647536,-11721.261119
20089.944173,-4663.297435,-16506.592507,-18769.339701
20089.944507,-8734.430116,-24722.878463,-22446.598091
20089.944840,-9770.718434,-28349.887579,-18692.730151
20089.945174,-8882.471304,-27609.681637,-9806.022374
20089.945507,-8364.327145,-22576.281231,0.000000
20089.945841,-4515.256246,-17172.777854,6052.154434
20089.946174,3478.967927,-8290.306550,17083.929605
20089.946508,6883.915261,4071.132681,21450.673944
20089.946841,11769.274478,11843.295072,20914.407095
20089.947175,11251.130318,11547.212695,14938.862211
20089.947508,9696.697840,7402.059420,7660.954980
20089.947841,10658.965565,2442.679609,459.657299
20089.948174,8068.244768,-5329.482782,-8580.269578
20089.948508,444.123565,-18653.189738,-15628.348159
20089.948841,-2442.679609,-26055.249158,-22753.036291
20089.949174,-7550.100608,-29978.340651,-18692.730151
20089.949507,-7994.224174,-28497.928767,-10801.946522
20089.949840,-6883.915261,-25463.084405,-4060.306139
20089.950173,-3775.050304,-18949.272115,6665.030833
20089.950506,296.082377,-6957.935855,14172.766713
20089.950840,5995.668130,3478.967927,20837.797546
20089.951173,13027.624579,10214.842000,22982.864940
20089.951506,10066.800811,13545.768739,17773.415554
20089.951839,12361.439231,8290.306550,12180.918418
20089.952172,12953.603985,2664.741391,842.705048
20089.952505,4293.194464,-4811.338623,-7890.783629
20089.952838,0.000000,-15396.283594,-17237.148705
20089.953172,-7328.038826,-25389.063811,-21450.673944
20089.953505,-9770.718434,-30718.546593,-19075.777900
20089.953838,-11325.150913,-29830.299463,-14019.547613
20089.954171,-11843.295072,-27905.764013,-4290.134789
20089.954504,-10510.924376,-16654.633695,3677.258390
20089.954837,-3701.029710,-7179.997637,13176.842566
20089.955170,3701.029710,3256.906145,20914.407095
20089.955504,7698.141797,9844.739029,22753.036291
20089.955837,10066.800811,14137.933492,17773.415554
20089.956170,9400.615463,9474.636058,10342.289223
20089.956503,7105.977043,2886.803174,3370.820191
20089.956836,6661.853478,-4737.318029,-5592.497135
20089.957169,-370.102971,-15988.448347,-16011.395908
20089.957502,-7994.224174,-24870.919651,-19688.654299
20089.957836,-12139.377449,-31606.793723,-20224.921147
20089.958169,-13397.727550,-30940.608376,-14632.424012
20089.958502,-13397.727550,-27535.661042,-5132.839837
20089.958835,-9696.697840,-18061.024985,5439.278036
20089.959168,-4145.153275,-4959.379811,12257.527968
20089.959501,1480.411884,4663.297435,22063.550342
20089.959834,10436.903782,9770.718434,24438.446386
20089.960168,10436.903782,15914.427753,17773.415554
20089.960501,12065.356855,8586.388927,13406.671215
20089.960834,9474.636058,3034.844362,2451.505594
20089.961167,4811.338623,-4293.194464,-9499.584175
20089.961500,-1184.329507,-14656.077652,-17926.634653
20089.961833,-5995.668130,-25463.084405,-21374.064394
20089.962166,-11843.295072,-29682.258274,-19612.044749
20089.962499,-10658.965565,-30052.361245,-14709.033562
20089.962833,-11843.295072,-29238.134709,-3753.867940
20089.963166,-7994.224174,-16950.716072,2757.943793
20089.963499,-74.020594,-6809.894666,11414.822920
20089.963832,5625.565159,1036.288319,21527.283494
20089.964165,10955.047942,11473.192101,23136.084040
20089.964498,12805.562797,11695.253884,20531.359346
20089.964831,12287.418637,10288.862594,10725.336972
20089.965165,9474.636058,4663.297435,3370.820191
20089.965498,10584.944971,-1184.329507,-9882.631924
20089.965831,-1184.329507,-14359.995275,-17237.148705
20089.966164,-8290.306550,-22576.281231,-23289.303139
20089.966497,-10140.821405,-31680.814318,-21986.940793
20089.966830,-12361.439231,-30644.525999,-15628.348159
20089.967163,-10362.883188,-28497.928767,-5745.716235
20089.967497,-6883.915261,-18061.024985,3447.429741
20089.967830,1480.411884,-7698.141797,14325.985813
20089.968163,10584.944971,592.164754,23825.569988
20089.968496,15100.201217,10140.821405,25510.980083
20089.968829,13397.727550,10881.027347,21833.721693
20089.969162,15396.283594,5033.400406,14632.424012
20089.969495,11769.274478,4737.318029,-76.609550
20089.969829,3552.988522,-2442.679609,-10418.898773
20089.970162,-1184.329507,-14582.057057,-16624.272307
20089.970495,-9548.656652,-24944.940245,-24208.617737
20089.970828,-13027.624579,-29386.175897,-22063.550342
20089.971161,-14878.139434,-31384.731941,-15092.081311
20089.971494,-13471.748144,-27165.558071,-5362.668486
20089.971827,-9400.615463,-17098.757260,3677.258390
20089.972161,-74.020594,-8882.471304,16777.491406
20089.972494,7105.977043,1184.329507,24438.446386
20089.972827,10066.800811,11769.274478,27272.999729
20089.973160,12953.603985,8290.306550,22906.255390
20089.973493,13545.768739,7105.977043,10955.165621
20089.973826,11769.274478,7846.182985,-383.047749
20089.974159,2886.803174,-4959.379811,-11644.651570
20089.974493,-4811.338623,-13619.789333,-22829.645840
20089.974826,-12435.459826,-26573.393318,-24821.494135
20089.975159,-16284.530724,-29978.340651,-22063.550342
20089.975492,-13101.645173,-31680.814318,-13559.890315
20089.975825,-14211.954086,-25537.104999,-2145.067394
20089.976158,-5403.503377,-17764.942608,9116.536426
20089.976491,4367.215058,-7105.977043,18309.682402
20089.976825,11843.295072,6439.791695,26966.561530
20089.977158,11991.336260,8808.450710,26966.561530
20089.977491,14063.912898,8216.285956,19152.387450
20089.977824,11029.068536,8882.471304,8503.660028
20089.978157,8586.388927,3923.091493,-3447.429741
20089.978490,1998.556043,-2886.803174,-17160.539155
20089.978823,-7254.018232,-17690.922014,-23595.741338
20089.979157,-10214.842000,-27239.578666,-24591.665486
20089.979490,-13989.892304,-30274.423028,-21297.454844
20089.979823,-13027.624579,-27905.764013,-12257.527968
20089.980156,-10658.965565,-25611.125593,-76.609550
20089.980489,-2368.659014,-15766.386565,11261.603821
20089.980822,6439.791695,-6217.729913,22293.378992
20089.981155,14137.933492,4737.318029,26583.513781
20089.981489,10658.965565,11177.109724,26353.685131
20089.981822,15322.262999,8290.306550,15551.738609
20089.982155,11473.192101,9474.636058,3600.648841
20089.982488,5921.647536,4663.297435,-6741.640382
20089.982821,0.000000,-5403.503377,-17160.539155
20089.983154,-8142.265362,-18357.107362,-23672.350888
20089.983487,-12287.418637,-25537.104999,-25817.418283
20089.983821,-13397.727550,-31754.834912,-18386.291952
20089.984154,-10807.006753,-28127.825796,-9882.631924
20089.984487,-8290.306550,-23760.610738,3983.696590
20089.984820,1036.288319,-14730.098246,14172.766713
20089.985153,7550.100608,-6143.709319,23519.131789
20089.985486,14508.036463,4737.318029,26660.123330
20089.985819,14137.933492,5921.647536,23825.569988
20089.986153,10658.965565,7031.956449,14096.157163
20089.986486,7105.977043,9400.615463,2451.505594
20089.986819,2886.803174,296.082377,-9576.193725
20089.987152,-3997.112087,-4515.256246,-18386.291952
20089.987485,-9474.636058,-17616.901420,-21527.283494
20089.987818,-11177.109724,-23982.672521,-22599.817191
20089.988151,-11917.315666,-30052.361245,-15092.081311
20089.988485,-10436.903782,-26795.455100,-6358.592633
20089.988818,-7179.997637,-22206.178260,4826.401637
20089.989151,-1924.535449,-13101.645173,13483.280765
20089.989484,7031.956449,-5921.647536,22829.645840
20089.989817,12953.603985,2960.823768,24438.446386
20089.990150,9918.759623,8808.450710,19612.044749
20089.990483,10288.862594,6513.812290,10955.165621
20089.990817,7254.018232,9400.615463,-766.095498
20089.991150,3478.967927,1184.329507,-8273.831378
20089.991483,-1998.556043,-7254.018232,-16777.491406
20089.991816,-8290.306550,-17246.798449,-22369.988542
20089.992149,-14211.954086,-26129.269753,-19612.044749
20089.992482,-9548.656652,-31384.731941,-13866.328514
20089.992815,-8956.491898,-27831.743419,-4060.306139
20089.993149,-4885.359217,-20799.786970,5822.325785
20089.993482,1110.308913,-11917.315666,13023.623466
20089.993815,4811.338623,-3330.926739,21986.940793
20089.994148,10288.862594,7179.997637,22676.426741
20089.994481,9696.697840,9400.615463,18156.463303
20089.994814,8882.471304,6069.688724,11338.213370
20089.995147,7328.038826,8290.306550,-1302.362347
20089.995481,2886.803174,0.000000,-9806.022374
20089.995814,-3404.947333,-6735.874072,-18386.291952
20089.996147,-9474.636058,-21095.869347,-21220.845295
20089.996480,-8660.409521,-26573.393318,-21144.235745
20089.996813,-7328.038826,-29386.175897,-11951.089769
20089.997146,-7105.977043,-25833.187376,-3064.381992
20089.997479,-3034.844362,-21169.889941,6128.763984
20089.997813,3701.029710,-13841.851115,16547.662757
20089.998146,9992.780217,-3404.947333,23978.789087
20089.998479,13397.727550,9030.512492,21680.502593
20089.998812,9770.718434,7994.224174,16624.272307
20089.999145,9252.574275,7105.977043,5439.278036
20089.999478,5921.647536,7402.059420,-3140.991542
20089.999811,2960.823768,1110.308913,-8886.707777
20090.000145,-962.267725,-11843.295072,-17237.148705
20090.000478,-8364.327145,-22502.260637,-22140.159892
20090.000811,-10140.821405,-27239.578666,-19688.654299
20090.001144,-9548.656652,-30496.484810,-12027.699319
20090.001477,-7105.977043,-26499.372724,-995.924147
20090.001810,-4885.359217,-19097.313304,6894.859482
20090.002143,2220.617826,-8956.491898,16088.005458
20090.002477,9400.615463,0.000000,23825.569988
20090.002810,9474.636058,10584.944971,22676.426741
20090.003143,9400.615463,7105.977043,15858.176809
20090.003476,8808.450710,5329.482782,5745.716235
20090.003809,3849.070898,6735.874072,-4290.134789
20090.004142,2886.803174,-2960.823768,-12257.527968
20090.004475,-3701.029710,-13175.665768,-18386.291952
20090.004809,-8068.244768,-23686.590144,-20301.530697
20090.005142,-7624.121203,-26129.269753,-16930.710506
20090.005475,-8660.409521,-29608.237680,-9882.631924
20090.005808,-5699.585753,-27239.578666,-76.609550
20090.006141,-3627.009116,-18653.189738,5745.716235
20090.006474,0.000000,-7476.080014,15934.786358
20090.006807,6957.935855,0.000000,22063.550342
20090.007140,7698.141797,11177.109724,19612.044749
20090.007474,6883.915261,9474.636058,14402.595362
20090.007807,6883.915261,6217.729913,7201.297681
20090.008140,5921.647536,4367.215058,-1991.848295
20090.008473,1332.370696,-3034.844362,-12257.527968
20090.008806,-1258.350101,-14211.954086,-17237.148705
20090.009139,-9252.574275,-23094.425390,-20301.530697
20090.009472,-9474.636058,-26721.434506,-14709.033562
20090.009806,-9548.656652,-31384.731941,-9882.631924
20090.010139,-8882.471304,-25241.022622,-1302.362347
20090.010472,-5551.544565,-15840.407159,5822.325785
20090.010805,814.226536,-7402.059420,14938.862211
20090.011138,6883.915261,2442.679609,19765.263848
20090.011471,10658.965565,9548.656652,20761.187996
20090.011804,9400.615463,9474.636058,13406.671215
20090.012138,9474.636058,5847.626942,9193.145976
20090.012471,9770.718434,814.226536,1762.019645
20090.012804,4663.297435,-4737.318029,-10495.508323
20090.013137,-3256.906145,-15470.304188,-16088.005458
20090.013470,-6069.688724,-23908.651927,-18769.339701
20090.013803,-7772.162391,-27313.599260,-16241.224558
20090.014136,-9178.553681,-29534.217086,-10725.336972
20090.014470,-8290.306550,-23760.610738,-612.876398
20090.014803,-5699.585753,-15914.427753,4826.401637
20090.015136,296.082377,-7031.956449,14019.547613
20090.015469,6439.791695,2664.741391,19535.435199
20090.015802,7328.038826,9400.615463,18079.853753
20090.016135,10658.965565,11473.192101,16241.224558
20090.016468,12953.603985,5477.523971,9729.412825
20090.016802,8216.285956,2886.803174,-2451.505594
20090.017135,5921.647536,-3330.926739,-9882.631924
20090.017468,-74.020594,-17468.860231,-15092.081311
20090.017801,-6291.750507,-24870.919651,-19612.044749
20090.018134,-8956.491898,-29460.196492,-18003.244203
20090.018467,-11547.212695,-29534.217086,-12640.575717
20090.018800,-10362.883188,-23760.610738,-4903.011187
20090.019134,-7105.977043,-14878.139434,7354.516781
20090.019467,4071.132681,-5329.482782,12257.527968
20090.019800,6217.729913,4071.132681,20454.749797
20090.020133,9474.636058,9992.780217,23059.474490
20090.020466,12435.459826,11769.274478,16394.443657
20090.020799,11325.150913,5329.482782,11568.042020
20090.021132,9992.780217,1850.514855,766.095498
20090.021466,2960.823768,-3923.091493,-10418.898773
20090.021799,-2442.679609,-15914.427753,-16777.491406
20090.022132,-10658.965565,-24056.693115,-20607.968896
20090.022465,-11917.315666,-30422.464216,-20761.187996
20090.022798,-15248.242405,-27609.681637,-14096.157163
20090.023131,-15988.448347,-24648.857869,-4596.572988
20090.023464,-7846.182985,-16284.530724,4903.011187
20090.023798,814.226536,-5403.503377,15781.567259
20090.024131,6661.853478,4959.379811,24591.665486
20090.024464,10436.903782,10584.944971,23672.350888
20090.024797,14137.933492,12139.377449,18309.682402
20090.025130,11843.295072,4885.359217,12180.918418
20090.025463,9104.533087,1184.329507,-1302.362347
20090.025796,592.164754,-3034.844362,-12870.404366
20090.026130,-4959.379811,-18949.272115,-20148.311597
20090.026463,-8364.327145,-26055.249158,-23365.912689
20090.026796,-13323.706956,-31310.711347,-18845.949251
20090.027129,-13249.686362,-29016.072926,-12563.966167
20090.027462,-11473.192101,-24870.919651,-1532.190996
20090.027795,-7994.224174,-13397.727550,7354.516781
20090.028128,5551.544565,-4737.318029,17696.806004
20090.028462,8290.306550,6439.791695,26966.561530
20090.028795,11843.295072,11769.274478,26889.951980
20090.029128,12953.603985,8586.388927,18156.463303
20090.029461,12953.603985,5921.647536,7890.783629
20090.029794,6661.853478,3182.885551,-4060.306139
20090.030127,518.144159,-6809.894666,-16241.224558
20090.030460,-6809.894666,-17320.819043,-23212.693589
20090.030794,-13027.624579,-26129.269753,-25127.932334
20090.031127,-11325.150913,-31088.649564,-19918.482948
20090.031460,-12065.356855,-29312.155303,-10189.070123
20090.031793,-9030.512492,-25833.187376,-76.609550
20090.032126,-2738.761985,-12731.542202,10112.460574
20090.032459,5921.647536,-1258.350101,20837.797546
20090.032792,12139.377449,3701.029710,29341.457573
20090.033126,16506.592507,11843.295072,22599.817191
20090.033459,11843.295072,8216.285956,19152.387450
20090.033792,14211.954086,4959.379811,9499.584175
20090.034125,10584.944971,5773.606348,-6128.763984
20090.034458,1850.514855,-7994.224174,-15551.738609
20090.034791,-7031.956449,-18727.210333,-25127.932334
20090.035124,-12805.562797,-29904.320057,-25204.541884
20090.035458,-16580.613101,-30866.587781,-21450.673944
20090.035791,-10140.821405,-31976.896694,-9882.631924
20090.036124,-10066.800811,-20725.766376,842.705048
20090.036457,-2368.659014,-11325.150913,14709.033562
20090.036790,9400.615463,-4737.318029,24438.446386
20090.037123,14804.118840,9400.615463,28651.971625
20090.037456,12657.521608,10214.842000,24974.713235
20090.037790,14137.933492,6365.771101,15628.348159
20090.038123,10288.862594,8290.306550,2528.115143
20090.038456,6365.771101,0.000000,-8350.440928
20090.038789,-74.020594,-9474.636058,-20914.407095
20090.039122,-10362.883188,-19023.292709,-25434.370534
20090.039455,-15396.283594,-28497.928767,-22676.426741
20090.039788,-12435.459826,-31384.731941,-16164.615008
20090.040122,-11177.109724,-29534.217086,-6205.373534
20090.040455,-8142.265362,-21688.034101,4673.182538
20090.040788,1110.308913,-12583.501014,16700.881856
20090.041121,6735.874072,-1332.370696,24515.055936
20090.041454,11769.274478,7105.977043,27502.828378
20090.041787,10881.027347,12657.521608,17773.415554
20090.042120,9474.636058,8512.368333,14479.204912
20090.042454,9400.615463,9474.636058,-1302.362347
20090.042787,2294.638420,-74.020594,-14096.157163
20090.043120,-4145.153275,-10362.883188,-19688.654299
20090.043453,-11399.171507,-21984.116477,-24208.617737
20090.043786,-13693.809927,-28645.969955,-23442.522239
20090.044119,-14211.954086,-32421.020260,-15858.176809
20090.044452,-11917.315666,-28275.866984,-6205.373534
20090.044786,-6661.853478,-20355.663405,7354.516781
20090.045119,3478.967927,-11103.089130,18845.949251
20090.045452,9992.780217,222.061783,25510.980083
20090.045785,9474.636058,8216.285956,26966.561530
20090.046118,11843.295072,9992.780217,21603.893044
20090.046451,11177.109724,7105.977043,11568.042020
20090.046784,6735.874072,8290.306550,-4366.744339
20090.047118,0.000000,-666.185348,-11644.651570
20090.047451,-5477.523971,-9548.656652,-21833.721693
20090.047784,-11251.130318,-21688.034101,-23672.350888
20090.048117,-12583.501014,-29978.340651,-21910.331243
20090.048450,-12065.356855,-31088.649564,-13789.718964
20090.048784,-8068.244768,-28127.825796,-1302.362347
20090.049117,-4515.256246,-18431.127956,9116.536426
20090.049450,4663.297435,-10658.965565,16394.443657
20090.049783,9474.636058,1702.473667,26353.685131
20090.050116,11029.068536,11769.274478,24515.055936
20090.050450,14508.036463,8290.306550,22676.426741
20090.050783,12953.603985,4737.318029,9729.412825
20090.051116,7476.080014,8216.285956,-6128.763984
20090.051449,2294.638420,-2960.823768,-12410.747068
20090.051783,-3849.070898,-11843.295072,-20454.749797
20090.052116,-7328.038826,-24056.693115,-22140.159892
20090.052449,-11843.295072,-30866.587781,-20837.797546
20090.052782,-10658.965565,-30570.505405,-10189.070123
20090.053115,-5107.421000,-26647.413912,-76.609550
20090.053449,-2368.659014,-17246.798449,9039.926876
20090.053782,5255.462188,-9474.636058,17620.196454
20090.054115,10807.006753,2072.576638,25434.370534
20090.054448,11251.130318,9992.780217,23902.179538
20090.054782,10288.862594,9030.512492,15934.786358
20090.055115,7031.956449,7105.977043,4826.401637
20090.055448,2368.659014,5847.626942,-6205.373534
20090.055781,0.000000,-4367.215058,-10572.117872
20090.056114,-4811.338623,-12435.459826,-21833.721693
20090.056448,-10658.965565,-23760.610738,-21450.673944
20090.056781,-10881.027347,-30422.464216,-16700.881856
20090.057114,-9030.512492,-28868.031738,-9116.536426
20090.057447,-7402.059420,-25537.104999,0.000000
20090.057780,-3701.029710,-17838.963202,8273.831378
20090.058114,1924.535449,-8660.409521,15321.909960
20090.058447,8586.388927,1406.391290,25664.199183
20090.058780,9400.615463,10584.944971,19612.044749
20090.059113,7846.182985,10584.944971,13483.280765
20090.059447,7105.977043,6439.791695,7354.516781
20090.059780,5107.421000,6587.832884,-5209.449386
20090.060113,2368.659014,-3404.947333,-11797.870669
20090.060446,-5403.503377,-16284.530724,-19382.216099
20090.060779,-9400.615463,-26055.249158,-20301.530697
20090.061113,-10140.821405,-28571.949361,-17160.539155
20090.061446,-8438.347739,-30496.484810,-7277.907231
20090.061779,-6957.935855,-24500.816680,1762.019645
20090.062112,-3478.967927,-16136.489536,9729.412825
20090.062446,4959.379811,-7105.977043,19535.435199
20090.062779,6439.791695,4959.379811,21067.626195
20090.063112,10658.965565,11177.109724,20837.797546
20090.063445,8808.450710,7105.977043,11874.480219
20090.063778,5921.647536,7031.956449,3677.258390
20090.064112,4737.318029,5255.462188,-5209.449386
20090.064445,1036.288319,-5847.626942,-12487.356617
20090.064778,-3330.926739,-17542.880825,-18845.949251
20090.065111,-7031.956449,-24870.919651,-19382.216099
20090.065444,-5403.503377,-30052.361245,-14785.643111
20090.065778,-5995.668130,-29164.114115,-9193.145976
20090.066111,-5921.647536,-25463.084405,2987.772442
20090.066444,-1184.329507,-15470.304188,12027.699319
20090.066777,5847.626942,-5329.482782,16164.615008
20090.067111,9992.780217,3478.967927,22599.817191
20090.067444,11103.089130,11843.295072,17466.977354
20090.067777,8586.388927,9178.553681,13483.280765
20090.068110,8290.306550,7031.956449,5669.106685
20090.068443,6513.812290,2886.803174,-4903.011187
20090.068777,2886.803174,-6587.832884,-14709.033562
20090.069110,-2368.659014,-17987.004391,-17237.148705
20090.069443,-5995.668130,-27535.661042,-18769.339701
20090.069776,-7179.997637,-29460.196492,-15858.176809
20090.070110,-10362.883188,-29608.237680,-8656.879127
20090.070443,-7624.121203,-24574.837274,-76.609550
20090.070776,-3552.988522,-14285.974681,8273.831378
20090.071109,2294.638420,-4737.318029,17390.367805
20090.071442,7698.141797,3997.112087,22063.550342
20090.071776,6365.771101,12361.439231,19612.044749
20090.072109,11769.274478,9474.636058,16471.053207
20090.072442,7994.224174,8808.450710,6128.763984
20090.072775,6513.812290,-666.185348,-3064.381992
20090.073109,740.205942,-6883.915261,-14096.157163
20090.073442,-5995.668130,-19541.436869,-19075.777900
20090.073775,-8956.491898,-26943.496289,-20224.921147
20090.074108,-12731.542202,-30200.402434,-17083.929605
20090.074441,-12509.480420,-30792.567187,-10495.508323
20090.074775,-13027.624579,-24056.693115,-76.609550
20090.075108,-7772.162391,-13101.645173,6128.763984
20090.075441,0.000000,-74.020594,15934.786358
20090.075774,7031.956449,5329.482782,22906.255390
20090.076107,9474.636058,12065.356855,19918.482948
20090.076441,10955.047942,10362.883188,15858.176809
20090.076774,11177.109724,7254.018232,7814.174080
20090.077107,7846.182985,444.123565,-2604.724693
20090.077440,3478.967927,-9474.636058,-13559.890315
20090.077774,-4145.153275,-19393.395680,-20301.530697
20090.078107,-9992.780217,-30052.361245,-20531.359346
20090.078440,-11621.233289,-32050.917289,-17620.196454
20090.078773,-11695.253884,-27091.537477,-9116.536426
20090.079106,-7772.162391,-23094.425390,-76.609550
20090.079440,-4145.153275,-11029.068536,8580.269578
20090.079773,4737.318029,-1480.411884,21374.064394
20090.080106,9400.615463,7476.080014,22446.598091
20090.080439,9474.636058,15322.262999,20224.921147
20090.080773,13989.892304,9770.718434,14632.424012
20090.081106,9770.718434,5107.421000,4596.572988
20090.081439,7994.224174,0.000000,-6588.421283
20090.081772,2368.659014,-9992.780217,-15858.176809
20090.082105,-4811.338623,-20133.601622,-22216.769442
20090.082439,-9474.636058,-29090.093521,-20607.968896
20090.082772,-9622.677246,-32346.999665,-14785.643111
20090.083105,-9548.656652,-27535.661042,-10189.070123
20090.083438,-8882.471304,-21688.034101,3064.381992
20090.083771,-74.020594,-11843.295072,9959.241474
20090.084105,6587.832884,-2220.617826,20761.187996
20090.084438,11769.274478,7105.977043,24438.446386
20090.084771,12731.542202,11251.130318,22140.159892
20090.085104,11251.130318,11473.192101,13483.280765
20090.085438,11843.295072,5255.462188,7277.907231
20090.085771,9400.615463,740.205942,-6511.811733
20090.086104,1406.391290,-7179.997637,-17773.415554
20090.086437,-6661.853478,-23020.404796,-22140.159892
20090.086770,-11843.295072,-31014.628970,-24055.398637
20090.087104,-13471.748144,-31754.834912,-17850.025103
20090.087437,-14285.974681,-30200.402434,-9269.755526
20090.087770,-9474.636058,-20799.786970,1455.581446
20090.088103,-2368.659014,-11695.253884,13483.280765
20090.088437,8808.450710,0.000000,23212.693589
20090.088770,10288.862594,11177.109724,26966.561530
20090.089103,13323.706956,12139.377449,25127.932334
20090.089436,12953.603985,7105.977043,14019.547613
20090.089769,7254.018232,6291.750507,2451.505594
20090.090103,4811.338623,-592.164754,-9116.536426
20090.090436,-3849.070898,-11843.295072,-18769.339701
20090.090769,-8882.471304,-22280.198854,-24285.227287
20090.091102,-11917.315666,-30496.484810,-22063.550342
20090.091435,-14952.160028,-32791.123231,-16930.710506
20090.091769,-14211.954086,-27905.764013,-7277.907231
20090.092102,-10732.986159,-21984.116477,2834.553343
20090.092435,-2590.720797,-8068.244768,12257.527968
20090.092768,4737.318029,2294.638420,26353.685131
20090.093102,12953.603985,9474.636058,28728.581175
20090.093435,12657.521608,12435.459826,21986.940793
20090.093768,11325.150913,11103.089130,14709.033562
20090.094101,10288.862594,8290.306550,1762.019645
20090.094434,4367.215058,-2368.659014,-10801.946522
20090.094768,-2886.803174,-10807.006753,-22216.769442
20090.095101,-10807.006753,-24796.899057,-25970.637382
20090.095434,-13915.871710,-31014.628970,-24515.055936
20090.095767,-13841.851115,-32865.143825,-15628.348159
20090.096101,-9548.656652,-30792.567187,-6205.373534
20090.096434,-7624.121203,-19615.457463,6128.763984
20090.096767,2516.700203,-4811.338623,15321.909960
20090.097100,10140.821405,1998.556043,25817.418283
20090.097433,12361.439231,9400.615463,26277.075581
20090.097767,16580.613101,12361.439231,23365.912689
20090.098100,14656.077652,10807.006753,13866.328514
20090.098433,12953.603985,3552.988522,1762.019645
20090.098766,3923.091493,-74.020594,-13483.280765
20090.099099,-5403.503377,-15100.201217,-24591.665486
20090.099433,-10214.842000,-22872.363608,-28805.190725
20090.099766,-12879.583391,-34049.473332,-23902.179538
20090.100099,-11325.150913,-34345.555709,-14785.643111
20090.100432,-10510.924376,-31162.670158,-2221.676944
20090.100766,-5551.544565,-17838.963202,7431.126331
20090.101099,4293.194464,-6587.832884,20761.187996
20090.101432,10066.800811,3256.906145,28268.923876
20090.101765,14804.118840,14137.933492,28192.314326
20090.102098,14137.933492,11399.171507,24438.446386
20090.102432,13545.768739,11325.150913,9193.145976
20090.102765,8290.306550,9400.615463,-4903.011187
20090.103098,2294.638420,-6365.771101,-14785.643111
20090.103431,-4737.318029,-15692.365970,-24285.227287
20090.103765,-12287.418637,-28201.846390,-26966.561530
20090.104098,-13693.809927,-33161.226202,-23059.474490
20090.104431,-12879.583391,-33827.411549,-13406.671215
20090.104764,-7920.203579,-27239.578666,-76.609550
20090.105097,-1850.514855,-15544.324782,9806.022374
20090.105431,5625.565159,-4811.338623,24055.398637
20090.105764,13323.706956,3775.050304,31180.086769
20090.106097,11769.274478,11843.295072,25664.199183
20090.106430,12435.459826,9844.739029,19535.435199
20090.106763,7105.977043,9696.697840,6128.763984
20090.107097,4959.379811,5625.565159,-8656.879127
20090.107430,-2738.761985,-6439.791695,-16930.710506
20090.107763,-7402.059420,-15248.242405,-23672.350888
20090.108096,-13619.789333,-27165.558071,-24668.275036
20090.108430,-13471.748144,-32939.164419,-19382.216099
20090.108763,-12435.459826,-31310.711347,-9576.193725
20090.109096,-9844.739029,-24352.775492,306.438199
20090.109429,-3552.988522,-15840.407159,13100.233016
20090.109762,4663.297435,-6809.894666,21986.940793
20090.110096,11177.109724,6883.915261,23825.569988
20090.110429,9474.636058,12953.603985,24821.494135
20090.110762,10732.986159,8290.306550,17083.929605
20090.111095,7994.224174,11695.253884,3524.039291
20090.111429,5403.503377,3330.926739,-6818.249932
20090.111762,74.020594,-4367.215058,-16471.053207
20090.112095,-7105.977043,-17246.798449,-22676.426741
20090.112428,-14211.954086,-27313.599260,-23595.741338
20090.112761,-10732.986159,-34345.555709,-18769.339701
20090.113095,-11399.171507,-30200.402434,-9882.631924
20090.113428,-6735.874072,-24056.693115,3677.258390
20090.113761,0.000000,-14285.974681,11644.651570
20090.114094,6661.853478,-4737.318029,22369.988542
20090.114428,13249.686362,9770.718434,24898.103685
20090.114761,11843.295072,12361.439231,23136.084040
20090.115094,14137.933492,9474.636058,14632.424012
20090.115427,6513.812290,8808.450710,1762.019645
20090.115760,4663.297435,3256.906145,-11644.651570
20090.116094,0.000000,-7772.162391,-17007.320056
20090.116427,-5625.565159,-19985.560434,-21527.283494
20090.116760,-6661.853478,-28719.990550,-21450.673944
20090.117093,-8808.450710,-32272.979071,-15321.909960
20090.117426,-6735.874072,-28275.866984,-5669.106685
20090.117760,-4589.276840,-24500.816680,4596.572988
20090.118093,-1258.350101,-13619.789333,10878.556072
20090.118426,8586.388927,-4737.318029,23825.569988
20090.118759,10658.965565,12361.439231,22369.988542
20090.119093,9474.636058,11473.192101,23748.960438
20090.119426,10584.944971,8882.471304,11568.042020
20090.119759,7624.121203,8290.306550,1455.581446
20090.120092,5625.565159,3330.926739,-7967.393179
20090.120425,888.247130,-9178.553681,-15858.176809
20090.120759,-7328.038826,-22132.157666,-22523.207641
20090.121092,-11251.130318,-29090.093521,-21450.673944
20090.121425,-9548.656652,-32865.143825,-16317.834107
20090.121758,-8882.471304,-27905.764013,-3983.696590
20090.122092,-7105.977043,-23168.445985,6358.592633
20090.122425,2294.638420,-11843.295072,13253.452115
20090.122758,7920.203579,-1184.329507,21374.064394
20090.123091,10436.903782,9400.615463,23289.303139
20090.123424,10288.862594,11769.274478,19305.606550
20090.123758,9326.594869,7698.141797,10495.508323
20090.124091,7105.977043,7624.121203,2451.505594
20090.124424,5847.626942,592.164754,-8656.879127
20090.124757,518.144159,-11251.130318,-15704.957709
20090.125090,-6809.894666,-22502.260637,-20378.140247
20090.125424,-10362.883188,-27905.764013,-18922.558801
20090.125757,-9474.636058,-29978.340651,-12870.404366
20090.126090,-9104.533087,-30200.402434,-3753.867940
20090.126423,-7179.997637,-22502.260637,2374.896044
20090.126757,-5921.647536,-10732.986159,12257.527968
20090.127090,4663.297435,-2368.659014,21986.940793
20090.127423,5625.565159,10140.821405,19918.482948
20090.127756,9400.615463,14211.954086,17696.806004
20090.128089,7105.977043,8586.388927,13406.671215
20090.128423,6809.894666,6439.791695,1225.752797
20090.128756,4885.359217,-222.061783,-7048.078582
20090.129089,-74.020594,-12435.459826,-16164.615008
20090.129422,-5921.647536,-21391.951724,-22063.550342
20090.129756,-8882.471304,-30718.546593,-16624.272307
20090.130089,-9548.656652,-32865.143825,-14785.643111
20090.130422,-11547.212695,-28794.011144,-5515.887586
20090.130755,-8586.388927,-20429.683999,3294.210641
20090.131088,-2516.700203,-9548.656652,11644.651570
20090.131422,3701.029710,1998.556043,20224.921147
20090.131755,9400.615463,8290.306550,24438.446386
20090.132088,11695.253884,11843.295072,19535.435199
20090.132421,9992.780217,11325.150913,12410.747068
20090.132754,8364.327145,7624.121203,2451.505594
20090.133088,4663.297435,-5329.482782,-7431.126331
20090.133421,-74.020594,-12435.459826,-18462.901502
20090.133754,-5921.647536,-22724.322419,-21297.454844
20090.134087,-8438.347739,-30496.484810,-20071.702048
20090.134421,-8512.368333,-31384.731941,-14479.204912
20090.134754,-10881.027347,-28719.990550,-6665.030833
20090.135087,-7698.141797,-19023.292709,0.000000
20090.135420,-2960.823768,-9696.697840,14019.547613
20090.135753,6735.874072,1776.494261,18922.558801
20090.136087,9400.615463,10658.965565,20837.797546
20090.136420,12657.521608,12731.542202,20761.187996
20090.136753,13545.768739,10881.027347,13942.938064
20090.137086,10732.986159,3923.091493,4596.572988
20090.137420,8882.471304,-2812.782580,-5975.544884
20090.137753,0.000000,-13471.748144,-16624.272307
20090.138086,-4811.338623,-23834.631332,-22063.550342
20090.138419,-10066.800811,-32050.917289,-20837.797546
20090.138752,-10881.027347,-32717.102636,-15704.957709
20090.139086,-10658.965565,-27609.681637,-4903.011187
20090.139419,-7994.224174,-19171.333898,5515.887586
20090.139752,2294.638420,-7698.141797,12793.794817
20090.140085,5921.647536,4663.297435,19612.044749
20090.140418,9474.636058,11177.109724,25281.151434
20090.140752,11843.295072,12953.603985,20224.921147
20090.141085,11547.212695,9474.636058,12410.747068
20090.141418,8660.409521,3182.885551,2221.676944
20090.141751,5551.544565,-3701.029710,-9729.412825
20090.142085,-74.020594,-14211.954086,-17543.586904
20090.142418,-7624.121203,-23760.610738,-22293.378992
20090.142751,-8364.327145,-31088.649564,-22829.645840
20090.143084,-13027.624579,-32346.999665,-14019.547613
20090.143417,-12435.459826,-27461.640448,-5209.449386
20090.143751,-5995.668130,-20725.766376,5439.278036
20090.144084,-666.185348,-9178.553681,14172.766713
20090.144417,5625.565159,2590.720797,23365.912689
20090.144750,9918.759623,11547.212695,25357.760984
20090.145084,12213.398043,13619.789333,20914.407095
20090.145417,10658.965565,8216.285956,15858.176809
20090.145750,7698.141797,7624.121203,306.438199
20090.146083,3552.988522,-2146.597232,-7967.393179
20090.146416,-3034.844362,-13027.624579,-20301.530697
20090.146750,-10140.821405,-24426.796086,-24898.103685
20090.147083,-13397.727550,-33013.185013,-23059.474490
20090.147417,-13175.665768,-32717.102636,-15628.348159
20090.147750,-13249.686362,-27683.702231,-5898.935335
20090.148083,-9178.553681,-19023.292709,3907.087040
20090.148416,-74.020594,-8290.306550,14632.424012
20090.148750,5921.647536,4663.297435,26200.466032
20090.149083,10658.965565,12361.439231,29341.457573
20090.149416,14137.933492,14211.954086,21374.064394
20090.149750,10658.965565,10584.944971,13636.499864
20090.150083,10140.821405,6439.791695,612.876398
20090.150416,4367.215058,-4515.256246,-11568.042020
20090.150750,-3923.091493,-14804.118840,-23289.303139
20090.151083,-12435.459826,-26129.269753,-26966.561530
20090.151416,-12805.562797,-32272.979071,-23978.789087
20090.151750,-15618.345376,-33161.226202,-16930.710506
20090.152083,-14211.954086,-28497.928767,-3677.258390
20090.152416,-7402.059420,-18949.272115,7354.516781
20090.152749,1776.494261,-4811.338623,19612.044749
20090.153083,9622.677246,5255.462188,30184.162621
20090.153416,14137.933492,14211.954086,28268.923876
20090.153749,14878.139434,14582.057057,22063.550342
20090.154083,12509.480420,8882.471304,12104.308868
20090.154416,10066.800811,7031.956449,-2451.505594
20090.154749,2516.700203,-5107.421000,-14709.033562
20090.155083,-3701.029710,-15470.304188,-25664.199183
20090.155416,-10807.006753,-29534.217086,-27196.390179
20090.155749,-11917.315666,-35529.885216,-22753.036291
20090.156083,-13767.830521,-31458.752535,-15628.348159
20090.156416,-9918.759623,-28794.011144,-2451.505594
20090.156749,-1702.473667,-18653.189738,9729.412825
20090.157082,5403.503377,-2516.700203,20837.797546
20090.157416,13027.624579,5847.626942,31716.353617
20090.157749,13027.624579,12953.603985,26200.466032
20090.158082,14952.160028,13471.748144,19382.216099
20090.158416,11103.089130,10584.944971,9346.365076
20090.158749,7624.121203,3552.988522,-4979.620737
20090.159082,-74.020594,-4219.173869,-19612.044749
20090.159416,-8290.306550,-18505.148550,-24898.103685
20090.159749,-10732.986159,-30200.402434,-24591.665486
20090.160082,-14285.974681,-33901.432144,-21374.064394
20090.160416,-13101.645173,-32569.061448,-11108.384721
20090.160749,-11695.253884,-28349.887579,842.705048
20090.161082,-2960.823768,-14211.954086,12334.137518
20090.161415,6217.729913,-2590.720797,22676.426741
20090.161749,7698.141797,5847.626942,26966.561530
20090.162082,12953.603985,16506.592507,20837.797546
20090.162415,11843.295072,9474.636058,21986.940793
20090.162749,12065.356855,11177.109724,5822.325785
20090.163082,6439.791695,5551.544565,-7048.078582
20090.163415,-1184.329507,-6143.709319,-19382.216099
20090.163749,-6957.935855,-18579.169144,-25051.322785
20090.164082,-13471.748144,-30644.525999,-25970.637382
20090.164415,-13915.871710,-34641.638086,-20148.311597
20090.164749,-11621.233289,-34345.555709,-8044.002729
20090.165082,-9474.636058,-24352.775492,4290.134789
20090.165415,1702.473667,-13619.789333,15858.176809
20090.165748,6439.791695,-1184.329507,20991.016645
20090.166082,10658.965565,8216.285956,26966.561530
20090.166415,14508.036463,12213.398043,25127.932334
20090.166748,13545.768739,11547.212695,16241.224558
20090.167082,8660.409521,7994.224174,3447.429741
20090.167415,4219.173869,3478.967927,-12104.308868
20090.167748,-1850.514855,-10658.965565,-19688.654299
20090.168082,-7105.977043,-18949.272115,-24591.665486
20090.168415,-9548.656652,-32272.979071,-23748.960438
20090.168748,-12509.480420,-33235.246796,-19612.044749
20090.169082,-9474.636058,-31458.752535,-5822.325785
20090.169415,-5329.482782,-23982.672521,5515.887586
20090.169748,2442.679609,-12139.377449,16164.615008
20090.170081,7105.977043,-1776.494261,23672.350888
20090.170415,13545.768739,10658.965565,25817.418283
20090.170748,12361.439231,14878.139434,24438.446386
20090.171081,13027.624579,9770.718434,14632.424012
20090.171415,9326.594869,10140.821405,383.047749
20090.171748,3701.029710,1110.308913,-10801.946522
20090.172081,0.000000,-10288.862594,-19152.387450
20090.172415,-6291.750507,-22502.260637,-25204.541884
20090.172748,-12435.459826,-32643.082042,-24515.055936
20090.173081,-10732.986159,-35529.885216,-18156.463303
20090.173415,-10362.883188,-28497.928767,-4903.011187
20090.173748,-7105.977043,-21391.951724,5515.887586
20090.174081,1702.473667,-10955.047942,13406.671215
20090.174414,7105.977043,-370.102971,23978.789087
20090.174748,13915.871710,12583.501014,26813.342430
20090.175081,12213.398043,13471.748144,22753.036291
20090.175414,10436.903782,10584.944971,12563.966167
20090.175748,7105.977043,6291.750507,-76.609550
20090.176081,4367.215058,0.000000,-11108.384721
20090.176414,-1776.494261,-8956.491898,-19612.044749
20090.176748,-6513.812290,-26869.475695,-21680.502593
20090.177081,-9992.780217,-31754.834912,-23748.960438
20090.177414,-11251.130318,-33531.329173,-15092.081311
20090.177748,-9252.574275,-29756.278868,-4366.744339
20090.178081,-5921.647536,-21317.931130,6052.154434
20090.178414,-2220.617826,-9548.656652,15321.909960
20090.178747,8882.471304,0.000000,26889.951980
20090.179081,12213.398043,16358.551318,25204.541884
20090.179414,9400.615463,14211.954086,19612.044749
20090.179747,8290.306550,9474.636058,11568.042020
20090.180081,3552.988522,6439.791695,0.000000
20090.180414,3034.844362,-444.123565,-12027.699319
20090.180747,-4145.153275,-13841.851115,-19995.092498
20090.181081,-9992.780217,-26943.496289,-25204.541884
20090.181414,-11621.233289,-32791.123231,-20761.187996
20090.181747,-10732.986159,-35529.885216,-14785.643111
20090.182081,-10140.821405,-28497.928767,-3064.381992
20090.182414,-6809.894666,-18949.272115,9422.974625
20090.182747,2294.638420,-8290.306550,17083.929605
20090.183080,5329.482782,5847.626942,25740.808733
20090.183414,9696.697840,14359.995275,24744.884585
20090.183747,7920.203579,13323.706956,18692.730151
20090.184080,7402.059420,8734.430116,10189.070123
20090.184414,5477.523971,4441.235652,-612.876398
20090.184747,1702.473667,-2220.617826,-14172.766713
20090.185080,-5847.626942,-16284.530724,-21144.235745
20090.185414,-8956.491898,-26647.413912,-24285.227287
20090.185747,-8808.450710,-29090.093521,-20531.359346
20090.186080,-8660.409521,-31458.752535,-11568.042020
20090.186414,-6809.894666,-28942.052332,-76.609550
20090.186747,-2442.679609,-18949.272115,9116.536426
20090.187080,3182.885551,-3627.009116,14096.157163
20090.187413,8808.450710,3108.864956,22599.817191
20090.187747,9844.739029,11917.315666,19918.482948
20090.188080,10584.944971,11843.295072,16394.443657
20090.188413,9770.718434,8290.306550,9652.803275
20090.188747,8290.306550,4663.297435,0.000000
20090.189080,7328.038826,-3404.947333,-12257.527968
20090.189413,592.164754,-18357.107362,-16011.395908
20090.189747,-4811.338623,-25611.125593,-22063.550342
20090.190080,-6291.750507,-30866.587781,-17773.415554
20090.190413,-8586.388927,-31162.670158,-10572.117872
20090.190747,-8142.265362,-27905.764013,-1532.190996
20090.191080,-4515.256246,-16136.489536,6358.592633
20090.191413,0.000000,-6587.832884,14019.547613
20090.191746,7920.203579,4811.338623,21986.940793
20090.192080,7846.182985,12953.603985,19612.044749
20090.192413,11177.109724,11843.295072,15858.176809
20090.192746,7328.038826,10584.944971,7354.516781
20090.193080,9252.574275,1184.329507,-76.609550
20090.193413,5107.421000,-6809.894666,-8886.707777
20090.193746,-2072.576638,-16432.571912,-17390.367805
20090.194080,-4515.256246,-25833.187376,-19612.044749
20090.194413,-9178.553681,-32124.937883,-17620.196454
20090.194746,-9178.553681,-30422.464216,-11797.870669
20090.195080,-11251.130318,-25537.104999,-1532.190996
20090.195413,-6883.915261,-15470.304188,3217.601092
20090.195746,-962.267725,-3627.009116,12870.404366
20090.196079,6143.709319,2368.659014,21374.064394
20090.196413,8216.285956,12435.459826,20761.187996
20090.196746,10436.903782,13323.706956,17926.634653
20090.197079,10658.965565,9548.656652,10648.727422
20090.197413,8216.285956,3108.864956,1149.143247
20090.197746,5551.544565,-5847.626942,-10418.898773
20090.198079,-370.102971,-18357.107362,-17237.148705
20090.198413,-9474.636058,-26129.269753,-23289.303139
20090.198746,-11547.212695,-34123.493926,-20837.797546
20090.199079,-13027.624579,-33161.226202,-11721.261119
20090.199412,-10732.986159,-25759.166782,-3753.867940
20090.199746,-6735.874072,-15840.407159,6358.592633
20090.200079,444.123565,-4219.173869,15628.348159
20090.200412,5477.523971,5847.626942,22829.645840
20090.200746,10214.842000,13989.892304,24361.836836
20090.201079,14137.933492,11843.295072,20454.749797
20090.201412,11029.068536,7402.059420,11644.651570
20090.201746,9770.718434,3034.844362,0.000000
20090.202079,2812.782580,-6735.874072,-12180.918418
20090.202412,-3849.070898,-16654.633695,-22829.645840
20090.202746,-7772.162391,-30200.402434,-23825.569988
20090.203079,-10732.986159,-34345.555709,-20914.407095
20090.203412,-13915.871710,-29682.258274,-11644.651570
20090.203745,-12435.459826,-27239.578666,-1608.800546
20090.204079,-6291.750507,-14804.118840,5056.230287
20090.204412,814.226536,-3182.885551,17696.806004
20090.204745,9030.512492,7846.182985,25664.199183
20090.205079,11917.315666,14211.954086,24974.713235
20090.205412,12435.459826,13545.768739,19612.044749
20090.205745,10658.965565,5403.503377,12793.794817
20090.206079,9252.574275,4367.215058,-2451.505594
20090.206412,1184.329507,-4811.338623,-14096.157163
20090.206745,-4737.318029,-20503.704593,-23365.912689
20090.207079,-10881.027347,-29682.258274,-26966.561530
20090.207412,-13915.871710,-35085.761651,-21680.502593
20090.207745,-12879.583391,-30866.587781,-12870.404366
20090.208078,-10066.800811,-25018.960840,-842.705048
20090.208412,-2590.720797,-14730.098246,11874.480219
20090.208745,6735.874072,-4145.153275,21986.940793
20090.209078,11473.192101,9400.615463,26353.685131
20090.209412,14211.954086,15026.180623,26966.561530
20090.209745,14656.077652,10658.965565,20761.187996
20090.210078,11843.295072,8216.285956,10725.336972
20090.210412,7994.224174,2886.803174,-4443.353888
20090.210745,-592.164754,-9474.636058,-17007.320056
20090.211078,-6809.894666,-19689.478057,-26506.904231
20090.211412,-13249.686362,-31310.711347,-26889.951980
20090.211745,-11917.315666,-35233.802839,-21067.626195
20090.212078,-13989.892304,-29090.093521,-12257.527968
20090.212411,-11843.295072,-25833.187376,1991.848295
20090.212745,-2442.679609,-14211.954086,12793.794817
20090.213078,5847.626942,0.000000,22599.817191
20090.213411,10658.965565,8438.347739,28805.190725
20090.213745,12139.377449,15396.283594,25204.541884
20090.214078,14656.077652,11843.295072,19228.997000
20090.214411,10658.965565,10584.944971,8273.831378
20090.214745,8216.285956,2294.638420,-7048.078582
20090.215078,592.164754,-9104.533087,-19612.044749
20090.215411,-9030.512492,-24722.878463,-26430.294681
20090.215745,-13397.727550,-32272.979071,-28268.923876
20090.216078,-16654.633695,-36122.049970,-20914.407095
20090.216411,-14656.077652,-31458.752535,-9499.584175
20090.216744,-9770.718434,-23686.590144,3753.867940
20090.217078,296.082377,-8660.409521,16700.881856
20090.217411,8290.306550,2294.638420,26353.685131
20090.217744,11843.295072,11769.274478,28498.752526
20090.218078,13175.665768,15470.304188,24515.055936
20090.218411,11769.274478,10066.800811,15551.738609
20090.218744,9918.759623,9844.739029,2911.162892
20090.219078,3849.070898,-666.185348,-10418.898773
20090.219411,-1258.350101,-13027.624579,-22140.159892
20090.219744,-10510.924376,-21391.951724,-28192.314326
20090.220078,-11843.295072,-33161.226202,-24515.055936
20090.220411,-10732.986159,-35233.802839,-16317.834107
20090.220744,-10955.047942,-30570.505405,-4903.011187
20090.221077,-7031.956449,-21762.054695,6128.763984
20090.221411,1776.494261,-8438.347739,17696.806004
20090.221744,10288.862594,2072.576638,25587.589633
20090.222077,11251.130318,10584.944971,29418.067123
20090.222411,14137.933492,16506.592507,21450.673944
20090.222744,10658.965565,12953.603985,17773.415554
20090.223077,12953.603985,7105.977043,1762.019645
20090.223411,5255.462188,296.082377,-12640.575717
20090.223744,-2220.617826,-11843.295072,-22140.159892
20090.224077,-8586.388927,-25092.981434,-27119.780629
20090.224411,-11843.295072,-34493.596897,-25204.541884
20090.224744,-12435.459826,-35529.885216,-17390.367805
20090.225077,-9844.739029,-33161.226202,-4979.620737
20090.225410,-5699.585753,-19023.292709,5515.887586
20090.225744,3701.029710,-6587.832884,17160.539155
20090.226077,11325.150913,0.000000,26889.951980
20090.226410,12213.398043,12953.603985,27579.437928
20090.226744,16506.592507,15988.448347,23212.693589
20090.227077,11103.089130,10214.842000,14938.862211
20090.227410,8882.471304,5403.503377,-459.657299
20090.227744,1480.411884,-2072.576638,-15168.690860
20090.228077,-4071.132681,-10510.924376,-24285.227287
20090.228410,-8882.471304,-21984.116477,-26966.561530
20090.228744,-7772.162391,-35233.802839,-22140.159892
20090.229077,-8364.327145,-35529.885216,-14785.643111
20090.229410,-10362.883188,-29090.093521,-4290.134789
20090.229743,-1850.514855,-19985.560434,7277.907231
20090.230077,2516.700203,-8956.491898,16700.881856
20090.230410,9474.636058,3849.070898,24515.055936
20090.230743,12731.542202,12879.583391,27426.218828
20090.231077,14137.933492,14804.118840,21986.940793
20090.231410,10584.944971,10732.986159,13023.623466
20090.231743,8068.244768,4885.359217,-383.047749
20090.232077,2590.720797,-1110.308913,-13330.061665
20090.232410,-4737.318029,-14285.974681,-20837.797546
20090.232743,-9918.759623,-27239.578666,-27043.171079
20090.233077,-16062.468941,-36862.255912,-24438.446386
20090.233410,-14285.974681,-32643.082042,-17160.539155
20090.233743,-11843.295072,-31088.649564,-76.609550
20090.234076,-6365.771101,-17246.798449,8886.707777
20090.234410,370.102971,-6069.688724,19458.825649
20090.234743,5921.647536,6143.709319,26966.561530
20090.235076,9696.697840,15618.345376,27502.828378
20090.235410,11769.274478,15100.201217,21986.940793
20090.235743,6735.874072,7698.141797,9729.412825
20090.236076,1850.514855,5551.544565,-4290.134789
20090.236410,-3849.070898,-5995.668130,-17160.539155
20090.236743,-8290.306550,-16876.695478,-25204.541884
20090.237076,-12213.398043,-29904.320057,-26353.685131
20090.237410,-14285.974681,-35159.782245,-21680.502593
20090.237743,-10658.965565,-32569.061448,-10572.117872
20090.238076,-7994.224174,-28719.990550,2757.943793
20090.238409,-2590.720797,-15100.201217,9422.974625
20090.238743,5625.565159,-4737.318029,21986.940793
20090.239076,8882.471304,8808.450710,25740.808733
20090.239409,12731.542202,13027.624579,24438.446386
20090.239743,10584.944971,12435.459826,16471.053207
20090.240076,7328.038826,9030.512492,4979.620737
20090.240409,4367.215058,4663.297435,-5515.887586
20090.240743,2368.659014,-6291.750507,-15628.348159
20090.241076,-3775.050304,-16136.489536,-23442.522239
20090.241409,-8290.306550,-30274.423028,-22676.426741
20090.241743,-5995.668130,-33753.390955,-18616.120601
20090.242076,-5773.606348,-32346.999665,-7354.516781
20090.242409,-4145.153275,-28423.908173,4826.401637
20090.242742,-370.102971,-13915.871710,9346.365076
20090.243076,5033.400406,-1258.350101,18386.291952
20090.243409,10658.965565,6439.791695,24132.008187
20090.243742,11399.171507,14137.933492,19918.482948
20090.244076,10288.862594,12287.418637,12640.575717
20090.244409,9400.615463,4737.318029,6971.469032
20090.244742,5255.462188,3478.967927,-6128.763984
20090.245076,4367.215058,-9474.636058,-13866.328514
20090.245409,-1554.432478,-21836.075289,-19688.654299
20090.245742,-5699.585753,-27461.640448,-22599.817191
20090.246076,-7105.977043,-30866.587781,-15934.786358
20090.246409,-6291.750507,-31976.896694,-6358.592633
20090.246742,-5329.482782,-24352.775492,1532.190996
20090.247075,-1850.514855,-15692.365970,10572.117872
20090.247409,5847.626942,-4145.153275,19535.435199
20090.247742,5625.565159,7328.038826,21144.235745
20090.248075,8882.471304,13767.830521,18386.291952
20090.248409,8290.306550,12361.439231,14096.157163
20090.248742,8660.409521,8660.409521,6665.030833
20090.249075,8882.471304,0.000000,-1762.019645
20090.249409,0.000000,-8364.327145,-15168.690860
20090.249742,-5699.585753,-17246.798449,-22063.550342
20090.250075,-8882.471304,-30496.484810,-19688.654299
20090.250409,-9252.574275,-33161.226202,-16011.395908
20090.250742,-12435.459826,-31014.628970,-7354.516781
20090.251075,-9400.615463,-24574.837274,1149.143247
20090.251408,-5625.565159,-10881.027347,9039.926876
20090.251741,592.164754,-1406.391290,19382.216099
20090.252074,7031.956449,7105.977043,23059.474490
20090.252407,8216.285956,11843.295072,19535.435199
20090.252741,7476.080014,15322.262999,14709.033562
20090.253074,7105.977043,5921.647536,8580.269578
20090.253407,6439.791695,-2368.659014,-3140.991542
20090.253740,1702.473667,-9474.636058,-14785.643111
20090.254073,-5255.462188,-21317.931130,-19995.092498
20090.254406,-8586.388927,-29386.175897,-20991.016645
20090.254739,-11473.192101,-33235.246796,-16547.662757
20090.255073,-12435.459826,-29682.258274,-9652.803275
20090.255406,-13027.624579,-20799.786970,0.000000
20090.255739,-4811.338623,-13619.789333,8503.660028
20090.256072,2294.638420,0.000000,16471.053207
20090.256405,6513.812290,10584.944971,22676.426741
20090.256738,10584.944971,15988.448347,20761.187996
20090.257071,11547.212695,12953.603985,16394.443657
20090.257405,9918.759623,6291.750507,7814.174080
20090.257738,9326.594869,-1184.329507,-2757.943793
20090.258071,1924.535449,-10288.862594,-15628.348159
20090.258404,-2294.638420,-22502.260637,-21220.845295
20090.258737,-6291.750507,-33161.226202,-24591.665486
20090.259070,-10436.903782,-34863.699868,-19612.044749
20090.259403,-9844.739029,-27609.681637,-8963.317327
20090.259737,-6587.832884,-22132.157666,0.000000
20090.260070,-1258.350101,-10955.047942,11338.213370
20090.260403,5699.585753,1406.391290,19765.263848
20090.260736,10584.944971,9178.553681,24744.884585
20090.261069,13027.624579,16358.551318,22982.864940
20090.261402,14656.077652,12435.459826,16777.491406
20090.261735,10140.821405,4737.318029,7201.297681
20090.262069,7328.038826,-1998.556043,-5439.278036
20090.262402,1998.556043,-10658.965565,-17543.586904
20090.262735,-7105.977043,-21762.054695,-25510.980083
20090.263068,-11251.130318,-30274.423028,-23902.179538
20090.263401,-11473.192101,-34937.720462,-16317.834107
20090.263734,-9548.656652,-29608.237680,-8810.098227
20090.264067,-8364.327145,-23094.425390,2987.772442
20090.264401,-2516.700203,-11103.089130,11874.480219
20090.264734,4145.153275,1406.391290,21374.064394
20090.265067,9548.656652,11695.253884,25894.027832
20090.265400,12139.377449,16062.468941,24208.617737
20090.265733,13249.686362,8956.491898,18616.120601
20090.266066,7105.977043,5847.626942,7354.516781
20090.266399,7328.038826,0.000000,-5592.497135
20090.266733,-74.020594,-14211.954086,-18769.339701
20090.267066,-8290.306550,-21391.951724,-26966.561530
20090.267399,-12065.356855,-34345.555709,-25204.541884
20090.267732,-14359.995275,-35233.802839,-19228.997000
20090.268065,-14434.015869,-30348.443622,-6511.811733
20090.268398,-10140.821405,-21836.075289,1991.848295
20090.268731,-2738.761985,-8882.471304,14019.547613
20090.269065,6587.832884,1776.494261,26353.685131
20090.269398,11769.274478,10066.800811,27502.828378
20090.269731,11029.068536,17542.880825,22829.645840
20090.270064,9474.636058,9400.615463,17773.415554
20090.270397,7328.038826,6291.750507,3600.648841
20090.270730,4515.256246,-1628.453072,-9039.926876
20090.271063,-3108.864956,-11917.315666,-21067.626195
20090.271397,-7402.059420,-23686.590144,-26813.342430
20090.271730,-11843.295072,-31162.670158,-26353.685131
20090.272063,-10881.027347,-35529.885216,-17237.148705
20090.272396,-10732.986159,-30792.567187,-6818.249932
20090.272729,-9474.636058,-20355.663405,3677.258390
20090.273062,1110.308913,-8882.471304,17083.929605
20090.273395,9474.636058,3478.967927,26123.856482
20090.273729,13545.768739,14063.912898,27272.999729
20090.274062,15618.345376,16062.468941,24668.275036
20090.274395,14804.118840,10140.821405,16930.710506
20090.274728,14211.954086,7624.121203,5362.668486
20090.275061,9400.615463,-4145.153275,-9882.631924
20090.275394,-1628.453072,-11917.315666,-23289.303139
20090.275727,-9474.636058,-24352.775492,-27809.266577
20090.276061,-9548.656652,-36714.214723,-27043.171079
20090.276394,-12435.459826,-34123.493926,-18079.853753
20090.276727,-9844.739029,-32050.917289,-5975.544884
20090.277060,-6365.771101,-20577.725188,5056.230287
20090.277393,3404.947333,-6069.688724,18003.244203
20090.277726,10955.047942,5551.544565,28192.314326
20090.278059,14508.036463,12953.603985,29418.067123
20090.278392,16580.613101,16210.510130,24974.713235
20090.278726,15322.262999,10362.883188,16471.053207
20090.279059,9400.615463,5921.647536,1455.581446
20090.279392,2516.700203,-3034.844362,-14402.595362
20090.279725,-4293.194464,-14211.954086,-24591.665486
20090.280058,-8364.327145,-27831.743419,-30413.991271
20090.280391,-13915.871710,-34419.576303,-26660.123330
20090.280724,-13693.809927,-37898.544230,-14938.862211
20090.281058,-13027.624579,-32050.917289,-4443.353888
20090.281391,-6217.729913,-19097.313304,8886.707777
20090.281724,2072.576638,-5625.565159,21527.283494
20090.282057,7698.141797,8216.285956,26966.561530
20090.282390,9474.636058,16506.592507,29418.067123
20090.282723,14137.933492,14804.118840,23825.569988
20090.283056,8734.430116,10066.800811,13406.671215
20090.283390,3552.988522,7328.038826,-1838.629195
20090.283723,-2072.576638,-4145.153275,-16011.395908
20090.284056,-9918.759623,-15026.180623,-26889.951980
20090.284389,-15470.304188,-29460.196492,-30490.600820
20090.284722,-19097.313304,-36492.152941,-25434.370534
20090.285055,-18209.066173,-36936.276506,-14402.595362
20090.285388,-13027.624579,-27905.764013,1225.752797
20090.285722,-3034.844362,-16580.613101,12793.794817
20090.286055,3034.844362,-74.020594,22676.426741
20090.286388,5921.647536,7031.956449,30030.943522
20090.286721,10066.800811,15322.262999,25740.808733
20090.287054,12361.439231,15396.283594,20837.797546
20090.287387,7328.038826,10436.903782,9729.412825
20090.287720,3997.112087,4663.297435,-7048.078582
20090.288054,-3627.009116,-7105.977043,-19995.092498
20090.288387,-8882.471304,-16654.633695,-26430.294681
20090.288720,-11325.150913,-30792.567187,-27043.171079
20090.289053,-12953.603985,-35307.823433,-21450.673944
20090.289386,-9474.636058,-34123.493926,-9806.022374
20090.289719,-4811.338623,-28423.908173,6052.154434
20090.290052,1184.329507,-11695.253884,13483.280765
20090.290386,8068.244768,-1628.453072,21067.626195
20090.290719,11621.233289,7402.059420,25664.199183
20090.291052,13323.706956,17098.757260,23595.741338
20090.291385,15914.427753,11843.295072,17083.929605
20090.291718,8586.388927,11177.109724,4903.011187
20090.292051,5329.482782,1702.473667,-6205.373534
20090.292384,2294.638420,-8290.306550,-18769.339701
20090.292718,-1850.514855,-16580.613101,-24591.665486
20090.293051,-6587.832884,-32346.999665,-24668.275036
20090.293384,-7550.100608,-35529.885216,-18003.244203
20090.293717,-4293.194464,-32198.958477,-5898.935335
20090.294050,-4145.153275,-24944.940245,5209.449386
20090.294383,4663.297435,-12435.459826,12793.794817
20090.294716,6957.935855,-3330.926739,20224.921147
20090.295050,12509.480420,9400.615463,24744.884585
20090.295383,12657.521608,14211.954086,21986.940793
20090.295716,9696.697840,14804.118840,11874.480219
20090.296049,7105.977043,7476.080014,3677.258390
20090.296382,5847.626942,0.000000,-8656.879127
20090.296715,0.000000,-7179.997637,-16088.005458
20090.297048,-5329.482782,-20947.828159,-23442.522239
20090.297382,-8364.327145,-31680.814318,-23748.960438
20090.297715,-11177.109724,-34345.555709,-16777.491406
20090.298048,-8068.244768,-31162.670158,-5745.716235
20090.298381,-6883.915261,-25315.043216,4443.353888
20090.298714,-4145.153275,-11917.315666,11644.651570
20090.299047,5551.544565,-2368.659014,20761.187996
20090.299380,6809.894666,9474.636058,23212.693589
20090.299714,5921.647536,17394.839637,20837.797546
20090.300047,7031.956449,9474.636058,14632.424012
20090.300380,4145.153275,9992.780217,2757.943793
20090.300713,2368.659014,666.185348,-6205.373534
20090.301046,-2738.761985,-9548.656652,-17543.586904
20090.301379,-8882.471304,-22798.343014,-23289.303139
20090.301712,-11843.295072,-32643.082042,-21910.331243
20090.302046,-9844.739029,-36122.049970,-14785.643111
20090.302379,-11325.150913,-29090.093521,-5515.887586
20090.302712,-9770.718434,-20799.786970,3677.258390
20090.303045,-2664.741391,-10066.800811,14632.424012
20090.303378,2960.823768,2368.659014,22523.207641
20090.303711,6883.915261,12361.439231,23672.350888
20090.304044,7624.121203,14878.139434,19995.092498
20090.304378,7179.997637,11991.336260,12180.918418
20090.304711,5847.626942,7254.018232,2374.896044
20090.305044,2590.720797,1480.411884,-11184.994271
20090.305377,-3552.988522,-11917.315666,-17773.415554
20090.305710,-5255.462188,-24130.713709,-22140.159892
20090.306043,-7179.997637,-31976.896694,-22753.036291
20090.306376,-8142.265362,-33901.432144,-12487.356617
20090.306710,-7698.141797,-30126.381839,-4903.011187
20090.307043,-5551.544565,-21688.034101,4213.525239
20090.307376,666.185348,-8882.471304,13713.109414
20090.307709,8660.409521,1184.329507,21986.940793
20090.308042,11177.109724,11621.233289,22906.255390
20090.308375,11251.130318,14582.057057,19765.263848
20090.308708,9992.780217,10807.006753,13253.452115
20090.309042,9474.636058,8216.285956,2451.505594
20090.309375,5329.482782,-1850.514855,-6128.763984
20090.309708,2294.638420,-15396.283594,-17237.148705
20090.310041,-6143.709319,-24574.837274,-24898.103685
20090.310374,-9474.636058,-32346.999665,-21757.112143
20090.310707,-9992.780217,-33531.329173,-15704.957709
20090.311040,-8142.265362,-29164.114115,-5515.887586
20090.311374,-4219.173869,-19319.375086,4673.182538
20090.311707,74.020594,-7031.956449,13330.061665
20090.312040,8290.306550,3627.009116,23289.303139
20090.312373,9992.780217,12657.521608,22676.426741
20090.312706,12361.439231,14508.036463,18309.682402
20090.313039,9474.636058,11177.109724,13789.718964
20090.313372,5921.647536,4663.297435,4290.134789
20090.313706,4145.153275,-4589.276840,-8886.707777
20090.314039,-1480.411884,-14063.912898,-18616.120601
20090.314372,-5699.585753,-24944.940245,-22676.426741
20090.314705,-10362.883188,-32346.999665,-20914.407095
20090.315038,-11695.253884,-34345.555709,-15398.519510
20090.315371,-14211.954086,-27313.599260,-4903.011187
20090.315704,-10140.821405,-18949.272115,2374.896044
20090.316038,-3775.050304,-4219.173869,12563.966167
20090.316371,5773.606348,2960.823768,22063.550342
20090.316704,9400.615463,11251.130318,26277.075581
20090.317037,10510.924376,15100.201217,21986.940793
20090.317370,8734.430116,10140.821405,14172.766713
20090.317703,6809.894666,2886.803174,2681.334243
20090.318036,4663.297435,-3849.070898,-9039.926876
20090.318370,-518.144159,-15988.448347,-17237.148705
20090.318703,-8808.450710,-26129.269753,-24515.055936
20090.319036,-12435.459826,-32050.917289,-23136.084040
20090.319369,-11991.336260,-36418.132346,-13866.328514
20090.319702,-11917.315666,-24944.940245,-5975.544884
20090.320035,-8734.430116,-17468.860231,4519.963438
20090.320368,-2220.617826,-4663.297435,14402.595362
20090.320702,5847.626942,6217.729913,22523.207641
20090.321035,10214.842000,14211.954086,25817.418283
20090.321368,13545.768739,15396.283594,20761.187996
20090.321701,9474.636058,9400.615463,15321.909960
20090.322034,10288.862594,1776.494261,4213.525239
20090.322367,6439.791695,-5625.565159,-12334.137518
20090.322700,-2368.659014,-15026.180623,-22676.426741
20090.323034,-6069.688724,-27461.640448,-26889.951980
20090.323367,-9770.718434,-34863.699868,-22676.426741
20090.323700,-9252.574275,-33013.185013,-14938.862211
20090.324033,-7031.956449,-27535.661042,-2987.772442
20090.324366,-3923.091493,-18357.107362,5745.716235
20090.324699,2368.659014,-4219.173869,16317.834107
20090.325032,7994.224174,5329.482782,23289.303139
20090.325366,13249.686362,14508.036463,24821.494135
20090.325699,14508.036463,17690.922014,21450.673944
20090.326032,14730.098246,7402.059420,15551.738609
20090.326365,12065.356855,5921.647536,1149.143247
20090.326698,7105.977043,-4811.338623,-9039.926876
20090.327031,1110.308913,-17764.942608,-21833.721693
20090.327364,-5107.421000,-27165.558071,-28805.190725
20090.327698,-10807.006753,-35381.844028,-24974.713235
20090.328031,-12731.542202,-33901.432144,-17237.148705
20090.328364,-11251.130318,-28497.928767,-5209.449386
20090.328697,-6513.812290,-20429.683999,7277.907231
20090.329030,3182.885551,-5921.647536,17696.806004
20090.329363,8512.368333,7920.203579,26966.561530
20090.329696,11843.295072,17690.922014,30030.943522
20090.330030,13915.871710,16580.613101,25664.199183
20090.330363,10955.047942,8808.450710,15168.690860
20090.330696,9400.615463,5403.503377,1302.362347
20090.331029,1924.535449,-7476.080014,-13330.061665
20090.331362,-4293.194464,-15174.221811,-26047.246932
20090.331695,-13101.645173,-32569.061448,-30413.991271
20090.332028,-14285.974681,-36714.214723,-27043.171079
20090.332362,-20725.766376,-35603.905810,-18079.853753
20090.332695,-12435.459826,-29904.320057,-2451.505594
20090.333028,-7179.997637,-17764.942608,9729.412825
20090.333361,2886.803174,-3256.906145,24438.446386
20090.333694,9474.636058,8808.450710,32482.449115
20090.334027,11177.109724,17394.839637,29418.067123
20090.334360,14656.077652,15396.283594,25051.322785
20090.334694,7254.018232,10584.944971,12257.527968
20090.335027,8216.285956,5403.503377,-3370.820191
20090.335360,-3552.988522,-5995.668130,-16547.662757
20090.335693,-6883.915261,-20725.766376,-28268.923876
20090.336026,-14285.974681,-31384.731941,-30413.991271
20090.336359,-18061.024985,-38194.626607,-25817.418283
20090.336692,-15840.407159,-34567.617491,-14479.204912
20090.337026,-12657.521608,-30496.484810,383.047749
20090.337359,-4515.256246,-11917.315666,12717.185267
20090.337692,4145.153275,0.000000,25740.808733
20090.338025,9770.718434,11769.274478,30643.819920
20090.338358,14730.098246,16580.613101,31792.963167
20090.338691,15026.180623,15692.365970,19688.654299
20090.339024,10955.047942,11769.274478,10801.946522
20090.339358,4737.318029,2072.576638,-5592.497135
20090.339691,-1036.288319,-8808.450710,-21986.940793
20090.340024,-8290.306550,-19763.498651,-30184.162621
20090.340357,-10732.986159,-32198.958477,-30490.600820
20090.340690,-11843.295072,-38638.750172,-21757.112143
20090.341023,-10658.965565,-32791.123231,-11031.775171
20090.341356,-6957.935855,-27757.722825,3217.601092
20090.341690,2590.720797,-11399.171507,16317.834107
20090.342023,11843.295072,1258.350101,25664.199183
20090.342356,13027.624579,8216.285956,29418.067123
20090.342689,17172.777854,20059.581028,23365.912689
20090.343022,13027.624579,11769.274478,23212.693589
20090.343355,11473.192101,9918.759623,5745.716235
20090.343688,5847.626942,1184.329507,-8044.002729
20090.344022,-1184.329507,-9474.636058,-20301.530697
20090.344355,-3849.070898,-18431.127956,-26277.075581
20090.344688,-9992.780217,-33679.370361,-25510.980083
20090.345021,-10807.006753,-35529.885216,-21144.235745
20090.345354,-10140.821405,-36122.049970,-7431.126331
20090.345687,-8290.306550,-23760.610738,3064.381992
20090.346020,0.000000,-9548.656652,16547.662757
20090.346354,8142.265362,-1628.453072,23519.131789
20090.346687,11621.233289,11547.212695,25204.541884
20090.347020,16506.592507,17764.942608,24438.446386
20090.347353,10658.965565,12805.562797,18616.120601
20090.347686,8290.306550,8290.306550,3983.696590
20090.348019,1998.556043,-222.061783,-10725.336972
20090.348352,-2442.679609,-10066.800811,-20914.407095
20090.348686,-9474.636058,-20207.622217,-26353.685131
20090.349019,-10288.862594,-34345.555709,-24591.665486
20090.349352,-11029.068536,-39082.873738,-18462.901502
20090.349685,-12435.459826,-31162.670158,-4903.011187
20090.350018,-6587.832884,-23686.590144,6281.983084
20090.350351,-1776.494261,-9844.739029,14632.424012
20090.350684,4441.235652,814.226536,22906.255390
20090.351017,8290.306550,10881.027347,26583.513781
20090.351351,13027.624579,21243.910535,23289.303139
20090.351684,5329.482782,12953.603985,19305.606550
20090.352017,7031.956449,7105.977043,2374.896044
20090.352350,2294.638420,-3552.988522,-10495.508323
20090.352683,-5921.647536,-9548.656652,-21757.112143
20090.353016,-9030.512492,-21391.951724,-29418.067123
20090.353349,-13323.706956,-37898.544230,-23365.912689
20090.353682,-12657.521608,-35381.844028,-17237.148705
20090.354015,-10362.883188,-31310.711347,-2911.162892
20090.354348,-5329.482782,-19615.457463,7967.393179
20090.354682,888.247130,-7994.224174,16471.053207
20090.355015,7624.121203,3034.844362,24515.055936
20090.355348,11177.109724,13323.706956,26277.075581
20090.355681,14137.933492,14804.118840,21986.940793
20090.356014,8808.450710,12731.542202,11031.775171
20090.356347,4145.153275,6439.791695,-612.876398
20090.356680,1702.473667,-4737.318029,-12334.137518
20090.357013,-3849.070898,-10732.986159,-22676.426741
20090.357346,-5995.668130,-27239.578666,-23978.789087
20090.357680,-9844.739029,-35603.905810,-21986.940793
20090.358013,-8142.265362,-32643.082042,-13636.499864
20090.358346,-6291.750507,-29608.237680,-1608.800546
20090.358679,-4737.318029,-19023.292709,6435.202183
20090.359012,3330.926739,-7105.977043,14632.424012
20090.359345,7105.977043,4071.132681,24515.055936
20090.359678,13545.768739,13323.706956,25664.199183
20090.360011,14137.933492,15692.365970,18079.853753
20090.360344,9474.636058,10881.027347,9576.193725
20090.360677,6513.812290,4959.379811,0.000000
20090.361011,5699.585753,-4367.215058,-11108.384721
20090.361344,-1702.473667,-16136.489536,-20531.359346
20090.361677,-6809.894666,-28201.846390,-23748.960438
20090.362010,-7179.997637,-34937.720462,-22140.159892
20090.362343,-5477.523971,-34641.638086,-9882.631924
20090.362676,-5403.503377,-27979.784608,-2834.553343
20090.363009,-4145.153275,-17838.963202,7354.516781
20090.363342,2368.659014,-4811.338623,15475.129060
20090.363675,7402.059420,5847.626942,22753.036291
20090.364009,9104.533087,14137.933492,22369.988542
20090.364342,9622.677246,14211.954086,16777.491406
20090.364675,7031.956449,7402.059420,9729.412825
20090.365008,3627.009116,5847.626942,-1838.629195
20090.365341,3478.967927,-5921.647536,-12334.137518
20090.365674,-4811.338623,-18061.024985,-21833.721693
20090.366007,-8290.306550,-27313.599260,-22140.159892
20090.366340,-8068.244768,-34345.555709,-17237.148705
20090.366673,-9770.718434,-33013.185013,-9882.631924
20090.367006,-10288.862594,-26795.455100,-1991.848295
20090.367340,-6735.874072,-16876.695478,7660.954980
20090.367673,-888.247130,-3923.091493,15858.176809
20090.368006,2368.659014,7031.956449,24361.836836
20090.368339,7031.956449,13619.789333,19995.092498
20090.368672,4737.318029,16506.592507,13483.280765
20090.369005,6661.853478,8882.471304,11874.480219
20090.369338,7920.203579,1480.411884,1455.581446
20090.369671,2368.659014,-7031.956449,-9882.631924
20090.370004,-2960.823768,-17838.963202,-19612.044749
20090.370337,-7624.121203,-29460.196492,-22140.159892
20090.370671,-9844.739029,-33753.390955,-18769.339701
20090.371004,-11251.130318,-32791.123231,-10495.508323
20090.371337,-8734.430116,-25833.187376,-2145.067394
20090.371670,-5255.462188,-13767.830521,8197.221829
20090.372003,888.247130,-1554.432478,15934.786358
20090.372336,7624.121203,7105.977043,21374.064394
20090.372669,8290.306550,14137.933492,22676.426741
20090.373002,13027.624579,13027.624579,21680.502593
20090.373335,9400.615463,9400.615463,8886.707777
20090.373669,7105.977043,1110.308913,-919.314598
20090.374002,6439.791695,-9474.636058,-11721.261119
20090.374335,-1776.494261,-19615.457463,-20837.797546
20090.374668,-2960.823768,-28423.908173,-22369.988542
20090.375001,-6587.832884,-34937.720462,-19228.997000
20090.375334,-8586.388927,-31532.773129,-12793.794817
20090.375667,-8290.306550,-23760.610738,-1532.190996
20090.376000,-2442.679609,-15248.242405,7890.783629
20090.376333,5847.626942,-3256.906145,15551.738609
20090.376666,8142.265362,7920.203579,21144.235745
20090.377000,12361.439231,14508.036463,21450.673944
20090.377333,13545.768739,14211.954086,18692.730151
20090.377666,12953.603985,7550.100608,11491.432470
20090.377999,10881.027347,444.123565,1149.143247
20090.378332,6513.812290,-7179.997637,-11644.651570
20090.378665,0.000000,-19023.292709,-17237.148705
20090.378998,-5107.421000,-29904.320057,-25740.808733
20090.379331,-9474.636058,-33235.246796,-24208.617737
20090.379664,-11547.212695,-32050.917289,-12640.575717
20090.379997,-11399.171507,-24500.816680,-4290.134789
20090.380331,-6735.874072,-14063.912898,6128.763984
20090.380664,-74.020594,-1924.535449,15398.519510
20090.380997,7031.956449,8142.265362,23442.522239
20090.381330,13545.768739,15692.365970,26889.951980
20090.381663,14878.139434,14211.954086,24438.446386
20090.381996,11769.274478,7402.059420,12487.356617
20090.382329,6217.729913,-666.185348,689.485948
20090.382662,2960.823768,-9474.636058,-13559.890315
20090.382995,-6513.812290,-20503.704593,-23059.474490
20090.383329,-10584.944971,-30348.443622,-28498.752526
20090.383662,-12805.562797,-36048.029375,-22446.598091
20090.383995,-15026.180623,-32939.164419,-13483.280765
20090.384328,-13545.768739,-23538.548956,-3677.258390
20090.384661,-8364.327145,-15100.201217,6894.859482
20090.384994,-1184.329507,-74.020594,16547.662757
20090.385327,6513.812290,8512.368333,31180.086769
20090.385660,11177.109724,18801.230927,26430.294681
20090.385993,13249.686362,14730.098246,24132.008187
20090.386326,8808.450710,7550.100608,12410.747068
20090.386660,7179.997637,2294.638420,-1378.971896
20090.386993,74.020594,-8956.491898,-16011.395908
20090.387326,-7105.977043,-20799.786970,-27119.780629
20090.387659,-13693.809927,-33161.226202,-30337.381721
20090.387992,-15840.407159,-37676.482448,-23978.789087
20090.388325,-16136.489536,-32865.143825,-13636.499864
20090.388658,-11177.109724,-24870.919651,153.219100
20090.388991,-6217.729913,-10362.883188,12334.137518
20090.389324,5847.626942,592.164754,25664.199183
20090.389658,10288.862594,11621.233289,28498.752526
20090.389991,13323.706956,20651.745782,25127.932334
20090.390324,15396.283594,13027.624579,22369.988542
20090.390657,10658.965565,7476.080014,10035.851024
20090.390990,8734.430116,1406.391290,-5515.887586
20090.391323,-740.205942,-12731.542202,-20454.749797
20090.391656,-7105.977043,-22576.281231,-29954.333972
20090.391989,-12879.583391,-35381.844028,-28575.362075
20090.392322,-12435.459826,-38786.791361,-21833.721693
20090.392655,-8364.327145,-32569.061448,-8044.002729
20090.392989,-5995.668130,-24204.734303,1532.190996
20090.393322,-1480.411884,-6291.750507,13483.280765
20090.393655,11177.109724,2368.659014,26583.513781
20090.393988,14582.057057,12435.459826,29801.114872
20090.394321,16136.489536,17912.983796,26966.561530
20090.394654,15766.386565,12583.501014,18922.558801
20090.394987,12361.439231,7402.059420,7277.907231
20090.395320,4737.318029,-74.020594,-6741.640382
20090.395653,-370.102971,-13619.789333,-21144.235745
20090.395986,-4811.338623,-23686.590144,-29801.114872
20090.396320,-11547.212695,-35455.864622,-28498.752526
20090.396653,-11917.315666,-35307.823433,-21297.454844
20090.396986,-10658.965565,-33161.226202,-7737.564530
20090.397319,-9252.574275,-23686.590144,4213.525239
20090.397652,1406.391290,-7254.018232,16471.053207
20090.397985,7550.100608,4663.297435,25127.932334
20090.398318,10066.800811,12953.603985,30950.258119
20090.398651,16506.592507,17320.819043,25051.322785
20090.398984,11177.109724,13323.706956,15245.300410
20090.399318,6217.729913,8808.450710,4903.011187
20090.399651,2590.720797,-2590.720797,-11797.870669
20090.399984,-4515.256246,-12953.603985,-24515.055936
20090.400317,-8808.450710,-25092.981434,-29647.895773
20090.400650,-13323.706956,-37010.297100,-27043.171079
20090.400983,-15100.201217,-35899.988187,-20224.921147
20090.401316,-12139.377449,-32050.917289,-5439.278036
20090.401649,-6069.688724,-21317.931130,8197.221829
20090.401982,1998.556043,-5995.668130,20684.578446
20090.402315,9400.615463,2368.659014,26889.951980
20090.402649,10584.944971,14804.118840,26430.294681
20090.402982,9474.636058,16506.592507,24055.398637
20090.403315,10955.047942,11325.150913,17696.806004
20090.403648,9104.533087,9474.636058,842.705048
20090.403981,2294.638420,-3404.947333,-12257.527968
20090.404314,-4811.338623,-13027.624579,-25357.760984
20090.404647,-9548.656652,-27091.537477,-29494.676673
20090.404980,-14063.912898,-36936.276506,-26660.123330
20090.405313,-14211.954086,-35974.008781,-18386.291952
20090.405646,-8364.327145,-30718.546593,-4903.011187
20090.405980,-4441.235652,-20725.766376,13406.671215
20090.406313,4367.215058,-2812.782580,20148.311597
20090.406646,9400.615463,6143.709319,24515.055936
20090.406979,12805.562797,15396.283594,27502.828378
20090.407312,12879.583391,17987.004391,23442.522239
20090.407645,10436.903782,11843.295072,12104.308868
20090.407978,6439.791695,6291.750507,-3677.258390
20090.408311,-1184.329507,-7179.997637,-16547.662757
20090.408644,-3627.009116,-13619.789333,-26277.075581
20090.408978,-7105.977043,-29756.278868,-24591.665486
20090.409311,-10140.821405,-37010.297100,-23825.569988
20090.409644,-11843.295072,-33827.411549,-14632.424012
20090.409977,-9178.553681,-29090.093521,0.000000
20090.410310,-2960.823768,-16506.592507,11568.042020
20090.410643,3552.988522,-3404.947333,20148.311597
20090.410976,9548.656652,5995.668130,26277.075581
20090.411309,13545.768739,14211.954086,27502.828378
20090.411642,10140.821405,18875.251521,19612.044749
20090.411975,9400.615463,11251.130318,9729.412825
20090.412309,4663.297435,5921.647536,-7354.516781
20090.412642,0.000000,-7179.997637,-15781.567259
20090.412975,-3182.885551,-15988.448347,-23519.131789
20090.413308,-9326.594869,-32569.061448,-26736.732880
20090.413641,-11473.192101,-37602.461854,-21986.940793
20090.413974,-9252.574275,-33975.452738,-10955.165621
20090.414307,-6143.709319,-27905.764013,2911.162892
20090.414640,0.000000,-13397.727550,15628.348159
20090.414973,4663.297435,-1776.494261,18079.853753
20090.415306,10066.800811,8216.285956,24515.055936
20090.415640,12953.603985,14211.954086,25357.760984
20090.415973,11473.192101,14804.118840,18079.853753
20090.416306,6809.894666,9104.533087,7277.907231
20090.416639,2738.761985,1406.391290,-4979.620737
20090.416972,-74.020594,-7698.141797,-16624.272307
20090.417305,-6069.688724,-18949.272115,-24668.275036
20090.417638,-10362.883188,-31606.793723,-24208.617737
20090.417971,-11399.171507,-35603.905810,-19075.777900
20090.418304,-9326.594869,-32643.082042,-8350.440928
20090.418638,-6587.832884,-24870.919651,2681.334243
20090.418971,-3034.844362,-14211.954086,10955.165621
20090.419304,3552.988522,-74.020594,20837.797546
20090.419637,8290.306550,8068.244768,27962.485677
20090.419970,10584.944971,16728.654289,21220.845295
20090.420303,7402.059420,14137.933492,16088.005458
20090.420636,8808.450710,7698.141797,6665.030833
20090.420969,4959.379811,2812.782580,-3294.210641
20090.421302,1776.494261,-8808.450710,-15781.567259
20090.421635,-3701.029710,-21762.054695,-22753.036291
20090.421969,-9622.677246,-32198.958477,-24821.494135
20090.422302,-10658.965565,-34715.658680,-17466.977354
20090.422635,-7772.162391,-31680.814318,-7737.564530
20090.422968,-6587.832884,-24426.796086,612.876398
20090.423301,-3552.988522,-11325.150913,12410.747068
20090.423634,4071.132681,888.247130,17696.806004
20090.423967,9400.615463,11251.130318,23672.350888
20090.424300,8882.471304,16210.510130,22676.426741
20090.424633,9400.615463,13323.706956,15551.738609
20090.424967,5921.647536,8216.285956,6128.763984
20090.425300,3552.988522,-74.020594,-2757.943793
20090.425633,2886.803174,-11843.295072,-16011.395908
20090.425966,-3627.009116,-22502.260637,-23365.912689
20090.426299,-7105.977043,-30866.587781,-22982.864940
20090.426632,-5255.462188,-33235.246796,-15858.176809
20090.426965,-5403.503377,-31310.711347,-6741.640382
20090.427298,-5403.503377,-23242.466579,2528.115143
20090.427631,-2072.576638,-9548.656652,10495.508323
20090.427964,5847.626942,0.000000,18309.682402
20090.428298,9474.636058,9252.574275,24438.446386
20090.428631,9400.615463,17024.736666,18386.291952
20090.428964,8882.471304,10584.944971,17696.806004
20090.429297,11769.274478,7846.182985,8503.660028
20090.429630,10807.006753,-1258.350101,-1532.190996
20090.429963,3701.029710,-11991.336260,-12563.966167
20090.430296,-1628.453072,-22428.240043,-21910.331243
20090.430629,-6587.832884,-31384.731941,-24515.055936
20090.430962,-11695.253884,-34419.576303,-20454.749797
20090.431295,-10732.986159,-31384.731941,-12640.575717
20090.431629,-9992.780217,-21391.951724,-2451.505594
20090.431962,-7698.141797,-11325.150913,10648.727422
20090.432295,1702.473667,3849.070898,17543.586904
20090.432628,8216.285956,9474.636058,24132.008187
20090.432961,9474.636058,17690.922014,25127.932334
20090.433294,12361.439231,15026.180623,18845.949251
20090.433627,10362.883188,6809.894666,8656.879127
20090.433960,3849.070898,-2442.679609,-4903.011187
20090.434293,814.226536,-11917.315666,-18386.291952
20090.434627,-3701.029710,-24870.919651,-23978.789087
20090.434960,-7846.182985,-32643.082042,-24668.275036
20090.435293,-9770.718434,-36566.173535,-19688.654299
20090.435626,-11695.253884,-30422.464216,-10342.289223
20090.435959,-6587.832884,-23686.590144,1762.019645
20090.436292,-5995.668130,-9622.677246,9806.022374
20090.436625,2368.659014,4663.297435,19612.044749
20090.436958,8216.285956,9770.718434,28115.704777
20090.437291,9770.718434,19319.375086,26660.123330
20090.437624,9548.656652,14434.015869,18999.168350
20090.437958,8512.368333,6513.812290,8503.660028
20090.438291,6513.812290,-222.061783,-4290.134789
20090.438624,0.000000,-12361.439231,-17160.539155
20090.438957,-5995.668130,-23612.569550,-26966.561530
20090.439290,-12879.583391,-33531.329173,-29111.628924
20090.439623,-13767.830521,-39675.038491,-20914.407095
20090.439956,-12509.480420,-30792.567187,-11108.384721
20090.440289,-10955.047942,-23094.425390,1915.238745
20090.440622,-4959.379811,-7698.141797,12410.747068
20090.440955,4811.338623,3775.050304,23212.693589
20090.441289,9474.636058,12805.562797,29418.067123
20090.441622,15322.262999,16580.613101,29341.457573
20090.441955,12065.356855,16506.592507,19612.044749
20090.442288,10362.883188,5255.462188,9806.022374
20090.442621,8808.450710,-4737.318029,-5286.058936
20090.442954,-2072.576638,-11325.150913,-21450.673944
20090.443287,-5699.585753,-26351.331535,-28268.923876
20090.443620,-11695.253884,-35381.844028,-28958.409824
20090.443953,-12139.377449,-36566.173535,-20684.578446
20090.444287,-11991.336260,-30644.525999,-9806.022374
20090.444620,-6883.915261,-21317.931130,2374.896044
20090.444953,-3552.988522,-4811.338623,13789.718964
20090.445286,8512.368333,3849.070898,25664.199183
20090.445619,12805.562797,16876.695478,27809.266577
20090.445952,14211.954086,21243.910535,26966.561530
20090.446285,15914.427753,11251.130318,18922.558801
20090.446618,11251.130318,5403.503377,7048.078582
20090.446951,7031.956449,-4071.132681,-8197.221829
20090.447284,-1850.514855,-14285.974681,-22293.378992
20090.447618,-5107.421000,-27239.578666,-29494.676673
20090.447951,-11547.212695,-35677.926404,-27119.780629
20090.448284,-10436.903782,-37010.297100,-19228.997000
20090.448617,-10214.842000,-29386.175897,-7124.688131
20090.448950,-8882.471304,-21391.951724,6128.763984
20090.449283,-74.020594,-6513.812290,16777.491406
20090.449616,8216.285956,6439.791695,24515.055936
20090.449949,10658.965565,15322.262999,31256.696318
20090.450282,15766.386565,16580.613101,25664.199183
20090.450616,11843.295072,11769.274478,15168.690860
20090.450949,8586.388927,5921.647536,4519.963438
20090.451282,3404.947333,-5403.503377,-10265.679673
20090.451615,-3108.864956,-15248.242405,-23825.569988
20090.451948,-7772.162391,-28423.908173,-28575.362075
20090.452281,-12509.480420,-37898.544230,-25817.418283
20090.452614,-15100.201217,-33827.411549,-19612.044749
20090.452948,-10732.986159,-29682.258274,-9193.145976
20090.453281,-7698.141797,-19763.498651,9116.536426
20090.453614,1184.329507,-4441.235652,18386.291952
20090.453947,8216.285956,7031.956449,26047.246932
20090.454280,11251.130318,14730.098246,29954.333972
20090.454613,12805.562797,17320.819043,24208.617737
20090.454946,10584.944971,9474.636058,14632.424012
20090.455280,9474.636058,6883.915261,3294.210641
20090.455613,1702.473667,-3034.844362,-14096.157163
20090.455946,-5329.482782,-15766.386565,-24898.103685
20090.456279,-9548.656652,-30422.464216,-29494.676673
20090.456612,-14285.974681,-39082.873738,-26430.294681
20090.456945,-14508.036463,-36122.049970,-17696.806004
20090.457278,-12583.501014,-30126.381839,-3753.867940
20090.457612,-7698.141797,-16580.613101,9269.755526
20090.457945,592.164754,-666.185348,21450.673944
20090.458278,12953.603985,7105.977043,29341.457573
20090.458611,12139.377449,17690.922014,27579.437928
20090.458944,14211.954086,14359.995275,26277.075581
20090.459277,11177.109724,12731.542202,12640.575717
20090.459610,5181.441594,5847.626942,-4060.306139
20090.459944,-740.205942,-8512.368333,-17160.539155
20090.460277,-7254.018232,-16654.633695,-27885.876127
20090.460610,-10214.842000,-30792.567187,-29877.724422
20090.460943,-12139.377449,-37898.544230,-23289.303139
20090.461276,-11029.068536,-33383.287984,-16547.662757
20090.461609,-8882.471304,-28423.908173,1762.019645
20090.461942,-666.185348,-17468.860231,14632.424012
20090.462276,6735.874072,1998.556043,22369.988542
20090.462609,9474.636058,8808.450710,28192.314326
20090.462942,13767.830521,17987.004391,26506.904231
20090.463275,12805.562797,14804.118840,21833.721693
20090.463608,9992.780217,11251.130318,9576.193725
20090.463941,6513.812290,2590.720797,-4903.011187
20090.464274,-370.102971,-9770.718434,-19612.044749
20090.464608,-4367.215058,-17987.004391,-27502.828378
20090.464941,-10288.862594,-33235.246796,-27656.047478
20090.465274,-10732.986159,-37898.544230,-22982.864940
20090.465607,-11843.295072,-34419.576303,-11031.775171
20090.465940,-4811.338623,-26055.249158,2374.896044
20090.466273,518.144159,-10140.821405,14709.033562
20090.466606,7402.059420,-962.267725,24438.446386
20090.466940,12361.439231,7105.977043,26889.951980
20090.467273,12731.542202,17394.839637,26047.246932
20090.467606,12953.603985,15100.201217,18769.339701
20090.467939,7105.977043,10288.862594,6971.469032
20090.468272,4071.132681,666.185348,-8503.660028
20090.468605,-1628.453072,-11103.089130,-18462.901502
20090.468938,-4811.338623,-19763.498651,-27426.218828
20090.469272,-10362.883188,-34419.576303,-26353.685131
20090.469605,-11029.068536,-39082.873738,-19688.654299
20090.469938,-9992.780217,-32495.040854,-8580.269578
20090.470271,-7105.977043,-23612.569550,7124.688131
20090.470604,-888.247130,-10362.883188,14402.595362
20090.470937,5255.462188,74.020594,21833.721693
20090.471270,8586.388927,9770.718434,25817.418283
20090.471604,12361.439231,16876.695478,23519.131789
20090.471937,9400.615463,14952.160028,13023.623466
20090.472270,4737.318029,10584.944971,4290.134789
20090.472603,2368.659014,-1554.432478,-5592.497135
20090.472936,-74.020594,-10288.862594,-18539.511052
20090.473269,-4219.173869,-21910.095883,-26123.856482
20090.473602,-10288.862594,-35529.885216,-24285.227287
20090.473935,-11547.212695,-37676.482448,-17696.806004
20090.474269,-9548.656652,-31458.752535,-6588.421283
20090.474602,-7105.977043,-20799.786970,4903.011187
20090.474935,-2960.823768,-9548.656652,13483.280765
20090.475268,5921.647536,1702.473667,24132.008187
20090.475601,9992.780217,13175.665768,24898.103685
20090.475934,10807.006753,20059.581028,23289.303139
20090.476267,10584.944971,11251.130318,15551.738609
20090.476601,4811.338623,8216.285956,2145.067394
20090.476934,1776.494261,-2442.679609,-9116.536426
20090.477267,-1480.411884,-12657.521608,-20378.140247
20090.477600,-6513.812290,-24204.734303,-25357.760984
20090.477933,-9474.636058,-35899.988187,-23595.741338
20090.478266,-8586.388927,-35159.782245,-15781.567259
20090.478599,-6883.915261,-30644.525999,-3830.477490
20090.478933,-3849.070898,-21762.054695,8273.831378
20090.479266,1998.556043,-9474.636058,16777.491406
20090.479599,8216.285956,4737.318029,20837.797546
20090.479932,10362.883188,12953.603985,24515.055936
20090.480265,12435.459826,14508.036463,23212.693589
20090.480598,8290.306550,11769.274478,12870.404366
20090.480931,6291.750507,5625.565159,3140.991542
20090.481265,6069.688724,-1554.432478,-8044.002729
20090.481598,740.205942,-14285.974681,-18692.730151
20090.481931,-5107.421000,-28127.825796,-25204.541884
20090.482264,-9474.636058,-33827.411549,-24055.398637
20090.482597,-8364.327145,-33975.452738,-17160.539155
20090.482930,-7105.977043,-29238.134709,-3753.867940
20090.483263,-5329.482782,-19911.539840,6741.640382
20090.483597,-74.020594,-8142.265362,14632.424012
20090.483930,7179.997637,4885.359217,21374.064394
20090.484263,9474.636058,12361.439231,23978.789087
20090.484596,10955.047942,15914.427753,20071.702048
20090.484929,9104.533087,9474.636058,14172.766713
20090.485262,9400.615463,3997.112087,4826.401637
20090.485595,4737.318029,-5107.421000,-8580.269578
20090.485929,-74.020594,-18357.107362,-17237.148705
20090.486262,-4219.173869,-25907.207970,-24361.836836
20090.486595,-7105.977043,-31162.670158,-21297.454844
20090.486928,-8364.327145,-33753.390955,-15475.129060
20090.487261,-9326.594869,-28423.908173,-6052.154434
20090.487594,-8734.430116,-19763.498651,3294.210641
20090.487927,-2960.823768,-5551.544565,12180.918418
20090.488261,4071.132681,4737.318029,20761.187996
20090.488594,7698.141797,12509.480420,26583.513781
20090.488927,11769.274478,14211.954086,22906.255390
20090.489260,6661.853478,12953.603985,14709.033562
20090.489593,9474.636058,4367.215058,6128.763984
20090.489926,4589.276840,-4811.338623,-7048.078582
20090.490259,222.061783,-16802.674883,-18003.244203
20090.490593,-6957.935855,-27979.784608,-25051.322785
20090.490926,-10362.883188,-36196.070564,-24132.008187
20090.491259,-13323.706956,-33827.411549,-18386.291952
20090.491592,-10214.842000,-31976.896694,-4979.620737
20090.491925,-7772.162391,-16062.468941,3064.381992
20090.492258,-4441.235652,-2442.679609,13483.280765
20090.492591,3552.988522,6735.874072,24208.617737
20090.492925,7846.182985,15914.427753,24668.275036
20090.493258,9178.553681,16728.654289,22829.645840
20090.493591,9474.636058,11843.295072,15551.738609
20090.493924,7105.977043,2960.823768,4060.306139
20090.494257,3330.926739,-4219.173869,-9806.022374
20090.494590,-2146.597232,-18653.189738,-20914.407095
20090.494923,-6143.709319,-27979.784608,-25817.418283
20090.495257,-9696.697840,-35455.864622,-24361.836836
20090.495590,-9844.739029,-37158.338288,-14785.643111
20090.495923,-10584.944971,-26425.352129,-7354.516781
20090.496256,-8290.306550,-16950.716072,3677.258390
20090.496589,296.082377,-5921.647536,17083.929605
20090.496922,7920.203579,8512.368333,23212.693589
20090.497255,9770.718434,16506.592507,28192.314326
20090.497589,13323.706956,19763.498651,22829.645840
20090.497922,12805.562797,11325.150913,14709.033562
20090.498255,9104.533087,1480.411884,2987.772442
20090.498588,6439.791695,-6217.729913,-11721.261119
20090.498921,-666.185348,-18283.086767,-24974.713235
20090.499254,-6365.771101,-29608.237680,-27349.609279
20090.499587,-7772.162391,-39675.038491,-24591.665486
20090.499921,-10732.986159,-34567.617491,-17160.539155
20090.500254,-6587.832884,-28053.805202,-3140.991542
20090.500587,-6069.688724,-15026.180623,7354.516781
20090.500920,1480.411884,-2812.782580,17237.148705
20090.501253,7328.038826,7846.182985,25051.322785
20090.501586,11843.295072,16210.510130,27119.780629
20090.501919,14730.098246,18875.251521,20224.921147
20090.502253,12065.356855,5033.400406,15858.176809
20090.502586,8808.450710,3849.070898,0.000000
20090.502919,3478.967927,-7254.018232,-12257.527968
20090.503252,-3552.988522,-17764.942608,-24132.008187
20090.503585,-9178.553681,-29460.196492,-28268.923876
20090.503918,-12953.603985,-37972.564825,-25894.027832
20090.504251,-12139.377449,-33531.329173,-16394.443657
20090.504585,-11399.171507,-27239.578666,-3677.258390
20090.504918,-8586.388927,-14285.974681,7354.516781
20090.505251,1998.556043,-2368.659014,20761.187996
20090.505584,8808.450710,9770.718434,25740.808733
20090.505917,11843.295072,18875.251521,26966.561530
20090.506250,13323.706956,15914.427753,24515.055936
20090.506583,11399.171507,8808.450710,14479.204912
20090.506917,9400.615463,3256.906145,306.438199
20090.507250,4071.132681,-7179.997637,-13789.718964
20090.507583,-2442.679609,-21317.931130,-25817.418283
20090.507916,-9474.636058,-32198.958477,-28881.800275
20090.508249,-13397.727550,-38342.667796,-27272.999729
20090.508582,-14285.974681,-34271.535115,-19305.606550
20090.508915,-11843.295072,-26425.352129,-2451.505594
20090.509249,-7105.977043,-14211.954086,8886.707777
20090.509582,2886.803174,1628.453072,22599.817191
20090.509915,11621.233289,9918.759623,31792.963167
20090.510248,14952.160028,19467.416275,30950.258119
20090.510581,13841.851115,16580.613101,24438.446386
20090.510914,9474.636058,8438.347739,12947.013916
20090.511247,7550.100608,2368.659014,-3677.258390
20090.511581,-1258.350101,-11473.192101,-18156.463303
20090.511914,-6217.729913,-20207.622217,-29494.676673
20090.512247,-11917.315666,-34345.555709,-30720.429470
20090.512580,-14804.118840,-39156.894332,-26353.685131
20090.512913,-13471.748144,-35233.802839,-13100.233016
20090.513246,-10436.903782,-25833.187376,-1991.848295
20090.513579,-7105.977043,-9548.656652,12257.527968
20090.513913,7476.080014,1184.329507,25664.199183
20090.514246,12435.459826,11769.274478,32252.620466
20090.514579,14211.954086,19467.416275,29418.067123
20090.514912,13693.809927,15322.262999,22293.378992
20090.515245,10584.944971,11991.336260,9806.022374
20090.515578,5921.647536,74.020594,-3447.429741
20090.515911,-74.020594,-14211.954086,-19688.654299
20090.516245,-7920.203579,-21391.951724,-32482.449115
20090.516578,-11843.295072,-35011.741057,-30643.819920
20090.516911,-13101.645173,-39378.956114,-24285.227287
20090.517244,-12361.439231,-34567.617491,-12334.137518
20090.517577,-9326.594869,-25241.022622,1762.019645
20090.517910,-888.247130,-9252.574275,15858.176809
20090.518243,8142.265362,4663.297435,25817.418283
20090.518577,13323.706956,9474.636058,34244.468761
20090.518910,16506.592507,19541.436869,26966.561530
20090.519243,12139.377449,15914.427753,20224.921147
20090.519576,9400.615463,8290.306550,9116.536426
20090.519909,3701.029710,-74.020594,-9039.926876
20090.520242,-2442.679609,-13027.624579,-23442.522239
20090.520575,-8364.327145,-23242.466579,-29877.724422
20090.520909,-11843.295072,-36270.091158,-28805.190725
20090.521242,-13619.789333,-39156.894332,-21450.673944
20090.521575,-10732.986159,-36714.214723,-8044.002729
20090.521908,-8068.244768,-22280.198854,2757.943793
20090.522241,-2220.617826,-7772.162391,17160.539155
20090.522574,8216.285956,1184.329507,27809.266577
20090.522907,8438.347739,14137.933492,28192.314326
20090.523241,14582.057057,17172.777854,26966.561530
20090.523574,11547.212695,14137.933492,19612.044749
20090.523907,8808.450710,10807.006753,4366.744339
20090.524240,3552.988522,-2442.679609,-11644.651570
20090.524573,-2146.597232,-13471.748144,-23825.569988
20090.524906,-6513.812290,-24722.878463,-28651.971625
20090.525239,-11325.150913,-37676.482448,-28192.314326
20090.525573,-12509.480420,-40119.162056,-21220.845295
20090.525906,-11917.315666,-33235.246796,-8580.269578
20090.526239,-6513.812290,-21391.951724,8503.660028
20090.526572,2368.659014,-6291.750507,21986.940793
20090.526905,9400.615463,3552.988522,25510.980083
20090.527238,12361.439231,13027.624579,30567.210370
20090.527571,12879.583391,19837.519246,25664.199183
20090.527905,9548.656652,13619.789333,16394.443657
20090.528238,6069.688724,9474.636058,383.047749
20090.528571,0.000000,-3034.844362,-13483.280765
20090.528904,-2442.679609,-13545.768739,-25740.808733
20090.529237,-7031.956449,-28127.825796,-28268.923876
20090.529570,-11029.068536,-38638.750172,-26966.561530
20090.529903,-10881.027347,-36344.111752,-18079.853753
20090.530237,-8290.306550,-30792.567187,-3140.991542
20090.530570,-4145.153275,-17838.963202,10725.336972
20090.530903,2368.659014,-5255.462188,18922.558801
20090.531236,9844.739029,3552.988522,25664.199183
20090.531569,13323.706956,14434.015869,29418.067123
20090.531902,12953.603985,20651.745782,20837.797546
20090.532235,12953.603985,9474.636058,15551.738609
20090.532569,5847.626942,6883.915261,-2757.943793
20090.532902,3256.906145,-7105.977043,-12257.527968
20090.533235,-666.185348,-13915.871710,-23595.741338
20090.533568,-5625.565159,-29904.320057,-26736.732880
20090.533901,-10362.883188,-37972.564825,-23595.741338
20090.534234,-9548.656652,-35455.864622,-15015.471761
20090.534567,-7179.997637,-29016.072926,-3140.991542
20090.534901,-5921.647536,-15470.304188,9806.022374
20090.535234,3478.967927,-4145.153275,16777.491406
20090.535567,7698.141797,8216.285956,24515.055936
20090.535900,12213.398043,15396.283594,26277.075581
20090.536233,12953.603985,14211.954086,21986.940793
20090.536566,8142.265362,9178.553681,10572.117872
20090.536899,6587.832884,4515.256246,-1455.581446
20090.537233,2072.576638,-7254.018232,-12180.918418
20090.537566,-2738.761985,-17024.736666,-23059.474490
20090.537899,-6957.935855,-31754.834912,-23365.912689
20090.538232,-9548.656652,-35603.905810,-23289.303139
20090.538565,-9474.636058,-32050.917289,-13483.280765
20090.538898,-8586.388927,-28942.052332,-76.609550
20090.539231,-4811.338623,-17468.860231,7890.783629
20090.539565,518.144159,-4737.318029,18309.682402
20090.539898,6143.709319,9400.615463,23748.960438
20090.540231,9252.574275,17320.819043,25127.932334
20090.540564,7846.182985,15766.386565,19688.654299
20090.540897,5921.647536,9104.533087,11568.042020
20090.541230,3997.112087,4515.256246,-536.266849
20090.541563,2368.659014,-6143.709319,-11874.480219
20090.541897,-3997.112087,-18431.127956,-22063.550342
20090.542230,-8512.368333,-30348.443622,-26430.294681
20090.542563,-10955.047942,-37602.461854,-20914.407095
20090.542896,-7772.162391,-36714.214723,-11108.384721
20090.543229,-11251.130318,-26129.269753,-1838.629195
20090.543562,-6809.894666,-15692.365970,9729.412825
20090.543895,1702.473667,-1776.494261,16471.053207
20090.544229,5625.565159,10288.862594,24515.055936
20090.544562,9474.636058,16802.674883,25357.760984
20090.544895,8290.306550,16802.674883,20071.702048
20090.545228,4737.318029,10584.944971,10418.898773
20090.545561,5329.482782,2812.782580,-76.609550
20090.545894,814.226536,-8364.327145,-15321.909960
20090.546227,-5699.585753,-19023.292709,-24515.055936
20090.546560,-8290.306550,-31976.896694,-25510.980083
20090.546894,-7476.080014,-35307.823433,-22676.426741
20090.547227,-8512.368333,-34197.514520,-12334.137518
20090.547560,-7772.162391,-26129.269753,-2451.505594
20090.547893,-4737.318029,-14285.974681,7967.393179
20090.548226,3108.864956,-1110.308913,19305.606550
20090.548559,9770.718434,6883.915261,29341.457573
20090.548892,11473.192101,17838.963202,22982.864940
20090.549226,10955.047942,14730.098246,22063.550342
20090.549559,11547.212695,9474.636058,12180.918418
20090.549892,9474.636058,3182.885551,612.876398
20090.550225,4959.379811,-9474.636058,-12563.966167
20090.550558,-1702.473667,-21465.972318,-23595.741338
20090.550891,-6439.791695,-31162.670158,-27272.999729
20090.551224,-9548.656652,-37602.461854,-22753.036291
20090.551558,-8734.430116,-34937.720462,-13559.890315
20090.551891,-8142.265362,-22576.281231,-2451.505594
20090.552224,-3256.906145,-12509.480420,10342.289223
20090.552557,5847.626942,0.000000,21374.064394
20090.552890,10584.944971,8438.347739,26583.513781
20090.553223,10658.965565,16950.716072,25740.808733
20090.553556,9918.759623,16506.592507,19612.044749
20090.553890,10584.944971,8956.491898,10878.556072
20090.554223,4885.359217,-74.020594,-1225.752797
20090.554556,3478.967927,-9770.718434,-15934.786358
20090.554889,-2368.659014,-21391.951724,-24515.055936
20090.555222,-7105.977043,-33161.226202,-25204.541884
20090.555555,-10140.821405,-37084.317694,-23059.474490
20090.555888,-11325.150913,-34123.493926,-12334.137518
20090.556222,-10510.924376,-23908.651927,-2911.162892
20090.556555,-8438.347739,-12435.459826,7737.564530
20090.556888,2294.638420,444.123565,19152.387450
20090.557221,5921.647536,12953.603985,25127.932334
20090.557554,11769.274478,18209.066173,27426.218828
20090.557887,11251.130318,15840.407159,22063.550342
20090.558220,8142.265362,6957.935855,12104.308868
20090.558554,8068.244768,888.247130,-1455.581446
20090.558887,2294.638420,-10362.883188,-14479.204912
20090.559220,-1628.453072,-23316.487173,-22140.159892
20090.559553,-9548.656652,-32643.082042,-29418.067123
20090.559886,-13619.789333,-39452.976709,-25127.932334
20090.560219,-13323.706956,-33309.267390,-14249.376263
20090.560552,-12657.521608,-23760.610738,-2451.505594
20090.560886,-5995.668130,-11251.130318,9652.803275
20090.561219,1480.411884,2886.803174,21374.064394
20090.561552,8808.450710,12583.501014,28728.581175
20090.561885,11843.295072,18875.251521,29418.067123
20090.562218,14730.098246,18653.189738,21374.064394
20090.562551,9400.615463,9400.615463,9806.022374
20090.562884,6365.771101,-2146.597232,-3140.991542
20090.563218,-74.020594,-12731.542202,-19688.654299
20090.563551,-7105.977043,-23982.672521,-28268.923876
20090.563884,-10066.800811,-33901.432144,-30413.991271
20090.564217,-13027.624579,-38860.811955,-22446.598091
20090.564550,-13249.686362,-32643.082042,-13176.842566
20090.564883,-9400.615463,-24204.734303,2068.457845
20090.565216,-4219.173869,-9252.574275,9806.022374
20090.565550,5329.482782,4663.297435,22063.550342
20090.565883,13027.624579,11103.089130,33938.030561
20090.566216,15322.262999,23612.569550,26966.561530
20090.566549,14137.933492,13027.624579,23059.474490
20090.566882,9770.718434,7179.997637,9652.803275
20090.567215,6365.771101,-370.102971,-5209.449386
20090.567548,-666.185348,-13175.665768,-20454.749797
20090.567882,-4811.338623,-24278.754898,-29494.676673
20090.568215,-11473.192101,-35603.905810,-31869.572717
20090.568548,-12731.542202,-39156.894332,-22446.598091
20090.568881,-12435.459826,-32791.123231,-8656.879127
20090.569214,-8364.327145,-21169.889941,459.657299
20090.569547,-814.226536,-8734.430116,15245.300410
20090.569880,9474.636058,5551.544565,26966.561530
20090.570214,13767.830521,13841.851115,32712.277765
20090.570547,16136.489536,18653.189738,29035.019374
20090.570880,15322.262999,11843.295072,22599.817191
20090.571213,9326.594869,8808.450710,7431.126331
20090.571546,5921.647536,-1258.350101,-7660.954980
20090.571879,-1850.514855,-14508.036463,-22753.036291
20090.572212,-9474.636058,-24500.816680,-32942.106414
20090.572546,-13027.624579,-37676.482448,-29494.676673
20090.572879,-14285.974681,-39378.956114,-22906.255390
20090.573212,-11917.315666,-32865.143825,-10495.508323
20090.573545,-10955.047942,-22280.198854,4749.792088
20090.573878,-1480.411884,-3997.112087,16777.491406
20090.574211,7772.162391,4737.318029,29341.457573
20090.574544,12583.501014,15322.262999,30950.258119
20090.574878,14952.160028,18949.272115,29264.848024
20090.575211,12213.398043,10214.842000,21450.673944
20090.575544,9400.615463,8142.265362,6665.030833
20090.575877,2294.638420,-2294.638420,-11951.089769
20090.576210,-2368.659014,-13989.892304,-26966.561530
20090.576543,-7994.224174,-28423.908173,-29801.114872
20090.576876,-13027.624579,-38712.770767,-29418.067123
20090.577210,-13101.645173,-38860.811955,-19841.873398
20090.577543,-12361.439231,-32939.164419,-6741.640382
20090.577876,-8290.306550,-19467.416275,6741.640382
20090.578209,1110.308913,-4737.318029,19535.435199
20090.578542,10955.047942,5329.482782,30567.210370
20090.578875,10584.944971,18875.251521,29418.067123
20090.579208,14211.954086,18579.169144,28115.704777
20090.579541,14137.933492,11843.295072,18922.558801
20090.579875,7031.956449,7846.182985,842.705048
20090.580208,518.144159,-5551.544565,-15321.909960
20090.580541,-5699.585753,-15618.345376,-27656.047478
20090.580874,-8882.471304,-27091.537477,-31486.524968
20090.581207,-13027.624579,-38564.729578,-26966.561530
20090.581540,-8660.409521,-37898.544230,-17237.148705
20090.581873,-9474.636058,-30866.587781,-4903.011187
20090.582207,-4737.318029,-18949.272115,12180.918418
20090.582540,4367.215058,-1406.391290,20224.921147
20090.582873,9474.636058,7031.956449,26966.561530
20090.583206,13767.830521,17616.901420,28881.800275
20090.583539,14952.160028,18653.189738,25510.980083
20090.583872,10362.883188,12139.377449,14938.862211
20090.584205,7698.141797,6809.894666,-919.314598
20090.584539,1702.473667,-5773.606348,-18079.853753
20090.584872,-2960.823768,-16580.613101,-25204.541884
20090.585205,-5403.503377,-33161.226202,-27656.047478
20090.585538,-13323.706956,-38268.647201,-25740.808733
20090.585871,-11251.130318,-36936.276506,-13559.890315
20090.586204,-8734.430116,-29386.175897,0.000000
20090.586537,-2072.576638,-14359.995275,12410.747068
20090.586871,4293.194464,-2072.576638,21374.064394
20090.587204,10955.047942,5995.668130,28192.314326
20090.587537,12805.562797,18579.169144,26047.246932
20090.587870,14137.933492,18357.107362,21527.283494
20090.588203,7254.018232,12065.356855,10572.117872
20090.588536,4515.256246,3478.967927,-5362.668486
20090.588869,0.000000,-9252.574275,-16394.443657
20090.589203,-3034.844362,-17764.942608,-25510.980083
20090.589536,-5995.668130,-31680.814318,-29418.067123
20090.589869,-11251.130318,-40637.306216,-20454.749797
20090.590202,-8512.368333,-37306.379477,-11721.261119
20090.590535,-8882.471304,-26425.352129,2451.505594
20090.590868,-4589.276840,-13693.809927,11721.261119
20090.591201,1332.370696,-2294.638420,20301.530697
20090.591535,7698.141797,8808.450710,27426.218828
20090.591868,12065.356855,17764.942608,28115.704777
20090.592201,9400.615463,18949.272115,19612.044749
20090.592534,3552.988522,12065.356855,7967.393179
20090.592867,3552.988522,1776.494261,-3140.991542
20090.593200,-1406.391290,-7476.080014,-15781.567259
20090.593533,-5921.647536,-19689.478057,-24744.884585
20090.593867,-10436.903782,-34123.493926,-27579.437928
20090.594200,-13175.665768,-40341.223839,-22599.817191
20090.594533,-9844.739029,-35085.761651,-11414.822920
20090.594866,-7179.997637,-26055.249158,2068.457845
20090.595199,-2442.679609,-10732.986159,7660.954980
20090.595532,3552.988522,-666.185348,23059.474490
20090.595865,10066.800811,10584.944971,30567.210370
20090.596199,12361.439231,19985.560434,24821.494135
20090.596532,11177.109724,15692.365970,18616.120601
20090.596865,5773.606348,11177.109724,7124.688131
20090.597198,3256.906145,1406.391290,-4903.011187
20090.597531,296.082377,-9844.739029,-17620.196454
20090.597864,-5329.482782,-21391.951724,-26123.856482
20090.598197,-9474.636058,-35603.905810,-28192.314326
20090.598531,-9474.636058,-38342.667796,-19688.654299
20090.598864,-5995.668130,-33457.308578,-9729.412825
20090.599197,-5995.668130,-24870.919651,306.438199
20090.599530,-1554.432478,-12879.583391,10801.946522
20090.599863,4737.318029,1406.391290,20991.016645
20090.600196,10658.965565,11991.336260,26430.294681
20090.600529,13249.686362,18653.189738,25970.637382
20090.600863,8882.471304,15618.345376,15628.348159
20090.601196,5921.647536,8216.285956,7660.954980
20090.601529,6217.729913,1110.308913,-3983.696590
20090.601862,3701.029710,-11695.253884,-15398.519510
20090.602195,-2368.659014,-24870.919651,-21833.721693
20090.602528,-4811.338623,-37306.379477,-25204.541884
20090.602861,-9252.574275,-36788.235317,-19612.044749
20090.603195,-7328.038826,-34197.514520,-7431.126331
20090.603528,-5403.503377,-23686.590144,1149.143247
20090.603861,-2368.659014,-11399.171507,13483.280765
20090.604194,5255.462188,2368.659014,20454.749797
20090.604527,9252.574275,13323.706956,25970.637382
20090.604860,10807.006753,18431.127956,23289.303139
20090.605193,9400.615463,14211.954086,17083.929605
20090.605527,5329.482782,9400.615463,7967.393179
20090.605860,3478.967927,-74.020594,-6741.640382
20090.606193,-74.020594,-15988.448347,-16624.272307
20090.606526,-3627.009116,-26055.249158,-24898.103685
20090.606859,-8364.327145,-34049.473332,-24591.665486
20090.607192,-7772.162391,-37454.420665,-17850.025103
20090.607525,-9696.697840,-32569.061448,-9269.755526
20090.607859,-9400.615463,-22206.178260,383.047749
20090.608192,-4959.379811,-10066.800811,10572.117872
20090.608525,3478.967927,1776.494261,21986.940793
20090.608858,7105.977043,12361.439231,24515.055936
20090.609191,10066.800811,16802.674883,26889.951980
20090.609524,8512.368333,16210.510130,18386.291952
20090.609857,7105.977043,9400.615463,8886.707777
20090.610190,6143.709319,-2072.576638,-3907.087040
20090.610524,1406.391290,-13915.871710,-15551.738609
20090.610857,-5329.482782,-25981.228564,-24974.713235
20090.611190,-9770.718434,-34937.720462,-25587.589633
20090.611523,-11029.068536,-37898.544230,-20914.407095
20090.611856,-11843.295072,-32791.123231,-8044.002729
20090.612189,-7476.080014,-22132.157666,2987.772442
20090.612522,-4811.338623,-6957.935855,9806.022374
20090.612856,2516.700203,4071.132681,20837.797546
20090.613189,8290.306550,15026.180623,26047.246932
20090.613522,11325.150913,19467.416275,25970.637382
20090.613855,12435.459826,14878.139434,20301.530697
20090.614188,9770.718434,6809.894666,9039.926876
20090.614521,5329.482782,-2146.597232,-7048.078582
20090.614854,1776.494261,-17764.942608,-17237.148705
20090.615188,-3923.091493,-26055.249158,-28192.314326
20090.615521,-9844.739029,-34419.576303,-29418.067123
20090.615854,-11251.130318,-38416.688390,-21144.235745
20090.616187,-10658.965565,-30570.505405,-10418.898773
20090.616520,-7846.182985,-19763.498651,612.876398
20090.616853,-2368.659014,-7846.182985,13636.499864
20090.617186,5995.668130,6143.709319,22599.817191
20090.617520,10584.944971,16506.592507,27885.876127
20090.617853,14285.974681,20429.683999,27426.218828
20090.618186,14063.912898,14804.118840,19688.654299
20090.618519,9104.533087,4071.132681,8810.098227
20090.618852,8216.285956,-4737.318029,-5286.058936
20090.619185,1998.556043,-14730.098246,-20454.749797
20090.619518,-6513.812290,-26129.269753,-29418.067123
20090.619852,-9030.512492,-37898.544230,-27656.047478
20090.620185,-13693.809927,-39082.873738,-22063.550342
20090.620518,-13619.789333,-29682.258274,-10418.898773
20090.620851,-9474.636058,-18727.210333,1532.190996
20090.621184,-2664.741391,-6143.709319,14479.204912
20090.621517,6217.729913,7846.182985,25664.199183
20090.621850,11769.274478,16580.613101,29954.333972
20090.622184,16506.592507,21910.095883,25434.370534
20090.622517,12435.459826,11769.274478,21680.502593
20090.622850,9400.615463,4737.318029,6052.154434
20090.623183,4959.379811,-4219.173869,-8733.488677
20090.623516,-1258.350101,-18357.107362,-21527.283494
20090.623849,-8290.306550,-28201.846390,-30490.600820
20090.624182,-13841.851115,-39823.079680,-30413.991271
20090.624516,-13841.851115,-37898.544230,-21374.064394
20090.624849,-15840.407159,-29978.340651,-9806.022374
20090.625182,-9548.656652,-17838.963202,0.000000
20090.625515,-1924.535449,-5921.647536,18922.558801
20090.625848,8216.285956,8882.471304,27809.266577
20090.626181,12361.439231,18283.086767,31256.696318
20090.626514,14211.954086,21095.869347,27809.266577
20090.626848,11177.109724,11473.192101,19535.435199
20090.627181,7994.224174,5699.585753,3677.258390
20090.627514,4293.194464,-4885.359217,-11108.384721
20090.627847,-2664.741391,-19393.395680,-24515.055936
20090.628180,-10362.883188,-28794.011144,-32176.010916
20090.628513,-14211.954086,-40267.203245,-27349.609279
20090.628846,-11917.315666,-37898.544230,-19995.092498
20090.629180,-13027.624579,-29016.072926,-6435.202183
20090.629513,-8882.471304,-17246.798449,6435.202183
20090.629846,1110.308913,-1776.494261,19228.997000
20090.630179,10140.821405,7994.224174,29877.724422
20090.630512,14211.954086,20059.581028,31563.134518
20090.630845,15322.262999,19541.436869,26583.513781
20090.631178,11843.295072,9992.780217,18003.244203
20090.631512,8216.285956,7476.080014,-1225.752797
20090.631845,0.000000,-7772.162391,-14709.033562
20090.632178,-2960.823768,-18949.272115,-27656.047478
20090.632511,-9992.780217,-31310.711347,-34014.640111
20090.632844,-10732.986159,-40489.265027,-27349.609279
20090.633177,-11251.130318,-36788.235317,-17007.320056
20090.633510,-9548.656652,-29534.217086,-3064.381992
20090.633844,-4811.338623,-15988.448347,9729.412825
20090.634177,4293.194464,-592.164754,24361.836836
20090.634510,14508.036463,9474.636058,32405.839565
20090.634843,14137.933492,17468.860231,31486.524968
20090.635176,15618.345376,18431.127956,24898.103685
20090.635509,11769.274478,9474.636058,15245.300410
20090.635842,7105.977043,5255.462188,-3677.258390
20090.636176,592.164754,-9844.739029,-15092.081311
20090.636509,-5403.503377,-19467.416275,-29647.895773
20090.636842,-11251.130318,-32050.917289,-31869.572717
20090.637175,-12805.562797,-42339.779882,-25817.418283
20090.637508,-11843.295072,-35751.946999,-15475.129060
20090.637841,-10807.006753,-28423.908173,-1072.533697
20090.638174,-2886.803174,-11769.274478,12334.137518
20090.638508,5847.626942,2812.782580,23442.522239
20090.638841,11843.295072,7772.162391,32252.620466
20090.639174,15914.427753,15396.283594,29341.457573
20090.639507,13545.768739,18505.148550,21527.283494
20090.639840,9474.636058,11029.068536,13483.280765
20090.640173,5847.626942,3404.947333,-6358.592633
20090.640506,-1776.494261,-13027.624579,-19841.873398
20090.640839,-7328.038826,-20873.807564,-29571.286223
20090.641173,-9548.656652,-35233.802839,-31103.477219
20090.641506,-13619.789333,-40341.223839,-23902.179538
20090.641839,-11843.295072,-36714.214723,-9882.631924
20090.642172,-8438.347739,-26055.249158,2374.896044
20090.642505,-2738.761985,-11251.130318,13406.671215
20090.642838,5255.462188,1776.494261,24438.446386
20090.643171,9474.636058,11177.109724,31256.696318
20090.643505,13693.809927,19985.560434,28881.800275
20090.643838,11251.130318,17690.922014,21450.673944
20090.644171,6809.894666,11621.233289,7737.564530
20090.644504,4145.153275,592.164754,-6128.763984
20090.644837,-666.185348,-15396.283594,-19688.654299
20090.645170,-5995.668130,-20799.786970,-29418.067123
20090.645503,-10658.965565,-36492.152941,-31256.696318
20090.645837,-11917.315666,-44856.480085,-20914.407095
20090.646170,-12731.542202,-34419.576303,-11031.775171
20090.646503,-6291.750507,-23686.590144,4060.306139
20090.646836,148.041188,-7920.203579,16700.881856
20090.647169,7328.038826,3256.906145,24208.617737
20090.647502,11843.295072,10881.027347,29418.067123
20090.647835,14137.933492,20503.704593,27272.999729
20090.648169,10881.027347,15988.448347,18692.730151
20090.648502,6439.791695,10288.862594,4519.963438
20090.648835,2294.638420,-1776.494261,-10495.508323
20090.649168,-3256.906145,-11917.315666,-22676.426741
20090.649501,-6809.894666,-24204.734303,-28728.581175
20090.649834,-10140.821405,-40267.203245,-28575.362075
20090.650167,-11029.068536,-39156.894332,-20684.578446
20090.650501,-7179.997637,-33161.226202,-5592.497135
20090.650834,-6365.771101,-20873.807564,5669.106685
20090.651167,-444.123565,-7179.997637,15245.300410
20090.651500,6735.874072,2220.617826,23902.179538
20090.651834,9474.636058,14137.933492,28498.752526
20090.652167,14137.933492,21243.910535,22676.426741
20090.652500,10066.800811,10955.047942,19535.435199
20090.652833,5551.544565,10066.800811,1455.581446
20090.653167,2886.803174,-1850.514855,-9806.022374
20090.653500,592.164754,-10732.986159,-20454.749797
20090.653833,-5255.462188,-26943.496289,-27043.171079
20090.654166,-10658.965565,-39452.976709,-25510.980083
20090.654499,-10288.862594,-38342.667796,-18692.730151
20090.654833,-8586.388927,-33161.226202,-4979.620737
20090.655166,-5699.585753,-17320.819043,3677.258390
20090.655499,-74.020594,-9474.636058,17083.929605
20090.655832,7920.203579,6587.832884,22982.864940
20090.656166,11399.171507,14508.036463,29418.067123
20090.656499,11843.295072,19245.354492,25127.932334
20090.656832,7772.162391,12805.562797,14938.862211
20090.657165,3552.988522,7105.977043,2528.115143
20090.657498,592.164754,-3923.091493,-10495.508323
20090.657832,-2442.679609,-16580.613101,-22140.159892
20090.658165,-10658.965565,-27313.599260,-28192.314326
20090.658498,-8956.491898,-37898.544230,-25970.637382
20090.658831,-7476.080014,-35825.967593,-16547.662757
20090.659165,-7105.977043,-29238.134709,-1762.019645
20090.659498,-3627.009116,-20133.601622,6665.030833
20090.659831,-74.020594,-6513.812290,15858.176809
20090.660164,5329.482782,5403.503377,22216.769442
20090.660498,9844.739029,16210.510130,25740.808733
20090.660831,9696.697840,16950.716072,22140.159892
20090.661164,9030.512492,9696.697840,16777.491406
20090.661497,5551.544565,9400.615463,2451.505594
20090.661830,6291.750507,-5921.647536,-6435.202183
20090.662164,4071.132681,-17172.777854,-19688.654299
20090.662497,-3627.009116,-29756.278868,-25204.541884
20090.662830,-8142.265362,-37898.544230,-23978.789087
20090.663163,-10066.800811,-35603.905810,-16241.224558
20090.663497,-8808.450710,-29904.320057,-6205.373534
20090.663830,-5477.523971,-17246.798449,4826.401637
20090.664163,-148.041188,-4737.318029,16164.615008
