#time,accel_x,accel_y,accel_z
22385.616130,5551.544565,-10658.965565,-2374.896044
22385.616463,6661.853478,-9844.739029,2221.676944
22385.616797,8586.388927,-8512.368333,3677.258390
22385.617130,10510.924376,-8956.491898,4290.134789
22385.617464,12953.603985,-9178.553681,6052.154434
22385.617797,10658.965565,-7772.162391,3677.258390
22385.618131,11843.295072,-9178.553681,3600.648841
22385.618464,9400.615463,-7772.162391,-2145.067394
22385.618798,7105.977043,-7476.080014,-3370.820191
22385.619131,6883.915261,-9474.636058,-4903.011187
22385.619465,6957.935855,-10362.883188,-4060.306139
22385.619798,4737.318029,-11103.089130,-3524.039291
22385.620132,4589.276840,-11473.192101,-2451.505594
22385.620465,3849.070898,-10288.862594,0.000000
22385.620798,4737.318029,-10436.903782,4826.401637
22385.621132,8216.285956,-11843.295072,6665.030833
22385.621465,6883.915261,-5403.503377,5515.887586
22385.621799,10584.944971,-6809.894666,9422.974625
22385.622132,8586.388927,-4515.256246,6281.983084
22385.622466,8734.430116,-6365.771101,2374.896044
22385.622799,5921.647536,-7031.956449,-2145.067394
22385.623133,5403.503377,-8882.471304,-4979.620737
22385.623466,5033.400406,-8956.491898,-6128.763984
22385.623800,7031.956449,-13027.624579,-6205.373534
22385.624133,5255.462188,-11325.150913,-6741.640382
22385.624467,4737.318029,-11917.315666,-1225.752797
22385.624800,12361.439231,-13027.624579,3294.210641
22385.625134,9622.677246,-10436.903782,3830.477490
22385.625467,11177.109724,-10214.842000,5132.839837
22385.625801,11843.295072,-7550.100608,6665.030833
22385.626134,12657.521608,-5033.400406,6281.983084
22385.626468,10658.965565,-4811.338623,6128.763984
22385.626801,10584.944971,-5625.565159,2068.457845
22385.627135,7179.997637,-8290.306550,-1838.629195
22385.627468,4441.235652,-9326.594869,-4826.401637
22385.627802,2294.638420,-11251.130318,-7507.735880
22385.628135,2294.638420,-10214.842000,-6741.640382
22385.628468,4737.318029,-13027.624579,-76.609550
22385.628802,9400.615463,-9474.636058,-76.609550
22385.629135,10066.800811,-7920.203579,3370.820191
22385.629469,13989.892304,-8586.388927,8503.660028
22385.629802,12583.501014,-6069.688724,5209.449386
22385.630136,12361.439231,-7254.018232,2451.505594
22385.630469,11325.150913,-8364.327145,-76.609550
22385.630803,8290.306550,-6587.832884,-4903.011187
22385.631136,7476.080014,-7179.997637,-4903.011187
22385.631470,8660.409521,-11843.295072,-3140.991542
22385.631803,5551.544565,-13027.624579,-3753.867940
22385.632137,6809.894666,-9548.656652,-1225.752797
22385.632470,11843.295072,-9474.636058,4826.401637
22385.632804,15100.201217,-5107.421000,6971.469032
22385.633137,16284.530724,-5551.544565,5592.497135
22385.633471,15248.242405,-8882.471304,4519.963438
22385.633804,15100.201217,-8068.244768,2451.505594
22385.634138,10955.047942,-8956.491898,0.000000
22385.634471,11177.109724,-13027.624579,-4060.306139
22385.634805,4663.297435,-10732.986159,-8273.831378
22385.635138,2368.659014,-11325.150913,-4136.915689
22385.635471,9474.636058,-7772.162391,-2451.505594
22385.635805,11473.192101,-8290.306550,842.705048
22385.636138,12657.521608,-8586.388927,3294.210641
22385.636472,13101.645173,-9252.574275,5745.716235
22385.636805,13841.851115,-9474.636058,6052.154434
22385.637139,11843.295072,-9252.574275,7201.297681
22385.637472,15322.262999,-8290.306550,3294.210641
22385.637806,12509.480420,-6291.750507,1838.629195
22385.638139,13545.768739,-8290.306550,-612.876398
22385.638473,10584.944971,-11251.130318,-3140.991542
22385.638806,4145.153275,-11917.315666,-6128.763984
22385.639140,3701.029710,-12509.480420,-4749.792088
22385.639473,4959.379811,-9030.512492,-2451.505594
22385.639807,7698.141797,-6587.832884,0.000000
22385.640140,10584.944971,-10658.965565,1762.019645
22385.640474,10214.842000,-4959.379811,3677.258390
22385.640807,9770.718434,-8364.327145,7967.393179
22385.641141,16506.592507,-9474.636058,8197.221829
22385.641474,14137.933492,-7105.977043,4826.401637
22385.641808,14063.912898,-5033.400406,1455.581446
22385.642141,9474.636058,-8142.265362,-3677.258390
22385.642475,7624.121203,-8586.388927,-6818.249932
22385.642808,3849.070898,-12509.480420,-6741.640382
22385.643141,5551.544565,-11843.295072,-4903.011187
22385.643475,8586.388927,-7772.162391,-995.924147
22385.643808,7698.141797,-10436.903782,0.000000
22385.644142,9992.780217,-7994.224174,766.095498
22385.644475,7994.224174,-9548.656652,2604.724693
22385.644809,14285.974681,-9474.636058,9729.412825
22385.645142,14730.098246,-6513.812290,3907.087040
22385.645476,11843.295072,-8364.327145,6665.030833
22385.645809,10584.944971,-9474.636058,-76.609550
22385.646143,7105.977043,-11029.068536,-3677.258390
22385.646476,8734.430116,-10066.800811,-1915.238745
22385.646810,10732.986159,-7624.121203,-1378.971896
22385.647143,8586.388927,-8512.368333,153.219100
22385.647477,4885.359217,-8512.368333,0.000000
22385.647810,9400.615463,-11843.295072,-2528.115143
22385.648144,6217.729913,-7920.203579,-2834.553343
22385.648477,11843.295072,-7772.162391,4290.134789
22385.648811,11769.274478,-7105.977043,1149.143247
22385.649144,9770.718434,-8956.491898,4979.620737
22385.649478,10140.821405,-8956.491898,842.705048
22385.649811,11473.192101,-9844.739029,3140.991542
22385.650144,11547.212695,-6365.771101,1838.629195
22385.650478,11769.274478,-8882.471304,-76.609550
22385.650811,11769.274478,-10658.965565,-2528.115143
22385.651145,7105.977043,-9548.656652,306.438199
22385.651478,10658.965565,-11029.068536,2987.772442
22385.651812,10584.944971,-5921.647536,-1991.848295
22385.652145,7624.121203,-10510.924376,-1915.238745
22385.652479,9622.677246,-7476.080014,-3140.991542
22385.652812,10066.800811,-11177.109724,1532.190996
22385.653146,13323.706956,-8882.471304,1762.019645
22385.653479,12361.439231,-11695.253884,2221.676944
22385.653813,11843.295072,-7772.162391,153.219100
22385.654146,10658.965565,-10436.903782,6741.640382
22385.654480,14137.933492,-5329.482782,2374.896044
22385.654813,12953.603985,-10066.800811,0.000000
22385.655147,10807.006753,-10658.965565,-76.609550
22385.655480,7994.224174,-7920.203579,-995.924147
22385.655814,5995.668130,-7328.038826,-5362.668486
22385.656147,4737.318029,-13619.789333,-2834.553343
22385.656481,6661.853478,-9252.574275,-2221.676944
22385.656814,7105.977043,-11325.150913,3217.601092
22385.657147,10362.883188,-4663.297435,1762.019645
22385.657481,7254.018232,-11917.315666,3370.820191
22385.657814,10658.965565,-7994.224174,6128.763984
22385.658148,7698.141797,-7772.162391,4903.011187
22385.658481,7624.121203,-9474.636058,689.485948
22385.658815,5033.400406,-5995.668130,-2298.286494
22385.659148,-1184.329507,-12509.480420,-612.876398
22385.659482,2664.741391,-3997.112087,-4213.525239
22385.659815,1184.329507,-11325.150913,-4826.401637
22385.660149,3256.906145,-9326.594869,-229.828649
22385.660482,5255.462188,-8882.471304,2068.457845
22385.660816,1998.556043,-10658.965565,1762.019645
22385.661149,5329.482782,-4811.338623,2604.724693
22385.661483,3478.967927,-7550.100608,0.000000
22385.661816,9474.636058,-7772.162391,5822.325785
22385.662150,6439.791695,-11843.295072,4519.963438
22385.662483,4663.297435,-9474.636058,995.924147
22385.662817,518.144159,-12287.418637,-3447.429741
22385.663150,1480.411884,-8734.430116,-2068.457845
22385.663484,1110.308913,-9252.574275,-2604.724693
22385.663817,2368.659014,-9030.512492,-1608.800546
22385.664151,3182.885551,-8290.306550,-689.485948
22385.664484,592.164754,-5403.503377,-3677.258390
22385.664817,5921.647536,-7772.162391,4519.963438
22385.665151,7624.121203,-9178.553681,3907.087040
22385.665484,6513.812290,-6587.832884,306.438199
22385.665818,8808.450710,-10214.842000,766.095498
22385.666151,2812.782580,-12213.398043,995.924147
22385.666485,8734.430116,-7328.038826,3983.696590
22385.666818,4589.276840,-13767.830521,2374.896044
22385.667152,6143.709319,-7698.141797,-689.485948
22385.667485,-2368.659014,-10732.986159,-919.314598
22385.667819,1702.473667,-11843.295072,-689.485948
22385.668152,-1258.350101,-6513.812290,-4443.353888
22385.668486,-2072.576638,-7920.203579,-2451.505594
22385.668819,666.185348,-7179.997637,2145.067394
22385.669153,3330.926739,-7105.977043,1915.238745
22385.669486,5033.400406,-7328.038826,3294.210641
22385.669820,4515.256246,-7624.121203,3830.477490
22385.670153,1776.494261,-7179.997637,0.000000
22385.670487,2072.576638,-13027.624579,3600.648841
22385.670820,2294.638420,-8956.491898,-4366.744339
22385.671154,-74.020594,-8660.409521,-4290.134789
22385.671487,-888.247130,-11325.150913,-919.314598
22385.671820,814.226536,-9548.656652,-3064.381992
22385.672154,2294.638420,-8216.285956,1455.581446
22385.672487,592.164754,-10881.027347,-612.876398
22385.672821,5181.441594,-7624.121203,6205.373534
22385.673154,2516.700203,-6143.709319,3064.381992
22385.673488,2368.659014,-10658.965565,4290.134789
22385.673821,4441.235652,-5921.647536,2987.772442
22385.674155,1628.453072,-7624.121203,1685.410096
22385.674488,4071.132681,-11843.295072,1762.019645
22385.674822,518.144159,-6661.853478,0.000000
22385.675155,-3256.906145,-13249.686362,-76.609550
22385.675489,-1554.432478,-6809.894666,-7431.126331
22385.675822,-4145.153275,-11769.274478,-3524.039291
22385.676156,-1036.288319,-8364.327145,-76.609550
22385.676489,-2516.700203,-9548.656652,0.000000
22385.676823,0.000000,-7476.080014,-383.047749
22385.677156,2368.659014,-10732.986159,5362.668486
22385.677490,-1998.556043,-5995.668130,76.609550
22385.677823,4071.132681,-10140.821405,0.000000
22385.678157,4145.153275,-8290.306550,8503.660028
22385.678490,2886.803174,-4737.318029,1149.143247
22385.678824,-2072.576638,-7772.162391,1532.190996
22385.679157,-5107.421000,-13027.624579,-2528.115143
22385.679490,-3330.926739,-10288.862594,-4979.620737
22385.679824,-1554.432478,-9252.574275,0.000000
22385.680157,-4071.132681,-8512.368333,-4596.572988
22385.680491,-5329.482782,-10584.944971,-2298.286494
22385.680824,-7624.121203,-8364.327145,-3677.258390
22385.681158,2886.803174,-9474.636058,-76.609550
22385.681491,1702.473667,-6883.915261,6435.202183
22385.681825,1184.329507,-6291.750507,7354.516781
22385.682158,5329.482782,-5995.668130,1532.190996
22385.682492,-74.020594,-13471.748144,4366.744339
22385.682825,3108.864956,-7254.018232,-842.705048
22385.683159,0.000000,-11917.315666,-689.485948
22385.683492,4071.132681,-10658.965565,-689.485948
22385.683826,-1776.494261,-7772.162391,-2451.505594
22385.684159,-3034.844362,-14211.954086,-4979.620737
22385.684493,-1258.350101,-12139.377449,-2834.553343
22385.684826,-1776.494261,-11917.315666,2451.505594
22385.685160,4663.297435,-7698.141797,5439.278036
22385.685493,4811.338623,-3775.050304,6818.249932
22385.685827,2664.741391,-6957.935855,5209.449386
22385.686160,5551.544565,-3701.029710,3524.039291
22385.686493,-2368.659014,-5995.668130,-1225.752797
22385.686827,4071.132681,-11843.295072,-689.485948
22385.687160,-2072.576638,-9548.656652,-3677.258390
22385.687494,-3552.988522,-11917.315666,-3677.258390
22385.687827,-370.102971,-10066.800811,-7737.564530
22385.688161,-5403.503377,-16876.695478,-1608.800546
22385.688494,370.102971,-7254.018232,-2834.553343
22385.688828,3997.112087,-9326.594869,5362.668486
22385.689161,5403.503377,-8290.306550,7124.688131
22385.689495,3627.009116,-6291.750507,5209.449386
22385.689828,3182.885551,-10658.965565,6052.154434
22385.690161,9326.594869,-3997.112087,5286.058936
22385.690495,666.185348,-10436.903782,4903.011187
22385.690828,5107.421000,-2368.659014,-536.266849
22385.691162,-4737.318029,-11177.109724,-4903.011187
22385.691495,-5995.668130,-14211.954086,-6818.249932
22385.691828,-4811.338623,-10066.800811,-9576.193725
22385.692162,-9474.636058,-14285.974681,-3830.477490
22385.692495,1776.494261,-8808.450710,2374.896044
22385.692828,-3108.864956,-3775.050304,0.000000
22385.693162,4663.297435,-10658.965565,2987.772442
22385.693495,2368.659014,-10214.842000,3370.820191
22385.693829,4811.338623,-11769.274478,7277.907231
22385.694162,4737.318029,-7772.162391,7354.516781
22385.694495,4071.132681,-7105.977043,2374.896044
22385.694829,0.000000,-5181.441594,-2681.334243
22385.695162,-6809.894666,-11325.150913,-3064.381992
22385.695495,-74.020594,-9474.636058,-4366.744339
22385.695829,-4737.318029,-12213.398043,-919.314598
22385.696162,-2294.638420,-9548.656652,-1225.752797
22385.696496,-4441.235652,-9696.697840,0.000000
22385.696829,-1628.453072,-6587.832884,2298.286494
22385.697162,-74.020594,-10658.965565,2374.896044
22385.697496,4663.297435,-8290.306550,1762.019645
22385.697829,1480.411884,-6291.750507,2374.896044
22385.698162,4663.297435,-14211.954086,4826.401637
22385.698496,1406.391290,-5995.668130,612.876398
22385.698829,1628.453072,-11843.295072,-76.609550
22385.699163,-518.144159,-9400.615463,-1685.410096
22385.699496,296.082377,-9770.718434,-2681.334243
22385.699829,814.226536,-10066.800811,-995.924147
22385.700163,-2368.659014,-9030.512492,-4826.401637
22385.700496,-1184.329507,-7772.162391,0.000000
22385.700829,0.000000,-10140.821405,2374.896044
22385.701163,5255.462188,-8142.265362,3983.696590
22385.701496,1184.329507,-4811.338623,6128.763984
22385.701830,3404.947333,-8882.471304,2374.896044
22385.702163,740.205942,-8068.244768,1838.629195
22385.702496,-2664.741391,-10288.862594,-1838.629195
22385.702830,1702.473667,-7698.141797,-1915.238745
22385.703163,-2368.659014,-9548.656652,-306.438199
22385.703496,-2960.823768,-8956.491898,-2451.505594
22385.703830,-1332.370696,-5995.668130,-7124.688131
22385.704163,-1702.473667,-13693.809927,-5209.449386
22385.704497,-444.123565,-12805.562797,-612.876398
22385.704830,3478.967927,-12583.501014,7277.907231
22385.705163,2294.638420,-9474.636058,2451.505594
22385.705497,2960.823768,-6883.915261,4903.011187
22385.705830,2960.823768,-8882.471304,2221.676944
22385.706163,1776.494261,-9548.656652,3677.258390
22385.706497,2516.700203,-7920.203579,3677.258390
22385.706830,1406.391290,-6143.709319,76.609550
22385.707164,-1850.514855,-10955.047942,153.219100
22385.707497,-5107.421000,-9474.636058,-1608.800546
22385.707830,-6513.812290,-7476.080014,-3064.381992
22385.708164,-3034.844362,-7179.997637,-7967.393179
22385.708497,1184.329507,-6661.853478,-76.609550
22385.708830,-1036.288319,-12361.439231,2068.457845
22385.709164,2294.638420,-7105.977043,-76.609550
22385.709497,-1258.350101,-11843.295072,383.047749
22385.709831,-296.082377,-11843.295072,1149.143247
22385.710164,6143.709319,-7105.977043,4826.401637
22385.710497,2146.597232,-9548.656652,3600.648841
22385.710831,7031.956449,-4737.318029,1762.019645
22385.711164,-1776.494261,-13101.645173,1225.752797
22385.711497,-222.061783,-13915.871710,2374.896044
22385.711831,-1554.432478,-9104.533087,-2604.724693
22385.712164,-2368.659014,-8364.327145,306.438199
22385.712498,-3034.844362,-5625.565159,-4979.620737
22385.712831,-2146.597232,-8586.388927,-2834.553343
22385.713164,-1036.288319,-9400.615463,306.438199
22385.713498,1110.308913,-10066.800811,2068.457845
22385.713831,1332.370696,-5403.503377,2451.505594
22385.714164,4367.215058,-10955.047942,3600.648841
22385.714498,1998.556043,-5033.400406,536.266849
22385.714831,1480.411884,-5403.503377,612.876398
22385.715165,-74.020594,-17172.777854,-76.609550
22385.715498,-1776.494261,-7772.162391,0.000000
22385.715831,518.144159,-10807.006753,-4443.353888
22385.716165,0.000000,-11473.192101,-383.047749
22385.716498,-1628.453072,-7179.997637,-1149.143247
22385.716831,-5921.647536,-12509.480420,-3677.258390
22385.717165,3478.967927,-10658.965565,3600.648841
22385.717498,296.082377,-4811.338623,1838.629195
22385.717832,2960.823768,-8956.491898,10265.679673
22385.718165,9400.615463,-3552.988522,4213.525239
22385.718498,592.164754,-9548.656652,919.314598
22385.718832,-518.144159,-10214.842000,995.924147
22385.719165,2516.700203,-9030.512492,-2145.067394
22385.719498,-2220.617826,-13323.706956,-1532.190996
22385.719832,-592.164754,-8364.327145,-1302.362347
22385.720165,-2442.679609,-10658.965565,-5669.106685
22385.720499,-7328.038826,-12435.459826,-2221.676944
22385.720832,-444.123565,-6217.729913,-1685.410096
22385.721165,0.000000,-9548.656652,76.609550
22385.721499,5921.647536,-6661.853478,6052.154434
22385.721832,3182.885551,-8142.265362,1455.581446
22385.722165,1998.556043,-9548.656652,4903.011187
22385.722499,3849.070898,-6069.688724,3140.991542
22385.722832,1998.556043,-11843.295072,4213.525239
22385.723166,3701.029710,-6587.832884,1378.971896
22385.723499,-1332.370696,-13249.686362,-3677.258390
22385.723832,-3256.906145,-10140.821405,-3983.696590
22385.724166,-6513.812290,-13693.809927,-3677.258390
22385.724499,-7105.977043,-7179.997637,-1225.752797
22385.724832,-74.020594,-9178.553681,-383.047749
22385.725166,0.000000,-6513.812290,1149.143247
22385.725499,592.164754,-7476.080014,6818.249932
22385.725833,-1776.494261,-8512.368333,3064.381992
22385.726166,2812.782580,-6069.688724,2374.896044
22385.726499,5181.441594,-6439.791695,2757.943793
22385.726833,1850.514855,-13323.706956,6818.249932
22385.727166,4663.297435,0.000000,-76.609550
22385.727499,-9474.636058,-20799.786970,-6205.373534
22385.727833,-1554.432478,-6143.709319,-7967.393179
22385.728166,-5921.647536,-13693.809927,-3370.820191
22385.728500,296.082377,-10955.047942,1762.019645
22385.728833,-74.020594,-4737.318029,-689.485948
22385.729166,-5403.503377,-13915.871710,-2834.553343
22385.729500,4885.359217,-5699.585753,6205.373534
22385.729833,2368.659014,-6587.832884,4290.134789
22385.730166,6069.688724,-7179.997637,7354.516781
22385.730500,6439.791695,-5329.482782,6052.154434
22385.730833,592.164754,-10140.821405,0.000000
22385.731167,592.164754,-11251.130318,2987.772442
22385.731500,-3034.844362,-10955.047942,-4366.744339
22385.731833,1110.308913,-5995.668130,-7124.688131
22385.732167,-4737.318029,-9844.739029,-3370.820191
22385.732500,-1480.411884,-11103.089130,-7354.516781
22385.732833,-5921.647536,-14952.160028,-1532.190996
22385.733167,-148.041188,-12213.398043,-76.609550
22385.733500,3478.967927,-8956.491898,1225.752797
22385.733833,7402.059420,-7105.977043,13713.109414
22385.734167,7920.203579,-2368.659014,6665.030833
22385.734500,2960.823768,-6587.832884,9806.022374
22385.734834,-2960.823768,-7920.203579,0.000000
22385.735167,2368.659014,-5551.544565,-1608.800546
22385.735500,-518.144159,-11547.212695,-1072.533697
22385.735834,2886.803174,-7179.997637,-3983.696590
22385.736167,-4885.359217,-13619.789333,-4136.915689
22385.736500,-7179.997637,-10436.903782,-10342.289223
22385.736834,-4959.379811,-15100.201217,-6818.249932
22385.737167,-740.205942,-10140.821405,229.828649
22385.737501,7105.977043,-9474.636058,5669.106685
22385.737834,1776.494261,-7179.997637,10418.898773
22385.738167,5847.626942,-1628.453072,2451.505594
22385.738501,0.000000,-8364.327145,4903.011187
22385.738834,5773.606348,-10658.965565,9729.412825
22385.739167,2590.720797,-3404.947333,-1455.581446
22385.739501,-2368.659014,-11917.315666,-536.266849
22385.739834,-4515.256246,-6513.812290,-9959.241474
22385.740168,-7179.997637,-14656.077652,-7124.688131
22385.740501,-4219.173869,-11917.315666,-3753.867940
22385.740834,-74.020594,-9474.636058,-1302.362347
22385.741168,-2590.720797,-11325.150913,1225.752797
22385.741501,5551.544565,-5329.482782,3064.381992
22385.741834,1702.473667,-11251.130318,4826.401637
22385.742168,888.247130,-3627.009116,4903.011187
22385.742501,7624.121203,-5921.647536,6052.154434
22385.742835,0.000000,-11029.068536,3983.696590
22385.743168,6735.874072,-2294.638420,-1072.533697
22385.743501,-6291.750507,-15988.448347,-3447.429741
22385.743835,-3552.988522,-8364.327145,-9193.145976
22385.744168,-7105.977043,-13397.727550,-4749.792088
22385.744501,1702.473667,-10658.965565,-2221.676944
22385.744835,962.267725,-5995.668130,536.266849
22385.745168,0.000000,-9696.697840,4749.792088
22385.745502,0.000000,-10732.986159,2451.505594
22385.745835,0.000000,-3478.967927,2221.676944
22385.746168,4663.297435,-8882.471304,4213.525239
22385.746502,6513.812290,-4663.297435,6971.469032
22385.746835,1702.473667,-10362.883188,1762.019645
22385.747168,1702.473667,-7105.977043,-2834.553343
22385.747502,-5995.668130,-14582.057057,-5822.325785
22385.747835,-1776.494261,-8364.327145,-5209.449386
22385.748169,-74.020594,-15396.283594,-76.609550
22385.748502,-74.020594,-7105.977043,-4366.744339
22385.748835,-592.164754,-13397.727550,2374.896044
22385.749169,-2960.823768,-7920.203579,-1838.629195
22385.749502,5255.462188,-9992.780217,4213.525239
22385.749835,2960.823768,-5403.503377,7354.516781
22385.750169,4737.318029,-5403.503377,3677.258390
22385.750502,2738.761985,-10658.965565,6052.154434
22385.750836,-74.020594,-7994.224174,-3524.039291
22385.751169,-3256.906145,-8956.491898,-3370.820191
22385.751502,-1628.453072,-9474.636058,-689.485948
22385.751836,0.000000,-6661.853478,-2987.772442
22385.752169,-1480.411884,-12879.583391,766.095498
22385.752502,1702.473667,-4959.379811,-1762.019645
22385.752836,-6513.812290,-16432.571912,0.000000
22385.753169,1332.370696,-3182.885551,0.000000
22385.753503,4959.379811,-8068.244768,1991.848295
22385.753836,3552.988522,-8808.450710,2911.162892
22385.754169,4885.359217,-4811.338623,3370.820191
22385.754503,-3256.906145,-15026.180623,-1838.629195
22385.754836,4071.132681,-7254.018232,-2528.115143
22385.755169,-1776.494261,-12509.480420,1532.190996
22385.755503,7031.956449,-8290.306550,2374.896044
22385.755836,1702.473667,-7698.141797,1149.143247
22385.756170,-3108.864956,-10584.944971,-2221.676944
22385.756503,-2886.803174,-9474.636058,-1225.752797
22385.756836,-2664.741391,-11103.089130,-76.609550
22385.757170,4071.132681,-7031.956449,2987.772442
22385.757503,-370.102971,-9474.636058,3294.210641
22385.757836,-1776.494261,-5107.421000,612.876398
22385.758170,-6513.812290,-7179.997637,306.438199
22385.758503,3182.885551,-11251.130318,1762.019645
22385.758837,1184.329507,-4811.338623,1532.190996
22385.759170,4367.215058,-7994.224174,-76.609550
22385.759503,1776.494261,-14508.036463,0.000000
22385.759837,-3552.988522,-12657.521608,-459.657299
22385.760170,-2812.782580,-8882.471304,-4213.525239
22385.760503,-2590.720797,-9548.656652,-1302.362347
22385.760837,-4145.153275,-7476.080014,-2451.505594
22385.761170,1110.308913,-10066.800811,2068.457845
22385.761504,2294.638420,-7105.977043,1762.019645
22385.761837,-1776.494261,-9918.759623,5209.449386
22385.762170,2294.638420,-4071.132681,3370.820191
22385.762504,3923.091493,-8216.285956,4290.134789
22385.762837,5699.585753,-7550.100608,4519.963438
22385.763170,1850.514855,-8142.265362,919.314598
22385.763504,-4737.318029,-13693.809927,-3677.258390
22385.763837,1110.308913,-11251.130318,-1302.362347
22385.764171,-962.267725,-10732.986159,-2451.505594
22385.764504,0.000000,-10140.821405,0.000000
22385.764837,-740.205942,-11843.295072,-76.609550
22385.765171,-5477.523971,-7772.162391,-4903.011187
22385.765504,-2072.576638,-9474.636058,919.314598
22385.765837,1628.453072,-7105.977043,5056.230287
22385.766171,7328.038826,-4145.153275,8273.831378
22385.766504,2664.741391,-3627.009116,3677.258390
22385.766838,3330.926739,-6217.729913,1685.410096
22385.767171,2146.597232,-12583.501014,1455.581446
22385.767504,3034.844362,-10658.965565,-1149.143247
22385.767838,2294.638420,-11843.295072,-2528.115143
22385.768171,-2442.679609,-11917.315666,-5822.325785
22385.768504,1184.329507,-12879.583391,-689.485948
22385.768838,-4811.338623,-13619.789333,-5286.058936
22385.769171,-2368.659014,-8364.327145,-2451.505594
22385.769505,2294.638420,-9474.636058,5745.716235
22385.769838,2960.823768,-5847.626942,6818.249932
22385.770171,3849.070898,-2146.597232,7048.078582
22385.770505,444.123565,-8290.306550,1838.629195
22385.770838,2368.659014,-7179.997637,3677.258390
22385.771171,3923.091493,-8438.347739,0.000000
22385.771505,4145.153275,-11029.068536,2374.896044
22385.771838,-2442.679609,-10955.047942,-3753.867940
22385.772172,-6587.832884,-11325.150913,-8580.269578
22385.772505,-6957.935855,-13915.871710,-5209.449386
22385.772838,-5921.647536,-12583.501014,-4136.915689
22385.773172,2516.700203,-4515.256246,306.438199
22385.773505,-2072.576638,-8216.285956,4136.915689
22385.773838,5329.482782,-6809.894666,8886.707777
22385.774172,222.061783,-6291.750507,3677.258390
22385.774505,5847.626942,-9474.636058,2374.896044
22385.774839,3330.926739,-9548.656652,3064.381992
22385.775172,5847.626942,-9474.636058,7890.783629
22385.775505,1998.556043,-7105.977043,0.000000
22385.775839,-2738.761985,-11103.089130,-1608.800546
22385.776172,-4589.276840,-14211.954086,-6128.763984
22385.776505,-4589.276840,-11029.068536,-4290.134789
22385.776839,-2294.638420,-11251.130318,-1915.238745
22385.777172,-7105.977043,-6291.750507,-919.314598
22385.777506,-370.102971,-3182.885551,0.000000
22385.777839,-5255.462188,-7772.162391,0.000000
22385.778172,5477.523971,-7105.977043,5439.278036
22385.778506,4071.132681,-7105.977043,2987.772442
22385.778839,7624.121203,-9474.636058,7277.907231
22385.779172,3552.988522,-6809.894666,2145.067394
22385.779506,888.247130,-10881.027347,-1991.848295
22385.779839,222.061783,-11917.315666,-2298.286494
22385.780173,-74.020594,-15396.283594,-2528.115143
22385.780506,3256.906145,-8364.327145,0.000000
22385.780839,-888.247130,-15100.201217,-1838.629195
22385.781173,-74.020594,-10362.883188,-1608.800546
22385.781506,-2442.679609,-7402.059420,-1455.581446
22385.781839,2294.638420,-9474.636058,4213.525239
22385.782173,5551.544565,-2146.597232,6665.030833
22385.782506,1850.514855,-7179.997637,3600.648841
22385.782840,5181.441594,-7105.977043,5592.497135
22385.783173,-1554.432478,-8290.306550,-2528.115143
22385.783506,-888.247130,-10214.842000,-1991.848295
22385.783840,-888.247130,-11843.295072,-459.657299
22385.784173,-962.267725,-11695.253884,-3447.429741
22385.784506,-3256.906145,-7772.162391,-4903.011187
22385.784840,-3034.844362,-13619.789333,-5592.497135
22385.785173,-3404.947333,-7772.162391,-6894.859482
22385.785507,0.000000,-13101.645173,3294.210641
22385.785840,4515.256246,-11251.130318,8350.440928
22385.786173,6291.750507,-2294.638420,4903.011187
22385.786507,2368.659014,-8438.347739,5286.058936
22385.786840,4219.173869,-7105.977043,3830.477490
22385.787173,888.247130,-6957.935855,1302.362347
22385.787507,3552.988522,-9030.512492,3217.601092
22385.787840,1036.288319,-10658.965565,-2528.115143
22385.788174,-6513.812290,-12509.480420,-3677.258390
22385.788507,-8290.306550,-9844.739029,-4903.011187
22385.788840,-7179.997637,-14211.954086,-5286.058936
22385.789174,-4145.153275,-6587.832884,-1838.629195
22385.789507,-74.020594,-9474.636058,2451.505594
22385.789840,3478.967927,-4219.173869,4903.011187
22385.790174,1702.473667,-7105.977043,5975.544884
22385.790507,-74.020594,-9178.553681,1455.581446
22385.790841,5255.462188,-8290.306550,2374.896044
22385.791174,1184.329507,-8364.327145,4903.011187
22385.791507,6735.874072,-8290.306550,2681.334243
22385.791841,-1258.350101,-8290.306550,-6128.763984
22385.792174,-3034.844362,-16432.571912,-6205.373534
22385.792507,-2960.823768,-9548.656652,-5209.449386
22385.792841,-1406.391290,-16284.530724,-1915.238745
22385.793174,2072.576638,-6587.832884,1532.190996
22385.793507,-1628.453072,-5995.668130,0.000000
22385.793840,1702.473667,-8290.306550,1838.629195
22385.794174,2294.638420,-4441.235652,3294.210641
22385.794507,5181.441594,-10362.883188,6665.030833
22385.794840,1184.329507,-7179.997637,4903.011187
22385.795173,1184.329507,-1850.514855,0.000000
22385.795506,-74.020594,-13619.789333,229.828649
22385.795840,1110.308913,-4811.338623,-5669.106685
22385.796173,-4293.194464,-16136.489536,-4826.401637
22385.796506,-3627.009116,-10362.883188,-3753.867940
22385.796839,-2368.659014,-12213.398043,-2528.115143
22385.797172,-4811.338623,-10807.006753,-3447.429741
22385.797506,2294.638420,-3034.844362,-4749.792088
22385.797839,-74.020594,-15840.407159,4519.963438
22385.798172,7846.182985,-4219.173869,6741.640382
22385.798505,5773.606348,-7105.977043,8427.050478
22385.798839,5477.523971,-7031.956449,6511.811733
22385.799172,5847.626942,-5107.421000,2451.505594
22385.799505,-1850.514855,-15396.283594,-76.609550
22385.799838,2146.597232,-9178.553681,-3753.867940
22385.800171,-2368.659014,-12509.480420,-2068.457845
22385.800505,-888.247130,-9030.512492,-3753.867940
22385.800838,-2516.700203,-11251.130318,-536.266849
22385.801171,-5403.503377,-13027.624579,-3753.867940
22385.801504,-4145.153275,-7179.997637,-4903.011187
22385.801838,-1184.329507,-9474.636058,4826.401637
22385.802171,4663.297435,-3256.906145,6205.373534
22385.802504,0.000000,-3034.844362,4903.011187
22385.802837,5699.585753,-4145.153275,1608.800546
22385.803170,962.267725,-13027.624579,3294.210641
22385.803504,3627.009116,-9326.594869,842.705048
22385.803837,1998.556043,-12361.439231,-1225.752797
22385.804170,-3627.009116,-10436.903782,-8580.269578
22385.804503,0.000000,-15618.345376,-2834.553343
22385.804836,-4811.338623,-14211.954086,-2528.115143
22385.805170,74.020594,-8660.409521,-2451.505594
22385.805503,1184.329507,-7105.977043,5898.935335
22385.805836,74.020594,-5995.668130,2451.505594
22385.806169,2368.659014,-5995.668130,6741.640382
22385.806503,2664.741391,-5033.400406,5439.278036
22385.806836,-1628.453072,-8956.491898,842.705048
22385.807169,2368.659014,-3627.009116,3830.477490
22385.807502,1776.494261,-13027.624579,-76.609550
22385.807835,-740.205942,-9844.739029,-1225.752797
22385.808169,-4737.318029,-7179.997637,-4903.011187
22385.808502,-9548.656652,-21317.931130,-7431.126331
22385.808835,0.000000,-7476.080014,-3677.258390
22385.809168,-5181.441594,-15766.386565,-1149.143247
22385.809501,4515.256246,-2590.720797,4596.572988
22385.809835,-222.061783,-10436.903782,4979.620737
22385.810168,6143.709319,-8290.306550,9116.536426
22385.810501,1702.473667,-4737.318029,1762.019645
22385.810834,2368.659014,-4811.338623,6205.373534
22385.811168,6735.874072,-6513.812290,2374.896044
22385.811501,1702.473667,-10955.047942,536.266849
22385.811834,592.164754,-8364.327145,-76.609550
22385.812167,-6069.688724,-12509.480420,-4749.792088
22385.812500,-1110.308913,-11621.233289,-4673.182538
22385.812834,-592.164754,-10881.027347,-2145.067394
22385.813167,-1554.432478,-11843.295072,1762.019645
22385.813500,-2886.803174,-3034.844362,-4290.134789
22385.813833,-5699.585753,-13175.665768,-3370.820191
22385.814167,592.164754,-9548.656652,2911.162892
22385.814500,4737.318029,-1258.350101,2757.943793
22385.814833,1480.411884,-7772.162391,6741.640382
22385.815166,6883.915261,-8290.306550,4213.525239
22385.815499,592.164754,-7179.997637,-2451.505594
22385.815833,592.164754,-13175.665768,-1608.800546
22385.816166,1480.411884,-8364.327145,-1149.143247
22385.816499,0.000000,-13397.727550,-306.438199
22385.816832,888.247130,-10140.821405,0.000000
22385.817165,-1480.411884,-7179.997637,-2221.676944
22385.817499,-4737.318029,-12139.377449,-3217.601092
22385.817832,4071.132681,-5995.668130,3524.039291
22385.818165,6439.791695,-8882.471304,2987.772442
22385.818498,2442.679609,-6587.832884,4903.011187
22385.818832,-2294.638420,-6883.915261,1532.190996
22385.819165,-2072.576638,-10955.047942,-2145.067394
22385.819498,814.226536,-9474.636058,2298.286494
22385.819831,3256.906145,-8438.347739,1149.143247
22385.820164,1998.556043,-7031.956449,383.047749
22385.820498,-1850.514855,-9474.636058,-6205.373534
22385.820831,0.000000,-14878.139434,-2451.505594
22385.821164,-3256.906145,-11473.192101,-1225.752797
22385.821497,0.000000,-7772.162391,-76.609550
22385.821831,3478.967927,-10510.924376,2987.772442
22385.822164,2294.638420,-4737.318029,2374.896044
22385.822497,4663.297435,-7105.977043,3907.087040
22385.822830,370.102971,-11621.233289,5056.230287
22385.823163,7105.977043,-5921.647536,4213.525239
22385.823497,296.082377,-10955.047942,4519.963438
22385.823830,3478.967927,-9178.553681,4213.525239
22385.824163,-3552.988522,-5403.503377,-1532.190996
22385.824496,-3034.844362,-12731.542202,-4366.744339
22385.824829,-4811.338623,-9030.512492,-7354.516781
22385.825163,-5921.647536,-9548.656652,-4903.011187
22385.825496,-666.185348,-11473.192101,-4366.744339
22385.825829,1480.411884,-8216.285956,2068.457845
22385.826162,-1628.453072,-11177.109724,1072.533697
22385.826496,592.164754,-7328.038826,2911.162892
22385.826829,3182.885551,-6735.874072,1455.581446
22385.827162,7105.977043,-9252.574275,9422.974625
22385.827495,4663.297435,-8882.471304,4060.306139
22385.827828,-666.185348,-7179.997637,0.000000
22385.828162,-4737.318029,-10140.821405,-2451.505594
22385.828495,1554.432478,-7105.977043,-2221.676944
22385.828828,1924.535449,-9474.636058,2757.943793
22385.829161,-3108.864956,-7179.997637,-5439.278036
22385.829495,-3849.070898,-8734.430116,-3294.210641
22385.829828,-9548.656652,-13175.665768,-9193.145976
22385.830161,888.247130,-7920.203579,229.828649
22385.830494,-2368.659014,-10881.027347,6205.373534
22385.830827,3478.967927,-6883.915261,3294.210641
22385.831161,5033.400406,-5625.565159,5286.058936
22385.831494,1110.308913,-12139.377449,1608.800546
22385.831827,4737.318029,-5995.668130,0.000000
22385.832160,2368.659014,-11843.295072,1149.143247
22385.832493,2590.720797,-13249.686362,-2451.505594
22385.832827,-2368.659014,-7179.997637,0.000000
22385.833160,2146.597232,-10140.821405,-3294.210641
22385.833493,-3330.926739,-12879.583391,-1225.752797
22385.833826,-888.247130,-6217.729913,-3600.648841
22385.834160,3478.967927,-10658.965565,3600.648841
22385.834493,4663.297435,-6513.812290,5132.839837
22385.834826,5921.647536,-5107.421000,8503.660028
22385.835159,-74.020594,-11843.295072,4826.401637
22385.835492,1110.308913,-2368.659014,-4903.011187
22385.835826,-74.020594,-14211.954086,1762.019645
22385.836159,5403.503377,-5255.462188,-1149.143247
22385.836492,-444.123565,-11029.068536,-2528.115143
22385.836825,-5403.503377,-11843.295072,-7660.954980
22385.837158,-4145.153275,-11917.315666,-5822.325785
22385.837492,-3627.009116,-14656.077652,-4903.011187
22385.837825,8808.450710,-8290.306550,4826.401637
22385.838158,1110.308913,-10881.027347,4903.011187
22385.838491,3775.050304,-1554.432478,2451.505594
22385.838825,1480.411884,-8808.450710,5439.278036
22385.839158,4367.215058,-5255.462188,4060.306139
22385.839491,4663.297435,-7550.100608,6511.811733
22385.839824,1776.494261,-6883.915261,612.876398
22385.840157,1184.329507,-9992.780217,-2145.067394
22385.840491,-9474.636058,-10732.986159,-6741.640382
22385.840824,-4811.338623,-14211.954086,-7431.126331
22385.841157,-7772.162391,-15322.262999,-4903.011187
22385.841490,-2368.659014,-9548.656652,-2451.505594
22385.841824,-2960.823768,-6291.750507,0.000000
22385.842157,3182.885551,-7402.059420,4903.011187
22385.842490,-222.061783,-9918.759623,4673.182538
22385.842823,4441.235652,-4885.359217,4979.620737
22385.843156,1702.473667,-11547.212695,3600.648841
22385.843490,7698.141797,-6661.853478,7890.783629
22385.843823,1702.473667,-7476.080014,766.095498
22385.844156,-4441.235652,-10140.821405,-919.314598
22385.844489,-1258.350101,-10658.965565,-7584.345430
22385.844822,-3849.070898,-11917.315666,-4903.011187
22385.845156,1702.473667,-11547.212695,-1608.800546
22385.845489,-1554.432478,-9474.636058,536.266849
22385.845822,-5181.441594,-9548.656652,0.000000
22385.846155,-2442.679609,-4145.153275,-2987.772442
22385.846489,962.267725,-11399.171507,4213.525239
22385.846822,6365.771101,-2664.741391,7584.345430
22385.847155,3627.009116,-8734.430116,6052.154434
22385.847488,3627.009116,-4663.297435,2068.457845
22385.847821,1702.473667,-13027.624579,-1302.362347
22385.848155,0.000000,-11769.274478,-1225.752797
22385.848488,4663.297435,-11547.212695,-2528.115143
22385.848821,-4071.132681,-14285.974681,-5822.325785
22385.849154,2368.659014,-9844.739029,-2145.067394
22385.849488,-2738.761985,-11843.295072,-459.657299
22385.849821,888.247130,-7254.018232,229.828649
22385.850154,518.144159,-7846.182985,4213.525239
22385.850487,3552.988522,-6735.874072,5592.497135
22385.850820,3182.885551,-1850.514855,3064.381992
22385.851154,2812.782580,-10658.965565,7277.907231
22385.851487,1702.473667,-9474.636058,-76.609550
22385.851820,-3775.050304,-7179.997637,-1838.629195
22385.852153,4663.297435,-13027.624579,-76.609550
22385.852486,-1850.514855,-9548.656652,-3064.381992
22385.852820,-2294.638420,-13545.768739,-3447.429741
22385.853153,-3849.070898,-11769.274478,-4673.182538
22385.853486,-4737.318029,-12213.398043,-4290.134789
22385.853819,0.000000,-10881.027347,-306.438199
22385.854153,6883.915261,-13619.789333,8503.660028
22385.854486,2368.659014,-3627.009116,5515.887586
22385.854819,2368.659014,-5995.668130,7967.393179
22385.855152,1110.308913,-7105.977043,1149.143247
22385.855485,1776.494261,-8808.450710,4673.182538
22385.855819,3552.988522,-6587.832884,3370.820191
22385.856152,444.123565,-9252.574275,-536.266849
22385.856485,-1924.535449,-10584.944971,-4060.306139
22385.856818,-4811.338623,-11843.295072,-5592.497135
22385.857152,-3627.009116,-11843.295072,-6205.373534
22385.857485,-3256.906145,-8364.327145,612.876398
22385.857818,-1480.411884,-8216.285956,2298.286494
22385.858151,1702.473667,-4145.153275,-3294.210641
22385.858484,0.000000,-11399.171507,4213.525239
22385.858818,2590.720797,-5107.421000,2451.505594
22385.859151,2738.761985,-10732.986159,5439.278036
22385.859484,6217.729913,-6661.853478,4596.572988
22385.859817,4663.297435,-10362.883188,1149.143247
22385.860150,1406.391290,-10584.944971,1608.800546
22385.860484,-1406.391290,-11621.233289,-2298.286494
22385.860817,222.061783,-10288.862594,-2451.505594
22385.861150,0.000000,-8364.327145,0.000000
22385.861483,-2368.659014,-8364.327145,-1915.238745
22385.861817,-1258.350101,-10362.883188,-76.609550
22385.862150,-6809.894666,-8364.327145,-4443.353888
22385.862483,0.000000,-5403.503377,1915.238745
22385.862816,296.082377,-7179.997637,4519.963438
22385.863149,5329.482782,-7476.080014,5209.449386
22385.863483,1998.556043,-7328.038826,5209.449386
22385.863816,444.123565,-7994.224174,-689.485948
22385.864149,-74.020594,-14211.954086,2374.896044
22385.864482,-1036.288319,-6661.853478,-2834.553343
22385.864815,3478.967927,-13471.748144,-4826.401637
22385.865149,-1776.494261,-10436.903782,2374.896044
22385.865482,3478.967927,-11547.212695,-689.485948
22385.865815,-4811.338623,-14063.912898,995.924147
22385.866148,0.000000,-7846.182985,-1302.362347
22385.866482,4367.215058,-7994.224174,6665.030833
22385.866815,814.226536,-6291.750507,5822.325785
22385.867148,2368.659014,-6587.832884,2451.505594
22385.867481,0.000000,-8660.409521,4596.572988
22385.867814,1184.329507,-5995.668130,0.000000
22385.868148,3552.988522,-10658.965565,3294.210641
22385.868481,-222.061783,-8956.491898,-2451.505594
22385.868814,-2664.741391,-8956.491898,-3677.258390
22385.869147,-3775.050304,-10658.965565,-4979.620737
22385.869481,-3404.947333,-11843.295072,-3983.696590
22385.869814,-3849.070898,-10955.047942,-4136.915689
22385.870147,2368.659014,-8216.285956,1072.533697
22385.870480,4663.297435,-8290.306550,3600.648841
22385.870813,2368.659014,-8068.244768,6971.469032
22385.871147,2368.659014,-9696.697840,6052.154434
22385.871480,3478.967927,-5773.606348,-2451.505594
22385.871813,1184.329507,-14582.057057,5515.887586
22385.872146,6439.791695,-5699.585753,4443.353888
22385.872479,2664.741391,-8290.306550,459.657299
22385.872813,-3034.844362,-9474.636058,-2451.505594
22385.873146,-6809.894666,-9770.718434,-8810.098227
22385.873479,-3552.988522,-10732.986159,-4290.134789
22385.873812,-2072.576638,-12435.459826,-76.609550
22385.874146,-74.020594,-7179.997637,0.000000
22385.874479,-4737.318029,-5995.668130,3064.381992
22385.874812,0.000000,-8364.327145,2757.943793
22385.875145,888.247130,-4811.338623,3370.820191
22385.875478,3627.009116,-7254.018232,4749.792088
22385.875812,3256.906145,-9400.615463,5822.325785
22385.876145,3478.967927,-5773.606348,-2528.115143
22385.876478,518.144159,-14582.057057,-4903.011187
22385.876811,-3330.926739,-14952.160028,-2604.724693
22385.877145,740.205942,-9474.636058,-1762.019645
22385.877478,-666.185348,-13767.830521,306.438199
22385.877811,-74.020594,-8882.471304,-76.609550
22385.878144,-74.020594,-7105.977043,-766.095498
22385.878477,-3256.906145,-8734.430116,612.876398
22385.878811,5847.626942,-7105.977043,4519.963438
22385.879144,1554.432478,-7254.018232,4903.011187
22385.879477,7105.977043,-5403.503377,10342.289223
22385.879810,962.267725,-3701.029710,3064.381992
22385.880143,-3182.885551,-12139.377449,-3447.429741
22385.880477,-2516.700203,-8586.388927,-7660.954980
22385.880810,-4219.173869,-15100.201217,-5898.935335
22385.881143,814.226536,-7476.080014,-6128.763984
22385.881476,-592.164754,-12731.542202,-383.047749
22385.881810,-1258.350101,-13619.789333,-2528.115143
22385.882143,-2664.741391,-8364.327145,-1838.629195
22385.882476,2294.638420,-9474.636058,4826.401637
22385.882809,8290.306550,-5995.668130,6511.811733
22385.883142,4885.359217,-7994.224174,9422.974625
22385.883476,3775.050304,-6513.812290,6052.154434
22385.883809,-3552.988522,-7179.997637,0.000000
22385.884142,2590.720797,-7179.997637,0.000000
22385.884475,2294.638420,-9474.636058,-2528.115143
22385.884808,-2368.659014,-9548.656652,-3064.381992
22385.885142,-5773.606348,-7772.162391,-6741.640382
22385.885475,-8882.471304,-13397.727550,-9039.926876
22385.885808,-6291.750507,-13693.809927,-4749.792088
22385.886141,-2294.638420,-7550.100608,0.000000
22385.886475,-222.061783,-9326.594869,4443.353888
22385.886808,6439.791695,-2368.659014,7277.907231
22385.887141,2368.659014,-8364.327145,3983.696590
22385.887474,2886.803174,-14211.954086,4826.401637
22385.887807,6809.894666,-2442.679609,6741.640382
22385.888141,4663.297435,-13027.624579,1455.581446
22385.888474,6143.709319,-7254.018232,3064.381992
22385.888807,-4959.379811,-10881.027347,-7354.516781
22385.889140,-3627.009116,-14434.015869,-6205.373534
22385.889474,-3775.050304,-10362.883188,-4519.963438
22385.889807,-2442.679609,-11103.089130,-3677.258390
22385.890140,1702.473667,-11843.295072,4826.401637
22385.890473,-1998.556043,-4515.256246,3677.258390
22385.890806,592.164754,-6883.915261,7277.907231
22385.891140,2294.638420,-3849.070898,6128.763984
22385.891473,4071.132681,-4071.132681,3370.820191
22385.891806,4071.132681,-5255.462188,1302.362347
22385.892139,1998.556043,-9696.697840,-76.609550
22385.892472,444.123565,-10510.924376,-2834.553343
22385.892806,-5921.647536,-13101.645173,-7967.393179
22385.893139,-74.020594,-13915.871710,-6818.249932
22385.893472,-2886.803174,-15322.262999,-4903.011187
22385.893805,3627.009116,-9474.636058,-383.047749
22385.894138,3923.091493,-7550.100608,5745.716235
22385.894472,2294.638420,-6809.894666,3294.210641
22385.894805,3552.988522,-7105.977043,9193.145976
22385.895138,-1406.391290,-4811.338623,4903.011187
22385.895471,5551.544565,-5181.441594,2145.067394
22385.895804,0.000000,-3627.009116,3064.381992
22385.896137,-962.267725,-6365.771101,-3677.258390
22385.896471,-2442.679609,-13027.624579,-4979.620737
22385.896804,-7031.956449,-12213.398043,-6281.983084
22385.897137,-2220.617826,-12731.542202,-5898.935335
22385.897470,-3256.906145,-9548.656652,-2451.505594
22385.897803,3404.947333,-13027.624579,-689.485948
22385.898137,-5107.421000,-16580.613101,-689.485948
22385.898470,-2812.782580,-4811.338623,4903.011187
22385.898803,5847.626942,-5921.647536,6052.154434
22385.899136,7105.977043,-4811.338623,9806.022374
22385.899469,4071.132681,-8216.285956,6971.469032
22385.899802,3182.885551,-6365.771101,1455.581446
22385.900136,-3997.112087,-11991.336260,229.828649
22385.900469,0.000000,-8808.450710,-4290.134789
22385.900802,-74.020594,-14211.954086,-2528.115143
22385.901135,-4737.318029,-10140.821405,-3370.820191
22385.901468,-2368.659014,-7772.162391,-3983.696590
22385.901801,-8438.347739,-18949.272115,-1455.581446
22385.902135,1332.370696,-5699.585753,2374.896044
22385.902468,0.000000,-7105.977043,7354.516781
22385.902801,8660.409521,-1184.329507,5592.497135
22385.903134,3108.864956,-5625.565159,6971.469032
22385.903467,-74.020594,-7550.100608,-76.609550
22385.903801,3775.050304,-7402.059420,-1915.238745
22385.904134,-2368.659014,-11917.315666,995.924147
22385.904467,5847.626942,-11251.130318,-1915.238745
22385.904800,-666.185348,-11547.212695,-5362.668486
22385.905133,-2368.659014,-15544.324782,-3140.991542
22385.905466,-1184.329507,-9548.656652,-3064.381992
22385.905800,1110.308913,-10066.800811,1915.238745
22385.906133,3330.926739,-5551.544565,2451.505594
22385.906466,1110.308913,-8290.306550,6665.030833
22385.906799,74.020594,-6587.832884,4903.011187
22385.907132,-74.020594,-5773.606348,1149.143247
22385.907465,-2220.617826,-10066.800811,306.438199
22385.907799,3552.988522,-5107.421000,1225.752797
22385.908132,0.000000,-8512.368333,2221.676944
22385.908465,3478.967927,-11547.212695,-2221.676944
22385.908798,-4737.318029,-10732.986159,-6435.202183
22385.909131,-4737.318029,-13101.645173,-6741.640382
22385.909465,888.247130,-10732.986159,0.000000
22385.909798,592.164754,-11177.109724,2987.772442
22385.910131,740.205942,-7772.162391,2374.896044
22385.910464,-2368.659014,-5551.544565,4519.963438
22385.910797,-74.020594,-5329.482782,1762.019645
22385.911130,2442.679609,-4219.173869,5898.935335
22385.911464,-74.020594,-9696.697840,766.095498
22385.911797,3552.988522,-8216.285956,2987.772442
22385.912130,-74.020594,-11843.295072,2374.896044
22385.912463,-1480.411884,-10214.842000,-3217.601092
22385.912796,-3256.906145,-13027.624579,-3830.477490
22385.913129,-1036.288319,-10732.986159,-3524.039291
22385.913463,740.205942,-13101.645173,459.657299
22385.913796,1110.308913,-8290.306550,459.657299
22385.914129,-1184.329507,-9548.656652,1991.848295
22385.914462,-4737.318029,-5995.668130,0.000000
22385.914795,4737.318029,-5329.482782,7277.907231
22385.915129,3478.967927,-6957.935855,7967.393179
22385.915462,4737.318029,-3627.009116,2911.162892
22385.915795,2886.803174,-8290.306550,536.266849
22385.916128,-3182.885551,-13027.624579,-4519.963438
22385.916461,2368.659014,-10288.862594,-3447.429741
22385.916794,-370.102971,-15026.180623,1149.143247
22385.917128,4071.132681,-9474.636058,-3753.867940
22385.917461,-4737.318029,-11325.150913,459.657299
22385.917794,-4145.153275,-13101.645173,-4366.744339
22385.918127,-2442.679609,-8956.491898,-2145.067394
22385.918460,0.000000,-5403.503377,5515.887586
22385.918794,7031.956449,-3108.864956,5592.497135
22385.919127,2664.741391,-5625.565159,5898.935335
22385.919460,740.205942,-7179.997637,0.000000
22385.919793,-962.267725,-10066.800811,-1072.533697
22385.920126,2886.803174,-8364.327145,0.000000
22385.920459,3552.988522,-11991.336260,2987.772442
22385.920793,814.226536,-11251.130318,-1915.238745
22385.921126,-1258.350101,-10066.800811,-5822.325785
22385.921459,-4737.318029,-13101.645173,-3064.381992
22385.921792,-740.205942,-11325.150913,0.000000
22385.922125,-1332.370696,-7698.141797,-76.609550
22385.922458,-2664.741391,-9548.656652,3064.381992
22385.922792,518.144159,-1036.288319,5898.935335
22385.923125,222.061783,-5403.503377,0.000000
22385.923458,4441.235652,-5921.647536,1455.581446
22385.923791,3108.864956,-13323.706956,4366.744339
22385.924124,4959.379811,-4737.318029,3217.601092
22385.924458,2590.720797,-14211.954086,3294.210641
22385.924791,-2146.597232,-8438.347739,-7201.297681
22385.925124,-7698.141797,-18357.107362,-4979.620737
22385.925457,-962.267725,-11251.130318,-5592.497135
22385.925790,592.164754,-9548.656652,-1532.190996
22385.926123,-2368.659014,-9548.656652,5056.230287
22385.926457,3775.050304,296.082377,5975.544884
22385.926790,-4589.276840,-7994.224174,1685.410096
22385.927123,3997.112087,-5921.647536,1991.848295
22385.927456,3478.967927,-8290.306550,2987.772442
22385.927789,4071.132681,-7328.038826,0.000000
22385.928122,5921.647536,-7105.977043,2374.896044
22385.928456,-1258.350101,-16580.613101,-3140.991542
22385.928789,1406.391290,-10881.027347,-4903.011187
22385.929122,-74.020594,-14211.954086,-1915.238745
22385.929455,4441.235652,-13471.748144,2987.772442
22385.929788,888.247130,-7179.997637,689.485948
22385.930122,814.226536,-8216.285956,2298.286494
22385.930455,-5921.647536,-9548.656652,0.000000
22385.930788,-74.020594,-4811.338623,1225.752797
22385.931121,1702.473667,-6513.812290,3600.648841
22385.931454,-2072.576638,-5995.668130,612.876398
22385.931787,2664.741391,-6587.832884,4826.401637
22385.932121,-6217.729913,-9548.656652,-3983.696590
22385.932454,740.205942,-7179.997637,-2681.334243
22385.932787,-2368.659014,-12435.459826,-3217.601092
22385.933120,1110.308913,-12805.562797,-1608.800546
22385.933453,3182.885551,-11251.130318,-76.609550
22385.933787,-3552.988522,-13101.645173,-919.314598
22385.934120,-2442.679609,-14211.954086,-3140.991542
22385.934453,-3034.844362,-6883.915261,0.000000
22385.934786,4293.194464,-9474.636058,6435.202183
22385.935119,4663.297435,-3552.988522,9193.145976
22385.935452,3478.967927,-6069.688724,1302.362347
22385.935786,1998.556043,-10288.862594,1838.629195
22385.936119,1998.556043,-11547.212695,2451.505594
22385.936452,1480.411884,-7402.059420,689.485948
22385.936785,3182.885551,-13027.624579,-76.609550
22385.937118,-3478.967927,-8068.244768,-6128.763984
22385.937451,-8290.306550,-11917.315666,-5975.544884
22385.937785,-1850.514855,-11843.295072,-3753.867940
22385.938118,-4811.338623,-10510.924376,-1915.238745
22385.938451,-1406.391290,-8290.306550,842.705048
22385.938784,1036.288319,-6439.791695,5822.325785
22385.939117,2516.700203,-3701.029710,6971.469032
22385.939451,4959.379811,-666.185348,3677.258390
22385.939784,1406.391290,-8290.306550,1762.019645
22385.940117,5329.482782,-6143.709319,229.828649
22385.940450,1776.494261,-14730.098246,1302.362347
22385.940783,6513.812290,-10658.965565,-766.095498
22385.941116,-666.185348,-13915.871710,-7431.126331
22385.941450,-2516.700203,-17764.942608,-1302.362347
22385.941783,4663.297435,-7994.224174,-383.047749
22385.942116,-1776.494261,-11917.315666,3064.381992
22385.942449,8290.306550,-4515.256246,7814.174080
22385.942782,-3034.844362,-8586.388927,3524.039291
22385.943115,444.123565,-2664.741391,2681.334243
22385.943449,-2886.803174,-5551.544565,1149.143247
22385.943782,-2664.741391,-10362.883188,229.828649
22385.944115,3552.988522,-1258.350101,1838.629195
22385.944448,-1554.432478,-14211.954086,-76.609550
22385.944781,888.247130,-5995.668130,-6358.592633
22385.945115,-7105.977043,-13989.892304,-3830.477490
22385.945448,1998.556043,-11843.295072,-4979.620737
22385.945781,1184.329507,-8364.327145,0.000000
22385.946114,-2146.597232,-14063.912898,1838.629195
22385.946447,3627.009116,-3923.091493,-2145.067394
22385.946780,-3330.926739,-16654.633695,2911.162892
22385.947114,8882.471304,-4293.194464,4673.182538
22385.947447,7031.956449,-11843.295072,4826.401637
22385.947780,5033.400406,-6587.832884,7660.954980
22385.948113,1184.329507,-5403.503377,3753.867940
22385.948446,-222.061783,-14211.954086,842.705048
22385.948779,-1776.494261,-9474.636058,-2528.115143
22385.949113,-4071.132681,-9918.759623,-4443.353888
22385.949446,-2738.761985,-10881.027347,-4060.306139
22385.949779,-2368.659014,-7105.977043,-842.705048
22385.950112,-7179.997637,-11843.295072,-4366.744339
22385.950445,-6957.935855,-5995.668130,-4903.011187
22385.950779,-4441.235652,-7476.080014,2451.505594
22385.951112,4367.215058,-7994.224174,8503.660028
22385.951445,5847.626942,-3923.091493,7660.954980
22385.951778,2368.659014,-8142.265362,-76.609550
22385.952111,1850.514855,-11325.150913,1532.190996
22385.952444,1332.370696,-10362.883188,76.609550
22385.952778,7624.121203,-9918.759623,1915.238745
22385.953111,814.226536,-13027.624579,536.266849
22385.953444,1184.329507,-11325.150913,-3907.087040
22385.953777,-2812.782580,-12953.603985,-2528.115143
22385.954110,-1776.494261,-9992.780217,1302.362347
22385.954444,0.000000,-5403.503377,1225.752797
22385.954777,1480.411884,-7179.997637,9499.584175
22385.955110,-1258.350101,-3849.070898,1225.752797
22385.955443,-2072.576638,-3627.009116,0.000000
22385.955776,-2368.659014,-7846.182985,1991.848295
22385.956109,0.000000,-4811.338623,0.000000
22385.956443,370.102971,-10362.883188,-76.609550
22385.956776,-370.102971,-10732.986159,-1608.800546
22385.957109,-3775.050304,-12657.521608,-6665.030833
22385.957442,-222.061783,-13915.871710,-2681.334243
22385.957775,-1776.494261,-10732.986159,-1302.362347
22385.958108,-74.020594,-11251.130318,-2681.334243
22385.958442,0.000000,-4219.173869,3370.820191
22385.958775,4737.318029,-11029.068536,3600.648841
22385.959108,8216.285956,-13323.706956,11568.042020
22385.959441,4219.173869,-9178.553681,4826.401637
22385.959774,3552.988522,-9474.636058,3524.039291
22385.960108,3478.967927,-5551.544565,2681.334243
22385.960441,-2590.720797,-11103.089130,-995.924147
22385.960774,2368.659014,-8660.409521,-76.609550
22385.961107,-8290.306550,-12509.480420,-7354.516781
22385.961440,-2960.823768,-9918.759623,-4979.620737
22385.961773,-3034.844362,-10658.965565,-689.485948
22385.962107,-740.205942,-1332.370696,0.000000
22385.962440,-2738.761985,-6439.791695,-995.924147
22385.962773,-3923.091493,-12213.398043,-2221.676944
22385.963106,1850.514855,-7328.038826,459.657299
22385.963439,592.164754,-9400.615463,3524.039291
22385.963772,11177.109724,-7105.977043,6665.030833
22385.964106,4737.318029,-7179.997637,6665.030833
22385.964439,7031.956449,-15396.283594,1762.019645
22385.964772,3478.967927,-7772.162391,3677.258390
22385.965105,0.000000,-12213.398043,-1378.971896
22385.965438,3627.009116,-8956.491898,0.000000
22385.965772,-4293.194464,-10955.047942,229.828649
22385.966105,-1406.391290,-7254.018232,-4290.134789
22385.966438,-4515.256246,-8734.430116,689.485948
22385.966771,-8882.471304,-10732.986159,-4903.011187
22385.967104,1036.288319,-6957.935855,2374.896044
22385.967437,-3034.844362,-8734.430116,1838.629195
22385.967771,1184.329507,-3627.009116,3064.381992
22385.968104,-1184.329507,-11251.130318,2911.162892
22385.968437,0.000000,-6587.832884,153.219100
22385.968770,2146.597232,-8956.491898,1225.752797
22385.969103,-148.041188,-11695.253884,536.266849
22385.969437,4293.194464,-7179.997637,-2145.067394
22385.969770,-6439.791695,-14285.974681,-4903.011187
22385.970103,592.164754,-12435.459826,-5669.106685
22385.970436,-1850.514855,-12731.542202,-3600.648841
22385.970769,4367.215058,-14508.036463,5056.230287
22385.971102,7031.956449,-6217.729913,7890.783629
22385.971436,1110.308913,-7772.162391,3983.696590
22385.971769,592.164754,-6069.688724,2451.505594
22385.972102,-1554.432478,-9178.553681,-76.609550
22385.972435,3108.864956,-5403.503377,3217.601092
22385.972768,-592.164754,-8808.450710,5745.716235
22385.973101,-1628.453072,-6143.709319,-306.438199
22385.973435,-3478.967927,-6809.894666,-6205.373534
22385.973768,-9548.656652,-12435.459826,-7048.078582
22385.974101,-1850.514855,-7846.182985,-8197.221829
22385.974434,-2442.679609,-8956.491898,-3677.258390
22385.974767,-148.041188,-16580.613101,-76.609550
22385.975101,4663.297435,-8290.306550,-76.609550
22385.975434,370.102971,-9548.656652,3064.381992
22385.975767,8216.285956,-7994.224174,7277.907231
22385.976100,9030.512492,-7476.080014,9422.974625
22385.976433,5921.647536,-10362.883188,3983.696590
22385.976766,9400.615463,-8290.306550,6052.154434
22385.977100,-3256.906145,-11917.315666,0.000000
22385.977433,3478.967927,-3627.009116,-4903.011187
22385.977766,-3627.009116,-13619.789333,-1302.362347
22385.978099,-1554.432478,-8290.306550,-8810.098227
22385.978432,-6365.771101,-7772.162391,-3064.381992
22385.978765,-9770.718434,-12287.418637,-6128.763984
22385.979099,-4219.173869,-7550.100608,-2298.286494
22385.979432,-1924.535449,-6809.894666,4519.963438
22385.979765,5773.606348,-6513.812290,5286.058936
22385.980098,4663.297435,-6513.812290,10648.727422
22385.980431,4737.318029,-1406.391290,3753.867940
22385.980765,-2738.761985,-11251.130318,-2528.115143
22385.981098,0.000000,-13101.645173,-2221.676944
22385.981431,3182.885551,-15988.448347,-1302.362347
22385.981764,-74.020594,-15248.242405,-76.609550
22385.982097,3478.967927,-7772.162391,-1225.752797
22385.982430,-5107.421000,-11843.295072,-1608.800546
22385.982764,-2146.597232,-8290.306550,-2604.724693
22385.983097,0.000000,-7179.997637,1991.848295
22385.983430,3478.967927,-9474.636058,5439.278036
22385.983763,3108.864956,-2442.679609,7967.393179
22385.984096,-3552.988522,-5107.421000,6741.640382
22385.984429,1998.556043,-4737.318029,-383.047749
22385.984763,-370.102971,-9474.636058,-383.047749
22385.985096,-1110.308913,-10584.944971,-5975.544884
22385.985429,-3182.885551,-11547.212695,-6741.640382
22385.985762,-5181.441594,-10510.924376,-9576.193725
22385.986095,-3552.988522,-11325.150913,-4596.572988
22385.986429,-74.020594,-11843.295072,-76.609550
22385.986762,5033.400406,-7328.038826,3600.648841
22385.987095,7624.121203,-8956.491898,8120.612279
22385.987428,9400.615463,-8438.347739,7890.783629
22385.987761,2664.741391,-7179.997637,7354.516781
22385.988094,5255.462188,-5921.647536,3600.648841
22385.988428,1998.556043,-5107.421000,0.000000
22385.988761,5699.585753,-10658.965565,4213.525239
22385.989094,2294.638420,-9474.636058,-76.609550
22385.989427,-6069.688724,-9548.656652,-6741.640382
22385.989760,-9178.553681,-11621.233289,-11338.213370
22385.990094,-6513.812290,-13397.727550,-6818.249932
22385.990427,-2368.659014,-8882.471304,-1915.238745
22385.990760,-2368.659014,-9104.533087,1838.629195
22385.991093,3478.967927,-5625.565159,2681.334243
22385.991426,888.247130,-4811.338623,3677.258390
22385.991759,4737.318029,-7698.141797,5439.278036
22385.992093,6439.791695,-8290.306550,2681.334243
22385.992426,4145.153275,-12805.562797,6358.592633
22385.992759,5107.421000,-6143.709319,842.705048
22385.993092,-962.267725,-15544.324782,-1608.800546
22385.993425,-1554.432478,-9326.594869,-5745.716235
22385.993758,-3034.844362,-11843.295072,-2528.115143
22385.994091,-74.020594,-9474.636058,-4979.620737
22385.994424,-2368.659014,-11029.068536,1532.190996
22385.994757,-4737.318029,-9844.739029,4213.525239
22385.995090,-3182.885551,-7698.141797,2068.457845
22385.995424,3478.967927,-2368.659014,6052.154434
22385.995757,0.000000,-5995.668130,5515.887586
22385.996090,5033.400406,-6513.812290,7277.907231
22385.996423,0.000000,-5625.565159,-2604.724693
22385.996756,-5181.441594,-12657.521608,-4290.134789
22385.997089,-2368.659014,-10732.986159,-6741.640382
22385.997422,-3108.864956,-14211.954086,-1915.238745
22385.997755,2294.638420,-11843.295072,-2221.676944
22385.998088,370.102971,-8364.327145,-2451.505594
22385.998421,1110.308913,-14211.954086,-1302.362347
22385.998754,-1480.411884,-10140.821405,4903.011187
22385.999087,5255.462188,-1184.329507,5056.230287
22385.999421,2812.782580,-7624.121203,6818.249932
22385.999754,4737.318029,-5995.668130,6741.640382
22386.000087,0.000000,-5403.503377,1838.629195
22386.000420,-1554.432478,-12361.439231,76.609550
22386.000753,222.061783,-6217.729913,-4213.525239
22386.001086,-1480.411884,-12435.459826,-1915.238745
22386.001419,2294.638420,-11843.295072,-1915.238745
22386.001752,-3330.926739,-9548.656652,-4903.011187
22386.002085,-2294.638420,-13471.748144,-4290.134789
22386.002418,-1184.329507,-9474.636058,-76.609550
22386.002751,2368.659014,-8142.265362,-1225.752797
22386.003084,6217.729913,-11917.315666,5822.325785
22386.003418,7476.080014,-5107.421000,8810.098227
22386.003751,3478.967927,-7920.203579,4136.915689
22386.004084,2368.659014,-8290.306550,1762.019645
22386.004417,296.082377,-10732.986159,-612.876398
22386.004750,2664.741391,-7772.162391,1838.629195
22386.005083,5847.626942,-9474.636058,-1608.800546
22386.005416,-74.020594,-11843.295072,-3140.991542
22386.005749,-5995.668130,-11473.192101,-6511.811733
22386.006082,-4219.173869,-9770.718434,-4979.620737
22386.006415,-1702.473667,-10066.800811,-842.705048
22386.006748,148.041188,-5255.462188,1991.848295
22386.007081,-3034.844362,-9918.759623,1762.019645
22386.007415,2294.638420,-4737.318029,2374.896044
22386.007748,-3552.988522,-11029.068536,2451.505594
22386.008081,6291.750507,-7105.977043,6052.154434
22386.008414,2368.659014,-7772.162391,5515.887586
22386.008747,1184.329507,-7772.162391,3064.381992
22386.009080,1480.411884,-10584.944971,1149.143247
22386.009413,-5773.606348,-13323.706956,-5975.544884
22386.009746,0.000000,-11769.274478,-2757.943793
22386.010079,-740.205942,-8956.491898,-2298.286494
22386.010412,-1480.411884,-11325.150913,0.000000
22386.010745,-296.082377,-8290.306550,3907.087040
22386.011078,-2146.597232,-9474.636058,-76.609550
22386.011412,0.000000,-5403.503377,4826.401637
22386.011745,-74.020594,-7105.977043,4826.401637
22386.012078,2368.659014,-1850.514855,2757.943793
22386.012411,74.020594,-8068.244768,4673.182538
22386.012744,-740.205942,-10066.800811,-995.924147
22386.013077,-2960.823768,-11917.315666,-2145.067394
22386.013410,-4737.318029,-12657.521608,-4903.011187
22386.013743,4367.215058,-11843.295072,-4979.620737
22386.014076,-74.020594,-11991.336260,-919.314598
22386.014409,1184.329507,-7179.997637,-2451.505594
22386.014742,-2442.679609,-18949.272115,-1302.362347
22386.015075,2960.823768,-7698.141797,3064.381992
22386.015409,6069.688724,-6217.729913,6281.983084
22386.015742,6513.812290,-6217.729913,10035.851024
22386.016075,3552.988522,-5477.523971,4136.915689
22386.016408,-2960.823768,-8734.430116,0.000000
22386.016741,962.267725,-8660.409521,229.828649
22386.017074,1332.370696,-6143.709319,-766.095498
22386.017407,0.000000,-11177.109724,0.000000
22386.017740,-2146.597232,-7254.018232,-2528.115143
22386.018073,-11251.130318,-13101.645173,-4903.011187
22386.018406,-1924.535449,-8438.347739,-2528.115143
22386.018739,-1850.514855,-11843.295072,-2987.772442
22386.019072,5033.400406,-4811.338623,2068.457845
22386.019406,4663.297435,-9474.636058,3600.648841
22386.019739,3701.029710,-8068.244768,6052.154434
22386.020072,4737.318029,-10140.821405,4060.306139
22386.020405,592.164754,-11177.109724,2374.896044
22386.020738,6513.812290,-6291.750507,2451.505594
22386.021071,592.164754,-11917.315666,459.657299
22386.021404,4663.297435,-8882.471304,1072.533697
22386.021737,-3552.988522,-8364.327145,0.000000
22386.022070,0.000000,-8956.491898,-1915.238745
22386.022403,-1184.329507,-6883.915261,0.000000
22386.022736,-3627.009116,-13323.706956,-2221.676944
22386.023069,1406.391290,-8734.430116,919.314598
22386.023403,-5625.565159,-6291.750507,-919.314598
22386.023736,-1258.350101,-11843.295072,-76.609550
22386.024069,0.000000,-7328.038826,5439.278036
22386.024402,3478.967927,-7550.100608,0.000000
22386.024735,3849.070898,-7328.038826,4596.572988
22386.025068,-74.020594,-9474.636058,2374.896044
22386.025401,-2294.638420,-8512.368333,-2451.505594
22386.025734,-962.267725,-15174.221811,-5822.325785
22386.026067,296.082377,-13027.624579,-153.219100
22386.026400,2072.576638,-10807.006753,0.000000
22386.026733,-3627.009116,-6587.832884,0.000000
22386.027066,-814.226536,-8882.471304,-76.609550
22386.027400,-5921.647536,-5995.668130,-1838.629195
22386.027733,0.000000,-5995.668130,6128.763984
22386.028066,3478.967927,-5181.441594,1762.019645
22386.028399,444.123565,-9326.594869,4673.182538
22386.028732,-518.144159,-6735.874072,3217.601092
22386.029065,-370.102971,-6143.709319,1149.143247
22386.029398,74.020594,-6957.935855,-4443.353888
22386.029731,-1776.494261,-12213.398043,-2451.505594
22386.030064,-2738.761985,-10066.800811,-8810.098227
22386.030397,-592.164754,-13323.706956,-2528.115143
22386.030730,-1258.350101,-15396.283594,-1608.800546
22386.031063,518.144159,-5995.668130,0.000000
22386.031397,0.000000,-7550.100608,3907.087040
22386.031730,7476.080014,-9548.656652,5975.544884
22386.032063,6513.812290,-7254.018232,7660.954980
22386.032396,6143.709319,-4737.318029,6741.640382
22386.032729,5921.647536,-6587.832884,3677.258390
22386.033062,-74.020594,-9548.656652,0.000000
22386.033395,2590.720797,-9992.780217,-2221.676944
22386.033728,-3627.009116,-12731.542202,-5286.058936
22386.034061,-2664.741391,-12435.459826,-6665.030833
22386.034394,-7105.977043,-11917.315666,-7354.516781
22386.034727,-3775.050304,-9474.636058,-5286.058936
22386.035060,-2146.597232,-5403.503377,0.000000
22386.035394,3182.885551,-6513.812290,4826.401637
22386.035727,5107.421000,-6513.812290,6052.154434
22386.036060,2960.823768,-5107.421000,7737.564530
22386.036393,1110.308913,-8882.471304,229.828649
22386.036726,4293.194464,-9548.656652,459.657299
22386.037059,4293.194464,-9474.636058,2221.676944
22386.037392,4515.256246,-11399.171507,-76.609550
22386.037725,-74.020594,-12583.501014,-4060.306139
22386.038058,-4441.235652,-14211.954086,-7354.516781
22386.038391,-2294.638420,-12435.459826,-3753.867940
22386.038724,-1332.370696,-6587.832884,-1225.752797
22386.039057,1184.329507,-9474.636058,4213.525239
22386.039391,0.000000,-7179.997637,6281.983084
22386.039724,2442.679609,-6735.874072,5669.106685
22386.040057,962.267725,-5403.503377,3830.477490
22386.040390,2146.597232,-5773.606348,2681.334243
22386.040723,2294.638420,-7328.038826,612.876398
22386.041056,1184.329507,-5699.585753,1915.238745
22386.041389,-3627.009116,-14211.954086,-6818.249932
22386.041722,-4737.318029,-13101.645173,-6128.763984
22386.042055,-5477.523971,-13915.871710,-8044.002729
22386.042388,0.000000,-10362.883188,-1915.238745
22386.042721,2146.597232,-9622.677246,1455.581446
22386.043054,1036.288319,-8956.491898,-76.609550
22386.043388,-2960.823768,-11917.315666,6741.640382
22386.043721,3552.988522,-4071.132681,7967.393179
22386.044054,6439.791695,-8290.306550,7277.907231
22386.044387,5181.441594,-2442.679609,7354.516781
22386.044720,0.000000,-5995.668130,4213.525239
22386.045053,-3034.844362,-10658.965565,-2528.115143
22386.045386,-4737.318029,-9104.533087,-7048.078582
22386.045719,-4959.379811,-12583.501014,-6665.030833
22386.046052,-2368.659014,-10807.006753,-4443.353888
22386.046385,-4737.318029,-12213.398043,-4596.572988
22386.046718,-2960.823768,-10658.965565,-1149.143247
22386.047051,-592.164754,-5847.626942,1149.143247
22386.047385,2146.597232,-8438.347739,3524.039291
22386.047718,6439.791695,-11251.130318,6665.030833
22386.048051,5847.626942,-9474.636058,10955.165621
22386.048384,5329.482782,-4811.338623,5209.449386
22386.048717,2368.659014,-13619.789333,8503.660028
22386.049050,2294.638420,-5773.606348,-3907.087040
22386.049383,1998.556043,-7920.203579,-3677.258390
22386.049716,3182.885551,-14211.954086,-3140.991542
22386.050049,148.041188,-9622.677246,-3600.648841
22386.050382,-7105.977043,-11843.295072,-7584.345430
22386.050715,-3923.091493,-11843.295072,-4596.572988
22386.051048,-3923.091493,-13323.706956,-1302.362347
22386.051382,2960.823768,-4811.338623,6741.640382
22386.051715,6735.874072,-6365.771101,9422.974625
22386.052048,2368.659014,-592.164754,3907.087040
22386.052381,0.000000,-6291.750507,3064.381992
22386.052714,1554.432478,-7920.203579,4443.353888
22386.053047,5551.544565,-5625.565159,1072.533697
22386.053380,1332.370696,-13693.809927,-612.876398
22386.053713,1184.329507,-9918.759623,-4290.134789
22386.054046,-7402.059420,-12361.439231,-10955.165621
22386.054379,-74.020594,-13027.624579,-4979.620737
22386.054712,-74.020594,-15396.283594,-2911.162892
22386.055045,1184.329507,-9548.656652,5209.449386
22386.055379,5773.606348,-8290.306550,6894.859482
22386.055712,296.082377,-6291.750507,4903.011187
22386.056045,888.247130,-6883.915261,4903.011187
22386.056378,3034.844362,-4071.132681,3983.696590
22386.056711,4959.379811,-7994.224174,4979.620737
22386.057044,-1184.329507,-8660.409521,0.000000
22386.057377,-74.020594,-9474.636058,-2834.553343
22386.057710,-9474.636058,-9548.656652,-11031.775171
22386.058043,-5921.647536,-11325.150913,-7048.078582
22386.058376,-1554.432478,-11843.295072,-3753.867940
22386.058709,666.185348,-9178.553681,1608.800546
22386.059042,-222.061783,-6217.729913,459.657299
22386.059376,1702.473667,-8882.471304,0.000000
22386.059709,-74.020594,-12731.542202,8810.098227
22386.060042,4663.297435,-9326.594869,7277.907231
22386.060375,4663.297435,-8438.347739,5515.887586
22386.060708,2368.659014,-1554.432478,3294.210641
22386.061041,1110.308913,-9474.636058,-1915.238745
22386.061374,-4515.256246,-11621.233289,-3677.258390
22386.061707,-1406.391290,-15100.201217,-4979.620737
22386.062040,-5403.503377,-12879.583391,-3983.696590
22386.062373,-74.020594,-7698.141797,-3907.087040
22386.062706,-2442.679609,-9104.533087,-2911.162892
22386.063039,-74.020594,-11547.212695,-76.609550
22386.063373,2812.782580,-8438.347739,2451.505594
22386.063706,3552.988522,-6365.771101,4903.011187
22386.064039,6809.894666,-5773.606348,5515.887586
22386.064372,888.247130,-7476.080014,3677.258390
22386.064705,1184.329507,-7476.080014,3907.087040
22386.065038,-2442.679609,-10288.862594,-2451.505594
22386.065371,0.000000,-6291.750507,-7354.516781
22386.065704,-1554.432478,-14063.912898,-76.609550
22386.066037,0.000000,-5921.647536,-1915.238745
22386.066370,-1332.370696,-9992.780217,689.485948
22386.066703,-1998.556043,-10066.800811,383.047749
22386.067036,-2072.576638,-8734.430116,-2604.724693
22386.067370,2368.659014,-10288.862594,6128.763984
22386.067703,5995.668130,-9400.615463,6052.154434
22386.068036,3478.967927,-4219.173869,3064.381992
22386.068369,1776.494261,-7772.162391,3064.381992
22386.068702,1702.473667,-14211.954086,-995.924147
22386.069035,-1776.494261,-10140.821405,-2451.505594
22386.069368,3182.885551,-11103.089130,-689.485948
22386.069701,962.267725,-10955.047942,-1378.971896
22386.070034,-3182.885551,-9770.718434,-5056.230287
22386.070367,-3034.844362,-12435.459826,-4060.306139
22386.070700,296.082377,-8660.409521,1149.143247
22386.071033,1406.391290,-6587.832884,2451.505594
22386.071367,1184.329507,-7624.121203,5132.839837
22386.071700,4589.276840,-7698.141797,4213.525239
22386.072033,1110.308913,-11547.212695,2374.896044
22386.072366,2812.782580,-7179.997637,4443.353888
22386.072699,3775.050304,-6661.853478,3217.601092
22386.073032,518.144159,-9030.512492,1455.581446
22386.073365,-3552.988522,-8956.491898,-2145.067394
22386.073698,-666.185348,-7105.977043,-5592.497135
22386.074031,-5625.565159,-14582.057057,-6128.763984
22386.074364,1776.494261,-8290.306550,-76.609550
22386.074697,-5995.668130,-13175.665768,-4290.134789
22386.075030,0.000000,-9548.656652,1225.752797
22386.075364,-3552.988522,-4959.379811,536.266849
22386.075697,-740.205942,-7179.997637,2528.115143
22386.076030,5329.482782,-5773.606348,7354.516781
22386.076363,3330.926739,-7698.141797,6358.592633
22386.076696,4367.215058,-9548.656652,4903.011187
22386.077029,3256.906145,-7105.977043,4213.525239
22386.077362,1406.391290,-8882.471304,-2528.115143
22386.077695,0.000000,-10140.821405,-6741.640382
22386.078028,0.000000,-15766.386565,-7660.954980
22386.078361,-6217.729913,-13989.892304,-6128.763984
22386.078694,-148.041188,-8956.491898,-2528.115143
22386.079027,-2368.659014,-11325.150913,-306.438199
22386.079361,-74.020594,-11547.212695,4826.401637
22386.079694,-1184.329507,-4219.173869,6281.983084
22386.080027,2886.803174,-1480.411884,6665.030833
22386.080360,2590.720797,-1850.514855,6894.859482
22386.080693,1110.308913,-7698.141797,5592.497135
22386.081026,1924.535449,-9178.553681,5132.839837
22386.081359,1702.473667,-9548.656652,-2451.505594
22386.081692,0.000000,-9548.656652,-2451.505594
22386.082025,1702.473667,-13027.624579,-5286.058936
22386.082358,-3330.926739,-13397.727550,-7967.393179
22386.082691,-2368.659014,-13693.809927,-6205.373534
22386.083024,-2072.576638,-15766.386565,-1991.848295
22386.083358,1258.350101,-7920.203579,2374.896044
22386.083691,1332.370696,-9770.718434,5898.935335
22386.084024,4663.297435,-7105.977043,4519.963438
22386.084357,3552.988522,-6587.832884,8886.707777
22386.084690,7105.977043,-4737.318029,10342.289223
22386.085023,7920.203579,-7105.977043,5745.716235
22386.085356,0.000000,-9548.656652,1532.190996
22386.085689,3182.885551,-9474.636058,-2528.115143
22386.086022,-4441.235652,-8586.388927,-7431.126331
22386.086355,-4071.132681,-11325.150913,-8197.221829
22386.086688,-6587.832884,-13027.624579,-6818.249932
22386.087021,-4737.318029,-8364.327145,-4903.011187
22386.087355,-4737.318029,-7772.162391,1225.752797
22386.087688,-74.020594,-10510.924376,2374.896044
22386.088021,0.000000,-5403.503377,4060.306139
22386.088354,0.000000,-5107.421000,7737.564530
22386.088687,4071.132681,-1998.556043,1991.848295
22386.089020,3849.070898,-6513.812290,5898.935335
22386.089353,1184.329507,-8216.285956,2374.896044
22386.089686,3182.885551,-11843.295072,919.314598
22386.090019,-888.247130,-13989.892304,-1838.629195
22386.090352,-2442.679609,-11843.295072,-2528.115143
22386.090685,-74.020594,-7105.977043,-5592.497135
22386.091018,-4145.153275,-14285.974681,-1378.971896
22386.091352,-1184.329507,-11325.150913,1149.143247
22386.091685,-370.102971,-8660.409521,0.000000
22386.092018,1702.473667,-10362.883188,2528.115143
22386.092351,888.247130,-7994.224174,6205.373534
22386.092684,3478.967927,-6661.853478,4979.620737
22386.093017,4663.297435,-6661.853478,7048.078582
22386.093350,0.000000,-4663.297435,3600.648841
22386.093683,-2442.679609,-7105.977043,-4979.620737
22386.094016,-4737.318029,-9548.656652,-1225.752797
22386.094349,-3923.091493,-9178.553681,-4979.620737
22386.094682,-3923.091493,-6587.832884,-7201.297681
22386.095015,-3923.091493,-11473.192101,-1915.238745
22386.095348,-3034.844362,-7624.121203,-3370.820191
22386.095681,2368.659014,-11843.295072,2145.067394
22386.096014,7031.956449,-10362.883188,5745.716235
22386.096347,7402.059420,-9326.594869,6511.811733
22386.096680,2812.782580,-12213.398043,5209.449386
22386.097013,4219.173869,-7624.121203,4290.134789
22386.097346,-666.185348,-11325.150913,-766.095498
22386.097678,6439.791695,-9474.636058,2987.772442
22386.098011,-2960.823768,-8956.491898,-2451.505594
22386.098344,3478.967927,-7105.977043,-3140.991542
22386.098677,-4145.153275,-7476.080014,-1532.190996
22386.099010,-5921.647536,-9548.656652,-2451.505594
22386.099343,-1554.432478,-11695.253884,-1991.848295
22386.099676,-370.102971,-6735.874072,2987.772442
22386.100009,3182.885551,-10362.883188,1762.019645
22386.100342,5773.606348,-7105.977043,6971.469032
22386.100675,296.082377,-10140.821405,2757.943793
22386.101008,3552.988522,-7105.977043,-1302.362347
22386.101341,3478.967927,-13841.851115,3294.210641
22386.101674,1702.473667,-9992.780217,-4903.011187
22386.102007,3849.070898,-11843.295072,4213.525239
22386.102340,-3627.009116,-10140.821405,-2451.505594
22386.102673,518.144159,-7550.100608,-5132.839837
22386.103006,-3404.947333,-11843.295072,2374.896044
22386.103339,5403.503377,-3923.091493,3677.258390
22386.103672,0.000000,-7772.162391,4903.011187
22386.104005,2294.638420,-11251.130318,5745.716235
22386.104338,-666.185348,-6809.894666,-1302.362347
22386.104671,-2738.761985,-11029.068536,1225.752797
22386.105004,6069.688724,-5033.400406,3907.087040
22386.105337,-1776.494261,-10436.903782,995.924147
22386.105670,-592.164754,-9104.533087,-3217.601092
22386.106003,-5921.647536,-12213.398043,-7048.078582
22386.106336,-4959.379811,-16284.530724,-5132.839837
22386.106669,-74.020594,-8290.306550,-76.609550
22386.107002,-666.185348,-7105.977043,-2528.115143
22386.107335,2368.659014,-6587.832884,1838.629195
22386.107668,2294.638420,-13619.789333,9729.412825
22386.108001,9400.615463,-2072.576638,3600.648841
22386.108334,0.000000,-10732.986159,8427.050478
22386.108667,5551.544565,-4441.235652,1302.362347
22386.109000,0.000000,-11547.212695,-766.095498
22386.109333,-666.185348,-11251.130318,229.828649
22386.109666,-666.185348,-11843.295072,-3753.867940
22386.109999,-5699.585753,-9548.656652,-5975.544884
22386.110332,-2220.617826,-9030.512492,-4366.744339
22386.110665,-3330.926739,-9326.594869,-2681.334243
22386.110998,-2368.659014,-7179.997637,1225.752797
22386.111331,-4441.235652,-5995.668130,3217.601092
22386.111664,-74.020594,-9474.636058,-1302.362347
22386.111997,-1776.494261,-7179.997637,0.000000
22386.112330,5033.400406,-8364.327145,6511.811733
22386.112663,5181.441594,-5181.441594,3370.820191
22386.112996,4145.153275,-10288.862594,3064.381992
22386.113328,-1924.535449,-11473.192101,-2451.505594
22386.113661,-1332.370696,-11473.192101,-995.924147
22386.113994,3478.967927,-8808.450710,-919.314598
22386.114327,2886.803174,-10140.821405,-1915.238745
22386.114660,1998.556043,-10658.965565,919.314598
22386.114993,-1776.494261,-6143.709319,2604.724693
22386.115326,-4737.318029,-9548.656652,1072.533697
22386.115659,1924.535449,-7772.162391,4290.134789
22386.115992,1258.350101,-7550.100608,2987.772442
22386.116325,1184.329507,-7772.162391,4903.011187
22386.116658,-2072.576638,-7846.182985,-1455.581446
22386.116991,-2146.597232,-13027.624579,-995.924147
22386.117324,0.000000,-5107.421000,2145.067394
22386.117657,0.000000,-3552.988522,-5439.278036
22386.117990,0.000000,-9548.656652,-1225.752797
22386.118323,-1036.288319,-12435.459826,-4596.572988
22386.118656,-370.102971,-13027.624579,-4366.744339
22386.118989,2590.720797,-9918.759623,-1302.362347
22386.119322,2368.659014,-12509.480420,1149.143247
22386.119655,7624.121203,-9326.594869,4519.963438
22386.119988,4811.338623,-10658.965565,9346.365076
22386.120321,6439.791695,-9474.636058,4519.963438
22386.120654,-1776.494261,-9548.656652,3217.601092
22386.120987,2368.659014,-9474.636058,2987.772442
22386.121320,2886.803174,-5329.482782,0.000000
22386.121653,0.000000,-4811.338623,0.000000
22386.121986,-1554.432478,-9178.553681,-2451.505594
22386.122319,-7624.121203,-10955.047942,-3524.039291
22386.122652,-4071.132681,-8290.306550,-8120.612279
22386.122985,-4441.235652,-11621.233289,-3217.601092
22386.123318,-1850.514855,-8438.347739,-4903.011187
22386.123651,1184.329507,-11029.068536,5439.278036
22386.123984,1406.391290,-8882.471304,3907.087040
22386.124317,2294.638420,-7179.997637,2451.505594
22386.124650,3849.070898,-7179.997637,8886.707777
22386.124983,6587.832884,-5477.523971,3370.820191
22386.125316,6143.709319,-7550.100608,4673.182538
22386.125649,74.020594,-9770.718434,1302.362347
22386.125982,-1924.535449,-9844.739029,-4213.525239
22386.126315,-1850.514855,-10807.006753,-9193.145976
22386.126648,-1332.370696,-11769.274478,-229.828649
22386.126981,1554.432478,-7105.977043,-153.219100
22386.127314,-5255.462188,-11251.130318,-995.924147
22386.127647,-3404.947333,-9622.677246,842.705048
22386.127980,-4219.173869,-9474.636058,-1302.362347
22386.128313,0.000000,-5107.421000,3677.258390
22386.128646,1776.494261,-6291.750507,4749.792088
22386.128978,814.226536,-9030.512492,3064.381992
22386.129311,-2368.659014,-7179.997637,2451.505594
22386.129644,-1924.535449,-5107.421000,-3524.039291
22386.129977,0.000000,-9252.574275,-3524.039291
22386.130310,2886.803174,-12731.542202,-2681.334243
22386.130643,3478.967927,-13619.789333,-689.485948
22386.130976,2294.638420,-9326.594869,-4903.011187
22386.131309,-2368.659014,-12509.480420,-919.314598
22386.131642,-74.020594,-10658.965565,2374.896044
22386.131975,-74.020594,-10066.800811,2374.896044
22386.132308,8808.450710,-8290.306550,8503.660028
22386.132641,1332.370696,-8068.244768,5822.325785
22386.132974,3034.844362,-7402.059420,4213.525239
22386.133307,-2442.679609,-8142.265362,2834.553343
22386.133640,2960.823768,1110.308913,-1532.190996
22386.133973,-1258.350101,-12361.439231,-3677.258390
22386.134306,2294.638420,-7698.141797,-4979.620737
22386.134639,-8364.327145,-14952.160028,-9269.755526
22386.134972,-6365.771101,-10436.903782,-9806.022374
22386.135305,2590.720797,-7031.956449,-995.924147
22386.135638,-1480.411884,-11621.233289,1915.238745
22386.135971,11251.130318,-5995.668130,8503.660028
22386.136304,148.041188,-10214.842000,6894.859482
22386.136637,7772.162391,-10214.842000,5822.325785
22386.136970,-2368.659014,-9548.656652,3677.258390
22386.137303,8808.450710,-10658.965565,6052.154434
22386.137636,8216.285956,-4811.338623,6128.763984
22386.137969,2960.823768,-7550.100608,2451.505594
22386.138302,-2072.576638,-9770.718434,-4903.011187
22386.138635,-8956.491898,-9474.636058,-12334.137518
22386.138968,-3923.091493,-11991.336260,-8044.002729
22386.139301,-7179.997637,-13027.624579,-4826.401637
22386.139634,1110.308913,-8290.306550,-1302.362347
22386.139967,-4737.318029,-12139.377449,6052.154434
22386.140300,-1184.329507,-2738.761985,2451.505594
22386.140633,0.000000,-3627.009116,4903.011187
22386.140966,8216.285956,-10066.800811,7124.688131
22386.141299,9400.615463,-10362.883188,5515.887586
22386.141632,1184.329507,-11843.295072,4903.011187
22386.141965,-74.020594,-10807.006753,-4519.963438
22386.142298,-6957.935855,-15840.407159,-5209.449386
22386.142631,2294.638420,-4737.318029,-4826.401637
22386.142964,-1110.308913,-11399.171507,-1302.362347
22386.143297,148.041188,-7402.059420,-1685.410096
22386.143630,-2442.679609,-7846.182985,-2451.505594
22386.143963,-5181.441594,-13397.727550,2298.286494
22386.144296,7031.956449,-2960.823768,7890.783629
22386.144629,1480.411884,-7179.997637,10955.165621
22386.144961,7920.203579,-6513.812290,5439.278036
22386.145294,-2368.659014,-7179.997637,1532.190996
22386.145627,-4737.318029,-11917.315666,-4903.011187
22386.145960,-666.185348,-11547.212695,-5592.497135
22386.146293,-3627.009116,-12065.356855,-4979.620737
22386.146626,1184.329507,-8438.347739,-2604.724693
22386.146959,-2960.823768,-10807.006753,459.657299
22386.147292,0.000000,-5995.668130,-1838.629195
22386.147625,888.247130,-9178.553681,2374.896044
22386.147958,6439.791695,-9474.636058,7277.907231
22386.148291,4737.318029,-7179.997637,9806.022374
22386.148624,7031.956449,-7105.977043,8503.660028
22386.148957,1480.411884,-7772.162391,2451.505594
22386.149290,-2442.679609,-10658.965565,-1685.410096
22386.149623,-1924.535449,-10807.006753,-3677.258390
22386.149956,-1850.514855,-10584.944971,-5592.497135
22386.150289,-2072.576638,-10140.821405,-5515.887586
22386.150622,-2738.761985,-13027.624579,-4979.620737
22386.150955,-5181.441594,-8364.327145,-4596.572988
22386.151288,-6513.812290,-5995.668130,-2145.067394
22386.151621,1110.308913,-8290.306550,2374.896044
22386.151954,3256.906145,-8956.491898,7737.564530
22386.152287,962.267725,-10288.862594,9346.365076
22386.152620,5847.626942,-518.144159,1915.238745
22386.152953,3034.844362,-13915.871710,-766.095498
22386.153286,7476.080014,-15100.201217,4826.401637
22386.153619,4367.215058,-6513.812290,-383.047749
22386.153952,-4145.153275,-11917.315666,-1532.190996
22386.154285,-370.102971,-7994.224174,-3753.867940
22386.154618,-9844.739029,-11917.315666,-10725.336972
22386.154951,3108.864956,-5625.565159,2374.896044
22386.155284,-3552.988522,-6883.915261,459.657299
22386.155617,1480.411884,-6735.874072,2757.943793
22386.155950,-3034.844362,-8956.491898,5822.325785
22386.156283,1110.308913,-4737.318029,4826.401637
22386.156616,4515.256246,-6809.894666,4443.353888
22386.156949,-1332.370696,-10140.821405,-1072.533697
22386.157282,5551.544565,-10066.800811,-689.485948
22386.157615,-2960.823768,-8956.491898,-4290.134789
22386.157948,2368.659014,-10732.986159,-2757.943793
22386.158281,-1258.350101,-14211.954086,-2834.553343
22386.158614,0.000000,-8882.471304,-4673.182538
22386.158947,1184.329507,-6735.874072,1225.752797
22386.159280,2960.823768,-8364.327145,1225.752797
22386.159613,2368.659014,-8438.347739,4213.525239
22386.159946,-2368.659014,-12805.562797,7737.564530
22386.160279,3997.112087,-2886.803174,2604.724693
22386.160611,5847.626942,-13619.789333,9729.412825
22386.160944,4071.132681,-4811.338623,4366.744339
22386.161277,2294.638420,-5329.482782,-2145.067394
22386.161610,-9474.636058,-10881.027347,-8427.050478
22386.161943,-4737.318029,-10140.821405,-7354.516781
22386.162276,-7179.997637,-16432.571912,-4749.792088
22386.162609,2960.823768,-7772.162391,-1072.533697
22386.162942,-6217.729913,-9992.780217,0.000000
22386.163275,-1110.308913,-5551.544565,229.828649
22386.163608,148.041188,-6439.791695,-1762.019645
22386.163941,2960.823768,-11029.068536,6971.469032
22386.164274,4737.318029,-9548.656652,6128.763984
22386.164607,4737.318029,-8660.409521,7660.954980
22386.164940,7031.956449,-9474.636058,4749.792088
22386.165273,-2590.720797,-9992.780217,-995.924147
22386.165606,1998.556043,-7402.059420,-3217.601092
22386.165939,-1406.391290,-10436.903782,-2451.505594
22386.166272,1850.514855,-7994.224174,-4443.353888
22386.166605,-4219.173869,-14211.954086,-995.924147
22386.166938,-4219.173869,-9474.636058,-3140.991542
22386.167271,-4737.318029,-6883.915261,919.314598
22386.167604,2812.782580,-9178.553681,6665.030833
22386.167937,2294.638420,-5181.441594,842.705048
22386.168270,0.000000,-10140.821405,1225.752797
22386.168603,370.102971,-8586.388927,-1991.848295
22386.168936,-3108.864956,-13175.665768,-1455.581446
22386.169269,1480.411884,-10732.986159,1225.752797
22386.169602,5477.523971,-7550.100608,4673.182538
22386.169935,3478.967927,-7179.997637,0.000000
22386.170268,3552.988522,-9030.512492,2374.896044
22386.170601,1702.473667,-9474.636058,536.266849
22386.170934,-74.020594,-6069.688724,-3600.648841
22386.171267,0.000000,-7772.162391,2451.505594
22386.171600,-3034.844362,-8956.491898,-2757.943793
22386.171933,-1702.473667,-10732.986159,-612.876398
22386.172266,-1184.329507,-6439.791695,1072.533697
22386.172599,-1258.350101,-11177.109724,153.219100
22386.172932,-2146.597232,-11325.150913,0.000000
22386.173265,3034.844362,-8734.430116,1685.410096
22386.173598,-1554.432478,-12435.459826,1225.752797
22386.173931,3627.009116,-3997.112087,3447.429741
22386.174264,-74.020594,-8734.430116,-689.485948
22386.174597,2294.638420,-8882.471304,-2298.286494
22386.174930,888.247130,-6587.832884,0.000000
22386.175263,4367.215058,-9474.636058,-2528.115143
22386.175596,2368.659014,-10140.821405,919.314598
22386.175929,-4737.318029,-10732.986159,-306.438199
22386.176261,-2220.617826,-13397.727550,-2834.553343
22386.176594,1480.411884,-9696.697840,3677.258390
22386.176927,3330.926739,-9400.615463,1762.019645
22386.177260,5107.421000,-8290.306550,4826.401637
22386.177593,2886.803174,-6217.729913,1072.533697
22386.177926,-2960.823768,-10066.800811,-76.609550
22386.178259,-74.020594,-11251.130318,2374.896044
22386.178592,-2442.679609,-5403.503377,-3294.210641
22386.178925,1406.391290,-8290.306550,-1915.238745
22386.179258,-2368.659014,-6143.709319,-2145.067394
22386.179591,-2886.803174,-10807.006753,-5209.449386
22386.179924,-3108.864956,-10955.047942,-3447.429741
22386.180257,2368.659014,-10732.986159,1838.629195
22386.180590,814.226536,-10510.924376,0.000000
22386.180923,4441.235652,-10288.862594,6052.154434
22386.181256,3182.885551,-9178.553681,1991.848295
22386.181589,2368.659014,-7772.162391,766.095498
22386.181922,4145.153275,-5403.503377,5669.106685
22386.182255,3034.844362,-6587.832884,1149.143247
22386.182588,-370.102971,-10214.842000,459.657299
22386.182921,-3627.009116,-7846.182985,-4366.744339
22386.183254,-5699.585753,-11843.295072,-5592.497135
22386.183587,-5921.647536,-8364.327145,-2451.505594
22386.183920,-74.020594,-10658.965565,-3140.991542
22386.184253,-1258.350101,-9844.739029,306.438199
22386.184586,4367.215058,-6513.812290,4903.011187
22386.184919,-74.020594,-13027.624579,-76.609550
22386.185252,296.082377,-11399.171507,2451.505594
22386.185585,3997.112087,-6883.915261,2451.505594
22386.185918,5107.421000,-11991.336260,4060.306139
22386.186251,1776.494261,-6587.832884,4903.011187
22386.186584,2294.638420,-7105.977043,-6205.373534
22386.186917,-3552.988522,-13397.727550,306.438199
22386.187250,-3552.988522,-9548.656652,-76.609550
22386.187583,-4811.338623,-6069.688724,-7354.516781
22386.187916,1406.391290,-8290.306550,1608.800546
22386.188249,666.185348,-8586.388927,0.000000
22386.188582,2294.638420,-10066.800811,4749.792088
22386.188915,962.267725,-6809.894666,3524.039291
22386.189248,592.164754,-5995.668130,1532.190996
22386.189581,4367.215058,-10362.883188,2987.772442
22386.189914,2960.823768,-10066.800811,2757.943793
22386.190247,-2072.576638,-11917.315666,-1685.410096
22386.190580,-4367.215058,-9474.636058,-5132.839837
22386.190913,-2368.659014,-6143.709319,-3524.039291
22386.191246,1110.308913,-7698.141797,2374.896044
22386.191579,2294.638420,-4811.338623,-3370.820191
22386.191912,-2960.823768,-12435.459826,-76.609550
22386.192244,-74.020594,-11843.295072,-76.609550
22386.192561,1184.329507,-9548.656652,4903.011187
22386.192894,3256.906145,-9918.759623,5515.887586
22386.193227,7550.100608,-8808.450710,3753.867940
22386.193560,5551.544565,-8512.368333,7354.516781
22386.193893,1184.329507,-9992.780217,1225.752797
22386.194226,1702.473667,-7994.224174,-1302.362347
22386.194559,-4737.318029,-5995.668130,-7660.954980
22386.194892,-1776.494261,-7772.162391,-2528.115143
22386.195225,-3923.091493,-10658.965565,-3524.039291
22386.195558,-6513.812290,-14285.974681,-1685.410096
22386.195891,-6069.688724,2146.597232,-5592.497135
22386.196224,-4441.235652,-16654.633695,766.095498
22386.196557,6957.935855,740.205942,5439.278036
22386.196890,4663.297435,-4737.318029,4826.401637
22386.197223,3478.967927,-25463.084405,2068.457845
22386.197556,3552.988522,-21095.869347,6894.859482
22386.197889,9400.615463,3552.988522,2987.772442
22386.198222,7179.997637,814.226536,1225.752797
22386.198555,-370.102971,-13619.789333,2374.896044
22386.198888,-10214.842000,-17468.860231,-6052.154434
22386.199221,-9400.615463,-11695.253884,-4826.401637
22386.199554,-4071.132681,-14137.933492,-5132.839837
22386.199887,-888.247130,-5847.626942,-5132.839837
22386.200220,1184.329507,-2442.679609,-4903.011187
22386.200553,3849.070898,-7105.977043,4826.401637
22386.200887,5847.626942,-4811.338623,5209.449386
22386.201220,2516.700203,-9548.656652,7354.516781
22386.201553,6735.874072,-7698.141797,7277.907231
22386.201886,1332.370696,-4811.338623,4673.182538
22386.202219,962.267725,-7105.977043,766.095498
22386.202552,814.226536,-6883.915261,5056.230287
22386.202885,-3552.988522,-2442.679609,-3524.039291
22386.203218,-3182.885551,-10140.821405,-6665.030833
22386.203551,-5847.626942,-19911.539840,-2834.553343
22386.203884,-1110.308913,-10881.027347,-7354.516781
22386.204217,1776.494261,-16284.530724,7814.174080
22386.204550,3478.967927,-14211.954086,2987.772442
22386.204883,3034.844362,-10732.986159,3983.696590
22386.205216,2072.576638,-8734.430116,6741.640382
22386.205549,9104.533087,-8290.306550,1149.143247
22386.205882,4885.359217,-8956.491898,5515.887586
22386.206215,4663.297435,-6809.894666,-2528.115143
22386.206548,-6069.688724,-15100.201217,-7431.126331
22386.206881,-4145.153275,-11399.171507,-9729.412825
22386.207214,-3923.091493,-11251.130318,-9882.631924
22386.207547,0.000000,-7772.162391,-3447.429741
22386.207880,-3552.988522,-5995.668130,-4290.134789
22386.208213,-592.164754,-11843.295072,-2834.553343
22386.208546,-74.020594,-13915.871710,5745.716235
22386.208879,4071.132681,-3849.070898,5439.278036
22386.209212,4663.297435,-8882.471304,8503.660028
22386.209545,4737.318029,-4071.132681,7660.954980
22386.209878,1110.308913,-6809.894666,1762.019645
22386.210211,-3330.926739,-9474.636058,995.924147
22386.210544,-2442.679609,-13027.624579,-3140.991542
22386.210877,-4737.318029,-8364.327145,-2451.505594
22386.211210,-1850.514855,-11843.295072,-2528.115143
22386.211543,-1850.514855,-10140.821405,-1225.752797
22386.211876,-3552.988522,-7179.997637,306.438199
22386.212209,-74.020594,-6143.709319,306.438199
22386.212542,6439.791695,-7698.141797,9193.145976
22386.212875,5699.585753,-6291.750507,7277.907231
22386.213208,7772.162391,-9252.574275,10495.508323
22386.213541,1702.473667,-7179.997637,3600.648841
22386.213874,1110.308913,-11843.295072,1762.019645
22386.214207,-74.020594,-8882.471304,-1302.362347
22386.214540,-3552.988522,-6587.832884,-2451.505594
22386.214873,-74.020594,-8290.306550,-1455.581446
22386.215206,-5921.647536,-8660.409521,-1838.629195
22386.215539,-2442.679609,-5699.585753,-5669.106685
22386.215872,-5847.626942,-11177.109724,-4213.525239
22386.216205,-444.123565,-10584.944971,612.876398
22386.216538,1776.494261,-10732.986159,3677.258390
22386.216871,9104.533087,-11843.295072,6052.154434
22386.217204,4145.153275,-10732.986159,6741.640382
22386.217537,3552.988522,-11473.192101,5975.544884
22386.217870,7031.956449,-10658.965565,4826.401637
22386.218203,1184.329507,-8364.327145,-2145.067394
22386.218536,1332.370696,-10658.965565,-2451.505594
22386.218869,-5033.400406,-9992.780217,-6971.469032
22386.219202,-5551.544565,-9992.780217,-8350.440928
22386.219535,-6365.771101,-8364.327145,-4749.792088
22386.219868,0.000000,-8068.244768,-2221.676944
22386.220201,962.267725,-10288.862594,3447.429741
22386.220534,4071.132681,-5255.462188,1608.800546
22386.220867,1998.556043,-12435.459826,842.705048
22386.221200,0.000000,-11917.315666,6741.640382
22386.221533,7179.997637,-7105.977043,4826.401637
22386.221866,1702.473667,-13027.624579,4826.401637
22386.222199,2886.803174,-74.020594,-1225.752797
22386.222532,-3775.050304,-11251.130318,-4979.620737
22386.222865,-5033.400406,-10288.862594,-3907.087040
22386.223198,74.020594,-4219.173869,-2681.334243
22386.223531,-5847.626942,-10140.821405,612.876398
22386.223864,2368.659014,-4811.338623,1378.971896
22386.224197,-6513.812290,-11029.068536,2451.505594
22386.224530,4367.215058,-7105.977043,1762.019645
22386.224863,1036.288319,-9474.636058,6052.154434
22386.225196,592.164754,-8068.244768,4903.011187
22386.225529,2812.782580,-7994.224174,4213.525239
22386.225862,-1184.329507,-9696.697840,4826.401637
22386.226195,1628.453072,-4737.318029,2374.896044
22386.226528,-518.144159,-7105.977043,-3447.429741
22386.226861,518.144159,-11473.192101,-1378.971896
22386.227194,-6513.812290,-7179.997637,-3753.867940
22386.227527,-74.020594,-10362.883188,-6205.373534
22386.227860,-5033.400406,-14434.015869,-4290.134789
22386.228193,0.000000,-10732.986159,3370.820191
22386.228526,1628.453072,-9918.759623,4903.011187
22386.228859,7328.038826,-6143.709319,6818.249932
22386.229192,5773.606348,-5921.647536,5439.278036
22386.229525,3330.926739,-8956.491898,2451.505594
22386.229858,1702.473667,-11695.253884,-383.047749
22386.230191,-4737.318029,-12879.583391,-2834.553343
22386.230524,0.000000,-10140.821405,-4903.011187
22386.230857,-2368.659014,-8956.491898,-536.266849
22386.231190,-74.020594,-8734.430116,-6511.811733
22386.231523,-3923.091493,-7994.224174,-6818.249932
22386.231856,-5625.565159,-9252.574275,-5362.668486
22386.232189,0.000000,-7846.182985,-1225.752797
22386.232522,518.144159,-11251.130318,5592.497135
22386.232855,2368.659014,-7476.080014,4903.011187
22386.233188,3478.967927,-7105.977043,1762.019645
22386.233521,2960.823768,-10140.821405,5056.230287
22386.233854,8216.285956,-9474.636058,5745.716235
22386.234187,2886.803174,-11769.274478,153.219100
22386.234520,3923.091493,-10214.842000,-3140.991542
22386.234853,-6217.729913,-14359.995275,-4136.915689
22386.235186,-1110.308913,-7476.080014,-6128.763984
22386.235519,-2442.679609,-8068.244768,-1532.190996
22386.235852,0.000000,-4219.173869,1225.752797
22386.236185,-74.020594,-6069.688724,-536.266849
22386.236518,74.020594,-9992.780217,4673.182538
22386.236851,1924.535449,-7031.956449,4213.525239
22386.237184,740.205942,-8586.388927,6358.592633
22386.237517,592.164754,-7179.997637,4290.134789
22386.237850,3330.926739,-5625.565159,-689.485948
22386.238183,-962.267725,-9548.656652,-2145.067394
22386.238516,296.082377,-8438.347739,-2528.115143
22386.238849,-1258.350101,-14211.954086,-6205.373534
22386.239182,-5329.482782,-11917.315666,-2451.505594
22386.239515,370.102971,-5329.482782,-1991.848295
22386.239848,-1036.288319,-11843.295072,1455.581446
22386.240181,5033.400406,-3849.070898,3830.477490
22386.240514,1480.411884,-10881.027347,5362.668486
22386.240847,4071.132681,-9548.656652,0.000000
22386.241180,2960.823768,-13693.809927,9806.022374
22386.241514,4441.235652,-8882.471304,4826.401637
22386.241847,4515.256246,-8364.327145,3370.820191
22386.242180,-1184.329507,-9030.512492,2681.334243
22386.242513,-5329.482782,-8068.244768,-8273.831378
22386.242846,-4589.276840,-7698.141797,-4979.620737
22386.243179,-4663.297435,-9918.759623,-6052.154434
22386.243512,-4811.338623,-11843.295072,-1455.581446
22386.243845,-2442.679609,-8364.327145,-3064.381992
22386.244178,-5921.647536,-9918.759623,-2528.115143
22386.244511,-74.020594,-9474.636058,3600.648841
22386.244844,4071.132681,-5403.503377,4903.011187
22386.245177,8216.285956,-6217.729913,4826.401637
22386.245510,6291.750507,-7920.203579,3294.210641
22386.245843,1480.411884,-17838.963202,6281.983084
22386.246176,6735.874072,-5551.544565,459.657299
22386.246509,592.164754,-12509.480420,1378.971896
22386.246842,592.164754,-5699.585753,-2451.505594
22386.247175,-74.020594,-9474.636058,-4979.620737
22386.247508,-5181.441594,-8068.244768,-4290.134789
22386.247841,-2960.823768,-10436.903782,-459.657299
22386.248174,-4811.338623,-9474.636058,-1915.238745
22386.248507,-962.267725,-6883.915261,2298.286494
22386.248840,1628.453072,-7698.141797,7354.516781
22386.249173,4737.318029,-4589.276840,5745.716235
22386.249506,-1184.329507,-9548.656652,0.000000
22386.249839,2442.679609,-13545.768739,3983.696590
22386.250172,-74.020594,-9474.636058,-2834.553343
22386.250505,4293.194464,-9622.677246,0.000000
22386.250838,3478.967927,-8882.471304,-76.609550
22386.251171,-1554.432478,-9474.636058,-3753.867940
22386.251504,-2368.659014,-8364.327145,-2451.505594
22386.251837,-1184.329507,-10955.047942,-76.609550
22386.252170,2516.700203,-10362.883188,-76.609550
22386.252503,2590.720797,-12435.459826,5439.278036
22386.252836,2516.700203,-9474.636058,1608.800546
22386.253169,814.226536,-12953.603985,5822.325785
22386.253502,8216.285956,-7105.977043,7967.393179
22386.253835,3552.988522,-10436.903782,4826.401637
22386.254168,4737.318029,-5107.421000,2374.896044
22386.254501,-8290.306550,-9548.656652,-4290.134789
22386.254834,-3034.844362,-10066.800811,-7431.126331
22386.255167,-6439.791695,-10955.047942,-5132.839837
22386.255500,-7698.141797,-11251.130318,-3447.429741
22386.255833,-2590.720797,-4885.359217,-2451.505594
22386.256166,-4737.318029,-7698.141797,-3447.429741
22386.256499,4885.359217,-5921.647536,1991.848295
22386.256832,2886.803174,-10658.965565,3140.991542
22386.257165,7624.121203,-13027.624579,2987.772442
22386.257498,4441.235652,-14804.118840,12793.794817
22386.257831,7031.956449,-11843.295072,2068.457845
22386.258164,6513.812290,-10732.986159,7048.078582
22386.258497,296.082377,-8956.491898,2451.505594
22386.258830,2590.720797,-2442.679609,-6128.763984
22386.259163,-5255.462188,-10584.944971,229.828649
22386.259496,-1258.350101,-8586.388927,-4366.744339
22386.259829,-3182.885551,-5033.400406,0.000000
22386.260162,-6217.729913,-9548.656652,-3064.381992
22386.260495,-1258.350101,-9474.636058,-6205.373534
22386.260828,-1184.329507,-7179.997637,0.000000
22386.261161,296.082377,-10140.821405,1685.410096
22386.261494,5255.462188,-13027.624579,7277.907231
22386.261827,888.247130,-11917.315666,3983.696590
22386.262160,2442.679609,-8734.430116,1991.848295
22386.262493,2368.659014,-7179.997637,3830.477490
22386.262826,1850.514855,-6143.709319,306.438199
22386.263159,3552.988522,-6587.832884,1608.800546
22386.263492,-74.020594,-8882.471304,-1915.238745
22386.263825,-2368.659014,-8364.327145,-2298.286494
22386.264158,-4737.318029,-11917.315666,-153.219100
22386.264491,2294.638420,-11843.295072,-689.485948
22386.264824,0.000000,-9104.533087,4673.182538
22386.265157,2738.761985,-10510.924376,4060.306139
22386.265490,1036.288319,-8586.388927,2834.553343
22386.265823,-592.164754,-10584.944971,1532.190996
22386.266156,592.164754,-7772.162391,3064.381992
22386.266489,518.144159,-8438.347739,1915.238745
22386.266822,-2442.679609,-9770.718434,-1991.848295
22386.267155,-3256.906145,-6291.750507,-2145.067394
22386.267488,-9844.739029,-10066.800811,-7431.126331
22386.267821,-3552.988522,-5995.668130,-4826.401637
22386.268154,-1554.432478,-8290.306550,-3677.258390
22386.268487,1998.556043,-6587.832884,0.000000
22386.268820,4885.359217,-9992.780217,5745.716235
22386.269153,3478.967927,-13027.624579,3907.087040
22386.269486,3182.885551,-9992.780217,2834.553343
22386.269819,5329.482782,-9622.677246,4903.011187
22386.270152,6587.832884,-8956.491898,4979.620737
22386.270485,1776.494261,-10732.986159,1225.752797
22386.270818,0.000000,-7179.997637,-1378.971896
22386.271151,-5995.668130,-11843.295072,-7354.516781
22386.271484,-4737.318029,-8364.327145,-3677.258390
22386.271817,-4589.276840,-7105.977043,-2834.553343
22386.272150,-6365.771101,-7772.162391,-4749.792088
22386.272483,-1036.288319,-9326.594869,919.314598
22386.272816,814.226536,-4293.194464,842.705048
22386.273149,3552.988522,-10288.862594,6818.249932
22386.273482,6735.874072,-5625.565159,4213.525239
22386.273815,3552.988522,-9696.697840,4826.401637
22386.274148,7031.956449,-8586.388927,1302.362347
22386.274481,1184.329507,-13101.645173,689.485948
22386.274814,-74.020594,-16580.613101,-2528.115143
22386.275147,-1554.432478,-11251.130318,-3677.258390
22386.275480,222.061783,-8586.388927,-3447.429741
22386.275813,5625.565159,-6587.832884,4596.572988
22386.276146,1036.288319,-6735.874072,2068.457845
22386.276479,-3182.885551,-4811.338623,-1455.581446
22386.276812,-4071.132681,-14211.954086,-689.485948
22386.277145,296.082377,-7179.997637,1225.752797
22386.277478,2960.823768,-9474.636058,7277.907231
22386.277811,4515.256246,-6439.791695,3447.429741
22386.278144,-2738.761985,-8438.347739,0.000000
22386.278477,-3478.967927,-7476.080014,-2757.943793
22386.278810,444.123565,-9474.636058,-3140.991542
22386.279143,-1184.329507,-9104.533087,-3983.696590
22386.279476,0.000000,-11029.068536,0.000000
22386.279809,-3034.844362,-10362.883188,-4903.011187
22386.280142,-1184.329507,-10140.821405,1991.848295
22386.280475,-666.185348,-10658.965565,1149.143247
22386.280808,5551.544565,-6587.832884,4903.011187
22386.281141,3552.988522,-5403.503377,5362.668486
22386.281474,2294.638420,-7846.182985,1685.410096
22386.281808,296.082377,-12731.542202,2374.896044
22386.282141,-370.102971,-9844.739029,1915.238745
22386.282474,296.082377,-10288.862594,3677.258390
22386.282807,518.144159,-5107.421000,-4290.134789
22386.283140,-2146.597232,-7846.182985,-3907.087040
22386.283473,-5255.462188,-7179.997637,-7354.516781
22386.283806,-3849.070898,-10955.047942,-4366.744339
22386.284139,-5921.647536,-11325.150913,-1838.629195
22386.284472,-74.020594,-7402.059420,-766.095498
22386.284805,-1776.494261,-6587.832884,4903.011187
22386.285138,4367.215058,-8882.471304,5745.716235
22386.285471,1406.391290,-8290.306550,3600.648841
22386.285804,0.000000,-9548.656652,2757.943793
22386.286137,1110.308913,-12509.480420,2987.772442
22386.286470,-1924.535449,-11177.109724,4060.306139
22386.286803,-1110.308913,-7179.997637,689.485948
22386.287136,-5403.503377,-8882.471304,-1302.362347
22386.287469,-6291.750507,-5773.606348,-5362.668486
22386.287802,-7402.059420,-7920.203579,-3677.258390
22386.288135,-6513.812290,-10362.883188,1149.143247
22386.288468,-7179.997637,-7698.141797,-2451.505594
22386.288801,-6809.894666,-12435.459826,842.705048
22386.289134,-3923.091493,-8882.471304,2374.896044
22386.289467,-6661.853478,-11621.233289,2911.162892
22386.289800,-4145.153275,-7698.141797,919.314598
22386.290133,-3627.009116,-10362.883188,-76.609550
22386.290466,-5107.421000,-7179.997637,0.000000
22386.290799,-3034.844362,-10658.965565,2374.896044
22386.291132,-6587.832884,-14211.954086,2374.896044
22386.291465,-3478.967927,-3627.009116,0.000000
22386.291798,-6587.832884,-7698.141797,-1302.362347
22386.292131,-3182.885551,-7105.977043,153.219100
22386.292464,-6809.894666,-7105.977043,-229.828649
22386.292797,-6439.791695,-12065.356855,229.828649
22386.293129,-3108.864956,-10140.821405,1838.629195
22386.293462,-5921.647536,-13841.851115,3677.258390
22386.293795,-666.185348,-9474.636058,-383.047749
22386.294128,-5625.565159,-10732.986159,612.876398
22386.294461,-5921.647536,-11399.171507,2374.896044
22386.294794,-5995.668130,-9178.553681,-2221.676944
22386.295127,-10140.821405,-10658.965565,1149.143247
22386.295460,-8586.388927,-5255.462188,-2145.067394
22386.295793,-8808.450710,-8512.368333,383.047749
22386.296126,-5329.482782,-5107.421000,1608.800546
22386.296459,-7920.203579,-6957.935855,2451.505594
22386.296792,-5921.647536,-9474.636058,1608.800546
22386.297124,-5625.565159,-10140.821405,1225.752797
22386.297457,-4811.338623,-13027.624579,2374.896044
22386.297790,-5921.647536,-10140.821405,2451.505594
22386.298123,-8290.306550,-10140.821405,1225.752797
22386.298456,-4959.379811,-11843.295072,-1915.238745
22386.298789,-10732.986159,-13027.624579,-1915.238745
22386.299122,-7772.162391,-9474.636058,-76.609550
22386.299455,-9548.656652,-7105.977043,-995.924147
22386.299788,-10658.965565,-6587.832884,1532.190996
22386.300121,-11917.315666,-6217.729913,-766.095498
22386.300454,-11695.253884,-5847.626942,-153.219100
22386.300786,-9548.656652,-10362.883188,1762.019645
22386.301119,-7105.977043,-11325.150913,7277.907231
22386.301452,-6587.832884,-9178.553681,995.924147
22386.301785,-9474.636058,-10140.821405,0.000000
22386.302118,-8586.388927,-8290.306550,-2681.334243
22386.302451,-7476.080014,-9326.594869,-2221.676944
22386.302784,-5477.523971,-8216.285956,-612.876398
22386.303117,-10658.965565,-13841.851115,229.828649
22386.303450,-8734.430116,-7994.224174,0.000000
22386.303783,-12213.398043,-9474.636058,-2528.115143
22386.304116,-8364.327145,-12731.542202,-76.609550
22386.304449,-8364.327145,-5921.647536,-2374.896044
22386.304781,-9474.636058,-10140.821405,1225.752797
22386.305114,-2516.700203,-13471.748144,8503.660028
22386.305447,-10066.800811,-10732.986159,5515.887586
22386.305780,-8068.244768,-8808.450710,1149.143247
22386.306113,-9474.636058,-8660.409521,3983.696590
22386.306446,-9696.697840,-7698.141797,-1455.581446
22386.306779,-11843.295072,-6291.750507,0.000000
22386.307112,-13397.727550,-9474.636058,-5286.058936
22386.307445,-14211.954086,-8142.265362,-5898.935335
22386.307778,-15988.448347,-9548.656652,459.657299
22386.308111,-11917.315666,-7550.100608,-3907.087040
22386.308443,-12805.562797,-10362.883188,-1608.800546
22386.308776,-11843.295072,-9474.636058,153.219100
22386.309109,-7105.977043,-8956.491898,4366.744339
22386.309442,-8068.244768,-9992.780217,6281.983084
22386.309775,-4441.235652,-8290.306550,5515.887586
22386.310108,-3775.050304,-11251.130318,6665.030833
22386.310441,-4737.318029,-5995.668130,612.876398
22386.310774,-6217.729913,-9104.533087,2451.505594
22386.311107,-8364.327145,-11843.295072,-3753.867940
22386.311440,-14211.954086,-10288.862594,-6588.421283
22386.311773,-12509.480420,-11473.192101,-5362.668486
22386.312105,-11843.295072,-8956.491898,-2757.943793
22386.312438,-10436.903782,-7624.121203,229.828649
22386.312771,-10510.924376,-8290.306550,0.000000
22386.313104,-9622.677246,-9104.533087,2987.772442
22386.313437,-8438.347739,-8512.368333,5669.106685
22386.313770,-6365.771101,-7772.162391,6128.763984
22386.314103,-5107.421000,-5181.441594,2451.505594
22386.314436,-11251.130318,-9548.656652,1838.629195
22386.314769,-9030.512492,-10658.965565,-1915.238745
22386.315102,-11325.150913,-6809.894666,-6741.640382
22386.315435,-13915.871710,-11621.233289,-5515.887586
22386.315768,-11473.192101,-10510.924376,-3753.867940
22386.316100,-11843.295072,-8660.409521,-689.485948
22386.316433,-8586.388927,-8216.285956,1685.410096
22386.316766,-7476.080014,-7328.038826,3294.210641
22386.317099,-6957.935855,-8290.306550,6205.373534
22386.317432,-6291.750507,-8660.409521,5439.278036
22386.317765,-5995.668130,-10658.965565,0.000000
22386.318098,-9474.636058,-10732.986159,1225.752797
22386.318431,-9474.636058,-11325.150913,2987.772442
22386.318764,-9474.636058,-10362.883188,-1532.190996
22386.319097,-12213.398043,-7994.224174,-4903.011187
22386.319430,-11029.068536,-6809.894666,-3370.820191
22386.319762,-9770.718434,-5995.668130,-1915.238745
22386.320095,-8290.306550,-7698.141797,229.828649
22386.320428,-8882.471304,-7328.038826,3294.210641
22386.320761,-7920.203579,-6513.812290,229.828649
22386.321094,-8290.306550,-9548.656652,3064.381992
22386.321427,-6291.750507,-13619.789333,2374.896044
22386.321760,-8956.491898,-13323.706956,-689.485948
22386.322093,-6883.915261,-14063.912898,689.485948
22386.322426,-7402.059420,-11177.109724,1991.848295
22386.322759,-6439.791695,-6439.791695,2145.067394
22386.323092,-7476.080014,-5255.462188,1072.533697
22386.323424,-9548.656652,-8290.306550,-1608.800546
22386.323757,-15988.448347,-7179.997637,-1838.629195
22386.324090,-15396.283594,-9548.656652,-1608.800546
22386.324423,-14285.974681,-10658.965565,-3907.087040
22386.324756,-15988.448347,-9548.656652,0.000000
22386.325089,-11029.068536,-9252.574275,2451.505594
22386.325422,-8438.347739,-7031.956449,3140.991542
22386.325755,-6587.832884,-7698.141797,4290.134789
22386.326088,-5995.668130,-8956.491898,3064.381992
22386.326421,-6883.915261,-8808.450710,0.000000
22386.326754,-7994.224174,-12879.583391,2374.896044
22386.327087,-9548.656652,-9918.759623,-3064.381992
22386.327419,-13767.830521,-7772.162391,-4903.011187
22386.327752,-15396.283594,-10732.986159,-3983.696590
22386.328085,-15470.304188,-8956.491898,-5515.887586
22386.328418,-15470.304188,-9918.759623,-1915.238745
22386.328751,-12953.603985,-8956.491898,2987.772442
22386.329084,-7550.100608,-7105.977043,7737.564530
22386.329417,-3034.844362,-3775.050304,8580.269578
22386.329750,-444.123565,-4293.194464,8580.269578
22386.330083,-222.061783,-5699.585753,4903.011187
22386.330416,-1332.370696,-9030.512492,-76.609550
22386.330749,-3478.967927,-13471.748144,-4060.306139
22386.331081,-7328.038826,-14211.954086,-10725.336972
22386.331414,-11251.130318,-14878.139434,-12257.527968
22386.331747,-7476.080014,-14211.954086,-8044.002729
22386.332080,-6439.791695,-9252.574275,-3677.258390
22386.332413,-5921.647536,-6587.832884,2451.505594
22386.332746,-2368.659014,-5551.544565,5669.106685
22386.333079,1258.350101,-5773.606348,10035.851024
22386.333412,3775.050304,-6587.832884,11644.651570
22386.333745,2886.803174,-7994.224174,8810.098227
22386.334078,2294.638420,-7920.203579,2604.724693
22386.334411,740.205942,-11843.295072,2834.553343
22386.334743,-74.020594,-13619.789333,-1302.362347
22386.335076,-2442.679609,-10881.027347,-4443.353888
22386.335409,-5699.585753,-13027.624579,-4366.744339
22386.335742,-8808.450710,-11029.068536,-5362.668486
22386.336075,-7328.038826,-9178.553681,-1915.238745
22386.336408,-6069.688724,-7920.203579,1685.410096
22386.336741,-6513.812290,-6143.709319,4290.134789
22386.337074,-3923.091493,-5403.503377,4903.011187
22386.337407,-370.102971,-9474.636058,9729.412825
22386.337740,-962.267725,-7254.018232,7967.393179
22386.338073,-1924.535449,-8660.409521,8580.269578
22386.338406,0.000000,-10436.903782,7124.688131
22386.338738,-1036.288319,-10732.986159,6665.030833
22386.339071,-2220.617826,-8660.409521,2987.772442
22386.339404,-4811.338623,-9400.615463,1225.752797
22386.339737,-3923.091493,-11547.212695,4060.306139
22386.340070,-8290.306550,-8660.409521,6128.763984
22386.340403,-4811.338623,-11843.295072,7277.907231
22386.340736,-8068.244768,-7476.080014,8580.269578
22386.341069,-5921.647536,-9474.636058,15321.909960
22386.341402,-1184.329507,-8290.306550,18386.291952
22386.341735,-444.123565,-8290.306550,20071.702048
22386.342068,444.123565,-9474.636058,20761.187996
22386.342400,-740.205942,-8364.327145,18539.511052
22386.342733,-1998.556043,-6439.791695,15628.348159
22386.343066,-370.102971,-9400.615463,16471.053207
22386.343399,-4811.338623,-7328.038826,12257.527968
22386.343732,-6661.853478,-5995.668130,13483.280765
22386.344065,-2516.700203,-5255.462188,16777.491406
22386.344398,-74.020594,-5033.400406,18386.291952
22386.344731,1554.432478,-4737.318029,21067.626195
22386.345064,444.123565,-7105.977043,21986.940793
22386.345397,74.020594,-8438.347739,21757.112143
22386.345730,666.185348,-9030.512492,20914.407095
22386.346063,2220.617826,-11843.295072,21680.502593
22386.346395,2294.638420,-11399.171507,23978.789087
22386.346728,2590.720797,-9474.636058,24132.008187
22386.347061,2664.741391,-3627.009116,22293.378992
22386.347394,2886.803174,-4737.318029,20914.407095
22386.347727,2368.659014,-4145.153275,22676.426741
22386.348060,5847.626942,-2368.659014,18922.558801
22386.348393,0.000000,-1850.514855,15321.909960
22386.348726,-1776.494261,-7179.997637,14709.033562
22386.349059,-1924.535449,-7179.997637,12870.404366
22386.349392,-296.082377,-10362.883188,16011.395908
22386.349725,0.000000,-10510.924376,17237.148705
22386.350057,-1110.308913,-8734.430116,15398.519510
22386.350390,0.000000,-7772.162391,15934.786358
22386.350723,4663.297435,-9474.636058,18309.682402
22386.351056,2960.823768,-7105.977043,18309.682402
22386.351389,0.000000,-2738.761985,14862.252661
22386.351722,-74.020594,-6513.812290,11568.042020
22386.352055,-2960.823768,-6883.915261,8580.269578
22386.352388,-3775.050304,-9252.574275,5209.449386
22386.352721,-4663.297435,-10732.986159,3447.429741
22386.353054,-1258.350101,-11695.253884,5286.058936
22386.353387,2220.617826,-11251.130318,9116.536426
22386.353719,4663.297435,-9474.636058,7890.783629
22386.354052,0.000000,-10140.821405,9193.145976
22386.354385,-2368.659014,-10140.821405,10189.070123
22386.354718,1110.308913,-10658.965565,7584.345430
22386.355051,2220.617826,-10658.965565,11568.042020
22386.355384,296.082377,-6143.709319,7354.516781
22386.355717,-888.247130,-8068.244768,5362.668486
22386.356050,-2146.597232,-8882.471304,2987.772442
22386.356383,-3775.050304,-10658.965565,383.047749
22386.356716,-3478.967927,-10732.986159,612.876398
22386.357049,1184.329507,-10732.986159,7277.907231
22386.357382,4663.297435,-4441.235652,4213.525239
22386.357714,2886.803174,-3627.009116,0.000000
22386.358047,4589.276840,-14211.954086,6052.154434
22386.358380,1776.494261,-11621.233289,6894.859482
22386.358713,3627.009116,-9918.759623,4903.011187
22386.359046,2442.679609,-7698.141797,1838.629195
22386.359379,148.041188,-8290.306550,0.000000
22386.359712,1480.411884,-11325.150913,4903.011187
22386.360045,0.000000,-7328.038826,3217.601092
22386.360378,222.061783,-4737.318029,-1302.362347
22386.360711,-2960.823768,-11843.295072,612.876398
22386.361044,-74.020594,-14804.118840,5439.278036
22386.361376,-74.020594,-11991.336260,4903.011187
22386.361709,0.000000,-4219.173869,2451.505594
22386.362042,2960.823768,-4737.318029,2374.896044
22386.362375,2664.741391,-9548.656652,6128.763984
22386.362708,4441.235652,-11843.295072,9422.974625
22386.363041,296.082377,-13027.624579,7124.688131
22386.363374,-888.247130,-6513.812290,1991.848295
22386.363707,-2590.720797,-10362.883188,-76.609550
22386.364040,-3552.988522,-8364.327145,2451.505594
22386.364373,-3256.906145,-10140.821405,4903.011187
22386.364706,-666.185348,-11843.295072,4213.525239
22386.365038,-2960.823768,-9474.636058,3600.648841
22386.365371,-666.185348,-13027.624579,9116.536426
22386.365704,1110.308913,-9326.594869,10112.460574
22386.366037,1110.308913,-9474.636058,9729.412825
22386.366370,888.247130,-8660.409521,10725.336972
22386.366703,814.226536,-9252.574275,10112.460574
22386.367036,4663.297435,-14804.118840,18309.682402
22386.367369,0.000000,-7476.080014,14709.033562
22386.367702,-1184.329507,-4589.276840,10955.165621
22386.368035,-1554.432478,-2442.679609,6741.640382
22386.368368,0.000000,-7179.997637,10418.898773
22386.368701,814.226536,-9918.759623,13330.061665
22386.369033,-1480.411884,-8512.368333,12334.137518
22386.369366,-370.102971,-7624.121203,12334.137518
22386.369699,1998.556043,-8882.471304,15398.519510
22386.370032,4663.297435,-8290.306550,18309.682402
22386.370365,2368.659014,-9252.574275,20454.749797
22386.370698,2886.803174,-9474.636058,18309.682402
22386.371031,592.164754,-5995.668130,22063.550342
22386.371364,2368.659014,-5921.647536,20148.311597
22386.371697,740.205942,-1258.350101,15321.909960
22386.372030,-1332.370696,-4219.173869,13483.280765
22386.372363,0.000000,-6513.812290,15704.957709
22386.372695,-2368.659014,-7254.018232,15551.738609
22386.373028,-4737.318029,-5995.668130,12257.527968
22386.373361,-74.020594,-8142.265362,14632.424012
22386.373694,962.267725,-9844.739029,16854.100956
22386.374027,1776.494261,-9844.739029,20837.797546
22386.374360,2664.741391,-9992.780217,22369.988542
22386.374693,2516.700203,-5995.668130,20224.921147
22386.375026,1998.556043,-9474.636058,21067.626195
22386.375359,-1184.329507,-4515.256246,14938.862211
22386.375692,-3923.091493,-3182.885551,8350.440928
22386.376025,-3849.070898,-5403.503377,8886.707777
22386.376357,-1258.350101,-6661.853478,11414.822920
22386.376690,-2442.679609,-7254.018232,12257.527968
22386.377023,-3256.906145,-3849.070898,9499.584175
22386.377356,-74.020594,-8290.306550,9729.412825
22386.377689,1776.494261,-13101.645173,15321.909960
22386.378022,296.082377,-12953.603985,18309.682402
22386.378355,3478.967927,-9474.636058,9729.412825
22386.378688,3478.967927,-4663.297435,11338.213370
22386.379021,4885.359217,-5995.668130,10878.556072
22386.379354,4293.194464,-7476.080014,8044.002729
22386.379687,-74.020594,-11473.192101,7048.078582
22386.380020,-1480.411884,-7624.121203,153.219100
22386.380352,-2738.761985,-4811.338623,-2221.676944
22386.380685,-3256.906145,-6291.750507,-2451.505594
22386.381018,-222.061783,-10362.883188,-1608.800546
22386.381351,814.226536,-11843.295072,-76.609550
22386.381684,1776.494261,-11917.315666,3064.381992
22386.382017,962.267725,-9474.636058,1762.019645
22386.382350,2960.823768,-11547.212695,3524.039291
22386.382683,3108.864956,-17098.757260,7814.174080
22386.383016,3182.885551,-4663.297435,1455.581446
22386.383349,-2812.782580,1850.514855,-13330.061665
22386.383682,444.123565,-9548.656652,-9806.022374
22386.384014,3775.050304,-17764.942608,-76.609550
22386.384347,-222.061783,-9844.739029,-4290.134789
22386.384680,-3627.009116,-8882.471304,-6818.249932
22386.385013,-2368.659014,-4811.338623,-14096.157163
22386.385346,1184.329507,-10807.006753,-6052.154434
22386.385679,2072.576638,-14137.933492,-1072.533697
22386.386012,1036.288319,-12065.356855,-7048.078582
22386.386345,2294.638420,-9474.636058,-3753.867940
22386.386678,2368.659014,-8956.491898,-2374.896044
22386.387011,3182.885551,-14211.954086,-2528.115143
22386.387344,814.226536,-4811.338623,-7354.516781
22386.387677,-74.020594,-9844.739029,-11031.775171
22386.388009,-74.020594,-13027.624579,-8044.002729
22386.388342,-1924.535449,-7772.162391,-9806.022374
22386.388675,-3997.112087,-11991.336260,-10495.508323
22386.389008,-3775.050304,-8660.409521,-12717.185267
22386.389341,-5921.647536,-3923.091493,-16854.100956
22386.389674,-74.020594,-13619.789333,-10189.070123
22386.390007,1480.411884,-14285.974681,-3370.820191
22386.390340,2368.659014,-14582.057057,3524.039291
22386.390673,4367.215058,-12879.583391,0.000000
22386.391006,2294.638420,-12139.377449,-1455.581446
22386.391339,2738.761985,-3034.844362,-6358.592633
22386.391671,2368.659014,-4737.318029,-6665.030833
22386.392004,1850.514855,-11547.212695,-4290.134789
22386.392337,-2960.823768,-6587.832884,-9806.022374
22386.392670,-4811.338623,-12435.459826,-11721.261119
22386.393003,518.144159,-11769.274478,-5669.106685
22386.393336,1776.494261,-15248.242405,842.705048
22386.393669,4367.215058,-4515.256246,3524.039291
22386.394002,-1776.494261,-74.020594,-7354.516781
22386.394335,-74.020594,-13915.871710,-2528.115143
22386.394668,5847.626942,-17172.777854,2068.457845
22386.395001,1184.329507,-16358.551318,8580.269578
22386.395333,4663.297435,-5921.647536,6052.154434
22386.395666,-2220.617826,1110.308913,-5515.887586
22386.395999,-814.226536,-8216.285956,-2681.334243
22386.396332,-518.144159,-6439.791695,0.000000
22386.396665,-740.205942,-12509.480420,-1149.143247
22386.396998,1184.329507,-13397.727550,4290.134789
22386.397331,-74.020594,-11843.295072,4213.525239
22386.397664,1702.473667,-14211.954086,8503.660028
22386.397997,370.102971,-5995.668130,10112.460574
22386.398329,0.000000,-7105.977043,7277.907231
22386.398662,6439.791695,-9474.636058,10955.165621
22386.398995,592.164754,-7179.997637,11031.775171
22386.399328,1184.329507,-8364.327145,8197.221829
22386.399661,-2738.761985,-3627.009116,7890.783629
22386.399994,-3923.091493,-5329.482782,842.705048
22386.400327,-74.020594,-4811.338623,306.438199
22386.400660,-3552.988522,-8364.327145,2604.724693
22386.400993,2294.638420,-15396.283594,6052.154434
22386.401325,1702.473667,-15396.283594,10112.460574
22386.401658,2886.803174,-8290.306550,9729.412825
22386.401991,740.205942,-2590.720797,8580.269578
22386.402324,2294.638420,-8438.347739,9959.241474
22386.402657,2516.700203,-10658.965565,11491.432470
22386.402990,-1702.473667,-8364.327145,9193.145976
22386.403323,0.000000,-6291.750507,9806.022374
22386.403656,3923.091493,-7105.977043,9116.536426
22386.403989,2294.638420,-7476.080014,10418.898773
