#time,accel_x,accel_y,accel_z
21301.596035,8290.306550,-10214.842000,4826.401637
21301.596369,9104.533087,-8660.409521,2451.505594
21301.596702,10881.027347,-9326.594869,4213.525239
21301.597036,9918.759623,-8956.491898,3447.429741
21301.597370,10214.842000,-8438.347739,1762.019645
21301.597703,7105.977043,-8364.327145,0.000000
21301.598037,7698.141797,-10510.924376,-76.609550
21301.598370,7031.956449,-8438.347739,-4060.306139
21301.598704,8216.285956,-7920.203579,-5515.887586
21301.599037,7105.977043,-9474.636058,-1915.238745
21301.599371,7994.224174,-8660.409521,459.657299
21301.599704,10732.986159,-9548.656652,1991.848295
21301.600038,10140.821405,-9252.574275,3370.820191
21301.600371,8438.347739,-10288.862594,2451.505594
21301.600705,7254.018232,-11843.295072,3370.820191
21301.601038,6735.874072,-12435.459826,2987.772442
21301.601372,3478.967927,-7772.162391,0.000000
21301.601706,3552.988522,-9474.636058,3370.820191
21301.602039,4663.297435,-8882.471304,-76.609550
21301.602373,2664.741391,-5995.668130,1225.752797
21301.602706,6735.874072,-5255.462188,0.000000
21301.603040,7031.956449,-7105.977043,-76.609550
21301.603373,8956.491898,-7476.080014,-766.095498
21301.603707,10362.883188,-9918.759623,306.438199
21301.604040,9992.780217,-9104.533087,-1838.629195
21301.604374,10288.862594,-12139.377449,-1915.238745
21301.604707,10362.883188,-11843.295072,-306.438199
21301.605041,9252.574275,-10214.842000,-1608.800546
21301.605375,8216.285956,-10955.047942,-1225.752797
21301.605708,5921.647536,-12065.356855,842.705048
21301.606042,8808.450710,-11843.295072,-76.609550
21301.606375,7550.100608,-5403.503377,2451.505594
21301.606709,12361.439231,-4737.318029,4213.525239
21301.607042,9030.512492,-6143.709319,3370.820191
21301.607376,10584.944971,-5699.585753,2604.724693
21301.607709,8660.409521,-11399.171507,2374.896044
21301.608043,6069.688724,-7476.080014,0.000000
21301.608376,7031.956449,-10881.027347,-5822.325785
21301.608710,5329.482782,-11843.295072,-1302.362347
21301.609043,7031.956449,-10214.842000,-1915.238745
21301.609377,7624.121203,-8882.471304,0.000000
21301.609711,9474.636058,-7179.997637,1378.971896
21301.610044,10214.842000,-8142.265362,1838.629195
21301.610378,9918.759623,-7772.162391,0.000000
21301.610711,9474.636058,-7624.121203,-1991.848295
21301.611045,10584.944971,-10362.883188,-1302.362347
21301.611378,9252.574275,-7772.162391,-2451.505594
21301.611712,11769.274478,-14211.954086,4826.401637
21301.612045,11473.192101,-9178.553681,1991.848295
21301.612379,10658.965565,-9548.656652,2604.724693
21301.612712,15692.365970,-9030.512492,6741.640382
21301.613046,15026.180623,-5699.585753,4136.915689
21301.613379,14211.954086,-6735.874072,2987.772442
21301.613713,10881.027347,-7328.038826,-1915.238745
21301.614047,8068.244768,-9178.553681,-6511.811733
21301.614380,5329.482782,-11325.150913,-4290.134789
21301.614714,5847.626942,-12139.377449,-6894.859482
21301.615047,3330.926739,-11029.068536,-7048.078582
21301.615381,5477.523971,-12731.542202,-1302.362347
21301.615714,10584.944971,-8882.471304,2374.896044
21301.616048,13175.665768,-6661.853478,8197.221829
21301.616381,12065.356855,-6957.935855,9039.926876
21301.616715,9844.739029,-8956.491898,7124.688131
21301.617048,9178.553681,-7772.162391,4673.182538
21301.617382,8882.471304,-9474.636058,4826.401637
21301.617715,6883.915261,-5995.668130,-2451.505594
21301.618049,2664.741391,-5995.668130,-7354.516781
21301.618383,0.000000,-10140.821405,-6052.154434
21301.618716,1998.556043,-11843.295072,-5592.497135
21301.619050,-74.020594,-12879.583391,-4366.744339
21301.619383,-1332.370696,-12287.418637,-3907.087040
21301.619717,592.164754,-10955.047942,1072.533697
21301.620050,5551.544565,-6661.853478,6052.154434
21301.620384,10436.903782,-7624.121203,9729.412825
21301.620717,8290.306550,-5329.482782,9269.755526
21301.621051,7550.100608,-7476.080014,5822.325785
21301.621384,3849.070898,-9474.636058,1991.848295
21301.621718,1332.370696,-6291.750507,-3600.648841
21301.622052,1184.329507,-7624.121203,-4213.525239
21301.622385,2886.803174,-10658.965565,-6205.373534
21301.622719,888.247130,-6587.832884,-7354.516781
21301.623052,592.164754,-11843.295072,-4596.572988
21301.623386,1110.308913,-13471.748144,-4366.744339
21301.623719,2442.679609,-11325.150913,0.000000
21301.624053,5847.626942,-10066.800811,3294.210641
21301.624386,7994.224174,-7328.038826,7354.516781
21301.624720,5329.482782,-6291.750507,6741.640382
21301.625053,3552.988522,-8364.327145,8427.050478
21301.625387,3478.967927,-8512.368333,3983.696590
21301.625720,370.102971,-4811.338623,0.000000
21301.626054,1406.391290,-9474.636058,-995.924147
21301.626388,-1184.329507,-5995.668130,-4903.011187
21301.626721,-1702.473667,-7698.141797,-9269.755526
21301.627055,-1184.329507,-12953.603985,-6511.811733
21301.627388,-1924.535449,-13619.789333,-2834.553343
21301.627722,2886.803174,-12139.377449,2987.772442
21301.628055,5329.482782,-11177.109724,9116.536426
21301.628389,5255.462188,-5551.544565,3983.696590
21301.628722,2368.659014,-9696.697840,6741.640382
21301.629056,5847.626942,-9474.636058,6052.154434
21301.629389,1480.411884,-7179.997637,6741.640382
21301.629723,3775.050304,-5551.544565,2911.162892
21301.630056,2516.700203,-7254.018232,842.705048
21301.630390,-3849.070898,-7328.038826,-5209.449386
21301.630724,-3923.091493,-9178.553681,-8963.317327
21301.631057,-2442.679609,-13619.789333,-4979.620737
21301.631391,74.020594,-6143.709319,-5822.325785
21301.631724,1776.494261,-9844.739029,2145.067394
21301.632058,6513.812290,-9474.636058,5439.278036
21301.632391,4367.215058,-10362.883188,2068.457845
21301.632725,1924.535449,-12657.521608,3677.258390
21301.633058,4737.318029,-8808.450710,4136.915689
21301.633392,5033.400406,-9030.512492,6052.154434
21301.633725,5921.647536,-4811.338623,3983.696590
21301.634059,-370.102971,-9992.780217,0.000000
21301.634392,-6513.812290,-9548.656652,-4903.011187
21301.634726,-3701.029710,-11843.295072,-6511.811733
21301.635060,-4663.297435,-8956.491898,-4903.011187
21301.635393,814.226536,-7698.141797,1762.019645
21301.635727,-1480.411884,-8068.244768,2757.943793
21301.636060,-1554.432478,-10510.924376,1608.800546
21301.636394,-666.185348,-9326.594869,1378.971896
21301.636727,1480.411884,-7179.997637,3064.381992
21301.637061,6661.853478,-6143.709319,5209.449386
21301.637394,4441.235652,-8290.306550,4443.353888
21301.637728,-4515.256246,-13471.748144,-2834.553343
21301.638061,-6587.832884,-12731.542202,-4213.525239
21301.638395,-5329.482782,-8956.491898,-3447.429741
21301.638729,4663.297435,-9474.636058,2987.772442
21301.639062,888.247130,-3627.009116,2451.505594
21301.639396,-2664.741391,-6143.709319,0.000000
21301.639729,-1554.432478,-11843.295072,-153.219100
21301.640063,-1184.329507,-9548.656652,2451.505594
21301.640396,3775.050304,-5551.544565,1838.629195
21301.640730,5033.400406,-7920.203579,3447.429741
21301.641063,2294.638420,-7476.080014,153.219100
21301.641397,-3552.988522,-11917.315666,-4903.011187
21301.641730,-2442.679609,-13027.624579,-3983.696590
21301.642064,-3330.926739,-8364.327145,-3064.381992
21301.642397,296.082377,-10584.944971,1455.581446
21301.642731,2294.638420,-6513.812290,-76.609550
21301.643065,-1628.453072,-9474.636058,842.705048
21301.643398,-1776.494261,-9696.697840,153.219100
21301.643732,2368.659014,-8956.491898,3677.258390
21301.644065,6365.771101,-6661.853478,5286.058936
21301.644399,7920.203579,-7698.141797,6665.030833
21301.644732,2294.638420,-7920.203579,0.000000
21301.645066,-1628.453072,-11917.315666,-3677.258390
21301.645399,-74.020594,-14211.954086,-2528.115143
21301.645733,0.000000,-8364.327145,-1838.629195
21301.646066,2294.638420,-9178.553681,229.828649
21301.646400,0.000000,-7624.121203,689.485948
21301.646733,-4441.235652,-10214.842000,-1072.533697
21301.647067,-2960.823768,-8586.388927,-1915.238745
21301.647401,222.061783,-9326.594869,-76.609550
21301.647734,4663.297435,-3627.009116,1838.629195
21301.648068,9252.574275,-7698.141797,4826.401637
21301.648401,4071.132681,-13027.624579,1149.143247
21301.648735,0.000000,-11917.315666,0.000000
21301.649068,2294.638420,-11251.130318,-76.609550
21301.649402,3552.988522,-7328.038826,1838.629195
21301.649735,4811.338623,-6439.791695,2528.115143
21301.650069,-74.020594,-8586.388927,0.000000
21301.650402,-3627.009116,-11843.295072,-1608.800546
21301.650736,-4737.318029,-10658.965565,-1915.238745
21301.651069,-1110.308913,-8882.471304,-1532.190996
21301.651403,814.226536,-7105.977043,842.705048
21301.651737,0.000000,-7772.162391,612.876398
21301.652070,-2960.823768,-9548.656652,1302.362347
21301.652404,-1258.350101,-9474.636058,-1608.800546
21301.652737,-1332.370696,-7772.162391,1225.752797
21301.653071,6291.750507,-6513.812290,4826.401637
21301.653404,1776.494261,-5995.668130,2451.505594
21301.653737,444.123565,-8290.306550,-689.485948
21301.654070,-4441.235652,-14285.974681,-3370.820191
21301.654403,-2960.823768,-13101.645173,-1915.238745
21301.654737,1110.308913,-9474.636058,-76.609550
21301.655070,1184.329507,-11029.068536,3600.648841
21301.655403,-2368.659014,-8068.244768,1838.629195
21301.655736,-6809.894666,-9770.718434,-3217.601092
21301.656069,-3552.988522,-9548.656652,2681.334243
21301.656402,1480.411884,-7772.162391,4749.792088
21301.656736,6735.874072,-1258.350101,3677.258390
21301.657069,4145.153275,-5551.544565,6665.030833
21301.657402,-518.144159,-7402.059420,-383.047749
21301.657735,-2442.679609,-12879.583391,-2528.115143
21301.658068,-2368.659014,-10881.027347,-1302.362347
21301.658401,1406.391290,-6587.832884,-3677.258390
21301.658734,0.000000,-9104.533087,229.828649
21301.659068,-2368.659014,-10436.903782,-3447.429741
21301.659401,-6291.750507,-14804.118840,-4979.620737
21301.659734,-1554.432478,-11843.295072,-612.876398
21301.660067,4885.359217,-6957.935855,4903.011187
21301.660400,7550.100608,-7031.956449,9116.536426
21301.660733,2516.700203,-3627.009116,6128.763984
21301.661067,3478.967927,-10658.965565,3294.210641
21301.661400,592.164754,-8364.327145,0.000000
21301.661733,2960.823768,-8068.244768,1991.848295
21301.662066,3182.885551,-8290.306550,-2068.457845
21301.662399,-3256.906145,-8364.327145,-4596.572988
21301.662732,-7550.100608,-11029.068536,-7660.954980
21301.663066,-7402.059420,-13767.830521,-5592.497135
21301.663399,-2368.659014,-10140.821405,-1149.143247
21301.663732,3256.906145,-8438.347739,4596.572988
21301.664065,6439.791695,-4219.173869,4903.011187
21301.664398,1480.411884,-7031.956449,5439.278036
21301.664731,3478.967927,-12435.459826,4213.525239
21301.665065,2590.720797,-7179.997637,3677.258390
21301.665398,4145.153275,-6217.729913,3370.820191
21301.665731,5329.482782,-5403.503377,1838.629195
21301.666064,222.061783,-9770.718434,-2528.115143
21301.666397,-3627.009116,-13323.706956,-6281.983084
21301.666730,-5329.482782,-14211.954086,-4290.134789
21301.667064,-1554.432478,-8512.368333,-5209.449386
21301.667397,1628.453072,-8512.368333,536.266849
21301.667730,1110.308913,-8290.306550,3370.820191
21301.668063,-888.247130,-7920.203579,2604.724693
21301.668396,0.000000,-10140.821405,3064.381992
21301.668729,4071.132681,-8290.306550,3370.820191
21301.669062,2368.659014,-5403.503377,5515.887586
21301.669396,6439.791695,-7105.977043,4519.963438
21301.669729,-1850.514855,-8290.306550,-3140.991542
21301.670062,-7105.977043,-13693.809927,-6741.640382
21301.670395,-3997.112087,-13397.727550,-4290.134789
21301.670728,-1554.432478,-9474.636058,-383.047749
21301.671061,1406.391290,-7105.977043,689.485948
21301.671395,-74.020594,-9178.553681,2374.896044
21301.671728,-3034.844362,-11695.253884,-2374.896044
21301.672061,0.000000,-8068.244768,2451.505594
21301.672394,2590.720797,-10658.965565,4826.401637
21301.672727,4071.132681,-5403.503377,4290.134789
21301.673060,2368.659014,-8808.450710,6052.154434
21301.673394,-3034.844362,-9252.574275,-1532.190996
21301.673727,-3701.029710,-9770.718434,-2911.162892
21301.674060,-2442.679609,-9178.553681,-3140.991542
21301.674393,518.144159,-9474.636058,-1302.362347
21301.674726,1702.473667,-2442.679609,-3677.258390
21301.675059,-1776.494261,-11325.150913,-383.047749
21301.675393,-666.185348,-14211.954086,-2528.115143
21301.675726,-370.102971,-11621.233289,0.000000
21301.676059,3775.050304,-8882.471304,2374.896044
21301.676392,6291.750507,-7402.059420,5362.668486
21301.676725,1406.391290,-9474.636058,1762.019645
21301.677058,-1184.329507,-11917.315666,1455.581446
21301.677391,-2368.659014,-9548.656652,0.000000
21301.677725,1184.329507,-6883.915261,0.000000
21301.678058,5033.400406,-7105.977043,4826.401637
21301.678391,2590.720797,-6883.915261,76.609550
21301.678724,-1258.350101,-7772.162391,-2451.505594
21301.679057,-3627.009116,-13027.624579,-3753.867940
21301.679390,-2664.741391,-10288.862594,-3830.477490
21301.679724,0.000000,-10214.842000,-1302.362347
21301.680057,3034.844362,-7698.141797,2145.067394
21301.680390,-1184.329507,-8956.491898,919.314598
21301.680723,-2220.617826,-13619.789333,995.924147
21301.681056,1776.494261,-9474.636058,4060.306139
21301.681389,3034.844362,-7105.977043,4213.525239
21301.681723,9252.574275,-6809.894666,8503.660028
21301.682056,2294.638420,-8734.430116,2987.772442
21301.682389,-2442.679609,-9548.656652,-4290.134789
21301.682722,-2664.741391,-10658.965565,-689.485948
21301.683055,1702.473667,-9178.553681,-4979.620737
21301.683388,2664.741391,-10510.924376,-612.876398
21301.683722,1998.556043,-11251.130318,-1915.238745
21301.684055,-4145.153275,-13175.665768,-3294.210641
21301.684388,-1850.514855,-11103.089130,-1149.143247
21301.684721,2590.720797,-10362.883188,4673.182538
21301.685054,5921.647536,-4811.338623,8963.317327
21301.685387,4737.318029,-2442.679609,8580.269578
21301.685721,814.226536,-9474.636058,2681.334243
21301.686054,-2738.761985,-10658.965565,-3753.867940
21301.686387,-2442.679609,-10584.944971,-2528.115143
21301.686720,-74.020594,-7994.224174,-3600.648841
21301.687053,-148.041188,-7550.100608,-3140.991542
21301.687386,-3404.947333,-9548.656652,-3753.867940
21301.687719,-6365.771101,-13989.892304,-4979.620737
21301.688053,-666.185348,-14211.954086,-76.609550
21301.688386,1184.329507,-8364.327145,2451.505594
21301.688719,5921.647536,-7179.997637,9039.926876
21301.689052,5847.626942,-6217.729913,7737.564530
21301.689385,0.000000,-4811.338623,1838.629195
21301.689718,-370.102971,-11177.109724,-536.266849
21301.690052,1110.308913,-9770.718434,536.266849
21301.690385,962.267725,-9400.615463,0.000000
21301.690718,-962.267725,-7846.182985,-2145.067394
21301.691051,-5403.503377,-8364.327145,-8044.002729
21301.691384,-7402.059420,-14211.954086,-4979.620737
21301.691717,-370.102971,-11843.295072,-689.485948
21301.692051,1998.556043,-6587.832884,2451.505594
21301.692384,7105.977043,-5995.668130,8733.488677
21301.692717,1924.535449,-7179.997637,5056.230287
21301.693050,518.144159,-10288.862594,2528.115143
21301.693383,2220.617826,-9770.718434,1149.143247
21301.693716,3997.112087,-9474.636058,1915.238745
21301.694050,2368.659014,-7328.038826,0.000000
21301.694383,-74.020594,-10658.965565,-3140.991542
21301.694716,-9474.636058,-11325.150913,-5515.887586
21301.695049,-8290.306550,-9548.656652,-4903.011187
21301.695382,-888.247130,-13027.624579,-689.485948
21301.695715,1184.329507,-5995.668130,3064.381992
21301.696049,5033.400406,-4515.256246,6358.592633
21301.696382,3552.988522,-6587.832884,5898.935335
21301.696715,2516.700203,-10066.800811,4213.525239
21301.697048,666.185348,-9844.739029,3064.381992
21301.697381,4441.235652,-7328.038826,1838.629195
21301.697714,2590.720797,-8068.244768,0.000000
21301.698047,-1480.411884,-10140.821405,-3524.039291
21301.698381,-6587.832884,-12731.542202,-7431.126331
21301.698714,-8068.244768,-12805.562797,-7048.078582
21301.699047,-888.247130,-8882.471304,-76.609550
21301.699380,3478.967927,-8290.306550,1762.019645
21301.699713,2368.659014,-4219.173869,4903.011187
21301.700046,1480.411884,-9992.780217,4826.401637
21301.700380,1184.329507,-8364.327145,3217.601092
21301.700713,2146.597232,-7624.121203,3830.477490
21301.701046,4737.318029,-7994.224174,2604.724693
21301.701379,4145.153275,-4071.132681,1838.629195
21301.701712,-3034.844362,-8364.327145,-4903.011187
21301.702045,-4145.153275,-14211.954086,-4979.620737
21301.702379,-4811.338623,-14211.954086,-6205.373534
21301.702712,0.000000,-9104.533087,-2451.505594
21301.703045,3775.050304,-7105.977043,2374.896044
21301.703378,0.000000,-9548.656652,2068.457845
21301.703711,-1776.494261,-9696.697840,-1302.362347
21301.704044,-74.020594,-11177.109724,2374.896044
21301.704378,4737.318029,-7179.997637,4903.011187
21301.704711,6365.771101,-4811.338623,6128.763984
21301.705044,5847.626942,-9474.636058,4826.401637
21301.705377,-2368.659014,-7624.121203,-2911.162892
21301.705710,-5329.482782,-10732.986159,-3064.381992
21301.706043,-2072.576638,-9548.656652,-3677.258390
21301.706377,296.082377,-9178.553681,-1378.971896
21301.706710,-592.164754,-9104.533087,0.000000
21301.707043,-3627.009116,-9474.636058,-1762.019645
21301.707376,-2442.679609,-11843.295072,-1302.362347
21301.707709,0.000000,-10140.821405,3370.820191
21301.708042,4663.297435,-7698.141797,4213.525239
21301.708375,3552.988522,-3923.091493,6741.640382
21301.708709,3478.967927,-6513.812290,2374.896044
21301.709042,-1850.514855,-11695.253884,-1302.362347
21301.709375,-1258.350101,-8956.491898,-1685.410096
21301.709708,592.164754,-8660.409521,0.000000
21301.710041,2368.659014,-7179.997637,612.876398
21301.710374,-962.267725,-5995.668130,-2604.724693
21301.710708,-2812.782580,-11843.295072,-4366.744339
21301.711041,-3849.070898,-10732.986159,-4290.134789
21301.711374,0.000000,-12657.521608,2145.067394
21301.711707,4071.132681,-8290.306550,153.219100
21301.712040,4145.153275,-6735.874072,4903.011187
21301.712373,2886.803174,-7698.141797,1302.362347
21301.712707,0.000000,-11621.233289,995.924147
21301.713040,1776.494261,-9622.677246,2834.553343
21301.713373,4589.276840,-6661.853478,2987.772442
21301.713706,4811.338623,-7846.182985,4826.401637
21301.714039,148.041188,-8364.327145,153.219100
21301.714372,-4885.359217,-11325.150913,-3140.991542
21301.714706,-3034.844362,-10955.047942,-3217.601092
21301.715039,-74.020594,-9474.636058,-1455.581446
21301.715372,1036.288319,-9474.636058,3600.648841
21301.715705,1110.308913,-8290.306550,-1302.362347
21301.716038,-6809.894666,-10140.821405,-3524.039291
21301.716371,-3552.988522,-10140.821405,-1225.752797
21301.716705,2294.638420,-9474.636058,1915.238745
21301.717038,5403.503377,-7994.224174,4903.011187
21301.717371,5847.626942,-6365.771101,6665.030833
21301.717704,888.247130,-6661.853478,2451.505594
21301.718037,0.000000,-9548.656652,0.000000
21301.718370,1702.473667,-11547.212695,-689.485948
21301.718703,0.000000,-7772.162391,-3677.258390
21301.719037,1184.329507,-7254.018232,-76.609550
21301.719370,-1258.350101,-11843.295072,-3753.867940
21301.719703,-8882.471304,-11917.315666,-6741.640382
21301.720036,-2442.679609,-11473.192101,-2451.505594
21301.720369,1998.556043,-9104.533087,2987.772442
21301.720702,5699.585753,-6439.791695,6435.202183
21301.721036,3849.070898,-5699.585753,7660.954980
21301.721369,3478.967927,-9474.636058,3294.210641
21301.721702,0.000000,-8364.327145,2757.943793
21301.722035,4071.132681,-13619.789333,4519.963438
21301.722368,2294.638420,-6513.812290,0.000000
21301.722701,-1776.494261,-9252.574275,-995.924147
21301.723035,-5255.462188,-9474.636058,-5362.668486
21301.723368,-7328.038826,-11843.295072,-8350.440928
21301.723701,-2664.741391,-12731.542202,-2374.896044
21301.724034,4071.132681,-8586.388927,4213.525239
21301.724367,4663.297435,-5921.647536,3294.210641
21301.724700,1184.329507,-7179.997637,6128.763984
21301.725034,-74.020594,-11251.130318,1762.019645
21301.725367,4071.132681,-7550.100608,1762.019645
21301.725700,4145.153275,-9104.533087,6665.030833
21301.726033,5477.523971,-5995.668130,2834.553343
21301.726366,-74.020594,-8290.306550,-766.095498
21301.726699,-5921.647536,-11325.150913,-7124.688131
21301.727033,-4811.338623,-13915.871710,-6818.249932
21301.727366,-3923.091493,-10214.842000,-4826.401637
21301.727699,592.164754,-8808.450710,-536.266849
21301.728032,1702.473667,-7105.977043,3447.429741
21301.728365,0.000000,-7179.997637,3064.381992
21301.728698,0.000000,-8956.491898,3983.696590
21301.729031,5699.585753,-11103.089130,6358.592633
21301.729365,5699.585753,-5773.606348,3294.210641
21301.729698,4811.338623,-5477.523971,4903.011187
21301.730031,1258.350101,-7254.018232,-689.485948
21301.730364,-5477.523971,-12361.439231,-7354.516781
21301.730697,-5107.421000,-14211.954086,-5669.106685
21301.731030,-888.247130,-9548.656652,-1225.752797
21301.731364,2368.659014,-8438.347739,2145.067394
21301.731697,-74.020594,-6143.709319,2528.115143
21301.732030,-1258.350101,-7105.977043,-2221.676944
21301.732363,-1628.453072,-8660.409521,1838.629195
21301.732696,4145.153275,-9400.615463,7277.907231
21301.733029,5181.441594,-7920.203579,4903.011187
21301.733363,5107.421000,-7105.977043,5745.716235
21301.733696,-1036.288319,-8364.327145,-842.705048
21301.734029,-4293.194464,-13175.665768,-4979.620737
21301.734362,-3627.009116,-11843.295072,-4979.620737
21301.734695,0.000000,-9548.656652,-1532.190996
21301.735028,74.020594,-6513.812290,-2221.676944
21301.735362,-2368.659014,-8660.409521,612.876398
21301.735695,-3923.091493,-11547.212695,-1915.238745
21301.736028,-74.020594,-9474.636058,1149.143247
21301.736361,5995.668130,-10066.800811,7277.907231
21301.736694,7328.038826,-5107.421000,8350.440928
21301.737027,5107.421000,-6291.750507,5669.106685
21301.737361,-1480.411884,-10732.986159,-229.828649
21301.737694,-1850.514855,-12287.418637,-1302.362347
21301.738027,-3849.070898,-9548.656652,-1838.629195
21301.738360,0.000000,-7179.997637,-612.876398
21301.738693,-74.020594,-9474.636058,-2528.115143
21301.739026,-3552.988522,-6291.750507,-4903.011187
21301.739359,-3627.009116,-13545.768739,-3830.477490
21301.739693,-1850.514855,-12583.501014,1685.410096
21301.740026,4737.318029,-6439.791695,3830.477490
21301.740359,4737.318029,-7328.038826,7124.688131
21301.740692,4663.297435,-3849.070898,3600.648841
21301.741025,-4737.318029,-9548.656652,612.876398
21301.741358,-74.020594,-10955.047942,2068.457845
21301.741692,3478.967927,-8290.306550,-76.609550
21301.742025,1776.494261,-7179.997637,1225.752797
21301.742358,1702.473667,-7550.100608,-612.876398
21301.742691,-5773.606348,-12361.439231,-5362.668486
21301.743024,-4293.194464,-11325.150913,-4673.182538
21301.743357,-1110.308913,-12287.418637,-689.485948
21301.743691,3478.967927,-8290.306550,842.705048
21301.744024,3997.112087,-7105.977043,4826.401637
21301.744357,-1036.288319,-8808.450710,1532.190996
21301.744690,-1924.535449,-8512.368333,0.000000
21301.745023,-2368.659014,-11621.233289,2451.505594
21301.745356,5847.626942,-6513.812290,4826.401637
21301.745690,2368.659014,-4811.338623,2451.505594
21301.746023,1184.329507,-6883.915261,4060.306139
21301.746356,-3627.009116,-9030.512492,-4979.620737
21301.746689,-3701.029710,-10732.986159,-4903.011187
21301.747022,-74.020594,-11695.253884,-2604.724693
21301.747355,814.226536,-9770.718434,-689.485948
21301.747689,-888.247130,-9696.697840,-995.924147
21301.748022,-2442.679609,-12879.583391,-2528.115143
21301.748355,-74.020594,-11547.212695,-1302.362347
21301.748688,0.000000,-8956.491898,4903.011187
21301.749021,9400.615463,-7698.141797,9116.536426
21301.749354,6143.709319,-5255.462188,7354.516781
21301.749687,2368.659014,-6883.915261,6052.154434
21301.750021,-2368.659014,-10732.986159,-612.876398
21301.750354,-592.164754,-7994.224174,-3064.381992
21301.750687,0.000000,-10584.944971,-2451.505594
21301.751020,-666.185348,-8290.306550,-2221.676944
21301.751353,-666.185348,-8882.471304,-5592.497135
21301.751686,-9474.636058,-14434.015869,-4826.401637
21301.752020,-1258.350101,-11695.253884,-2528.115143
21301.752353,2294.638420,-7772.162391,1225.752797
21301.752686,7031.956449,-7698.141797,8197.221829
21301.753019,6513.812290,-4071.132681,7354.516781
21301.753352,2590.720797,-8660.409521,3677.258390
21301.753686,4219.173869,-7920.203579,3600.648841
21301.754019,3701.029710,-7772.162391,612.876398
21301.754352,5551.544565,-10066.800811,-2145.067394
21301.754685,0.000000,-9548.656652,0.000000
21301.755019,-3627.009116,-11843.295072,-7431.126331
21301.755352,-6217.729913,-11917.315666,-7890.783629
21301.755685,-4145.153275,-11029.068536,-3447.429741
21301.756018,3997.112087,-8290.306550,4213.525239
21301.756352,6735.874072,-8290.306550,7277.907231
21301.756685,4367.215058,-5551.544565,4826.401637
21301.757018,1110.308913,-10510.924376,2987.772442
21301.757351,0.000000,-7179.997637,3064.381992
21301.757685,3478.967927,-9474.636058,1455.581446
21301.758018,3478.967927,-5995.668130,0.000000
21301.758351,518.144159,-10658.965565,-689.485948
21301.758684,-7105.977043,-10140.821405,-7737.564530
21301.759017,-6661.853478,-13915.871710,-5592.497135
21301.759351,-3627.009116,-10658.965565,-2834.553343
21301.759684,74.020594,-9474.636058,383.047749
21301.760017,3923.091493,-7105.977043,5439.278036
21301.760350,0.000000,-7476.080014,4903.011187
21301.760684,-1184.329507,-9622.677246,3140.991542
21301.761017,1184.329507,-8364.327145,3677.258390
21301.761350,3478.967927,-8364.327145,4136.915689
21301.761683,4145.153275,-6587.832884,4903.011187
21301.762017,-2294.638420,-5403.503377,-4290.134789
21301.762350,-7105.977043,-15248.242405,-5286.058936
21301.762683,-7476.080014,-10140.821405,-8580.269578
21301.763016,-3182.885551,-11843.295072,-3447.429741
21301.763350,2664.741391,-10362.883188,3294.210641
21301.763683,518.144159,-6291.750507,2834.553343
21301.764016,-3256.906145,-9030.512492,-306.438199
21301.764349,-1924.535449,-7846.182985,1455.581446
21301.764683,4071.132681,-9474.636058,4213.525239
21301.765016,4737.318029,-5403.503377,6741.640382
21301.765349,5255.462188,-9474.636058,6052.154434
21301.765682,-1258.350101,-6735.874072,-3064.381992
21301.766016,-7105.977043,-11325.150913,-4903.011187
21301.766349,-814.226536,-11843.295072,-3753.867940
21301.766682,1332.370696,-9474.636058,-153.219100
21301.767015,0.000000,-8364.327145,766.095498
21301.767349,0.000000,-7105.977043,-229.828649
21301.767682,-6587.832884,-8956.491898,-3524.039291
21301.768015,0.000000,-7179.997637,153.219100
21301.768348,5255.462188,-10658.965565,4213.525239
21301.768682,7031.956449,-4959.379811,2451.505594
21301.769015,6365.771101,-9474.636058,6665.030833
21301.769348,-3330.926739,-9844.739029,-2451.505594
21301.769681,-2886.803174,-11473.192101,-4443.353888
21301.770015,222.061783,-10807.006753,383.047749
21301.770348,4663.297435,-9252.574275,2221.676944
21301.770681,2960.823768,-5403.503377,1532.190996
21301.771014,-296.082377,-13027.624579,2374.896044
21301.771347,-2886.803174,-7772.162391,-4596.572988
21301.771681,-74.020594,-12435.459826,2374.896044
21301.772014,4663.297435,-8290.306550,-76.609550
21301.772347,2368.659014,-6291.750507,1532.190996
21301.772680,1850.514855,-6143.709319,1149.143247
21301.773014,-2368.659014,-11251.130318,-689.485948
21301.773347,148.041188,-10214.842000,0.000000
21301.773680,3256.906145,-10732.986159,2451.505594
21301.774013,5551.544565,-6883.915261,3370.820191
21301.774347,2368.659014,-7328.038826,1378.971896
21301.774680,-2294.638420,-8808.450710,-2451.505594
21301.775013,-1258.350101,-12435.459826,-2528.115143
21301.775346,518.144159,-7179.997637,-1838.629195
21301.775680,2516.700203,-10140.821405,2911.162892
21301.776013,2294.638420,-8290.306550,-383.047749
21301.776346,-2960.823768,-7772.162391,-2451.505594
21301.776679,-2442.679609,-12731.542202,-842.705048
21301.777013,1998.556043,-9178.553681,0.000000
21301.777346,5403.503377,-8808.450710,5898.935335
21301.777679,5773.606348,-5625.565159,5975.544884
21301.778012,1258.350101,-6587.832884,2757.943793
21301.778346,-2590.720797,-11029.068536,-4213.525239
21301.778679,-1628.453072,-13027.624579,-2528.115143
21301.779012,-3182.885551,-12879.583391,-2451.505594
21301.779345,814.226536,-3775.050304,-2451.505594
21301.779679,-3330.926739,-9474.636058,-2681.334243
21301.780012,-4737.318029,-7031.956449,-2911.162892
21301.780345,-3478.967927,-12731.542202,-536.266849
21301.780678,444.123565,-6957.935855,2528.115143
21301.781012,4737.318029,-7328.038826,6281.983084
21301.781345,4663.297435,-7105.977043,4136.915689
21301.781678,5847.626942,-9474.636058,6052.154434
21301.782011,-2442.679609,-8956.491898,-2451.505594
21301.782345,1332.370696,-10140.821405,-2145.067394
21301.782678,1924.535449,-10732.986159,153.219100
21301.783011,0.000000,-10732.986159,-1302.362347
21301.783344,-3627.009116,-8290.306550,-5286.058936
21301.783678,-9400.615463,-13915.871710,-7507.735880
21301.784011,-5107.421000,-11843.295072,-3753.867940
21301.784344,0.000000,-5403.503377,3064.381992
21301.784677,7031.956449,-5329.482782,6052.154434
21301.785010,7031.956449,-4145.153275,5822.325785
21301.785344,2960.823768,-10214.842000,6971.469032
21301.785677,3478.967927,-9474.636058,4826.401637
21301.786010,3330.926739,-8882.471304,2068.457845
21301.786343,2738.761985,-9474.636058,1149.143247
21301.786677,-814.226536,-7994.224174,-3907.087040
21301.787010,-6439.791695,-12139.377449,-7967.393179
21301.787343,-8216.285956,-14434.015869,-6205.373534
21301.787676,-5699.585753,-11325.150913,-4903.011187
21301.788010,1406.391290,-10362.883188,3600.648841
21301.788343,5551.544565,-6513.812290,5439.278036
21301.788676,2886.803174,-4441.235652,7277.907231
21301.789009,1258.350101,-6809.894666,6052.154434
21301.789343,2072.576638,-6735.874072,4826.401637
21301.789676,7031.956449,-7624.121203,4519.963438
21301.790009,6513.812290,-8142.265362,3600.648841
21301.790342,1184.329507,-11473.192101,-766.095498
21301.790676,-5921.647536,-11473.192101,-9346.365076
21301.791009,-8290.306550,-14878.139434,-10648.727422
21301.791342,-3775.050304,-15026.180623,-5286.058936
21301.791675,1702.473667,-7105.977043,-2528.115143
21301.792009,296.082377,-11029.068536,4749.792088
21301.792342,592.164754,-8068.244768,5439.278036
21301.792675,-74.020594,-5921.647536,3370.820191
21301.793008,3034.844362,-8512.368333,8580.269578
21301.793342,10584.944971,-2368.659014,8503.660028
21301.793675,4811.338623,-6661.853478,6052.154434
21301.794008,962.267725,-5255.462188,-1149.143247
21301.794341,-5921.647536,-11843.295072,-7507.735880
21301.794675,-8882.471304,-12805.562797,-9806.022374
21301.795008,-2812.782580,-14211.954086,-4979.620737
21301.795341,-2738.761985,-10140.821405,-3370.820191
21301.795674,-1628.453072,-9548.656652,0.000000
21301.796008,-3108.864956,-10658.965565,-76.609550
21301.796341,1332.370696,-7624.121203,3064.381992
21301.796674,7402.059420,-7031.956449,9729.412825
21301.797007,10881.027347,-3701.029710,11414.822920
21301.797340,5033.400406,-4811.338623,5745.716235
21301.797674,4071.132681,-8882.471304,-76.609550
21301.798007,-740.205942,-11843.295072,-3753.867940
21301.798340,296.082377,-10140.821405,-1991.848295
21301.798673,4441.235652,-11843.295072,-76.609550
21301.799007,2294.638420,-11251.130318,-2528.115143
21301.799340,2294.638420,-10362.883188,-3140.991542
21301.799673,-3997.112087,-13619.789333,-3524.039291
21301.800006,1998.556043,-11251.130318,229.828649
21301.800340,4663.297435,-11843.295072,5439.278036
21301.800673,4737.318029,-3330.926739,5515.887586
21301.801006,4515.256246,-4663.297435,2757.943793
21301.801339,-1776.494261,-5995.668130,1225.752797
21301.801673,-74.020594,-11843.295072,-76.609550
21301.802006,-2960.823768,-8586.388927,-766.095498
21301.802339,740.205942,-6513.812290,-76.609550
21301.802672,-1406.391290,-9326.594869,-459.657299
21301.803006,-3627.009116,-8364.327145,-3524.039291
21301.803339,-6513.812290,-11325.150913,-4366.744339
21301.803672,-1480.411884,-14508.036463,-76.609550
21301.804005,296.082377,-6587.832884,1838.629195
21301.804339,1998.556043,-13619.789333,6665.030833
21301.804672,2886.803174,-2072.576638,842.705048
21301.805005,-7994.224174,-12509.480420,-76.609550
21301.805338,-2072.576638,-8660.409521,-1302.362347
21301.805672,888.247130,-9548.656652,4903.011187
21301.806005,1702.473667,-4885.359217,3370.820191
21301.806338,0.000000,-5107.421000,2757.943793
21301.806671,-7772.162391,-10658.965565,-4060.306139
21301.807005,-4145.153275,-9548.656652,-3370.820191
21301.807338,-1776.494261,-10288.862594,306.438199
21301.807671,4219.173869,-8808.450710,1149.143247
21301.808004,1554.432478,-8586.388927,1149.143247
21301.808338,-74.020594,-11843.295072,-76.609550
21301.808671,-3552.988522,-10436.903782,-3677.258390
21301.809004,2886.803174,-13027.624579,2374.896044
21301.809337,4071.132681,-7179.997637,3064.381992
21301.809670,2368.659014,-4811.338623,5209.449386
21301.810004,2146.597232,-8290.306550,2987.772442
21301.810337,-3330.926739,-8216.285956,-1532.190996
21301.810670,-1924.535449,-9696.697840,229.828649
21301.811003,1406.391290,-5995.668130,0.000000
21301.811337,3330.926739,-8734.430116,-919.314598
21301.811670,0.000000,-8660.409521,-689.485948
21301.812003,-4811.338623,-13619.789333,-4366.744339
21301.812336,-4515.256246,-10288.862594,-6741.640382
21301.812670,2664.741391,-12287.418637,4443.353888
21301.813003,4959.379811,-6439.791695,3753.867940
21301.813336,5773.606348,-7846.182985,6358.592633
21301.813669,2960.823768,-6661.853478,2068.457845
21301.814003,592.164754,-12213.398043,2298.286494
21301.814336,2368.659014,-8956.491898,3677.258390
21301.814669,4293.194464,-11843.295072,3600.648841
21301.815002,1110.308913,-7328.038826,-1532.190996
21301.815336,-4589.276840,-5995.668130,-3677.258390
21301.815669,-4737.318029,-11843.295072,-5286.058936
21301.816002,-5921.647536,-9548.656652,-4749.792088
21301.816335,0.000000,-9548.656652,0.000000
21301.816669,3849.070898,-6069.688724,4749.792088
21301.817002,3404.947333,-7179.997637,4519.963438
21301.817335,3923.091493,-6513.812290,2681.334243
21301.817668,1702.473667,-14211.954086,1762.019645
21301.818002,5699.585753,-5995.668130,3677.258390
21301.818335,5625.565159,-10658.965565,6435.202183
21301.818668,4663.297435,-8882.471304,-76.609550
21301.819001,-2368.659014,-10732.986159,-5975.544884
21301.819335,-6217.729913,-12879.583391,-8810.098227
21301.819668,-1924.535449,-12731.542202,-5439.278036
21301.820001,814.226536,-10214.842000,306.438199
21301.820334,6735.874072,-7254.018232,6435.202183
21301.820668,2516.700203,-5921.647536,4673.182538
21301.821001,222.061783,-10436.903782,3907.087040
21301.821334,1998.556043,-7550.100608,1915.238745
21301.821667,4219.173869,-7550.100608,4060.306139
21301.822001,3108.864956,-5995.668130,4903.011187
21301.822334,2960.823768,-8290.306550,3600.648841
21301.822667,-5477.523971,-11843.295072,-5286.058936
21301.823000,-7105.977043,-9548.656652,-7048.078582
21301.823333,-5995.668130,-13619.789333,-4519.963438
21301.823667,-2960.823768,-8068.244768,-2911.162892
21301.824000,-2294.638420,-7624.121203,-612.876398
21301.824333,-5255.462188,-8586.388927,-1608.800546
21301.824666,-2960.823768,-8364.327145,1838.629195
21301.825000,2886.803174,-6809.894666,2451.505594
21301.825333,9400.615463,-9474.636058,9116.536426
21301.825666,6291.750507,-4811.338623,7354.516781
21301.825999,2294.638420,-6587.832884,1225.752797
21301.826333,-6513.812290,-11325.150913,-6435.202183
21301.826666,-4737.318029,-13693.809927,-7048.078582
21301.826999,-1776.494261,-12361.439231,-3447.429741
21301.827332,1184.329507,-9326.594869,-842.705048
21301.827666,2294.638420,-9474.636058,-76.609550
21301.827999,-8882.471304,-10140.821405,-3677.258390
21301.828332,-74.020594,-11843.295072,-76.609550
21301.828665,2294.638420,-8290.306550,4519.963438
21301.828999,6513.812290,-5255.462188,7354.516781
21301.829332,7920.203579,-4737.318029,9116.536426
21301.829665,-1036.288319,-7772.162391,1608.800546
21301.829998,-1628.453072,-8438.347739,-1915.238745
21301.830332,-888.247130,-11695.253884,-995.924147
21301.830665,1406.391290,-10584.944971,-2911.162892
21301.830998,-2368.659014,-11917.315666,-76.609550
21301.831331,-5551.544565,-8364.327145,-7354.516781
21301.831665,-7105.977043,-9548.656652,-6128.763984
21301.831998,-1850.514855,-15396.283594,1762.019645
21301.832331,4367.215058,-4071.132681,4213.525239
21301.832664,4441.235652,-8512.368333,8350.440928
21301.832998,7179.997637,-2220.617826,6741.640382
21301.833331,-222.061783,-9474.636058,995.924147
21301.833664,148.041188,-7550.100608,0.000000
21301.833997,3182.885551,-11843.295072,-76.609550
21301.834331,814.226536,-7179.997637,-2451.505594
21301.834664,2442.679609,-8956.491898,0.000000
21301.834997,-3775.050304,-14211.954086,-4979.620737
21301.835330,-4219.173869,-10955.047942,-7354.516781
21301.835663,-2664.741391,-14211.954086,-2068.457845
21301.835997,1628.453072,-10288.862594,2068.457845
21301.836330,2664.741391,-4219.173869,4366.744339
21301.836663,1332.370696,-8216.285956,4290.134789
21301.836996,3256.906145,-7698.141797,2987.772442
21301.837330,-148.041188,-10955.047942,2374.896044
21301.837663,3552.988522,-8956.491898,3447.429741
21301.837996,3775.050304,-7550.100608,2834.553343
21301.838329,2368.659014,-5403.503377,612.876398
21301.838663,-1258.350101,-11843.295072,-3447.429741
21301.838996,-7105.977043,-11917.315666,-7354.516781
21301.839329,-518.144159,-11177.109724,-1608.800546
21301.839662,1406.391290,-9696.697840,0.000000
21301.839996,3775.050304,-4367.215058,919.314598
21301.840329,-2220.617826,-8660.409521,-1838.629195
21301.840662,-2590.720797,-9548.656652,-3064.381992
21301.840995,1628.453072,-8808.450710,1685.410096
21301.841329,6809.894666,-10362.883188,6665.030833
21301.841662,11769.274478,-6809.894666,7277.907231
21301.841995,2368.659014,-7179.997637,4903.011187
21301.842328,1776.494261,-10066.800811,-76.609550
21301.842662,-74.020594,-11843.295072,-3524.039291
21301.842995,1184.329507,-11325.150913,-459.657299
21301.843328,1110.308913,-10658.965565,-1378.971896
21301.843661,-1110.308913,-10881.027347,-1991.848295
21301.843995,-3552.988522,-8808.450710,-2757.943793
21301.844328,-4811.338623,-10584.944971,-1608.800546
21301.844661,3182.885551,-7105.977043,2374.896044
21301.844994,1184.329507,-5995.668130,6741.640382
21301.845328,4885.359217,-7402.059420,8503.660028
21301.845661,1998.556043,-5625.565159,1302.362347
21301.845994,-4811.338623,-12435.459826,-76.609550
21301.846327,0.000000,-6883.915261,-1685.410096
21301.846661,-1554.432478,-12879.583391,536.266849
21301.846994,3330.926739,-7105.977043,-153.219100
21301.847327,-6365.771101,-10140.821405,-2451.505594
21301.847660,-5107.421000,-8290.306550,-9346.365076
21301.847994,-7105.977043,-14285.974681,-2145.067394
21301.848327,-962.267725,-11251.130318,-383.047749
21301.848660,5033.400406,-3034.844362,4290.134789
21301.848993,888.247130,-5107.421000,5132.839837
21301.849326,3775.050304,-7105.977043,3064.381992
21301.849660,-1554.432478,-10362.883188,2757.943793
21301.849993,2516.700203,-9030.512492,2834.553343
21301.850326,4589.276840,-8586.388927,3983.696590
21301.850659,-2368.659014,-8364.327145,919.314598
21301.850993,-1850.514855,-8882.471304,-4979.620737
21301.851326,-8364.327145,-12435.459826,-8656.879127
21301.851659,-4737.318029,-10436.903782,-3677.258390
21301.851992,-2368.659014,-8660.409521,-842.705048
21301.852326,2886.803174,-7402.059420,4213.525239
21301.852659,-148.041188,-7846.182985,4213.525239
21301.852992,-2294.638420,-6957.935855,-76.609550
21301.853325,1924.535449,-10362.883188,2987.772442
21301.853659,2960.823768,-7179.997637,5209.449386
21301.853992,8734.430116,-6513.812290,4749.792088
21301.854325,5699.585753,-9474.636058,2987.772442
21301.854658,-888.247130,-12953.603985,-2068.457845
21301.854991,-3552.988522,-13027.624579,-6128.763984
21301.855324,-2886.803174,-11917.315666,-6128.763984
21301.855658,3552.988522,-9400.615463,-76.609550
21301.855991,1702.473667,-8216.285956,612.876398
21301.856324,-1998.556043,-6661.853478,-689.485948
21301.856657,-592.164754,-9400.615463,-76.609550
21301.856990,0.000000,-7772.162391,3677.258390
21301.857324,6439.791695,-5329.482782,5209.449386
21301.857657,4145.153275,-6735.874072,4519.963438
21301.857990,1702.473667,-7698.141797,-76.609550
21301.858323,-5921.647536,-9548.656652,-3370.820191
21301.858656,-2442.679609,-14211.954086,-2528.115143
21301.858989,-74.020594,-10658.965565,-3830.477490
21301.859323,0.000000,-9548.656652,0.000000
21301.859656,3478.967927,-8290.306550,-76.609550
21301.859989,-2886.803174,-10436.903782,-1532.190996
21301.860322,-962.267725,-8882.471304,-995.924147
21301.860655,3849.070898,-9474.636058,4290.134789
21301.860989,6143.709319,-4367.215058,5362.668486
21301.861322,5329.482782,-3034.844362,7354.516781
21301.861655,2294.638420,-8882.471304,-689.485948
21301.861988,-962.267725,-10362.883188,-4903.011187
21301.862321,-148.041188,-14063.912898,-76.609550
21301.862654,1702.473667,-10732.986159,-3064.381992
21301.862988,3108.864956,-9770.718434,383.047749
21301.863321,-222.061783,-10584.944971,-383.047749
21301.863654,-2368.659014,-9918.759623,-2145.067394
21301.863987,-2368.659014,-9548.656652,-1225.752797
21301.864320,2960.823768,-11769.274478,4826.401637
21301.864653,4663.297435,-5921.647536,4596.572988
21301.864987,1776.494261,-4811.338623,3677.258390
21301.865320,-222.061783,-10658.965565,2374.896044
21301.865653,-3627.009116,-8364.327145,-2145.067394
21301.865986,-814.226536,-10732.986159,0.000000
21301.866319,1702.473667,-8586.388927,1762.019645
21301.866653,1776.494261,-7772.162391,919.314598
21301.866986,-4737.318029,-9548.656652,-3370.820191
21301.867319,-6365.771101,-10955.047942,-4673.182538
21301.867652,-3552.988522,-11177.109724,-1838.629195
21301.867985,-518.144159,-9474.636058,383.047749
21301.868318,4663.297435,-7105.977043,2374.896044
21301.868652,-222.061783,-8290.306550,1532.190996
21301.868985,-4441.235652,-7476.080014,-76.609550
21301.869318,-74.020594,-11843.295072,-76.609550
21301.869651,0.000000,-9548.656652,3677.258390
21301.869984,8142.265362,-6513.812290,7890.783629
21301.870318,2886.803174,-7402.059420,3370.820191
21301.870651,296.082377,-9992.780217,-2221.676944
21301.870984,-4219.173869,-12435.459826,-3983.696590
21301.871317,-2072.576638,-10881.027347,-3064.381992
21301.871650,3478.967927,-8216.285956,-2834.553343
21301.871983,0.000000,-11843.295072,2374.896044
21301.872317,-3182.885551,-8142.265362,-3753.867940
21301.872650,-6291.750507,-9548.656652,-4290.134789
21301.872983,518.144159,-7698.141797,1915.238745
21301.873316,4737.318029,-6587.832884,7124.688131
21301.873649,6735.874072,-4959.379811,8120.612279
21301.873983,3552.988522,-6809.894666,5132.839837
21301.874316,-2960.823768,-8956.491898,-1225.752797
21301.874649,-74.020594,-10362.883188,-3753.867940
21301.874982,2960.823768,-11399.171507,-76.609550
21301.875315,2886.803174,-9770.718434,-4213.525239
21301.875648,0.000000,-9548.656652,-3983.696590
21301.875982,-7105.977043,-13101.645173,-6741.640382
21301.876315,-5403.503377,-12435.459826,-5822.325785
21301.876648,0.000000,-10732.986159,1608.800546
21301.876981,4737.318029,-7254.018232,7201.297681
21301.877314,8216.285956,-4737.318029,10955.165621
21301.877648,1184.329507,-3627.009116,3983.696590
21301.877981,3478.967927,-7846.182985,2068.457845
21301.878314,1998.556043,-5995.668130,1225.752797
21301.878647,5477.523971,-10510.924376,2374.896044
21301.878980,3182.885551,-9474.636058,-1302.362347
21301.879313,-3701.029710,-12435.459826,-6971.469032
21301.879647,-8142.265362,-12953.603985,-8886.707777
21301.879980,-5921.647536,-13101.645173,-6205.373534
21301.880313,-296.082377,-10214.842000,-1532.190996
21301.880646,2960.823768,-10140.821405,8503.660028
21301.880979,5255.462188,-1850.514855,6128.763984
21301.881313,0.000000,-6587.832884,4903.011187
21301.881646,3775.050304,-9474.636058,6665.030833
21301.881979,7031.956449,-8290.306550,7277.907231
21301.882312,7254.018232,-4959.379811,6281.983084
21301.882645,2368.659014,-7254.018232,2834.553343
21301.882978,-2294.638420,-6291.750507,-9039.926876
21301.883312,-9548.656652,-15396.283594,-11951.089769
21301.883645,-6365.771101,-13915.871710,-8350.440928
21301.883978,-2072.576638,-14359.995275,-4673.182538
21301.884311,0.000000,-10288.862594,689.485948
21301.884644,4219.173869,-8438.347739,5209.449386
21301.884978,-666.185348,-7105.977043,3600.648841
21301.885311,6513.812290,-6143.709319,10189.070123
21301.885644,6513.812290,-8956.491898,11261.603821
21301.885977,9104.533087,-3034.844362,6435.202183
21301.886310,2368.659014,-6365.771101,4519.963438
21301.886643,-3034.844362,-10362.883188,-5898.935335
21301.886977,-7550.100608,-10214.842000,-9193.145976
21301.887310,-6957.935855,-14878.139434,-7737.564530
21301.887643,-1554.432478,-10214.842000,-4290.134789
21301.887976,-3552.988522,-8364.327145,-1838.629195
21301.888309,-2368.659014,-11029.068536,1762.019645
21301.888643,-2442.679609,-6957.935855,0.000000
21301.888976,3478.967927,-5995.668130,3677.258390
21301.889309,6513.812290,-6883.915261,10035.851024
21301.889642,8216.285956,-3849.070898,5592.497135
21301.889975,3552.988522,-6513.812290,3677.258390
21301.890308,-2812.782580,-9474.636058,-3140.991542
21301.890642,-2812.782580,-10436.903782,-5515.887586
21301.890975,-3552.988522,-14211.954086,-3064.381992
21301.891308,2368.659014,-11473.192101,-76.609550
21301.891641,-370.102971,-9178.553681,-1378.971896
21301.891974,-3997.112087,-7476.080014,-5056.230287
21301.892308,-4737.318029,-11029.068536,612.876398
21301.892641,0.000000,-8364.327145,3677.258390
21301.892974,6735.874072,-7105.977043,7354.516781
21301.893307,4885.359217,-3330.926739,6665.030833
21301.893640,296.082377,-7476.080014,612.876398
21301.893973,-2442.679609,-10658.965565,-689.485948
21301.894307,-962.267725,-11103.089130,-1915.238745
21301.894640,-1924.535449,-8364.327145,0.000000
21301.894973,592.164754,-9474.636058,1762.019645
21301.895306,-74.020594,-11547.212695,-689.485948
21301.895639,-2442.679609,-10436.903782,-1915.238745
21301.895973,-1480.411884,-9548.656652,-842.705048
21301.896306,3552.988522,-9252.574275,2757.943793
21301.896639,6365.771101,-8364.327145,4596.572988
21301.896972,3552.988522,-6291.750507,3064.381992
21301.897305,-74.020594,-8290.306550,-1225.752797
21301.897638,-1776.494261,-10140.821405,-612.876398
21301.897972,2886.803174,-11251.130318,-76.609550
21301.898305,3256.906145,-6587.832884,1838.629195
21301.898638,4441.235652,-8660.409521,6052.154434
21301.898971,-2146.597232,-8068.244768,-2451.505594
21301.899304,-3701.029710,-12953.603985,-3447.429741
21301.899638,-1110.308913,-10807.006753,76.609550
21301.899971,592.164754,-7476.080014,0.000000
21301.900304,3182.885551,-6587.832884,1225.752797
21301.900637,-740.205942,-8438.347739,-306.438199
21301.900970,-2146.597232,-8808.450710,-1455.581446
21301.901303,-592.164754,-8216.285956,-153.219100
21301.901637,666.185348,-10658.965565,1149.143247
21301.901970,7031.956449,-9474.636058,4213.525239
21301.902303,2368.659014,-6291.750507,3677.258390
21301.902636,-1480.411884,-11325.150913,0.000000
21301.902969,-2368.659014,-11177.109724,-1991.848295
21301.903302,-2368.659014,-11917.315666,0.000000
21301.903636,518.144159,-8660.409521,1225.752797
21301.903969,1110.308913,-5403.503377,689.485948
21301.904302,-4737.318029,-9696.697840,-1991.848295
21301.904635,-6809.894666,-8364.327145,-4290.134789
21301.904968,-74.020594,-7624.121203,0.000000
21301.905302,0.000000,-7772.162391,3677.258390
21301.905635,7031.956449,-6809.894666,4826.401637
21301.905968,2886.803174,-6809.894666,3600.648841
21301.906301,-1184.329507,-11843.295072,1455.581446
21301.906634,-740.205942,-9622.677246,-1991.848295
21301.906967,-962.267725,-13323.706956,-689.485948
21301.907301,2960.823768,-9252.574275,689.485948
21301.907634,814.226536,-9474.636058,1149.143247
21301.907967,-5403.503377,-8660.409521,-6741.640382
21301.908300,-7105.977043,-10658.965565,-3753.867940
21301.908633,-666.185348,-10658.965565,-1915.238745
21301.908967,1776.494261,-3627.009116,3064.381992
21301.909300,9104.533087,-5625.565159,9116.536426
21301.909633,3330.926739,-7698.141797,4826.401637
21301.909966,2664.741391,-8512.368333,995.924147
21301.910299,1776.494261,-12287.418637,459.657299
21301.910632,5551.544565,-11251.130318,-76.609550
21301.910966,1628.453072,-8364.327145,0.000000
21301.911299,-592.164754,-10955.047942,-2528.115143
21301.911632,-4811.338623,-15396.283594,-6205.373534
21301.911965,-7105.977043,-7179.997637,-7048.078582
21301.912298,-74.020594,-9474.636058,-76.609550
21301.912632,2442.679609,-8068.244768,3907.087040
21301.912965,4663.297435,-4515.256246,6128.763984
21301.913298,-1332.370696,-6661.853478,1838.629195
21301.913631,518.144159,-7994.224174,-76.609550
21301.913964,1776.494261,-8956.491898,4290.134789
21301.914297,5847.626942,-8290.306550,3830.477490
21301.914631,6365.771101,-7031.956449,2298.286494
21301.914964,-3552.988522,-11917.315666,-3677.258390
21301.915297,-4367.215058,-14211.954086,-7737.564530
21301.915630,-5181.441594,-12509.480420,-6128.763984
21301.915963,0.000000,-11325.150913,1225.752797
21301.916297,4071.132681,-7105.977043,2374.896044
21301.916630,592.164754,-7179.997637,2451.505594
21301.916963,-814.226536,-7105.977043,1762.019645
21301.917296,-1332.370696,-8956.491898,3447.429741
21301.917629,3849.070898,-5773.606348,5056.230287
21301.917962,8142.265362,-7105.977043,9116.536426
21301.918296,2886.803174,-8142.265362,6052.154434
21301.918629,-3849.070898,-4811.338623,-4903.011187
21301.918962,-7698.141797,-15248.242405,-7431.126331
21301.919295,-3108.864956,-15248.242405,-7431.126331
21301.919628,-1628.453072,-12805.562797,-2451.505594
21301.919962,1702.473667,-9178.553681,-1149.143247
21301.920295,-1332.370696,-9770.718434,-1608.800546
21301.920628,-2368.659014,-11547.212695,-1455.581446
21301.920961,2146.597232,-9474.636058,4903.011187
21301.921294,6365.771101,-8290.306550,11874.480219
21301.921627,4737.318029,-2442.679609,11644.651570
21301.921961,4663.297435,-7105.977043,6665.030833
21301.922294,-3478.967927,-7698.141797,-2834.553343
21301.922627,-3627.009116,-8290.306550,-2528.115143
21301.922960,-2886.803174,-11473.192101,-3140.991542
21301.923293,222.061783,-9622.677246,-3064.381992
21301.923627,-3330.926739,-11251.130318,-3447.429741
21301.923960,-7698.141797,-10732.986159,-7354.516781
21301.924293,-4811.338623,-11251.130318,-6205.373534
21301.924626,0.000000,-11029.068536,0.000000
21301.924959,4145.153275,-10066.800811,7277.907231
21301.925292,6661.853478,-2442.679609,6741.640382
21301.925626,2368.659014,-7476.080014,4903.011187
21301.925959,74.020594,-7846.182985,1838.629195
21301.926292,1554.432478,-9326.594869,919.314598
21301.926625,2442.679609,-9918.759623,1072.533697
21301.926958,5625.565159,-10510.924376,2374.896044
21301.927292,-2146.597232,-8364.327145,-4903.011187
21301.927625,-2738.761985,-12731.542202,-4979.620737
21301.927958,-3627.009116,-13619.789333,-5592.497135
21301.928291,-2960.823768,-10732.986159,0.000000
21301.928624,4145.153275,-7772.162391,2911.162892
21301.928957,2368.659014,-6883.915261,5822.325785
21301.929291,370.102971,-6217.729913,2068.457845
21301.929624,-3034.844362,-10362.883188,1302.362347
21301.929957,2294.638420,-10658.965565,4826.401637
21301.930290,2220.617826,-5403.503377,2451.505594
21301.930623,4663.297435,-5625.565159,3294.210641
21301.930957,1554.432478,-9104.533087,-842.705048
21301.931290,-3330.926739,-12731.542202,-4366.744339
21301.931623,-1184.329507,-12065.356855,-2451.505594
21301.931956,2294.638420,-9770.718434,-3064.381992
21301.932289,592.164754,-8364.327145,1225.752797
21301.932622,4663.297435,-9474.636058,-76.609550
21301.932956,-3182.885551,-10510.924376,-2068.457845
21301.933289,-2368.659014,-9252.574275,1378.971896
21301.933622,3404.947333,-7624.121203,3064.381992
21301.933955,6439.791695,-8586.388927,5515.887586
21301.934288,4293.194464,-5995.668130,5822.325785
21301.934622,-1258.350101,-8290.306550,-76.609550
21301.934955,-4293.194464,-8956.491898,-3983.696590
21301.935288,-962.267725,-12435.459826,-76.609550
21301.935621,2294.638420,-8882.471304,-1915.238745
21301.935954,-1184.329507,-7772.162391,612.876398
21301.936287,-3182.885551,-10658.965565,-4366.744339
21301.936621,-6587.832884,-11325.150913,-4903.011187
21301.936954,-1776.494261,-9548.656652,0.000000
21301.937287,3775.050304,-8586.388927,3140.991542
21301.937620,4737.318029,-6217.729913,4213.525239
21301.937953,2294.638420,-5403.503377,4903.011187
21301.938287,962.267725,-9474.636058,1149.143247
21301.938620,1110.308913,-9474.636058,-689.485948
21301.938953,0.000000,-11917.315666,1225.752797
21301.939286,2294.638420,-7698.141797,-1455.581446
21301.939619,-2072.576638,-8068.244768,-1225.752797
21301.939952,-4441.235652,-8068.244768,-4826.401637
21301.940286,-6365.771101,-10066.800811,-5898.935335
21301.940619,-2368.659014,-10732.986159,-1225.752797
21301.940952,2960.823768,-9400.615463,5515.887586
21301.941285,6439.791695,-7105.977043,4826.401637
21301.941618,2220.617826,-5995.668130,2451.505594
21301.941951,-1776.494261,-10732.986159,4213.525239
21301.942285,3478.967927,-8586.388927,-1225.752797
21301.942618,3552.988522,-10658.965565,2374.896044
21301.942951,3923.091493,-10140.821405,1608.800546
21301.943284,222.061783,-10807.006753,-2221.676944
21301.943617,-7105.977043,-13693.809927,-4903.011187
21301.943951,-4441.235652,-9696.697840,-4366.744339
21301.944284,-2294.638420,-10658.965565,229.828649
21301.944617,2664.741391,-6143.709319,4136.915689
21301.944950,5255.462188,-5625.565159,7277.907231
21301.945283,74.020594,-5921.647536,2987.772442
21301.945616,-1776.494261,-7179.997637,1838.629195
21301.945950,2294.638420,-10658.965565,2374.896044
21301.946283,4367.215058,-6291.750507,1532.190996
21301.946616,4663.297435,-9474.636058,2374.896044
21301.946949,-814.226536,-12435.459826,-2834.553343
21301.947282,-8586.388927,-13249.686362,-7737.564530
21301.947616,-6069.688724,-13397.727550,-6205.373534
21301.947949,740.205942,-9696.697840,0.000000
21301.948282,2368.659014,-7624.121203,4826.401637
21301.948615,0.000000,-3923.091493,5515.887586
21301.948948,-518.144159,-8734.430116,2374.896044
21301.949281,2294.638420,-7698.141797,2374.896044
21301.949615,2664.741391,-6735.874072,3217.601092
21301.949948,7031.956449,-8290.306550,4519.963438
21301.950281,3923.091493,-6957.935855,689.485948
21301.950614,-1776.494261,-12435.459826,-4366.744339
21301.950947,-5477.523971,-14211.954086,-6818.249932
21301.951281,-3923.091493,-15396.283594,-3753.867940
21301.951614,-74.020594,-13027.624579,-76.609550
21301.951947,1702.473667,-9474.636058,1149.143247
21301.952280,-2960.823768,-5995.668130,766.095498
21301.952613,-4737.318029,-7772.162391,1225.752797
21301.952946,2590.720797,-5699.585753,3830.477490
21301.953280,5329.482782,-7031.956449,7660.954980
21301.953613,6587.832884,-5255.462188,6281.983084
21301.953946,2664.741391,-7846.182985,2298.286494
21301.954279,-3552.988522,-8364.327145,-6588.421283
21301.954612,-1258.350101,-15988.448347,-3753.867940
21301.954946,-2368.659014,-11029.068536,-4443.353888
21301.955279,0.000000,-9548.656652,0.000000
21301.955612,1998.556043,-13027.624579,2374.896044
21301.955945,-2368.659014,-8956.491898,-1149.143247
21301.956278,-4663.297435,-11695.253884,-2374.896044
21301.956609,-1480.411884,-8068.244768,306.438199
21301.956943,3330.926739,-6439.791695,5132.839837
21301.957276,5329.482782,-3627.009116,10112.460574
21301.957609,4663.297435,-4441.235652,2987.772442
21301.957943,-1480.411884,-9178.553681,-1762.019645
21301.958276,-2368.659014,-8364.327145,0.000000
21301.958609,3478.967927,-13027.624579,2374.896044
21301.958942,4663.297435,-11843.295072,-76.609550
21301.959276,-4737.318029,-10140.821405,-2451.505594
21301.959609,-3849.070898,-11547.212695,-6358.592633
21301.959942,-2738.761985,-12139.377449,-3447.429741
21301.960275,2664.741391,-10881.027347,2987.772442
21301.960609,4959.379811,-6661.853478,3600.648841
21301.960942,2072.576638,-7624.121203,4443.353888
21301.961275,0.000000,-5995.668130,1302.362347
21301.961608,-3256.906145,-7179.997637,0.000000
21301.961942,2960.823768,-9104.533087,5439.278036
21301.962275,6439.791695,-4959.379811,3064.381992
21301.962608,1924.535449,-7179.997637,2451.505594
21301.962942,2886.803174,-11251.130318,-76.609550
21301.963275,-4811.338623,-13619.789333,-4979.620737
21301.963608,-2368.659014,-12435.459826,-4519.963438
21301.963941,-74.020594,-12879.583391,-1072.533697
21301.964275,0.000000,-9104.533087,-76.609550
21301.964608,-1776.494261,-7772.162391,0.000000
21301.964941,-4737.318029,-7772.162391,1072.533697
21301.965274,-74.020594,-8882.471304,1149.143247
21301.965608,1776.494261,-5995.668130,2451.505594
21301.965941,5033.400406,-7698.141797,9116.536426
21301.966274,4737.318029,-2738.761985,3370.820191
21301.966608,740.205942,-8586.388927,459.657299
21301.966941,-1776.494261,-10288.862594,-2451.505594
21301.967274,-2294.638420,-12805.562797,-2298.286494
21301.967607,2294.638420,-11547.212695,-1915.238745
21301.967941,-1184.329507,-9548.656652,-689.485948
21301.968274,-4811.338623,-10362.883188,-6435.202183
21301.968607,-6809.894666,-8660.409521,-4290.134789
21301.968940,-666.185348,-12435.459826,2068.457845
21301.969274,5477.523971,-5625.565159,4903.011187
21301.969607,7031.956449,-6735.874072,8963.317327
21301.969940,4071.132681,-6365.771101,6052.154434
21301.970274,296.082377,-7254.018232,1149.143247
21301.970607,-2146.597232,-10955.047942,-1915.238745
21301.970940,3627.009116,-11843.295072,-76.609550
21301.971273,0.000000,-7179.997637,-2451.505594
21301.971607,0.000000,-9548.656652,-1838.629195
21301.971940,-3182.885551,-10658.965565,-4979.620737
21301.972273,-4811.338623,-12435.459826,-6205.373534
21301.972606,-3108.864956,-9548.656652,-2451.505594
21301.972940,814.226536,-11103.089130,4136.915689
21301.973273,3775.050304,-4811.338623,6435.202183
21301.973606,0.000000,-5995.668130,4903.011187
21301.973940,2294.638420,-4737.318029,76.609550
21301.974273,2960.823768,-9992.780217,6665.030833
21301.974606,5847.626942,-11843.295072,4826.401637
21301.974939,3552.988522,-4811.338623,1838.629195
21301.975273,-3108.864956,-11843.295072,-3753.867940
21301.975606,-6143.709319,-11473.192101,-9499.584175
21301.975939,-5847.626942,-12287.418637,-7507.735880
21301.976272,-1110.308913,-12139.377449,-2987.772442
21301.976606,2368.659014,-7179.997637,1532.190996
21301.976939,2886.803174,-5995.668130,2451.505594
21301.977272,3478.967927,-7550.100608,4213.525239
21301.977606,888.247130,-8142.265362,4366.744339
21301.977939,4663.297435,-7772.162391,3524.039291
21301.978272,3552.988522,-7179.997637,4903.011187
21301.978605,6735.874072,-5921.647536,3140.991542
21301.978939,0.000000,-8364.327145,0.000000
21301.979272,-4811.338623,-12435.459826,-7124.688131
21301.979605,-4219.173869,-13915.871710,-6205.373534
21301.979938,-3552.988522,-12509.480420,-2451.505594
21301.980272,518.144159,-8956.491898,-1072.533697
21301.980605,0.000000,-8216.285956,459.657299
21301.980938,74.020594,-7846.182985,2528.115143
21301.981272,3478.967927,-7179.997637,8350.440928
21301.981605,7031.956449,-5847.626942,6052.154434
21301.981938,7105.977043,-6143.709319,7354.516781
21301.982271,5551.544565,-8882.471304,4213.525239
21301.982605,-3182.885551,-9104.533087,-4903.011187
21301.982938,-6217.729913,-13175.665768,-4979.620737
21301.983271,-5699.585753,-12805.562797,-5975.544884
21301.983604,-2072.576638,-9104.533087,-2681.334243
21301.983938,74.020594,-8438.347739,-1685.410096
21301.984271,-74.020594,-11843.295072,-76.609550
21301.984604,-3034.844362,-5107.421000,-4903.011187
21301.984938,666.185348,-11843.295072,4826.401637
21301.985271,6143.709319,-8290.306550,6052.154434
21301.985604,6513.812290,-4219.173869,7354.516781
21301.985937,5551.544565,-9474.636058,4826.401637
21301.986271,0.000000,-8142.265362,-1149.143247
21301.986604,-1332.370696,-11399.171507,-1608.800546
21301.986937,-518.144159,-12657.521608,-1532.190996
21301.987270,-1480.411884,-8956.491898,-1685.410096
21301.987604,-2368.659014,-9548.656652,0.000000
21301.987937,-2960.823768,-10140.821405,-1302.362347
21301.988270,-3627.009116,-9474.636058,-3217.601092
21301.988604,-2146.597232,-8660.409521,0.000000
21301.988937,4663.297435,-7105.977043,4213.525239
21301.989270,4737.318029,-5699.585753,6741.640382
21301.989603,3034.844362,-5921.647536,1762.019645
21301.989937,-2368.659014,-11843.295072,-1685.410096
21301.990270,-1776.494261,-9548.656652,-1225.752797
21301.990603,2072.576638,-9844.739029,1762.019645
21301.990936,3627.009116,-9252.574275,2604.724693
21301.991270,1628.453072,-7402.059420,-766.095498
21301.991603,-4145.153275,-13915.871710,-1302.362347
21301.991936,-1258.350101,-12731.542202,-1915.238745
21301.992270,-1850.514855,-10066.800811,-1838.629195
21301.992603,1776.494261,-6587.832884,1225.752797
21301.992936,2368.659014,-5699.585753,5056.230287
21301.993269,-592.164754,-7105.977043,153.219100
21301.993603,-1184.329507,-8660.409521,-536.266849
21301.993936,666.185348,-10066.800811,1149.143247
21301.994269,4737.318029,-8142.265362,2834.553343
21301.994602,3849.070898,-11251.130318,4213.525239
21301.994936,0.000000,-8660.409521,-919.314598
21301.995269,-9178.553681,-9548.656652,-4290.134789
21301.995602,-1850.514855,-12435.459826,-3140.991542
21301.995936,4663.297435,-11843.295072,2374.896044
21301.996269,4071.132681,-9178.553681,3907.087040
21301.996602,3108.864956,-7402.059420,1762.019645
21301.996935,-3849.070898,-8956.491898,-2145.067394
21301.997269,-1258.350101,-8808.450710,-995.924147
21301.997602,1036.288319,-11029.068536,3753.867940
21301.997935,6439.791695,-7698.141797,6052.154434
21301.998268,3552.988522,-6587.832884,4903.011187
21301.998602,2146.597232,-10658.965565,1762.019645
21301.998935,222.061783,-9696.697840,0.000000
21301.999268,-2960.823768,-10732.986159,-1838.629195
21301.999601,3478.967927,-8882.471304,-1838.629195
21301.999935,-1406.391290,-10066.800811,-689.485948
21302.000268,-2886.803174,-9104.533087,-4903.011187
21302.000601,-7031.956449,-10066.800811,-5286.058936
21302.000935,-3627.009116,-10066.800811,-3140.991542
21302.001268,2368.659014,-9474.636058,6052.154434
21302.001601,6439.791695,-8142.265362,10648.727422
21302.001934,4663.297435,-4293.194464,3753.867940
21302.002268,1776.494261,-7772.162391,3677.258390
21302.002601,444.123565,-9622.677246,1532.190996
21302.002934,3478.967927,-10214.842000,1072.533697
21302.003267,3034.844362,-9474.636058,1149.143247
21302.003601,148.041188,-9548.656652,-2451.505594
21302.003934,-5921.647536,-9696.697840,-7354.516781
21302.004267,-5921.647536,-14804.118840,-4979.620737
21302.004601,-3775.050304,-9104.533087,-4749.792088
21302.004934,0.000000,-5995.668130,1225.752797
21302.005267,4145.153275,-6513.812290,4673.182538
21302.005600,1184.329507,-7179.997637,5056.230287
21302.005934,814.226536,-7105.977043,2681.334243
21302.006267,4219.173869,-9326.594869,4826.401637
21302.006600,3923.091493,-10658.965565,6818.249932
21302.006933,4367.215058,-5107.421000,1225.752797
21302.007267,-74.020594,-10807.006753,-1915.238745
21302.007600,-3701.029710,-11103.089130,-6818.249932
21302.007933,-5033.400406,-12139.377449,-6358.592633
21302.008267,-2442.679609,-13915.871710,-3753.867940
21302.008600,-222.061783,-8364.327145,-1455.581446
21302.008933,666.185348,-9400.615463,4213.525239
21302.009266,2886.803174,-7698.141797,2374.896044
21302.009600,-1776.494261,-7476.080014,4290.134789
21302.009933,2368.659014,-8512.368333,5209.449386
21302.010266,4737.318029,-7402.059420,7124.688131
21302.010599,5255.462188,-5995.668130,5362.668486
21302.010933,2146.597232,-8216.285956,0.000000
21302.011266,-5403.503377,-11399.171507,-5745.716235
21302.011599,-3627.009116,-10140.821405,-8580.269578
21302.011933,-2960.823768,-14804.118840,-2528.115143
21302.012266,3478.967927,-11843.295072,-76.609550
21302.012599,-1258.350101,-8808.450710,-1532.190996
21302.012932,-2146.597232,-9474.636058,-1302.362347
21302.013266,2220.617826,-8660.409521,4443.353888
21302.013599,4145.153275,-8882.471304,5745.716235
21302.013932,8808.450710,-5477.523971,7584.345430
21302.014265,2960.823768,-5995.668130,6128.763984
21302.014599,1554.432478,-6587.832884,0.000000
21302.014932,-666.185348,-11843.295072,-3753.867940
21302.015265,-4515.256246,-10436.903782,-4903.011187
21302.015599,-1184.329507,-7772.162391,-3677.258390
21302.015932,-1480.411884,-10288.862594,-2221.676944
21302.016265,-666.185348,-10140.821405,-2068.457845
21302.016598,-4811.338623,-9770.718434,-2451.505594
21302.016932,-1184.329507,-9400.615463,-612.876398
21302.017265,4515.256246,-9918.759623,6665.030833
21302.017598,4737.318029,-4811.338623,8886.707777
21302.017931,6439.791695,-8882.471304,4826.401637
21302.018265,-1480.411884,-7179.997637,306.438199
21302.018598,-1628.453072,-10658.965565,-612.876398
21302.018931,-74.020594,-12731.542202,-1838.629195
21302.019265,1110.308913,-9770.718434,-383.047749
21302.019598,-74.020594,-8586.388927,-1762.019645
21302.019931,-3701.029710,-10584.944971,-4136.915689
21302.020264,-3034.844362,-10658.965565,-4213.525239
21302.020598,-1776.494261,-13915.871710,-76.609550
21302.020931,2368.659014,-6291.750507,3064.381992
21302.021264,1184.329507,-5995.668130,6128.763984
21302.021597,4663.297435,-7105.977043,2374.896044
21302.021931,-3256.906145,-9548.656652,0.000000
21302.022264,2886.803174,-7698.141797,689.485948
21302.022597,2960.823768,-10436.903782,4366.744339
21302.022931,5477.523971,-6957.935855,3524.039291
21302.023264,1110.308913,-10066.800811,-995.924147
21302.023597,-4959.379811,-12065.356855,-5898.935335
21302.023930,-4959.379811,-12139.377449,-5669.106685
21302.024264,-4367.215058,-11917.315666,-3370.820191
21302.024597,3478.967927,-7846.182985,536.266849
21302.024930,2294.638420,-7698.141797,2374.896044
21302.025263,0.000000,-7624.121203,3677.258390
21302.025597,1702.473667,-8882.471304,2068.457845
21302.025930,0.000000,-8956.491898,3064.381992
21302.026263,6217.729913,-7179.997637,3983.696590
21302.026597,4663.297435,-9474.636058,4213.525239
21302.026930,2368.659014,-8216.285956,229.828649
21302.027263,-4737.318029,-11029.068536,-4290.134789
21302.027596,-1554.432478,-10807.006753,-5822.325785
21302.027930,-3256.906145,-11917.315666,-3677.258390
21302.028263,0.000000,-11251.130318,-76.609550
21302.028596,-74.020594,-11843.295072,-76.609550
21302.028929,-2738.761985,-6735.874072,-3064.381992
21302.029263,2294.638420,-10658.965565,4826.401637
21302.029596,1702.473667,-6291.750507,5515.887586
21302.029929,6809.894666,-5477.523971,6358.592633
21302.030263,4441.235652,-7328.038826,6665.030833
21302.030596,370.102971,-7772.162391,0.000000
21302.030929,-3552.988522,-9844.739029,-3064.381992
21302.031262,-1554.432478,-16284.530724,-4979.620737
21302.031596,-1776.494261,-9548.656652,-3677.258390
21302.031929,-3552.988522,-10732.986159,612.876398
21302.032262,-74.020594,-9474.636058,-3753.867940
21302.032595,-5625.565159,-11029.068536,-1685.410096
21302.032929,-2960.823768,-9622.677246,-612.876398
21302.033262,2960.823768,-7254.018232,4749.792088
21302.033595,6365.771101,-5995.668130,9039.926876
21302.033929,7624.121203,-6217.729913,9116.536426
21302.034262,1110.308913,-9474.636058,-76.609550
21302.034595,-3552.988522,-8364.327145,0.000000
21302.034928,1998.556043,-10658.965565,-1302.362347
21302.035262,2294.638420,-8882.471304,-3064.381992
21302.035595,-2072.576638,-9252.574275,-1532.190996
21302.035928,-4515.256246,-11029.068536,-7890.783629
21302.036261,-7476.080014,-13175.665768,-5592.497135
21302.036595,-2886.803174,-10362.883188,-2068.457845
21302.036928,3182.885551,-9474.636058,3907.087040
21302.037261,5107.421000,-5995.668130,7660.954980
21302.037595,4737.318029,-6217.729913,6971.469032
21302.037928,1258.350101,-7920.203579,4826.401637
21302.038261,2664.741391,-4811.338623,1532.190996
21302.038594,592.164754,-9548.656652,3677.258390
21302.038928,7031.956449,-7698.141797,1762.019645
21302.039261,-1184.329507,-8364.327145,-4903.011187
21302.039594,-7105.977043,-12213.398043,-7890.783629
21302.039927,-7772.162391,-13027.624579,-7431.126331
21302.040261,-5699.585753,-11621.233289,-3370.820191
21302.040594,370.102971,-7476.080014,1225.752797
21302.040927,518.144159,-8290.306550,4749.792088
21302.041260,1776.494261,-3034.844362,4290.134789
21302.041594,1110.308913,-7328.038826,4596.572988
21302.041927,7031.956449,-9474.636058,3600.648841
21302.042260,3552.988522,-7772.162391,5669.106685
21302.042594,4737.318029,-8364.327145,4673.182538
21302.042927,1184.329507,-10436.903782,-2145.067394
21302.043260,-5773.606348,-13693.809927,-7277.907231
21302.043593,-4145.153275,-12139.377449,-7660.954980
21302.043927,-2368.659014,-13101.645173,-2451.505594
21302.044260,4663.297435,-9474.636058,1762.019645
21302.044593,-1776.494261,-7772.162391,3064.381992
21302.044926,-1258.350101,-8290.306550,-76.609550
21302.045260,-3552.988522,-7772.162391,4903.011187
21302.045593,3182.885551,-5477.523971,2987.772442
21302.045926,5847.626942,-5847.626942,5515.887586
21302.046260,4071.132681,-7402.059420,4519.963438
21302.046593,518.144159,-8512.368333,-1608.800546
21302.046926,-3775.050304,-10066.800811,-3983.696590
21302.047259,-2664.741391,-13767.830521,-4979.620737
21302.047593,-296.082377,-13841.851115,-689.485948
21302.047926,0.000000,-8660.409521,0.000000
21302.048259,-3552.988522,-9548.656652,0.000000
21302.048592,-74.020594,-8882.471304,-1302.362347
21302.048926,0.000000,-6957.935855,612.876398
21302.049259,4663.297435,-7698.141797,4826.401637
21302.049592,5329.482782,-4589.276840,5592.497135
21302.049926,2738.761985,-7179.997637,2068.457845
21302.050259,-74.020594,-9474.636058,-229.828649
21302.050592,-1850.514855,-9474.636058,-2528.115143
21302.050925,-3552.988522,-11917.315666,0.000000
21302.051259,2294.638420,-12435.459826,-76.609550
21302.051592,2294.638420,-8216.285956,-1838.629195
21302.051925,-3997.112087,-9548.656652,-1072.533697
21302.052258,-2442.679609,-8586.388927,-4136.915689
21302.052592,-3701.029710,-9992.780217,-1608.800546
21302.052925,1332.370696,-8142.265362,2374.896044
21302.053258,3552.988522,-5403.503377,4903.011187
21302.053592,3478.967927,-6809.894666,2374.896044
21302.053925,-1184.329507,-10066.800811,-536.266849
21302.054258,-1406.391290,-10140.821405,0.000000
21302.054591,1850.514855,-11325.150913,1149.143247
21302.054925,2368.659014,-8364.327145,4290.134789
21302.055258,3478.967927,-9474.636058,842.705048
21302.055591,-3552.988522,-9548.656652,-4903.011187
21302.055924,-4441.235652,-12213.398043,-383.047749
21302.056258,-666.185348,-9474.636058,-2451.505594
21302.056591,1702.473667,-7179.997637,0.000000
21302.056924,3182.885551,-5625.565159,1762.019645
21302.057258,-1184.329507,-7920.203579,0.000000
21302.057591,-2368.659014,-7846.182985,-612.876398
21302.057924,1184.329507,-9474.636058,-76.609550
21302.058257,5255.462188,-11251.130318,1455.581446
21302.058591,5329.482782,-9548.656652,6281.983084
21302.058924,1924.535449,-10658.965565,0.000000
21302.059257,-74.020594,-11843.295072,-1915.238745
21302.059590,-740.205942,-9548.656652,-3677.258390
21302.059924,0.000000,-13619.789333,1149.143247
21302.060257,4071.132681,-5921.647536,842.705048
21302.060590,0.000000,-7846.182985,-306.438199
21302.060923,-4959.379811,-7994.224174,-4903.011187
21302.061257,-2738.761985,-8142.265362,-3907.087040
21302.061590,-2072.576638,-11917.315666,3600.648841
21302.061923,4663.297435,-4811.338623,3983.696590
21302.062256,2590.720797,-5995.668130,4903.011187
21302.062590,1998.556043,-7105.977043,2374.896044
21302.062923,-2072.576638,-10732.986159,612.876398
21302.063256,1554.432478,-11843.295072,229.828649
21302.063589,2368.659014,-10288.862594,306.438199
21302.063923,0.000000,-9844.739029,612.876398
21302.064256,-1258.350101,-6735.874072,-5515.887586
21302.064589,-5403.503377,-15396.283594,-4979.620737
21302.064922,-5551.544565,-8956.491898,-4903.011187
21302.065256,-444.123565,-8660.409521,612.876398
21302.065589,6217.729913,-5403.503377,4903.011187
21302.065922,5625.565159,-5551.544565,7660.954980
21302.066255,2812.782580,-8734.430116,4903.011187
21302.066589,-370.102971,-7550.100608,2757.943793
21302.066922,2886.803174,-8882.471304,-76.609550
21302.067255,1184.329507,-11325.150913,2374.896044
21302.067588,1998.556043,-7402.059420,-3753.867940
21302.067922,-6661.853478,-11917.315666,-7354.516781
21302.068255,-5995.668130,-11843.295072,-8044.002729
21302.068588,-5847.626942,-12805.562797,-6588.421283
21302.068922,-370.102971,-9622.677246,1915.238745
21302.069255,4959.379811,-7105.977043,6741.640382
21302.069588,2664.741391,-7031.956449,6128.763984
21302.069921,5255.462188,-4737.318029,5439.278036
21302.070255,2960.823768,-7031.956449,7277.907231
21302.070588,6439.791695,-6217.729913,4903.011187
21302.070921,4663.297435,-7994.224174,3907.087040
21302.071254,666.185348,-10066.800811,-3907.087040
21302.071588,-4959.379811,-15100.201217,-7814.174080
21302.071921,-9474.636058,-11917.315666,-13483.280765
21302.072254,-4737.318029,-12953.603985,-4979.620737
21302.072587,1406.391290,-12731.542202,1762.019645
21302.072921,1998.556043,-4293.194464,2757.943793
21302.073254,1702.473667,-9178.553681,5745.716235
21302.073587,2368.659014,-3108.864956,5822.325785
21302.073920,4367.215058,-5551.544565,5745.716235
21302.074254,6883.915261,-8290.306550,6052.154434
21302.074587,7328.038826,-4737.318029,4519.963438
21302.074920,-2368.659014,-9548.656652,-1149.143247
21302.075253,-2442.679609,-14211.954086,-8656.879127
21302.075587,-7328.038826,-12213.398043,-9806.022374
21302.075920,-4145.153275,-14285.974681,-4903.011187
21302.076253,1110.308913,-10510.924376,-1302.362347
21302.076586,740.205942,-9178.553681,536.266849
21302.076920,-888.247130,-11251.130318,3294.210641
21302.077253,0.000000,-7179.997637,5822.325785
21302.077586,4811.338623,-4219.173869,7354.516781
21302.077919,5921.647536,-7772.162391,12487.356617
21302.078253,7031.956449,-3552.988522,4826.401637
21302.078586,-1554.432478,-7179.997637,-3677.258390
21302.078919,-1258.350101,-14211.954086,-3753.867940
21302.079253,-3701.029710,-9696.697840,-7048.078582
21302.079586,-3404.947333,-14434.015869,-4979.620737
21302.079919,-74.020594,-10066.800811,-3217.601092
21302.080252,-3330.926739,-12435.459826,-3140.991542
21302.080586,-3552.988522,-10732.986159,-1225.752797
21302.080919,-74.020594,-10066.800811,5439.278036
21302.081252,3478.967927,-6143.709319,4903.011187
21302.081585,5625.565159,-3923.091493,12563.966167
21302.081919,7031.956449,-5921.647536,4826.401637
21302.082252,-1628.453072,-6291.750507,0.000000
21302.082585,-3182.885551,-7994.224174,-2834.553343
21302.082918,444.123565,-10214.842000,-3217.601092
21302.083252,-1406.391290,-12805.562797,-1838.629195
21302.083585,-1184.329507,-9252.574275,-4903.011187
21302.083918,-5255.462188,-13619.789333,-6052.154434
21302.084251,-4219.173869,-9696.697840,-3140.991542
21302.084585,0.000000,-8660.409521,-612.876398
21302.084918,2294.638420,-11251.130318,2987.772442
21302.085251,7031.956449,-3627.009116,7354.516781
21302.085584,1184.329507,-6291.750507,5362.668486
21302.085918,3404.947333,-7105.977043,2987.772442
21302.086251,-74.020594,-8734.430116,0.000000
21302.086584,2294.638420,-10658.965565,1455.581446
21302.086917,4367.215058,-7179.997637,842.705048
21302.087251,0.000000,-12435.459826,-842.705048
21302.087584,-2368.659014,-9770.718434,-4290.134789
21302.087917,-6513.812290,-11325.150913,-2451.505594
21302.088250,-74.020594,-9548.656652,-4596.572988
21302.088584,1776.494261,-11843.295072,2987.772442
21302.088917,1110.308913,-5699.585753,1455.581446
21302.089250,-962.267725,-5403.503377,0.000000
21302.089583,-2368.659014,-7624.121203,1149.143247
21302.089917,444.123565,-5847.626942,0.000000
21302.090250,1776.494261,-11769.274478,4443.353888
21302.090583,5699.585753,-4515.256246,4136.915689
21302.090917,1924.535449,-10436.903782,2145.067394
21302.091250,-666.185348,-9548.656652,-4290.134789
21302.091583,-74.020594,-14211.954086,-689.485948
21302.091916,-962.267725,-8364.327145,-1838.629195
21302.092250,3997.112087,-8216.285956,2451.505594
21302.092583,444.123565,-7179.997637,-995.924147
21302.092916,-2368.659014,-10658.965565,-3907.087040
21302.093249,-3627.009116,-9400.615463,-3447.429741
21302.093583,222.061783,-10658.965565,-1149.143247
21302.093916,5551.544565,-8586.388927,4826.401637
21302.094249,3552.988522,-7179.997637,7660.954980
21302.094582,1998.556043,-5995.668130,612.876398
21302.094916,-1480.411884,-9548.656652,1838.629195
21302.095249,3256.906145,-12435.459826,-76.609550
21302.095582,-74.020594,-13027.624579,-1608.800546
21302.095915,1184.329507,-9178.553681,1072.533697
21302.096249,814.226536,-8882.471304,-1915.238745
21302.096582,-4145.153275,-9326.594869,-2528.115143
21302.096915,-2886.803174,-7920.203579,-1225.752797
21302.097248,-74.020594,-9474.636058,-76.609550
21302.097582,1480.411884,-5995.668130,4903.011187
21302.097915,1850.514855,-8142.265362,4826.401637
21302.098248,-962.267725,-8068.244768,0.000000
21302.098581,-4441.235652,-8956.491898,0.000000
21302.098915,-74.020594,-11251.130318,383.047749
21302.099248,4737.318029,-10658.965565,3600.648841
21302.099581,3404.947333,-6957.935855,2451.505594
21302.099914,-962.267725,-10288.862594,-1915.238745
21302.100248,-3775.050304,-10658.965565,-3753.867940
21302.100581,-5625.565159,-11029.068536,-3524.039291
21302.100914,-1110.308913,-9844.739029,-842.705048
21302.101248,4441.235652,-6291.750507,4213.525239
21302.101581,2368.659014,-6587.832884,4903.011187
21302.101914,2516.700203,-8290.306550,2374.896044
21302.102247,518.144159,-7698.141797,842.705048
21302.102581,2368.659014,-9844.739029,4826.401637
21302.102914,5847.626942,-8882.471304,3600.648841
21302.103247,74.020594,-8364.327145,0.000000
21302.103580,-4071.132681,-11399.171507,-5745.716235
21302.103914,-6661.853478,-11325.150913,-5975.544884
21302.104247,-3256.906145,-8956.491898,-4903.011187
21302.104580,4663.297435,-10658.965565,1915.238745
21302.104913,3182.885551,-10658.965565,4213.525239
21302.105247,0.000000,-7179.997637,3140.991542
21302.105580,-4145.153275,-5995.668130,3677.258390
21302.105913,1110.308913,-9474.636058,3600.648841
21302.106246,5329.482782,-5551.544565,6358.592633
21302.106580,5255.462188,-7550.100608,5056.230287
21302.106913,2368.659014,-9548.656652,1225.752797
21302.107246,-3923.091493,-11103.089130,-6281.983084
21302.107579,-7105.977043,-10732.986159,-7354.516781
21302.107913,-2590.720797,-11029.068536,-9193.145976
21302.108246,296.082377,-12435.459826,2374.896044
21302.108579,518.144159,-6439.791695,0.000000
21302.108912,-2590.720797,-7179.997637,0.000000
21302.109246,-962.267725,-7105.977043,1762.019645
21302.109579,2960.823768,-5995.668130,5515.887586
21302.109912,5699.585753,-7254.018232,7814.174080
21302.110245,4811.338623,-6513.812290,5286.058936
21302.110579,-74.020594,-9400.615463,-1532.190996
21302.110912,-4737.318029,-10732.986159,-3064.381992
21302.111245,-74.020594,-13027.624579,-4979.620737
21302.111578,-74.020594,-9918.759623,-3983.696590
21302.111912,888.247130,-8364.327145,0.000000
21302.112245,0.000000,-12435.459826,-2451.505594
21302.112578,-4219.173869,-11843.295072,-2987.772442
21302.112912,-1702.473667,-7698.141797,0.000000
21302.113245,2442.679609,-9104.533087,4596.572988
21302.113578,9400.615463,-2960.823768,8810.098227
21302.113911,7105.977043,-5921.647536,9729.412825
21302.114245,1110.308913,-5995.668130,-1225.752797
21302.114578,0.000000,-9548.656652,0.000000
21302.114911,-74.020594,-13027.624579,-3140.991542
21302.115244,3849.070898,-11917.315666,-2451.505594
21302.115578,1998.556043,-11843.295072,-1915.238745
21302.115911,-2738.761985,-12879.583391,-5286.058936
21302.116244,-3108.864956,-11769.274478,-3064.381992
21302.116577,-666.185348,-9474.636058,-689.485948
21302.116911,2294.638420,-10955.047942,2374.896044
21302.117244,4885.359217,-5995.668130,7124.688131
21302.117577,1628.453072,-7624.121203,4903.011187
21302.117910,962.267725,-5625.565159,2987.772442
21302.118244,1110.308913,-7105.977043,3600.648841
21302.118577,2516.700203,-7179.997637,3677.258390
21302.118910,4663.297435,-9474.636058,2068.457845
21302.119243,-2368.659014,-9548.656652,-919.314598
21302.119577,-7698.141797,-11325.150913,-7354.516781
21302.119910,-6587.832884,-13323.706956,-7124.688131
21302.120243,-4811.338623,-12287.418637,-4673.182538
21302.120576,0.000000,-9104.533087,0.000000
21302.120910,2220.617826,-7698.141797,2681.334243
21302.121243,-962.267725,-6291.750507,1532.190996
21302.121576,148.041188,-9474.636058,4826.401637
21302.121909,814.226536,-8882.471304,2374.896044
21302.122243,1184.329507,-7772.162391,4903.011187
21302.122576,7031.956449,-9326.594869,8503.660028
21302.122909,1850.514855,-5995.668130,612.876398
21302.123242,-74.020594,-10066.800811,-1762.019645
21302.123576,-2516.700203,-10658.965565,-3830.477490
21302.123909,-1850.514855,-13471.748144,-3983.696590
21302.124242,-1776.494261,-10140.821405,0.000000
21302.124576,-666.185348,-11843.295072,-76.609550
21302.124909,-4515.256246,-8438.347739,-4749.792088
21302.125242,-6513.812290,-8364.327145,919.314598
21302.125575,1702.473667,-7105.977043,1762.019645
21302.125909,4737.318029,-5995.668130,8350.440928
21302.126242,5773.606348,-5403.503377,6281.983084
21302.126575,2442.679609,-9252.574275,2604.724693
21302.126908,-1406.391290,-10955.047942,1455.581446
21302.127242,-74.020594,-11177.109724,-76.609550
21302.127575,1702.473667,-9474.636058,-2834.553343
21302.127908,0.000000,-8068.244768,-3064.381992
21302.128241,592.164754,-9400.615463,-1225.752797
21302.128575,-3775.050304,-13619.789333,-5592.497135
21302.128908,-4145.153275,-11621.233289,-2987.772442
21302.129241,-666.185348,-11103.089130,1225.752797
21302.129574,4737.318029,-6957.935855,5669.106685
21302.129908,7105.977043,-5033.400406,8503.660028
21302.130241,2886.803174,-8142.265362,5592.497135
21302.130574,3627.009116,-5551.544565,3064.381992
21302.130907,2072.576638,-9548.656652,3064.381992
21302.131241,5477.523971,-8438.347739,1991.848295
21302.131574,-2072.576638,-7179.997637,-3677.258390
21302.131907,-6513.812290,-10732.986159,-7048.078582
21302.132240,-4219.173869,-12435.459826,-7431.126331
21302.132574,-6587.832884,-10658.965565,-6818.249932
21302.132907,0.000000,-9548.656652,612.876398
21302.133240,444.123565,-5107.421000,3830.477490
21302.133573,2664.741391,-5699.585753,4366.744339
21302.133907,1110.308913,-7402.059420,3983.696590
21302.134240,1480.411884,-9104.533087,6052.154434
21302.134573,5921.647536,-7846.182985,7201.297681
21302.134907,5847.626942,-7476.080014,7277.907231
21302.135240,4663.297435,-7105.977043,-383.047749
21302.135573,-5329.482782,-8364.327145,-7814.174080
21302.135906,-4589.276840,-15396.283594,-6818.249932
21302.136240,-3108.864956,-14211.954086,-4673.182538
21302.136573,-888.247130,-11325.150913,-2374.896044
21302.136906,1184.329507,-11029.068536,2451.505594
21302.137239,370.102971,-7031.956449,919.314598
21302.137573,1924.535449,-7179.997637,4903.011187
21302.137906,3552.988522,-5403.503377,7507.735880
21302.138239,3552.988522,-4811.338623,5209.449386
21302.138572,5329.482782,-7476.080014,8810.098227
21302.138906,1110.308913,-8882.471304,842.705048
21302.139239,-5107.421000,-9918.759623,-6588.421283
21302.139572,-5551.544565,-11843.295072,-9269.755526
21302.139905,-4885.359217,-16432.571912,-3830.477490
21302.140239,444.123565,-7105.977043,995.924147
21302.140572,-1480.411884,-8364.327145,2451.505594
21302.140905,-2738.761985,-9474.636058,-689.485948
21302.141238,-2368.659014,-6883.915261,3294.210641
21302.141572,2886.803174,-10658.965565,7277.907231
21302.141905,5773.606348,-2738.761985,6128.763984
21302.142238,2960.823768,-6587.832884,6205.373534
21302.142571,296.082377,-9548.656652,0.000000
21302.142905,-4145.153275,-11177.109724,-4060.306139
21302.143238,-2516.700203,-13619.789333,-5286.058936
21302.143571,-2220.617826,-12361.439231,-3830.477490
21302.143904,1258.350101,-7772.162391,-1838.629195
21302.144238,-592.164754,-11843.295072,1762.019645
21302.144571,-1554.432478,-8364.327145,-1532.190996
21302.144904,-3256.906145,-7179.997637,2451.505594
21302.145237,2368.659014,-8364.327145,5822.325785
21302.145571,7402.059420,-2442.679609,7967.393179
21302.145904,4367.215058,-6069.688724,4519.963438
21302.146237,296.082377,-8808.450710,-842.705048
21302.146571,-1850.514855,-10584.944971,-3294.210641
21302.146904,-1850.514855,-11917.315666,-4290.134789
21302.147237,2886.803174,-10362.883188,-1302.362347
21302.147570,0.000000,-10288.862594,-153.219100
21302.147904,-2294.638420,-11991.336260,-1915.238745
21302.148237,-3034.844362,-11251.130318,-1302.362347
21302.148570,-814.226536,-9696.697840,0.000000
21302.148903,1480.411884,-5995.668130,2451.505594
21302.149237,5921.647536,-4885.359217,7584.345430
21302.149570,4663.297435,-7994.224174,5592.497135
21302.149903,-1776.494261,-5995.668130,612.876398
21302.150236,-2146.597232,-10807.006753,-2987.772442
21302.150570,-370.102971,-11843.295072,-3600.648841
21302.150903,1850.514855,-10288.862594,0.000000
21302.151236,814.226536,-11547.212695,-689.485948
21302.151569,-3034.844362,-9918.759623,-6128.763984
21302.151903,-3552.988522,-11399.171507,-689.485948
21302.152236,1184.329507,-9844.739029,6052.154434
21302.152569,4663.297435,-5921.647536,4519.963438
21302.152902,4071.132681,-6513.812290,6052.154434
21302.153236,-2368.659014,-6883.915261,-383.047749
21302.153569,-1628.453072,-7476.080014,-1302.362347
21302.153902,-2220.617826,-9918.759623,-1532.190996
21302.154235,1184.329507,-8364.327145,0.000000
21302.154569,5255.462188,-7179.997637,0.000000
21302.154902,2664.741391,-10807.006753,2987.772442
21302.155235,1110.308913,-12879.583391,-76.609550
21302.155568,-666.185348,-9474.636058,-2987.772442
21302.155902,592.164754,-9696.697840,-1302.362347
21302.156235,3775.050304,-7328.038826,2681.334243
21302.156568,1850.514855,-9400.615463,3447.429741
21302.156901,-1480.411884,-4293.194464,-2757.943793
21302.157234,-1480.411884,-9992.780217,-1532.190996
21302.157568,-2072.576638,-7179.997637,-1225.752797
21302.157901,4663.297435,-11843.295072,4826.401637
21302.158234,2886.803174,-7624.121203,1225.752797
21302.158567,5329.482782,-9992.780217,3677.258390
21302.158900,-2072.576638,-12879.583391,0.000000
21302.159233,4071.132681,-8956.491898,1302.362347
21302.159566,1406.391290,-11843.295072,2374.896044
21302.159899,2960.823768,-9548.656652,1762.019645
21302.160233,-666.185348,-9474.636058,-2221.676944
21302.160566,-7105.977043,-13101.645173,-3753.867940
21302.160899,-5107.421000,-7179.997637,-7354.516781
21302.161232,-5329.482782,-10140.821405,0.000000
21302.161565,6291.750507,-7698.141797,6665.030833
21302.161898,1776.494261,-5773.606348,6128.763984
21302.162231,1406.391290,-6069.688724,2451.505594
21302.162565,0.000000,-8512.368333,2681.334243
21302.162898,1850.514855,-9548.656652,2451.505594
21302.163231,7031.956449,-7698.141797,2374.896044
21302.163564,296.082377,-10288.862594,-76.609550
21302.163897,-2368.659014,-10658.965565,-6358.592633
21302.164230,-7698.141797,-13249.686362,-6894.859482
21302.164563,-5033.400406,-11843.295072,-7124.688131
21302.164897,-370.102971,-11843.295072,-689.485948
21302.165230,0.000000,-7476.080014,2451.505594
21302.165563,3256.906145,-7994.224174,6665.030833
21302.165896,370.102971,-7179.997637,4903.011187
21302.166229,1776.494261,-4219.173869,5515.887586
21302.166562,5551.544565,-8882.471304,6052.154434
21302.166895,5625.565159,-7179.997637,6128.763984
21302.167228,1258.350101,-7254.018232,1149.143247
21302.167562,-3478.967927,-12139.377449,-5898.935335
21302.167895,-5995.668130,-10214.842000,-8810.098227
21302.168228,-6217.729913,-15766.386565,-4979.620737
21302.168561,-1850.514855,-11843.295072,-3753.867940
21302.168894,-2960.823768,-7772.162391,0.000000
21302.169227,-592.164754,-11177.109724,2987.772442
21302.169560,-444.123565,-4811.338623,2451.505594
21302.169894,3182.885551,-7920.203579,6052.154434
21302.170227,7698.141797,-5847.626942,8810.098227
21302.170560,7328.038826,-6513.812290,9346.365076
21302.170893,4737.318029,-5995.668130,3064.381992
21302.171226,1184.329507,-11843.295072,-76.609550
21302.171559,-3775.050304,-9548.656652,-8580.269578
21302.171892,-6513.812290,-12509.480420,-7048.078582
21302.172226,-1258.350101,-11843.295072,-4366.744339
21302.172559,-1184.329507,-9548.656652,-3600.648841
21302.172892,-1850.514855,-11103.089130,-1915.238745
21302.173225,148.041188,-7254.018232,1378.971896
21302.173558,1628.453072,-8512.368333,5822.325785
21302.173891,9400.615463,-5329.482782,10955.165621
21302.174224,8216.285956,-7105.977043,7277.907231
21302.174557,1184.329507,-5995.668130,2757.943793
21302.174891,296.082377,-11251.130318,-689.485948
21302.175224,-666.185348,-11251.130318,-4979.620737
21302.175557,-2072.576638,-11917.315666,-3677.258390
21302.175890,-518.144159,-11177.109724,-3064.381992
21302.176223,-2368.659014,-10955.047942,-3064.381992
21302.176556,-2368.659014,-11399.171507,-1685.410096
21302.176889,-74.020594,-8882.471304,2145.067394
21302.177223,444.123565,-10066.800811,2451.505594
21302.177556,4811.338623,-5477.523971,7737.564530
21302.177889,2664.741391,-3923.091493,6128.763984
21302.178222,296.082377,-5699.585753,306.438199
21302.178555,-2368.659014,-6587.832884,612.876398
21302.178888,-1850.514855,-13619.789333,-2834.553343
21302.179221,0.000000,-7772.162391,-2451.505594
21302.179554,-3256.906145,-11399.171507,-1302.362347
21302.179888,-2146.597232,-9770.718434,-4673.182538
21302.180221,-4737.318029,-11769.274478,-2221.676944
21302.180554,-2368.659014,-11251.130318,-1915.238745
21302.180887,74.020594,-8956.491898,1915.238745
21302.181220,2960.823768,-6587.832884,5515.887586
21302.181553,4663.297435,-4441.235652,4903.011187
21302.181886,2294.638420,-9474.636058,2987.772442
21302.182220,-2220.617826,-7179.997637,0.000000
21302.182553,-2368.659014,-9548.656652,1838.629195
21302.182886,2368.659014,-6587.832884,0.000000
21302.183219,1924.535449,-9918.759623,1762.019645
21302.183552,-3775.050304,-12657.521608,-4290.134789
21302.183885,-3330.926739,-11399.171507,-5592.497135
21302.184218,-3034.844362,-15396.283594,-2528.115143
21302.184552,1184.329507,-9548.656652,1225.752797
21302.184885,2886.803174,-7105.977043,3600.648841
21302.185218,1480.411884,-6291.750507,3677.258390
21302.185551,2294.638420,-7105.977043,4826.401637
21302.185884,1110.308913,-9474.636058,2374.896044
21302.186217,3108.864956,-8290.306550,2987.772442
21302.186550,2442.679609,-7994.224174,3064.381992
21302.186883,1036.288319,-8068.244768,-612.876398
21302.187217,-2590.720797,-11251.130318,-2604.724693
21302.187550,-4145.153275,-11621.233289,-2987.772442
21302.187883,-2146.597232,-10732.986159,-3677.258390
21302.188216,1406.391290,-7772.162391,0.000000
21302.188549,4145.153275,-9400.615463,3294.210641
21302.188882,-1258.350101,-8290.306550,-995.924147
21302.189215,-666.185348,-7846.182985,-1608.800546
21302.189549,888.247130,-8956.491898,1608.800546
21302.189882,6809.894666,-6365.771101,5362.668486
21302.190215,6291.750507,-6661.853478,4979.620737
21302.190548,4663.297435,-11843.295072,2374.896044
21302.190881,0.000000,-7179.997637,0.000000
21302.191214,1406.391290,-14211.954086,-1838.629195
21302.191547,3775.050304,-14211.954086,-1915.238745
21302.191881,-222.061783,-10955.047942,-2451.505594
21302.192214,-74.020594,-11695.253884,-1915.238745
21302.192547,-3108.864956,-10510.924376,-2528.115143
21302.192880,-3627.009116,-8142.265362,-2911.162892
21302.193213,0.000000,-8216.285956,766.095498
21302.193546,5847.626942,-7698.141797,4826.401637
21302.193879,4885.359217,-6439.791695,7584.345430
21302.194212,1258.350101,-8586.388927,3907.087040
21302.194546,1110.308913,-7105.977043,842.705048
21302.194879,-2368.659014,-9548.656652,0.000000
21302.195212,3330.926739,-10658.965565,1762.019645
21302.195545,-962.267725,-6587.832884,-3907.087040
21302.195878,-3552.988522,-12287.418637,-2834.553343
21302.196211,-6587.832884,-13915.871710,-4366.744339
21302.196544,-5995.668130,-9548.656652,-7048.078582
21302.196878,-1258.350101,-8734.430116,-76.609550
21302.197211,814.226536,-7920.203579,4826.401637
21302.197544,3256.906145,-4737.318029,5209.449386
21302.197877,444.123565,-7402.059420,5362.668486
21302.198210,3478.967927,-9474.636058,2987.772442
21302.198543,1184.329507,-8364.327145,4903.011187
21302.198876,4737.318029,-9104.533087,6511.811733
21302.199209,2886.803174,-8586.388927,229.828649
21302.199543,-4737.318029,-11917.315666,-5822.325785
21302.199876,-5107.421000,-12583.501014,-8273.831378
21302.200209,-4811.338623,-13915.871710,-5286.058936
21302.200542,518.144159,-9104.533087,-1915.238745
21302.200875,-74.020594,-8734.430116,2374.896044
21302.201208,1702.473667,-8290.306550,-76.609550
21302.201541,-2960.823768,-6291.750507,3983.696590
21302.201875,3182.885551,-7105.977043,6052.154434
21302.202208,5551.544565,-7105.977043,3600.648841
21302.202541,6439.791695,-8142.265362,6665.030833
21302.202874,2960.823768,-8364.327145,2451.505594
21302.203207,-1258.350101,-11621.233289,-1608.800546
21302.203540,-1702.473667,-10955.047942,-5209.449386
21302.203873,-4737.318029,-13101.645173,-5515.887586
21302.204207,-74.020594,-10584.944971,-2757.943793
21302.204540,-2072.576638,-5995.668130,612.876398
21302.204873,-814.226536,-8882.471304,-1302.362347
21302.205206,0.000000,-7105.977043,229.828649
21302.205539,518.144159,-10658.965565,3600.648841
21302.205872,6439.791695,-5921.647536,6358.592633
21302.206205,3775.050304,-6883.915261,3524.039291
21302.206538,2960.823768,-9918.759623,0.000000
21302.206872,-1184.329507,-12879.583391,-1225.752797
21302.207205,-2072.576638,-8660.409521,-2451.505594
21302.207538,2294.638420,-11843.295072,-76.609550
21302.207871,2886.803174,-10658.965565,842.705048
21302.208204,0.000000,-5403.503377,1532.190996
21302.208537,-3849.070898,-9474.636058,-1915.238745
21302.208870,-2368.659014,-7031.956449,-2528.115143
21302.209204,-666.185348,-9770.718434,-1378.971896
21302.209537,2516.700203,-7624.121203,3907.087040
21302.209870,2368.659014,-8808.450710,3064.381992
21302.210203,-1184.329507,-8808.450710,-2145.067394
21302.210536,-370.102971,-9770.718434,-1532.190996
21302.210869,0.000000,-11621.233289,-1072.533697
21302.211202,4515.256246,-9548.656652,2757.943793
21302.211536,3552.988522,-8364.327145,2757.943793
21302.211869,1628.453072,-5995.668130,0.000000
21302.212202,-1776.494261,-9844.739029,2374.896044
21302.212535,-370.102971,-9178.553681,-2528.115143
21302.212868,1110.308913,-8882.471304,-1378.971896
21302.213201,1184.329507,-9474.636058,2221.676944
21302.213534,-1554.432478,-9548.656652,0.000000
21302.213867,-2220.617826,-9474.636058,-612.876398
21302.214201,-2812.782580,-10140.821405,-1149.143247
21302.214534,2294.638420,-10955.047942,2987.772442
21302.214867,2368.659014,-6587.832884,6741.640382
21302.215200,5847.626942,-8290.306550,6971.469032
21302.215533,-74.020594,-7402.059420,-1225.752797
21302.215866,-5921.647536,-7179.997637,-4290.134789
21302.216199,-1554.432478,-11843.295072,-2834.553343
21302.216533,-888.247130,-8956.491898,-1532.190996
21302.216866,-222.061783,-8586.388927,-1915.238745
21302.217199,-2368.659014,-11103.089130,-3753.867940
21302.217532,-1258.350101,-11843.295072,-995.924147
21302.217865,0.000000,-8364.327145,2757.943793
21302.218198,4071.132681,-8586.388927,2987.772442
21302.218531,5847.626942,-6661.853478,5132.839837
21302.218864,592.164754,-7179.997637,5515.887586
21302.219198,-74.020594,-7994.224174,0.000000
21302.219531,-740.205942,-9474.636058,-1302.362347
21302.219864,-2072.576638,-10658.965565,-2221.676944
21302.220197,-1036.288319,-9770.718434,-689.485948
21302.220530,-2368.659014,-5995.668130,-4903.011187
21302.220863,-8290.306550,-11325.150913,-3524.039291
21302.221196,-3627.009116,-10362.883188,-4366.744339
21302.221530,-2368.659014,-7772.162391,-3064.381992
21302.221863,4737.318029,-7328.038826,6128.763984
21302.222196,7031.956449,-6513.812290,6971.469032
21302.222529,4145.153275,-7846.182985,7201.297681
21302.222862,3627.009116,-7328.038826,3294.210641
21302.223195,1702.473667,-10584.944971,1378.971896
21302.223528,2368.659014,-10288.862594,-995.924147
21302.223862,592.164754,-9474.636058,-1302.362347
21302.224195,-2368.659014,-10362.883188,-4673.182538
21302.224528,-5255.462188,-10658.965565,-7124.688131
21302.224861,-2442.679609,-11547.212695,-3140.991542
21302.225194,-1258.350101,-10362.883188,-2374.896044
21302.225527,1184.329507,-7179.997637,5515.887586
21302.225860,2368.659014,-5995.668130,7354.516781
21302.226193,3478.967927,-7105.977043,4826.401637
21302.226527,3256.906145,-7179.997637,3677.258390
21302.226860,2886.803174,-7698.141797,1915.238745
21302.227193,4293.194464,-9178.553681,1762.019645
21302.227526,2294.638420,-9844.739029,-2451.505594
21302.227859,-2442.679609,-13619.789333,-7277.907231
21302.228192,-5921.647536,-13027.624579,-8656.879127
21302.228525,-7105.977043,-11917.315666,-4749.792088
21302.228859,-74.020594,-11843.295072,-76.609550
21302.229192,3775.050304,-8882.471304,4826.401637
21302.229525,3330.926739,-6513.812290,6358.592633
21302.229858,3627.009116,-4515.256246,6741.640382
21302.230191,444.123565,-7846.182985,4596.572988
21302.230524,3775.050304,-7550.100608,3447.429741
21302.230857,1480.411884,-7179.997637,2451.505594
21302.231190,2294.638420,-9474.636058,-76.609550
21302.231524,-74.020594,-12361.439231,-1302.362347
21302.231857,-7179.997637,-11991.336260,-8273.831378
21302.232190,-5921.647536,-10732.986159,-7354.516781
21302.232523,-4145.153275,-11029.068536,-2834.553343
21302.232856,-2368.659014,-7031.956449,689.485948
21302.233189,-2220.617826,-8364.327145,919.314598
21302.233522,0.000000,-7179.997637,4290.134789
21302.233856,4663.297435,-6217.729913,8197.221829
21302.234189,4959.379811,-4219.173869,4903.011187
21302.234522,9400.615463,-6513.812290,6052.154434
21302.234855,4071.132681,-7624.121203,-2298.286494
21302.235188,740.205942,-14211.954086,-2528.115143
21302.235521,-370.102971,-13915.871710,-6205.373534
21302.235854,-2146.597232,-15396.283594,-7431.126331
21302.236188,1628.453072,-12435.459826,-1302.362347
21302.236521,3108.864956,-7772.162391,612.876398
21302.236854,1110.308913,-9474.636058,1455.581446
21302.237187,0.000000,-6291.750507,4596.572988
21302.237520,4071.132681,-8882.471304,3907.087040
21302.237853,4737.318029,-7476.080014,7967.393179
21302.238186,8808.450710,-4737.318029,6052.154434
21302.238519,-518.144159,-10658.965565,919.314598
21302.238853,-148.041188,-6883.915261,-3447.429741
21302.239186,-5403.503377,-12287.418637,-5975.544884
21302.239519,888.247130,-11399.171507,-4060.306139
21302.239852,370.102971,-11843.295072,-2528.115143
21302.240185,-2368.659014,-13397.727550,1149.143247
21302.240518,-1776.494261,-7772.162391,0.000000
21302.240851,-3775.050304,-9474.636058,766.095498
21302.241185,1554.432478,-6883.915261,1762.019645
21302.241518,2294.638420,-7105.977043,6052.154434
21302.241851,3256.906145,-5699.585753,5056.230287
21302.242184,-74.020594,-8882.471304,-76.609550
21302.242517,-4737.318029,-8660.409521,-1532.190996
21302.242850,-740.205942,-9252.574275,-2221.676944
21302.243183,1554.432478,-13027.624579,-76.609550
21302.243517,2812.782580,-8068.244768,-229.828649
21302.243850,-3182.885551,-13323.706956,-2221.676944
21302.244183,-2886.803174,-11547.212695,-3064.381992
21302.244516,-2146.597232,-8956.491898,0.000000
21302.244849,0.000000,-8660.409521,3217.601092
21302.245182,4663.297435,-5921.647536,4060.306139
21302.245515,-1184.329507,-7179.997637,3064.381992
21302.245848,-1184.329507,-9030.512492,842.705048
21302.246182,-2442.679609,-7105.977043,-3140.991542
21302.246515,-740.205942,-11029.068536,536.266849
21302.246848,2072.576638,-5995.668130,2604.724693
21302.247181,518.144159,-8808.450710,2681.334243
21302.247514,-2072.576638,-8956.491898,0.000000
21302.247847,-4737.318029,-9548.656652,2374.896044
21302.248180,-1258.350101,-7994.224174,-2451.505594
21302.248514,0.000000,-5995.668130,0.000000
21302.248847,0.000000,-9474.636058,1762.019645
21302.249180,-3478.967927,-7772.162391,-2451.505594
21302.249513,-3701.029710,-11103.089130,-1915.238745
21302.249846,-1184.329507,-9474.636058,-995.924147
21302.250179,1332.370696,-10140.821405,536.266849
21302.250512,4663.297435,-9252.574275,6358.592633
21302.250845,3552.988522,-7994.224174,4826.401637
21302.251179,2294.638420,-8290.306550,1149.143247
21302.251512,1184.329507,-8364.327145,2757.943793
21302.251845,4441.235652,-10362.883188,4060.306139
21302.252178,4145.153275,-8364.327145,3524.039291
21302.252511,-370.102971,-8808.450710,-2451.505594
21302.252844,-1554.432478,-10288.862594,-5056.230287
21302.253177,-4811.338623,-10362.883188,-5592.497135
21302.253511,-2960.823768,-11399.171507,-3140.991542
21302.253844,4367.215058,-9474.636058,536.266849
21302.254177,2960.823768,-7476.080014,3064.381992
21302.254510,4145.153275,-9474.636058,4826.401637
21302.254843,3552.988522,-5995.668130,4903.011187
21302.255176,4145.153275,-9548.656652,6665.030833
21302.255509,7031.956449,-8586.388927,3983.696590
21302.255843,4737.318029,-7772.162391,4136.915689
21302.256176,1406.391290,-10066.800811,-76.609550
21302.256509,-814.226536,-7994.224174,-5669.106685
21302.256842,-4219.173869,-10955.047942,-7660.954980
21302.257175,-2738.761985,-11843.295072,-6358.592633
21302.257508,222.061783,-9622.677246,-766.095498
21302.257842,1406.391290,-8290.306550,2298.286494
21302.258175,1702.473667,-8290.306550,2068.457845
21302.258508,2368.659014,-8660.409521,7584.345430
21302.258841,3478.967927,-6809.894666,1608.800546
21302.259174,5625.565159,-9844.739029,6128.763984
21302.259508,3552.988522,-7328.038826,4596.572988
21302.259841,-2072.576638,-8660.409521,-4290.134789
21302.260174,-3256.906145,-10510.924376,-4673.182538
21302.260507,-5403.503377,-11991.336260,-6205.373534
21302.260840,-74.020594,-11843.295072,-2834.553343
21302.261173,-3108.864956,-6587.832884,-2451.505594
21302.261507,296.082377,-8660.409521,1991.848295
21302.261840,592.164754,-10140.821405,6052.154434
21302.262173,-370.102971,-8438.347739,2298.286494
21302.262506,2294.638420,-8586.388927,5439.278036
21302.262839,4441.235652,-7105.977043,8197.221829
21302.263173,5033.400406,-5699.585753,4443.353888
21302.263506,-518.144159,-12435.459826,0.000000
21302.263839,-3775.050304,-9548.656652,-5209.449386
21302.264172,-6069.688724,-14804.118840,-4979.620737
21302.264505,-3034.844362,-8512.368333,-6128.763984
21302.264838,-3552.988522,-7772.162391,-3677.258390
21302.265172,-5329.482782,-11251.130318,-689.485948
21302.265505,-2590.720797,-6143.709319,0.000000
21302.265838,-814.226536,-9474.636058,2911.162892
21302.266171,5107.421000,-6809.894666,7584.345430
21302.266504,3849.070898,-4811.338623,7967.393179
21302.266838,2368.659014,-6587.832884,1762.019645
21302.267171,-666.185348,-11251.130318,-1608.800546
21302.267504,-3330.926739,-8364.327145,-4903.011187
21302.267837,-2368.659014,-13027.624579,-4979.620737
21302.268170,-74.020594,-11843.295072,-3140.991542
21302.268503,-3997.112087,-8364.327145,-3370.820191
21302.268837,-2146.597232,-11547.212695,-1608.800546
21302.269170,-1554.432478,-7402.059420,-383.047749
21302.269503,-148.041188,-9992.780217,2987.772442
21302.269836,6439.791695,-3997.112087,8350.440928
21302.270169,6439.791695,-6513.812290,7890.783629
21302.270503,3552.988522,-7105.977043,3064.381992
21302.270836,370.102971,-10436.903782,0.000000
21302.271169,-444.123565,-10510.924376,-3217.601092
21302.271502,0.000000,-10732.986159,-3983.696590
21302.271835,-222.061783,-13323.706956,-2528.115143
21302.272169,-1110.308913,-9548.656652,-4903.011187
21302.272502,-5625.565159,-10732.986159,-1838.629195
21302.272835,1406.391290,-9474.636058,1149.143247
21302.273168,296.082377,-7476.080014,2451.505594
21302.273501,5847.626942,-6809.894666,8427.050478
21302.273834,4737.318029,-5329.482782,7201.297681
21302.274168,2072.576638,-7476.080014,2451.505594
21302.274501,2738.761985,-9474.636058,2374.896044
21302.274834,814.226536,-12435.459826,-76.609550
21302.275167,1110.308913,-8660.409521,-3064.381992
21302.275500,2294.638420,-10584.944971,919.314598
21302.275834,-74.020594,-12435.459826,-4979.620737
21302.276167,-3701.029710,-12953.603985,-6128.763984
21302.276500,-1258.350101,-10510.924376,-2528.115143
21302.276833,888.247130,-10658.965565,1762.019645
21302.277166,2812.782580,-5847.626942,5439.278036
21302.277499,3923.091493,-3997.112087,4136.915689
21302.277833,2072.576638,-7994.224174,4213.525239
21302.278166,0.000000,-4811.338623,1838.629195
21302.278499,2294.638420,-11843.295072,-76.609550
21302.278832,2886.803174,-11251.130318,-1072.533697
21302.279165,814.226536,-11917.315666,536.266849
21302.279499,-74.020594,-9918.759623,-2451.505594
21302.279832,-962.267725,-11473.192101,-1991.848295
21302.280165,-370.102971,-10584.944971,-383.047749
21302.280498,296.082377,-7179.997637,1225.752797
21302.280831,2294.638420,-7105.977043,2221.676944
21302.281165,-2368.659014,-9030.512492,0.000000
21302.281498,-5625.565159,-11251.130318,-76.609550
21302.281831,-3701.029710,-5699.585753,-1225.752797
21302.282164,0.000000,-6883.915261,1915.238745
21302.282497,1480.411884,-7179.997637,4290.134789
21302.282830,1258.350101,-8216.285956,1608.800546
21302.283164,-1924.535449,-9474.636058,-536.266849
21302.283497,-74.020594,-12435.459826,-76.609550
21302.283830,-3034.844362,-10140.821405,-4290.134789
21302.284163,1998.556043,-14211.954086,-383.047749
21302.284496,-74.020594,-8290.306550,-1915.238745
21302.284830,-3256.906145,-11769.274478,-76.609550
21302.285163,-3256.906145,-7179.997637,-1532.190996
21302.285496,-2368.659014,-9548.656652,153.219100
21302.285829,2368.659014,-7994.224174,4213.525239
21302.286162,2442.679609,-7994.224174,6281.983084
21302.286495,-74.020594,-8586.388927,2374.896044
21302.286829,888.247130,-7772.162391,2145.067394
21302.287162,1036.288319,-8142.265362,1149.143247
21302.287495,3552.988522,-9770.718434,2221.676944
21302.287828,1184.329507,-8068.244768,612.876398
21302.288161,888.247130,-12435.459826,-2528.115143
21302.288495,-2146.597232,-12805.562797,-4596.572988
21302.288828,-4737.318029,-10140.821405,-1225.752797
21302.289161,-74.020594,-11843.295072,-1302.362347
21302.289494,2960.823768,-7179.997637,2451.505594
21302.289827,2368.659014,-7179.997637,6205.373534
21302.290160,3256.906145,-5403.503377,3064.381992
21302.290494,2886.803174,-6957.935855,3140.991542
21302.290827,2294.638420,-10288.862594,3217.601092
21302.291160,3478.967927,-9474.636058,4826.401637
21302.291493,1998.556043,-6587.832884,306.438199
21302.291826,-74.020594,-11843.295072,-2528.115143
21302.292160,-4219.173869,-8364.327145,-8580.269578
21302.292493,-2072.576638,-12509.480420,-3753.867940
21302.292826,1110.308913,-11843.295072,-3140.991542
21302.293159,1184.329507,-8808.450710,-76.609550
21302.293492,-370.102971,-9548.656652,995.924147
21302.293826,888.247130,-8364.327145,2374.896044
21302.294159,2590.720797,-5477.523971,2528.115143
21302.294492,2886.803174,-6587.832884,2451.505594
21302.294825,8734.430116,-8290.306550,6665.030833
21302.295158,1998.556043,-5329.482782,1149.143247
21302.295491,0.000000,-8956.491898,-612.876398
21302.295825,-3034.844362,-10658.965565,-5515.887586
21302.296158,-4737.318029,-10807.006753,-5669.106685
21302.296491,-1258.350101,-11251.130318,-1302.362347
21302.296824,-592.164754,-8438.347739,-76.609550
21302.297157,0.000000,-8660.409521,0.000000
21302.297491,-1776.494261,-9030.512492,3524.039291
21302.297824,3478.967927,-7105.977043,1149.143247
21302.298157,2368.659014,-8512.368333,5209.449386
21302.298490,2368.659014,-7772.162391,7277.907231
21302.298823,3182.885551,-8882.471304,689.485948
21302.299156,-888.247130,-9548.656652,-459.657299
21302.299490,-814.226536,-9326.594869,-1608.800546
21302.299823,-2220.617826,-11621.233289,-2068.457845
21302.300156,148.041188,-9696.697840,0.000000
21302.300489,-1776.494261,-10066.800811,919.314598
21302.300822,-2368.659014,-7994.224174,-2528.115143
21302.301156,-3478.967927,-8956.491898,-536.266849
21302.301489,-666.185348,-10658.965565,-1302.362347
21302.301822,1924.535449,-11843.295072,2834.553343
21302.302155,1184.329507,-7179.997637,4903.011187
21302.302488,3478.967927,-10658.965565,1762.019645
21302.302822,-74.020594,-10658.965565,1302.362347
21302.303155,-74.020594,-9474.636058,-76.609550
21302.303488,1184.329507,-9992.780217,1302.362347
21302.303821,-370.102971,-7402.059420,842.705048
21302.304154,-444.123565,-7402.059420,-1762.019645
21302.304487,-2886.803174,-9104.533087,-766.095498
21302.304821,-1332.370696,-9104.533087,-383.047749
21302.305154,-4737.318029,-7772.162391,0.000000
21302.305487,3330.926739,-8882.471304,536.266849
21302.305820,2294.638420,-7105.977043,2374.896044
21302.306153,888.247130,-8734.430116,229.828649
21302.306487,-74.020594,-11251.130318,-1378.971896
21302.306820,1554.432478,-11399.171507,0.000000
21302.307153,4071.132681,-9548.656652,3830.477490
21302.307486,5551.544565,-8512.368333,4979.620737
21302.307819,1702.473667,-10658.965565,842.705048
21302.308152,-666.185348,-10362.883188,-76.609550
21302.308486,-74.020594,-9474.636058,-2681.334243
21302.308819,0.000000,-7772.162391,0.000000
21302.309152,1184.329507,-7920.203579,1532.190996
21302.309485,-3256.906145,-8512.368333,-2145.067394
21302.309818,-2886.803174,-9992.780217,-2298.286494
21302.310152,-1924.535449,-10362.883188,-536.266849
21302.310485,1258.350101,-9178.553681,-76.609550
21302.310818,4737.318029,-7179.997637,1532.190996
21302.311151,5255.462188,-11843.295072,4213.525239
21302.311484,3478.967927,-11843.295072,3600.648841
21302.311817,-2220.617826,-7920.203579,766.095498
21302.312151,1110.308913,-10362.883188,-689.485948
21302.312484,0.000000,-10288.862594,919.314598
21302.312817,-1480.411884,-6735.874072,-1225.752797
21302.313150,-3627.009116,-8364.327145,-3294.210641
21302.313483,-5773.606348,-11177.109724,-2528.115143
21302.313817,-3552.988522,-8068.244768,-842.705048
21302.314150,3182.885551,-8882.471304,2374.896044
21302.314483,2368.659014,-4811.338623,4290.134789
21302.314816,2368.659014,-7179.997637,4749.792088
21302.315149,2886.803174,-11843.295072,3600.648841
21302.315483,1184.329507,-8068.244768,1302.362347
21302.315816,1480.411884,-10807.006753,-919.314598
21302.316149,592.164754,-10510.924376,-1532.190996
21302.316482,-1554.432478,-10955.047942,-3294.210641
21302.316815,-4737.318029,-10140.821405,-3677.258390
21302.317148,-6217.729913,-11325.150913,-4290.134789
21302.317482,-2442.679609,-8660.409521,-1915.238745
21302.317815,2368.659014,-7476.080014,5132.839837
21302.318148,5255.462188,-4145.153275,7124.688131
21302.318481,2516.700203,-5995.668130,4903.011187
21302.318814,1776.494261,-8882.471304,4903.011187
21302.319148,3478.967927,-8882.471304,-689.485948
21302.319481,148.041188,-11325.150913,919.314598
21302.319814,2886.803174,-11251.130318,-76.609550
21302.320147,-3849.070898,-10732.986159,-5286.058936
21302.320480,-4959.379811,-12509.480420,-6128.763984
21302.320813,-4737.318029,-10658.965565,-4826.401637
21302.321147,-3552.988522,-8364.327145,-3064.381992
21302.321480,-1702.473667,-5995.668130,3064.381992
21302.321813,4663.297435,-8290.306550,6665.030833
21302.322146,4219.173869,-6513.812290,6971.469032
21302.322479,2368.659014,-3034.844362,7354.516781
21302.322813,4885.359217,-5107.421000,1762.019645
21302.323146,4219.173869,-11251.130318,1532.190996
21302.323479,3256.906145,-9400.615463,229.828649
21302.323812,-370.102971,-11843.295072,-5439.278036
21302.324145,-2664.741391,-13767.830521,-6128.763984
21302.324479,-5773.606348,-12509.480420,-4903.011187
21302.324812,-74.020594,-11251.130318,-3753.867940
21302.325145,0.000000,-7772.162391,2451.505594
21302.325478,0.000000,-7328.038826,2911.162892
21302.325811,296.082377,-7031.956449,2757.943793
21302.326144,2294.638420,-4737.318029,5439.278036
21302.326478,2960.823768,-7846.182985,4826.401637
21302.326811,4737.318029,-7254.018232,4826.401637
21302.327144,2886.803174,-8882.471304,1149.143247
21302.327477,1184.329507,-10140.821405,-383.047749
21302.327810,-3330.926739,-12731.542202,-6358.592633
21302.328144,-5329.482782,-10732.986159,-7354.516781
21302.328477,-296.082377,-14211.954086,-689.485948
21302.328810,-74.020594,-11251.130318,-689.485948
21302.329143,-518.144159,-9104.533087,612.876398
21302.329476,-2886.803174,-9992.780217,2068.457845
21302.329809,2590.720797,-6069.688724,5209.449386
21302.330143,1776.494261,-5995.668130,7354.516781
21302.330476,7031.956449,-5921.647536,7277.907231
21302.330809,592.164754,-5995.668130,4136.915689
21302.331142,-74.020594,-11547.212695,-76.609550
21302.331475,-1258.350101,-9030.512492,-4596.572988
21302.331809,-2812.782580,-11843.295072,-4979.620737
21302.332142,-962.267725,-9918.759623,-4903.011187
21302.332475,-2072.576638,-11325.150913,-3370.820191
21302.332808,-444.123565,-13175.665768,-842.705048
21302.333141,-2368.659014,-7476.080014,1225.752797
21302.333474,-74.020594,-8290.306550,1149.143247
21302.333808,2664.741391,-8142.265362,5209.449386
21302.334141,4145.153275,-5255.462188,6511.811733
21302.334474,1406.391290,-6439.791695,2145.067394
21302.334807,-1406.391290,-7772.162391,76.609550
21302.335140,-1332.370696,-10658.965565,-689.485948
21302.335474,-1258.350101,-7179.997637,-3370.820191
21302.335807,888.247130,-10066.800811,2987.772442
21302.336140,-592.164754,-8882.471304,-1685.410096
21302.336473,-1702.473667,-8956.491898,-4290.134789
21302.336806,-1850.514855,-11103.089130,-1225.752797
21302.337140,222.061783,-10066.800811,-1608.800546
21302.337473,1110.308913,-9548.656652,2834.553343
21302.337806,0.000000,-8660.409521,2451.505594
21302.338139,2294.638420,-11251.130318,842.705048
21302.338472,-2368.659014,-6291.750507,0.000000
21302.338805,1184.329507,-9104.533087,2068.457845
21302.339139,3775.050304,-9474.636058,4213.525239
21302.339472,2516.700203,-4959.379811,3677.258390
21302.339805,740.205942,-8586.388927,1378.971896
21302.340138,-1924.535449,-9326.594869,-995.924147
21302.340471,-1480.411884,-9548.656652,-2145.067394
21302.340805,-74.020594,-11843.295072,-76.609550
21302.341138,3478.967927,-9474.636058,-1915.238745
21302.341471,-3256.906145,-8956.491898,-1838.629195
21302.341804,0.000000,-10140.821405,995.924147
21302.342137,-74.020594,-9474.636058,-383.047749
21302.342470,1776.494261,-11547.212695,2068.457845
21302.342804,5403.503377,-8216.285956,4903.011187
21302.343137,3330.926739,-7031.956449,4290.134789
21302.343470,3034.844362,-8512.368333,3600.648841
21302.343803,1702.473667,-7698.141797,2374.896044
21302.344136,0.000000,-6587.832884,-3370.820191
21302.344470,592.164754,-11029.068536,2068.457845
21302.344803,-74.020594,-8142.265362,-1302.362347
21302.345136,-2442.679609,-9548.656652,-7048.078582
21302.345469,-3256.906145,-11843.295072,-3140.991542
21302.345802,-3108.864956,-10288.862594,-3064.381992
21302.346135,1258.350101,-10066.800811,1762.019645
21302.346469,2368.659014,-7920.203579,4979.620737
21302.346802,3182.885551,-7550.100608,2987.772442
21302.347135,888.247130,-9548.656652,3983.696590
21302.347468,962.267725,-7994.224174,2604.724693
21302.347801,1998.556043,-9474.636058,612.876398
21302.348135,0.000000,-9844.739029,1225.752797
21302.348468,0.000000,-8660.409521,1455.581446
21302.348801,-370.102971,-10066.800811,-3907.087040
21302.349134,-3404.947333,-9844.739029,-4290.134789
21302.349467,-4737.318029,-11103.089130,-3753.867940
21302.349801,0.000000,-9548.656652,0.000000
21302.350134,1924.535449,-8068.244768,4290.134789
21302.350467,1998.556043,-9326.594869,3064.381992
21302.350800,2072.576638,-7476.080014,4519.963438
21302.351133,2294.638420,-10362.883188,3294.210641
21302.351466,3330.926739,-7476.080014,4213.525239
21302.351800,4663.297435,-6217.729913,1532.190996
21302.352133,-1776.494261,-9548.656652,-536.266849
21302.352466,-1850.514855,-12435.459826,-3907.087040
21302.352799,-4959.379811,-10955.047942,-4979.620737
21302.353132,-3108.864956,-12139.377449,-3753.867940
21302.353466,74.020594,-9178.553681,-1149.143247
21302.353799,2072.576638,-9104.533087,2374.896044
21302.354132,2368.659014,-9474.636058,4060.306139
21302.354465,2664.741391,-8068.244768,7737.564530
21302.354798,0.000000,-6587.832884,1225.752797
21302.355131,5773.606348,-11547.212695,6665.030833
21302.355465,3182.885551,-4811.338623,2451.505594
21302.355798,0.000000,-7920.203579,0.000000
21302.356131,-3627.009116,-11843.295072,-4979.620737
21302.356464,-6883.915261,-12361.439231,-6358.592633
21302.356797,-5255.462188,-10436.903782,-4979.620737
21302.357131,-2146.597232,-9992.780217,-459.657299
21302.357464,-74.020594,-9178.553681,-76.609550
21302.357797,-2368.659014,-8956.491898,2451.505594
21302.358130,4145.153275,-7772.162391,8503.660028
21302.358463,5551.544565,-6883.915261,3983.696590
21302.358797,4737.318029,-6291.750507,7354.516781
21302.359130,5551.544565,-5995.668130,2451.505594
21302.359463,1776.494261,-11769.274478,-689.485948
21302.359796,-1110.308913,-11991.336260,-2604.724693
21302.360129,-2960.823768,-10807.006753,-6435.202183
21302.360462,-962.267725,-9548.656652,-6128.763984
21302.360796,0.000000,-8808.450710,1149.143247
21302.361129,-1258.350101,-10362.883188,-689.485948
21302.361462,-2442.679609,-6291.750507,0.000000
21302.361795,-3552.988522,-5403.503377,612.876398
21302.362128,2294.638420,-6957.935855,3830.477490
21302.362462,5847.626942,-5921.647536,8120.612279
21302.362795,2738.761985,-6661.853478,4443.353888
21302.363128,1702.473667,-9770.718434,459.657299
21302.363461,-370.102971,-7476.080014,-2987.772442
21302.363794,-1036.288319,-11251.130318,-4826.401637
21302.364127,-740.205942,-11473.192101,-3064.381992
21302.364461,-2146.597232,-13027.624579,-3753.867940
21302.364794,-2368.659014,-12287.418637,-1838.629195
21302.365127,-666.185348,-9474.636058,-689.485948
21302.365460,-1036.288319,-6587.832884,0.000000
21302.365793,2960.823768,-8956.491898,7890.783629
21302.366127,5107.421000,-5329.482782,7354.516781
21302.366460,1184.329507,-7179.997637,3677.258390
21302.366793,1406.391290,-9474.636058,0.000000
21302.367126,296.082377,-10584.944971,-1302.362347
21302.367459,1702.473667,-10658.965565,-3600.648841
21302.367792,4663.297435,-10658.965565,2374.896044
21302.368126,1702.473667,-9474.636058,-4366.744339
21302.368459,-1184.329507,-11621.233289,-76.609550
21302.368792,-1776.494261,-9104.533087,1762.019645
21302.369125,-1258.350101,-11251.130318,-2528.115143
21302.369458,1702.473667,-8808.450710,4826.401637
21302.369792,1036.288319,-5255.462188,2757.943793
21302.370125,296.082377,-6883.915261,1991.848295
21302.370458,666.185348,-8438.347739,2528.115143
21302.370791,-2368.659014,-7179.997637,-1072.533697
21302.371124,2294.638420,-7772.162391,-2451.505594
21302.371458,4367.215058,-11843.295072,3600.648841
21302.371791,-74.020594,-8660.409521,-1838.629195
21302.372124,-2960.823768,-7179.997637,-2145.067394
21302.372457,-2590.720797,-10658.965565,-2834.553343
21302.372790,-1036.288319,-11029.068536,-1072.533697
21302.373123,1258.350101,-10436.903782,2604.724693
21302.373457,-888.247130,-10362.883188,76.609550
21302.373790,-2960.823768,-12805.562797,153.219100
21302.374123,-1184.329507,-6587.832884,612.876398
21302.374456,2368.659014,-10140.821405,4826.401637
21302.374789,5551.544565,-6513.812290,3677.258390
21302.375123,2368.659014,-6587.832884,2451.505594
21302.375456,0.000000,-8364.327145,0.000000
21302.375789,-666.185348,-7550.100608,-1991.848295
21302.376122,-2072.576638,-11399.171507,-3447.429741
21302.376455,-74.020594,-10362.883188,-1455.581446
21302.376788,-74.020594,-9474.636058,-76.609550
21302.377122,-2368.659014,-11029.068536,-689.485948
21302.377455,-2738.761985,-8586.388927,-2604.724693
21302.377788,-1258.350101,-8364.327145,-3677.258390
21302.378121,2516.700203,-13027.624579,4060.306139
21302.378454,5625.565159,-6291.750507,4903.011187
21302.378788,5033.400406,-7105.977043,2987.772442
21302.379121,2516.700203,-8808.450710,5056.230287
21302.379454,0.000000,-8734.430116,2451.505594
21302.379787,-666.185348,-11843.295072,536.266849
21302.380120,592.164754,-7105.977043,842.705048
21302.380454,-888.247130,-8586.388927,-3217.601092
21302.380787,-2072.576638,-10288.862594,-3140.991542
21302.381120,-4959.379811,-11769.274478,-3370.820191
21302.381453,-1850.514855,-11251.130318,-2528.115143
21302.381786,0.000000,-10732.986159,0.000000
21302.382119,2960.823768,-10658.965565,4213.525239
21302.382453,2294.638420,-7179.997637,1608.800546
21302.382786,-1776.494261,-7772.162391,1225.752797
21302.383119,3478.967927,-7994.224174,2068.457845
21302.383452,3330.926739,-7179.997637,4443.353888
21302.383785,5181.441594,-7105.977043,4903.011187
21302.384119,222.061783,-7994.224174,-689.485948
21302.384452,-3627.009116,-11251.130318,-5209.449386
21302.384785,-4737.318029,-10436.903782,-2528.115143
21302.385118,-1850.514855,-12435.459826,-3140.991542
21302.385451,-74.020594,-8660.409521,-1225.752797
21302.385784,1776.494261,-8364.327145,3983.696590
21302.386118,1110.308913,-9548.656652,612.876398
21302.386451,2368.659014,-8068.244768,3370.820191
