#time,accel_x,accel_y,accel_z
21713.458492,5847.626942,-9178.553681,76.609550
21713.458825,7105.977043,-9104.533087,2298.286494
21713.459159,9252.574275,-9696.697840,2834.553343
21713.459493,9548.656652,-7179.997637,3830.477490
21713.459826,11769.274478,-9474.636058,4213.525239
21713.460160,7105.977043,-8364.327145,4290.134789
21713.460493,9252.574275,-10658.965565,-76.609550
21713.460827,7105.977043,-7402.059420,-3753.867940
21713.461161,6069.688724,-9326.594869,-1762.019645
21713.461494,6661.853478,-9030.512492,-2757.943793
21713.461828,6957.935855,-9474.636058,-2451.505594
21713.462162,8438.347739,-8956.491898,0.000000
21713.462495,9474.636058,-9548.656652,2757.943793
21713.462829,11177.109724,-8290.306550,1455.581446
21713.463162,7698.141797,-11843.295072,5515.887586
21713.463496,7031.956449,-11843.295072,1149.143247
21713.463830,2368.659014,-9548.656652,1838.629195
21713.464163,4737.318029,-8956.491898,2681.334243
21713.464497,3997.112087,-8216.285956,2451.505594
21713.464830,4071.132681,-6661.853478,995.924147
21713.465164,3923.091493,-6587.832884,153.219100
21713.465498,7031.956449,-7105.977043,-76.609550
21713.465831,4737.318029,-4811.338623,0.000000
21713.466165,9770.718434,-9178.553681,-76.609550
21713.466499,7698.141797,-7772.162391,-2451.505594
21713.466832,8290.306550,-9844.739029,-76.609550
21713.467166,10362.883188,-11029.068536,-3217.601092
21713.467499,10658.965565,-12065.356855,536.266849
21713.467833,9622.677246,-11843.295072,1072.533697
21713.468167,8882.471304,-11769.274478,459.657299
21713.468500,8808.450710,-13027.624579,1762.019645
21713.468834,7105.977043,-7476.080014,1225.752797
21713.469167,10140.821405,-6365.771101,3907.087040
21713.469501,11473.192101,-5847.626942,3600.648841
21713.469835,8734.430116,-6513.812290,1225.752797
21713.470168,9696.697840,-9178.553681,2068.457845
21713.470502,7920.203579,-10362.883188,-383.047749
21713.470836,4737.318029,-9548.656652,1762.019645
21713.471169,6439.791695,-10066.800811,-2834.553343
21713.471503,6069.688724,-9622.677246,-1532.190996
21713.471836,5921.647536,-9252.574275,1685.410096
21713.472170,8586.388927,-7476.080014,1608.800546
21713.472504,10658.965565,-7624.121203,2374.896044
21713.472837,11029.068536,-7105.977043,1149.143247
21713.473171,10584.944971,-8882.471304,-76.609550
21713.473505,10288.862594,-5995.668130,-4903.011187
21713.473838,9992.780217,-9992.780217,-2451.505594
21713.474172,10584.944971,-11843.295072,-3753.867940
21713.474505,7550.100608,-12065.356855,306.438199
21713.474839,10881.027347,-11843.295072,2374.896044
21713.475173,10658.965565,-10214.842000,3600.648841
21713.475506,14434.015869,-7994.224174,6052.154434
21713.475840,16284.530724,-5255.462188,5898.935335
21713.476173,15988.448347,-4811.338623,4213.525239
21713.476507,11325.150913,-4811.338623,0.000000
21713.476841,11473.192101,-11843.295072,-4673.182538
21713.477174,7328.038826,-11843.295072,-6205.373534
21713.477508,4811.338623,-11325.150913,-5822.325785
21713.477842,5847.626942,-11695.253884,-6588.421283
21713.478175,6513.812290,-11473.192101,-2681.334243
21713.478509,11029.068536,-8290.306550,2757.943793
21713.478842,15396.283594,-4811.338623,7507.735880
21713.479176,15692.365970,-5995.668130,8733.488677
21713.479510,14359.995275,-8068.244768,6128.763984
21713.479843,12731.542202,-10066.800811,5439.278036
21713.480177,11473.192101,-7624.121203,383.047749
21713.480510,12509.480420,-5403.503377,-306.438199
21713.480844,9992.780217,-9918.759623,-4749.792088
21713.481178,8734.430116,-9770.718434,-4673.182538
21713.481511,6513.812290,-12287.418637,-4903.011187
21713.481845,6735.874072,-11843.295072,-4213.525239
21713.482179,5625.565159,-10140.821405,-2145.067394
21713.482512,9474.636058,-8734.430116,2298.286494
21713.482846,13027.624579,-8364.327145,7124.688131
21713.483179,14211.954086,-5847.626942,7890.783629
21713.483513,14137.933492,-7698.141797,6052.154434
21713.483847,11769.274478,-9474.636058,7277.907231
21713.484180,9622.677246,-5995.668130,3677.258390
21713.484514,10658.965565,-7550.100608,-1838.629195
21713.484848,7624.121203,-10658.965565,-3753.867940
21713.485181,2886.803174,-11843.295072,-9269.755526
21713.485515,1036.288319,-12731.542202,-7431.126331
21713.485848,0.000000,-13397.727550,-4903.011187
21713.486182,1998.556043,-8364.327145,-2145.067394
21713.486516,7179.997637,-8956.491898,3370.820191
21713.486849,10955.047942,-8216.285956,8503.660028
21713.487183,6587.832884,-5403.503377,6128.763984
21713.487516,8882.471304,-9474.636058,8503.660028
21713.487850,9104.533087,-7994.224174,3600.648841
21713.488184,6587.832884,-7476.080014,3830.477490
21713.488517,6439.791695,-8290.306550,-76.609550
21713.488851,-3330.926739,-13027.624579,-6894.859482
21713.489185,-4441.235652,-12657.521608,-9499.584175
21713.489518,-1850.514855,-10362.883188,-7124.688131
21713.489852,2886.803174,-11547.212695,-1915.238745
21713.490185,1480.411884,-7476.080014,1838.629195
21713.490519,2294.638420,-11843.295072,2834.553343
21713.490853,1554.432478,-8364.327145,3370.820191
21713.491186,9474.636058,-5403.503377,9806.022374
21713.491520,9696.697840,-5551.544565,8580.269578
21713.491853,8438.347739,-4885.359217,5745.716235
21713.492187,3478.967927,-9400.615463,1378.971896
21713.492521,1702.473667,-11325.150913,-3907.087040
21713.492854,2368.659014,-7179.997637,-6435.202183
21713.493188,3552.988522,-11473.192101,-995.924147
21713.493522,3478.967927,-11843.295072,-2528.115143
21713.493855,814.226536,-10881.027347,-4903.011187
21713.494189,3108.864956,-11695.253884,-689.485948
21713.494522,1480.411884,-12213.398043,76.609550
21713.494856,4811.338623,-5773.606348,2451.505594
21713.495190,4293.194464,-8586.388927,4213.525239
21713.495523,5551.544565,-6587.832884,3294.210641
21713.495857,5477.523971,-8364.327145,6741.640382
21713.496190,6735.874072,-10658.965565,6052.154434
21713.496524,4293.194464,-5107.421000,2757.943793
21713.496858,0.000000,-8956.491898,0.000000
21713.497191,4663.297435,-11251.130318,-2528.115143
21713.497525,-1776.494261,-9844.739029,-3677.258390
21713.497859,-1702.473667,-9992.780217,-6128.763984
21713.498192,-518.144159,-10436.903782,-5592.497135
21713.498526,1406.391290,-13323.706956,-3830.477490
21713.498859,1184.329507,-9548.656652,3064.381992
21713.499193,3923.091493,-6513.812290,2374.896044
21713.499527,5329.482782,-10658.965565,6358.592633
21713.499860,6661.853478,-7254.018232,5439.278036
21713.500194,4663.297435,-8290.306550,4519.963438
21713.500528,2886.803174,-5403.503377,3677.258390
21713.500861,1480.411884,-9400.615463,1532.190996
21713.501195,1998.556043,-9474.636058,-1915.238745
21713.501528,-2960.823768,-8956.491898,-1838.629195
21713.501862,-1258.350101,-8438.347739,-3140.991542
21713.502196,-4219.173869,-11843.295072,-4443.353888
21713.502529,-1924.535449,-10066.800811,-4519.963438
21713.502863,0.000000,-11177.109724,0.000000
21713.503196,-1184.329507,-7772.162391,1225.752797
21713.503530,-370.102971,-5403.503377,0.000000
21713.503864,2886.803174,-9474.636058,3600.648841
21713.504197,2590.720797,-10658.965565,4519.963438
21713.504531,1480.411884,-4811.338623,4903.011187
21713.504865,1110.308913,-8290.306550,2987.772442
21713.505198,-1628.453072,-8808.450710,306.438199
21713.505532,-2442.679609,-10362.883188,-842.705048
21713.505865,-1258.350101,-6883.915261,-2911.162892
21713.506199,-2960.823768,-10732.986159,-4903.011187
21713.506533,-4293.194464,-9548.656652,-4903.011187
21713.506866,-740.205942,-13027.624579,2068.457845
21713.507200,-1258.350101,-8512.368333,-1225.752797
21713.507533,0.000000,-4219.173869,3370.820191
21713.507867,0.000000,-9548.656652,1225.752797
21713.508201,4737.318029,-9548.656652,6588.421283
21713.508534,222.061783,-6809.894666,3907.087040
21713.508868,518.144159,-9770.718434,459.657299
21713.509202,-1850.514855,-7994.224174,-76.609550
21713.509535,-3552.988522,-10140.821405,-1072.533697
21713.509869,-74.020594,-9474.636058,-2528.115143
21713.510202,-3182.885551,-8364.327145,-2451.505594
21713.510536,-1184.329507,-10732.986159,-2451.505594
21713.510870,-74.020594,-12435.459826,1762.019645
21713.511203,3627.009116,-6957.935855,229.828649
21713.511537,2738.761985,-9178.553681,2834.553343
21713.511870,5625.565159,-7920.203579,4290.134789
21713.512204,1776.494261,-8956.491898,1532.190996
21713.512538,2294.638420,-11251.130318,2068.457845
21713.512871,2368.659014,-5995.668130,-1225.752797
21713.513205,-3552.988522,-10732.986159,1225.752797
21713.513539,2294.638420,-9474.636058,-1915.238745
21713.513872,-1998.556043,-9474.636058,-612.876398
21713.514206,-3034.844362,-8438.347739,-1915.238745
21713.514539,296.082377,-5773.606348,-3294.210641
21713.514873,962.267725,-13175.665768,-306.438199
21713.515207,4959.379811,-6587.832884,3830.477490
21713.515540,5847.626942,-9474.636058,3907.087040
21713.515874,6143.709319,-8882.471304,5592.497135
21713.516208,1480.411884,-11473.192101,229.828649
21713.516541,2294.638420,-10584.944971,1608.800546
21713.516875,-1036.288319,-9548.656652,-1072.533697
21713.517208,-1776.494261,-10288.862594,-76.609550
21713.517542,-666.185348,-9474.636058,-2834.553343
21713.517876,-4737.318029,-7476.080014,-612.876398
21713.518209,-1776.494261,-7328.038826,-1225.752797
21713.518542,-1998.556043,-8142.265362,306.438199
21713.518876,1554.432478,-7698.141797,306.438199
21713.519209,3034.844362,-8586.388927,4060.306139
21713.519542,2590.720797,-7179.997637,2987.772442
21713.519875,0.000000,-9548.656652,0.000000
21713.520208,4293.194464,-9474.636058,3294.210641
21713.520542,2294.638420,-14211.954086,1762.019645
21713.520875,370.102971,-8068.244768,0.000000
21713.521208,-1850.514855,-12731.542202,-76.609550
21713.521541,-5255.462188,-9548.656652,-3677.258390
21713.521875,-3034.844362,-7179.997637,0.000000
21713.522208,-2146.597232,-8882.471304,229.828649
21713.522541,0.000000,-7476.080014,1225.752797
21713.522874,0.000000,-9252.574275,3830.477490
21713.523207,1776.494261,-11251.130318,7277.907231
21713.523541,-1184.329507,-2442.679609,306.438199
21713.523874,-3552.988522,-10732.986159,4519.963438
21713.524207,3478.967927,-4293.194464,-1225.752797
21713.524540,592.164754,-12583.501014,1685.410096
21713.524873,0.000000,-8956.491898,1378.971896
21713.525207,-4737.318029,-11399.171507,-3830.477490
21713.525540,-2368.659014,-10140.821405,-3294.210641
21713.525873,-1258.350101,-11251.130318,-76.609550
21713.526206,518.144159,-8290.306550,-2528.115143
21713.526539,-3552.988522,-10140.821405,3983.696590
21713.526873,3478.967927,-6513.812290,-76.609550
21713.527206,2886.803174,-9548.656652,1225.752797
21713.527539,2368.659014,-6735.874072,5362.668486
21713.527872,1110.308913,-9992.780217,1685.410096
21713.528205,1998.556043,-5699.585753,1072.533697
21713.528539,3775.050304,-9918.759623,919.314598
21713.528872,-74.020594,-7994.224174,-1915.238745
21713.529205,148.041188,-10807.006753,-1532.190996
21713.529538,-2738.761985,-10362.883188,-4443.353888
21713.529872,-666.185348,-12287.418637,-1302.362347
21713.530205,-4737.318029,-7772.162391,-4903.011187
21713.530538,-2368.659014,-10732.986159,766.095498
21713.530871,2294.638420,-7698.141797,-76.609550
21713.531204,2664.741391,-8364.327145,1762.019645
21713.531538,5033.400406,-5107.421000,4903.011187
21713.531871,3997.112087,-7772.162391,5515.887586
21713.532204,3256.906145,-7179.997637,4366.744339
21713.532537,3552.988522,-6661.853478,842.705048
21713.532870,-1480.411884,-11769.274478,-2911.162892
21713.533204,-296.082377,-8956.491898,-2451.505594
21713.533537,-1850.514855,-10732.986159,-4673.182538
21713.533870,-74.020594,-13027.624579,-2528.115143
21713.534203,-3108.864956,-9696.697840,-1225.752797
21713.534536,-3849.070898,-7179.997637,-1225.752797
21713.534870,0.000000,-10066.800811,1302.362347
21713.535203,1480.411884,-10362.883188,3907.087040
21713.535536,2590.720797,-6957.935855,6511.811733
21713.535869,1036.288319,-4515.256246,4136.915689
21713.536203,1332.370696,-8734.430116,2221.676944
21713.536536,592.164754,-7179.997637,2757.943793
21713.536869,-1258.350101,-7772.162391,0.000000
21713.537202,-2960.823768,-7179.997637,-2604.724693
21713.537535,-2738.761985,-10288.862594,-4596.572988
21713.537869,-3775.050304,-11547.212695,-3753.867940
21713.538202,-1998.556043,-11251.130318,-2528.115143
21713.538535,-5033.400406,-10955.047942,-3064.381992
21713.538868,-814.226536,-9252.574275,-76.609550
21713.539201,814.226536,-9770.718434,3140.991542
21713.539535,5255.462188,-9474.636058,7277.907231
21713.539868,0.000000,-5995.668130,5515.887586
21713.540201,0.000000,-5995.668130,6281.983084
21713.540534,4663.297435,-8290.306550,1915.238745
21713.540867,0.000000,-5403.503377,1225.752797
21713.541201,370.102971,-7328.038826,-3064.381992
21713.541534,-2442.679609,-11103.089130,-3447.429741
21713.541867,-2220.617826,-11917.315666,-3447.429741
21713.542200,-4737.318029,-11621.233289,-4749.792088
21713.542533,-3627.009116,-9474.636058,-4366.744339
21713.542867,0.000000,-8068.244768,919.314598
21713.543200,2294.638420,-10658.965565,2298.286494
21713.543533,592.164754,-7179.997637,6741.640382
21713.543866,1184.329507,-4811.338623,3217.601092
21713.544200,2294.638420,-7105.977043,2451.505594
21713.544533,4293.194464,-8290.306550,4903.011187
21713.544866,3404.947333,-7031.956449,2757.943793
21713.545199,962.267725,-7624.121203,0.000000
21713.545532,-666.185348,-7105.977043,-5669.106685
21713.545866,-2220.617826,-11695.253884,-4979.620737
21713.546199,-1184.329507,-11695.253884,-1915.238745
21713.546532,-1554.432478,-8734.430116,-4826.401637
21713.546865,-4145.153275,-13397.727550,-2145.067394
21713.547198,2294.638420,-10214.842000,-76.609550
21713.547532,1480.411884,-8364.327145,2451.505594
21713.547865,5921.647536,-5921.647536,8197.221829
21713.548198,4663.297435,-6809.894666,5515.887586
21713.548531,4737.318029,-3923.091493,4903.011187
21713.548864,4071.132681,-9326.594869,842.705048
21713.549198,-740.205942,-10140.821405,-2604.724693
21713.549531,-1628.453072,-10584.944971,-3447.429741
21713.549864,-74.020594,-12731.542202,-2834.553343
21713.550197,2294.638420,-12435.459826,-1915.238745
21713.550530,-4145.153275,-10436.903782,-919.314598
21713.550864,-2368.659014,-9548.656652,-459.657299
21713.551197,1702.473667,-10658.965565,1762.019645
21713.551530,2368.659014,-10436.903782,6741.640382
21713.551863,1702.473667,-5329.482782,4290.134789
21713.552197,0.000000,-8290.306550,4826.401637
21713.552530,1480.411884,-6809.894666,995.924147
21713.552863,1036.288319,-8734.430116,2834.553343
21713.553196,1110.308913,-4737.318029,-2528.115143
21713.553529,-1184.329507,-10807.006753,-76.609550
21713.553863,-2442.679609,-11251.130318,-2528.115143
21713.554196,-2442.679609,-13619.789333,-3753.867940
21713.554529,-2442.679609,-9474.636058,-1608.800546
21713.554862,-3478.967927,-9844.739029,-1991.848295
21713.555195,-888.247130,-9918.759623,612.876398
21713.555529,962.267725,-10288.862594,4366.744339
21713.555862,1776.494261,-6587.832884,5515.887586
21713.556195,2886.803174,-7772.162391,3677.258390
21713.556528,6439.791695,-11251.130318,6052.154434
21713.556861,2146.597232,-8364.327145,2757.943793
21713.557195,-1036.288319,-8364.327145,0.000000
21713.557528,-3256.906145,-7328.038826,-3677.258390
21713.557861,-4219.173869,-9030.512492,-4979.620737
21713.558194,-1776.494261,-11399.171507,-2451.505594
21713.558528,-2220.617826,-7994.224174,-2451.505594
21713.558861,-2442.679609,-11843.295072,-2834.553343
21713.559194,-2368.659014,-8364.327145,1072.533697
21713.559527,1702.473667,-11547.212695,1762.019645
21713.559860,4071.132681,-6439.791695,919.314598
21713.560194,2368.659014,-9252.574275,5209.449386
21713.560527,4885.359217,-7254.018232,2834.553343
21713.560860,3478.967927,-9548.656652,4290.134789
21713.561193,740.205942,-8068.244768,1225.752797
21713.561526,0.000000,-9622.677246,-1149.143247
21713.561860,-74.020594,-8290.306550,-1302.362347
21713.562193,-2368.659014,-11917.315666,-4443.353888
21713.562526,-814.226536,-10140.821405,-1762.019645
21713.562859,-2960.823768,-10288.862594,-2681.334243
21713.563192,1036.288319,-7328.038826,-536.266849
21713.563526,2590.720797,-12435.459826,3677.258390
21713.563859,1480.411884,-7179.997637,306.438199
21713.564192,2368.659014,-8882.471304,4213.525239
21713.564525,1702.473667,-7105.977043,536.266849
21713.564858,3404.947333,-5995.668130,1838.629195
21713.565192,3997.112087,-11547.212695,4826.401637
21713.565525,1184.329507,-7476.080014,-306.438199
21713.565858,-1776.494261,-9770.718434,-2528.115143
21713.566191,-296.082377,-11325.150913,-4903.011187
21713.566525,-2442.679609,-13027.624579,-3140.991542
21713.566858,-2368.659014,-7179.997637,-306.438199
21713.567191,2368.659014,-8068.244768,2374.896044
21713.567524,4663.297435,-7698.141797,3600.648841
21713.567857,2368.659014,-5403.503377,5209.449386
21713.568191,1110.308913,-10658.965565,919.314598
21713.568524,2516.700203,-7698.141797,995.924147
21713.568857,222.061783,-12879.583391,-306.438199
21713.569190,2960.823768,-8290.306550,1225.752797
21713.569523,148.041188,-7772.162391,0.000000
21713.569857,-2368.659014,-11029.068536,-383.047749
21713.570190,-74.020594,-7698.141797,-2528.115143
21713.570523,-2442.679609,-10140.821405,-4290.134789
21713.570856,-74.020594,-12435.459826,-76.609550
21713.571189,-1776.494261,-6587.832884,0.000000
21713.571523,-74.020594,-10436.903782,689.485948
21713.571856,3108.864956,-6661.853478,4596.572988
21713.572189,1702.473667,-7994.224174,4060.306139
21713.572522,888.247130,-8512.368333,2451.505594
21713.572855,4071.132681,-11843.295072,2374.896044
21713.573189,222.061783,-9548.656652,0.000000
21713.573522,1036.288319,-10066.800811,-76.609550
21713.573855,-1258.350101,-14211.954086,-76.609550
21713.574188,-5329.482782,-7179.997637,-3677.258390
21713.574522,-370.102971,-10658.965565,-689.485948
21713.574855,-2960.823768,-7105.977043,-536.266849
21713.575188,-1702.473667,-6883.915261,-2681.334243
21713.575521,-2072.576638,-9252.574275,612.876398
21713.575854,370.102971,-9474.636058,2834.553343
21713.576188,2294.638420,-5921.647536,2911.162892
21713.576521,888.247130,-9030.512492,4060.306139
21713.576854,1998.556043,-7105.977043,-383.047749
21713.577187,370.102971,-8956.491898,-1225.752797
21713.577520,-1776.494261,-9918.759623,536.266849
21713.577854,-2738.761985,-9474.636058,-2834.553343
21713.578187,-3256.906145,-5995.668130,-2145.067394
21713.578520,2294.638420,-12879.583391,-76.609550
21713.578853,-3182.885551,-9696.697840,-2145.067394
21713.579186,-740.205942,-8216.285956,-1378.971896
21713.579520,222.061783,-9104.533087,1149.143247
21713.579853,1184.329507,-10140.821405,3064.381992
21713.580186,4367.215058,-5403.503377,0.000000
21713.580519,3849.070898,-9030.512492,6052.154434
21713.580853,2220.617826,-5403.503377,306.438199
21713.581186,296.082377,-11029.068536,2757.943793
21713.581519,-1110.308913,-8956.491898,0.000000
21713.581852,-1628.453072,-9400.615463,-2451.505594
21713.582185,-2812.782580,-10807.006753,-3370.820191
21713.582519,-370.102971,-10288.862594,-1378.971896
21713.582852,-1258.350101,-9474.636058,1762.019645
21713.583185,518.144159,-4811.338623,-3370.820191
21713.583518,4071.132681,-12435.459826,3600.648841
21713.583851,2146.597232,-7772.162391,2451.505594
21713.584185,7846.182985,-5329.482782,8733.488677
21713.584518,4367.215058,-9918.759623,3064.381992
21713.584851,5329.482782,-7920.203579,1762.019645
21713.585184,2294.638420,-11843.295072,-306.438199
21713.585517,2590.720797,-9992.780217,-1915.238745
21713.585851,-370.102971,-12435.459826,-3753.867940
21713.586184,-2368.659014,-9548.656652,-2451.505594
21713.586517,-370.102971,-9548.656652,-3064.381992
21713.586850,-1998.556043,-7772.162391,-3064.381992
21713.587183,2664.741391,-8882.471304,-76.609550
21713.587517,2294.638420,-8882.471304,2374.896044
21713.587850,7031.956449,-7105.977043,5669.106685
21713.588183,2072.576638,-8068.244768,4366.744339
21713.588516,2220.617826,-9326.594869,3677.258390
21713.588850,888.247130,-7476.080014,612.876398
21713.589183,2812.782580,-14211.954086,3294.210641
21713.589516,-2738.761985,-7179.997637,-2451.505594
21713.589849,-3108.864956,-12361.439231,-3677.258390
21713.590182,-74.020594,-9474.636058,-4060.306139
21713.590516,-1258.350101,-13915.871710,-2834.553343
21713.590849,-74.020594,-10584.944971,3294.210641
21713.591182,-2294.638420,-6883.915261,-1608.800546
21713.591515,-1998.556043,-12139.377449,1455.581446
21713.591848,0.000000,-4219.173869,2451.505594
21713.592182,1110.308913,-10362.883188,3600.648841
21713.592515,814.226536,-6439.791695,3140.991542
21713.592848,-444.123565,-8956.491898,1838.629195
21713.593181,592.164754,-7846.182985,689.485948
21713.593514,0.000000,-7179.997637,612.876398
21713.593848,-2516.700203,-11843.295072,-689.485948
21713.594181,-3034.844362,-7698.141797,-5286.058936
21713.594514,-4737.318029,-11325.150913,-2451.505594
21713.594847,-2738.761985,-13323.706956,-1685.410096
21713.595181,-2442.679609,-8290.306550,-1762.019645
21713.595514,-1332.370696,-8216.285956,1915.238745
21713.595847,2368.659014,-4145.153275,2451.505594
21713.596180,1850.514855,-13397.727550,6052.154434
21713.596513,4145.153275,-4811.338623,5209.449386
21713.596847,2368.659014,-10658.965565,3600.648841
21713.597180,1776.494261,-6587.832884,306.438199
21713.597513,0.000000,-9548.656652,2834.553343
21713.597846,-2738.761985,-8438.347739,-4749.792088
21713.598179,-2368.659014,-9548.656652,-3677.258390
21713.598513,-3923.091493,-13027.624579,-4060.306139
21713.598846,0.000000,-11325.150913,-1608.800546
21713.599179,-1554.432478,-7402.059420,-689.485948
21713.599512,2294.638420,-9474.636058,2987.772442
21713.599845,4367.215058,-9474.636058,2987.772442
21713.600179,3552.988522,-8364.327145,5515.887586
21713.600512,5551.544565,-7105.977043,6665.030833
21713.600845,4663.297435,-9474.636058,2221.676944
21713.601178,3552.988522,-7179.997637,2757.943793
21713.601511,2146.597232,-10807.006753,-766.095498
21713.601845,-518.144159,-9474.636058,-2604.724693
21713.602178,-3034.844362,-10955.047942,-4519.963438
21713.602511,-2368.659014,-11103.089130,-3217.601092
21713.602844,1702.473667,-11251.130318,-1302.362347
21713.603178,-1850.514855,-5403.503377,0.000000
21713.603511,1776.494261,-8734.430116,-76.609550
21713.603844,1110.308913,-8290.306550,229.828649
21713.604177,3478.967927,-10658.965565,3600.648841
21713.604510,3552.988522,-7624.121203,4443.353888
21713.604844,3478.967927,-9770.718434,3294.210641
21713.605177,3404.947333,-7476.080014,2604.724693
21713.605510,888.247130,-12805.562797,1838.629195
21713.605843,0.000000,-5403.503377,-2145.067394
21713.606176,-2072.576638,-10658.965565,-3370.820191
21713.606510,-962.267725,-13619.789333,-1302.362347
21713.606843,-1110.308913,-9844.739029,-2374.896044
21713.607176,-4515.256246,-10658.965565,-689.485948
21713.607509,0.000000,-8438.347739,-76.609550
21713.607842,-2664.741391,-7550.100608,2145.067394
21713.608176,0.000000,-7624.121203,1685.410096
21713.608509,0.000000,-6587.832884,3677.258390
21713.608842,-814.226536,-8364.327145,2451.505594
21713.609175,1258.350101,-7476.080014,2911.162892
21713.609508,1702.473667,-8290.306550,2834.553343
21713.609842,-1184.329507,-9844.739029,-1072.533697
21713.610175,-4737.318029,-9548.656652,-3370.820191
21713.610508,-2442.679609,-9474.636058,-4979.620737
21713.610841,-4145.153275,-12509.480420,-2451.505594
21713.611175,-1258.350101,-9474.636058,-153.219100
21713.611508,-666.185348,-9474.636058,-1915.238745
21713.611841,-1184.329507,-8364.327145,4443.353888
21713.612174,-740.205942,-7328.038826,2834.553343
21713.612507,1554.432478,-6365.771101,3907.087040
21713.612841,2886.803174,-7698.141797,3600.648841
21713.613174,6809.894666,-7624.121203,6894.859482
21713.613507,0.000000,-9844.739029,1225.752797
21713.613840,0.000000,-5995.668130,0.000000
21713.614173,-3627.009116,-11843.295072,-5592.497135
21713.614507,-5033.400406,-10732.986159,-7354.516781
21713.614840,2220.617826,-11251.130318,-2221.676944
21713.615173,-2886.803174,-12583.501014,-1455.581446
21713.615506,1406.391290,-7698.141797,-689.485948
21713.615839,74.020594,-8808.450710,2604.724693
21713.616173,5847.626942,-8882.471304,4826.401637
21713.616506,2960.823768,-5107.421000,4903.011187
21713.616839,3701.029710,-9104.533087,7354.516781
21713.617172,5255.462188,-7105.977043,1762.019645
21713.617506,1184.329507,-7179.997637,2451.505594
21713.617839,3182.885551,-10066.800811,536.266849
21713.618172,-2960.823768,-8142.265362,-4366.744339
21713.618505,-2072.576638,-11843.295072,-3447.429741
21713.618838,-2368.659014,-10288.862594,-3447.429741
21713.619172,-3182.885551,-10436.903782,-3370.820191
21713.619505,-4737.318029,-5995.668130,306.438199
21713.619838,1406.391290,-9474.636058,-383.047749
21713.620171,2960.823768,-5551.544565,306.438199
21713.620504,2960.823768,-9548.656652,6128.763984
21713.620838,4367.215058,-6809.894666,2221.676944
21713.621171,3849.070898,-9770.718434,3524.039291
21713.621504,4071.132681,-9104.533087,2911.162892
21713.621837,3404.947333,-9844.739029,2528.115143
21713.622170,-370.102971,-7105.977043,-2834.553343
21713.622504,-1850.514855,-13027.624579,-2221.676944
21713.622837,-3627.009116,-9622.677246,-3830.477490
21713.623170,-2960.823768,-12583.501014,-1685.410096
21713.623503,-1628.453072,-9474.636058,-76.609550
21713.623836,-74.020594,-10362.883188,229.828649
21713.624170,0.000000,-7179.997637,4903.011187
21713.624503,2368.659014,-7179.997637,7890.783629
21713.624836,-74.020594,-7550.100608,2681.334243
21713.625169,-1184.329507,-7476.080014,1225.752797
21713.625503,-666.185348,-7994.224174,-2374.896044
21713.625836,74.020594,-12805.562797,2834.553343
21713.626169,-1184.329507,-5699.585753,-2374.896044
21713.626502,-1554.432478,-13027.624579,-1915.238745
21713.626835,-1406.391290,-9474.636058,-3753.867940
21713.627169,-4737.318029,-13397.727550,-1225.752797
21713.627502,-2442.679609,-8734.430116,-1532.190996
21713.627835,-74.020594,-11843.295072,-1302.362347
21713.628168,2294.638420,-8586.388927,4826.401637
21713.628501,3478.967927,-7846.182985,5669.106685
21713.628835,3182.885551,-6365.771101,4673.182538
21713.629168,4145.153275,-7402.059420,4366.744339
21713.629501,0.000000,-7179.997637,3064.381992
21713.629834,1702.473667,-11251.130318,1149.143247
21713.630167,-5921.647536,-8068.244768,-1302.362347
21713.630501,-2442.679609,-10510.924376,-6205.373534
21713.630834,-3775.050304,-10955.047942,-5439.278036
21713.631167,0.000000,-10140.821405,-1838.629195
21713.631500,-3849.070898,-10955.047942,-1225.752797
21713.631834,-962.267725,-9474.636058,-459.657299
21713.632167,1628.453072,-8142.265362,1378.971896
21713.632500,4145.153275,-11769.274478,7201.297681
21713.632833,4663.297435,-4811.338623,2451.505594
21713.633166,5847.626942,-7994.224174,6052.154434
21713.633500,5847.626942,-6735.874072,842.705048
21713.633833,4145.153275,-11843.295072,4826.401637
21713.634166,1184.329507,-11103.089130,-1378.971896
21713.634499,-1702.473667,-10584.944971,-3907.087040
21713.634832,-740.205942,-9178.553681,-3217.601092
21713.635166,-1184.329507,-12287.418637,-2068.457845
21713.635499,-370.102971,-8882.471304,-1455.581446
21713.635832,-4737.318029,-7179.997637,-919.314598
21713.636165,1998.556043,-9474.636058,1149.143247
21713.636498,2368.659014,-5995.668130,3677.258390
21713.636832,2664.741391,-8290.306550,6052.154434
21713.637165,3552.988522,-5625.565159,3064.381992
21713.637498,592.164754,-9252.574275,306.438199
21713.637831,4589.276840,-9326.594869,229.828649
21713.638164,0.000000,-12657.521608,0.000000
21713.638498,518.144159,-9178.553681,-4366.744339
21713.638831,-4145.153275,-13101.645173,-2451.505594
21713.639164,-518.144159,-10436.903782,-3600.648841
21713.639497,0.000000,-11843.295072,76.609550
21713.639831,-74.020594,-8586.388927,383.047749
21713.640164,3478.967927,-9474.636058,2374.896044
21713.640497,0.000000,-7476.080014,4903.011187
21713.640830,2368.659014,-8364.327145,7277.907231
21713.641163,2294.638420,-5329.482782,2451.505594
21713.641497,0.000000,-9104.533087,2374.896044
21713.641830,370.102971,-9474.636058,-842.705048
21713.642163,-1480.411884,-11621.233289,-919.314598
21713.642496,-2368.659014,-6883.915261,-4136.915689
21713.642829,-3997.112087,-10658.965565,-3140.991542
21713.643163,-1998.556043,-9622.677246,-4826.401637
21713.643496,-4145.153275,-13397.727550,612.876398
21713.643829,1110.308913,-6513.812290,-2528.115143
21713.644162,3478.967927,-8438.347739,306.438199
21713.644495,2368.659014,-10584.944971,6052.154434
21713.644829,5847.626942,-6217.729913,2528.115143
21713.645162,1036.288319,-8290.306550,4213.525239
21713.645495,2516.700203,-6291.750507,1838.629195
21713.645828,296.082377,-8438.347739,1762.019645
21713.646161,-1776.494261,-11325.150913,0.000000
21713.646495,-4737.318029,-6291.750507,-1225.752797
21713.646828,-5107.421000,-9474.636058,-6052.154434
21713.647161,-2664.741391,-6587.832884,-7201.297681
21713.647494,-1998.556043,-12213.398043,0.000000
21713.647828,-1924.535449,-7179.997637,-1532.190996
21713.648161,1998.556043,-9474.636058,2068.457845
21713.648494,1628.453072,-7179.997637,2911.162892
21713.648827,4515.256246,-10140.821405,3600.648841
21713.649160,5255.462188,-7698.141797,6971.469032
21713.649494,2960.823768,-9326.594869,4213.525239
21713.649827,3182.885551,-6143.709319,-2451.505594
21713.650160,1184.329507,-13249.686362,2451.505594
21713.650493,-74.020594,-9474.636058,-1302.362347
21713.650826,-2368.659014,-9696.697840,-2068.457845
21713.651160,-1332.370696,-8956.491898,-3447.429741
21713.651493,-2442.679609,-12731.542202,-1762.019645
21713.651826,-740.205942,-7105.977043,-919.314598
21713.652159,-962.267725,-9474.636058,842.705048
21713.652492,4071.132681,-5921.647536,3600.648841
21713.652825,2368.659014,-5995.668130,3064.381992
21713.653158,1776.494261,-6735.874072,5745.716235
21713.653491,4071.132681,-5625.565159,-1915.238745
21713.653824,-888.247130,-11029.068536,766.095498
21713.654157,3404.947333,-10732.986159,-3064.381992
21713.654491,-2812.782580,-13989.892304,-4136.915689
21713.654824,-1702.473667,-10584.944971,-3983.696590
21713.655157,666.185348,-9400.615463,-1149.143247
21713.655490,2146.597232,-9252.574275,1378.971896
21713.655823,2368.659014,-6735.874072,1532.190996
21713.656156,-740.205942,-9326.594869,3447.429741
21713.656489,2368.659014,-5033.400406,1225.752797
21713.656822,2738.761985,-11843.295072,4826.401637
21713.657155,1110.308913,-8586.388927,2374.896044
21713.657488,-2442.679609,-5403.503377,0.000000
21713.657821,-888.247130,-9178.553681,-76.609550
21713.658154,592.164754,-8364.327145,-2298.286494
21713.658487,-4293.194464,-9548.656652,-2451.505594
21713.658821,-1406.391290,-7994.224174,-4060.306139
21713.659154,-4145.153275,-11769.274478,-2987.772442
21713.659487,222.061783,-10955.047942,-1532.190996
21713.659820,-1776.494261,-8364.327145,0.000000
21713.660153,1998.556043,-8586.388927,842.705048
21713.660486,2294.638420,-5107.421000,2451.505594
21713.660819,3997.112087,-10658.965565,5439.278036
21713.661152,6439.791695,-9474.636058,4826.401637
21713.661485,1480.411884,-6883.915261,3064.381992
21713.661818,1554.432478,-9770.718434,1532.190996
21713.662151,1184.329507,-8956.491898,-995.924147
21713.662484,-1998.556043,-12139.377449,-2374.896044
21713.662817,-814.226536,-9104.533087,-3907.087040
21713.663150,-666.185348,-11621.233289,-4596.572988
21713.663484,-3552.988522,-9548.656652,-1838.629195
21713.663817,-1776.494261,-10584.944971,1762.019645
21713.664150,-3330.926739,-6735.874072,612.876398
21713.664483,3330.926739,-3256.906145,2374.896044
21713.664816,1110.308913,-10140.821405,3447.429741
21713.665149,4367.215058,-7698.141797,6205.373534
21713.665482,1406.391290,-7402.059420,1762.019645
21713.665815,3182.885551,-9474.636058,-76.609550
21713.666148,2294.638420,-7179.997637,-2451.505594
21713.666481,-592.164754,-14211.954086,-689.485948
21713.666814,-74.020594,-11547.212695,-3140.991542
21713.667147,-4367.215058,-11917.315666,-4903.011187
21713.667480,814.226536,-10362.883188,-3294.210641
21713.667814,-148.041188,-12287.418637,1072.533697
21713.668147,1184.329507,-6809.894666,2374.896044
21713.668480,2442.679609,-7624.121203,3600.648841
21713.668813,4663.297435,-8290.306550,6665.030833
21713.669146,4071.132681,-6217.729913,4213.525239
21713.669479,2072.576638,-7031.956449,2911.162892
21713.669812,2072.576638,-8364.327145,1838.629195
21713.670145,-2368.659014,-9548.656652,0.000000
21713.670478,-740.205942,-14063.912898,-2528.115143
21713.670811,-4515.256246,-9548.656652,-6128.763984
21713.671144,-4737.318029,-10732.986159,-2604.724693
21713.671477,-1850.514855,-11843.295072,-4366.744339
21713.671810,-2368.659014,-9548.656652,-1991.848295
21713.672144,2294.638420,-7105.977043,3447.429741
21713.672477,2664.741391,-5255.462188,7048.078582
21713.672810,5255.462188,-3627.009116,2987.772442
21713.673143,2294.638420,-13471.748144,5439.278036
21713.673476,3182.885551,-8882.471304,3600.648841
21713.673809,-2072.576638,-8364.327145,0.000000
21713.674142,2368.659014,-10362.883188,2068.457845
21713.674475,1110.308913,-12435.459826,-2528.115143
21713.674808,-2072.576638,-9992.780217,-2451.505594
21713.675141,-370.102971,-9918.759623,-3447.429741
21713.675474,-1184.329507,-11843.295072,-1608.800546
21713.675807,-1480.411884,-11547.212695,0.000000
21713.676140,-1554.432478,-6809.894666,-842.705048
21713.676474,-148.041188,-9474.636058,2374.896044
21713.676807,0.000000,-3627.009116,4903.011187
21713.677140,5699.585753,-10066.800811,7277.907231
21713.677473,2294.638420,-7105.977043,3600.648841
21713.677806,1702.473667,-7105.977043,-76.609550
21713.678139,-1184.329507,-10436.903782,842.705048
21713.678472,518.144159,-10288.862594,-2298.286494
21713.678805,-1850.514855,-11103.089130,-2068.457845
21713.679138,-4145.153275,-9548.656652,-6128.763984
21713.679471,1702.473667,-13027.624579,-3140.991542
21713.679804,-1776.494261,-11917.315666,1225.752797
21713.680137,3108.864956,-8882.471304,2374.896044
21713.680470,-2738.761985,-6883.915261,2451.505594
21713.680803,296.082377,-3627.009116,1532.190996
21713.681137,1036.288319,-9178.553681,4443.353888
21713.681470,3627.009116,-2960.823768,2911.162892
21713.681803,2442.679609,-8512.368333,153.219100
21713.682136,1998.556043,-11547.212695,2987.772442
21713.682469,814.226536,-8364.327145,-2451.505594
21713.682802,-2146.597232,-15396.283594,-1915.238745
21713.683135,-74.020594,-11843.295072,-4060.306139
21713.683468,-3701.029710,-11325.150913,-3064.381992
21713.683801,-2368.659014,-10140.821405,-2451.505594
21713.684134,740.205942,-7624.121203,1072.533697
21713.684467,666.185348,-7994.224174,2528.115143
21713.684800,4737.318029,-5773.606348,6052.154434
21713.685133,4663.297435,-9474.636058,6358.592633
21713.685467,1702.473667,-7179.997637,3064.381992
21713.685800,1480.411884,-5107.421000,1455.581446
21713.686133,0.000000,-8808.450710,-995.924147
21713.686466,814.226536,-10658.965565,-1302.362347
21713.686799,-2368.659014,-12879.583391,-2987.772442
21713.687132,-3182.885551,-9548.656652,-4826.401637
21713.687465,-5625.565159,-9548.656652,-3677.258390
21713.687798,-962.267725,-13323.706956,-2528.115143
21713.688131,-74.020594,-7994.224174,1378.971896
21713.688464,2368.659014,-5995.668130,5745.716235
21713.688797,5255.462188,-4811.338623,7048.078582
21713.689130,3330.926739,-5403.503377,1838.629195
21713.689463,2886.803174,-10658.965565,2834.553343
21713.689797,1406.391290,-8882.471304,-76.609550
21713.690130,-1554.432478,-9548.656652,-3064.381992
21713.690463,1702.473667,-11843.295072,-1302.362347
21713.690796,-1258.350101,-12287.418637,-2757.943793
21713.691129,-1776.494261,-8660.409521,-1532.190996
21713.691462,1110.308913,-10955.047942,-76.609550
21713.691795,-1184.329507,-9844.739029,1302.362347
21713.692128,-888.247130,-11325.150913,1685.410096
21713.692461,296.082377,-5773.606348,1762.019645
21713.692794,-1480.411884,-7179.997637,229.828649
21713.693127,0.000000,-3034.844362,612.876398
21713.693460,3034.844362,-11251.130318,4826.401637
21713.693793,962.267725,-7698.141797,-76.609550
21713.694127,0.000000,-7476.080014,612.876398
21713.694460,1110.308913,-10214.842000,-1991.848295
21713.694793,1406.391290,-12435.459826,-383.047749
21713.695126,-2146.597232,-9844.739029,-2145.067394
21713.695459,0.000000,-10066.800811,-3447.429741
21713.695792,-2368.659014,-11325.150913,306.438199
21713.696125,2368.659014,-9696.697840,3677.258390
21713.696458,1258.350101,-8734.430116,2987.772442
21713.696791,74.020594,-5995.668130,2451.505594
21713.697124,0.000000,-5995.668130,6358.592633
21713.697457,1998.556043,-9178.553681,3140.991542
21713.697790,1480.411884,-5847.626942,2145.067394
21713.698123,-518.144159,-7105.977043,-995.924147
21713.698457,1184.329507,-11843.295072,-1762.019645
21713.698790,592.164754,-12953.603985,612.876398
21713.699123,-2886.803174,-9770.718434,-2834.553343
21713.699456,-444.123565,-10658.965565,-2451.505594
21713.699789,-1924.535449,-10436.903782,-1915.238745
21713.700122,518.144159,-10658.965565,-689.485948
21713.700455,0.000000,-7105.977043,-76.609550
21713.700788,296.082377,-4811.338623,3677.258390
21713.701121,2294.638420,-8882.471304,2374.896044
21713.701454,3478.967927,-9918.759623,3064.381992
21713.701787,1702.473667,-6957.935855,3753.867940
21713.702120,2294.638420,-7105.977043,-383.047749
21713.702453,888.247130,-11251.130318,766.095498
21713.702786,-3034.844362,-10807.006753,-3524.039291
21713.703120,-1702.473667,-11251.130318,-3753.867940
21713.703453,-3552.988522,-8364.327145,-1225.752797
21713.703786,-592.164754,-12065.356855,-76.609550
21713.704119,-74.020594,-9474.636058,-995.924147
21713.704452,-1776.494261,-7179.997637,0.000000
21713.704785,1184.329507,-4589.276840,3600.648841
21713.705118,4515.256246,-6957.935855,5132.839837
21713.705451,4145.153275,-7772.162391,2911.162892
21713.705784,2294.638420,-9400.615463,1532.190996
21713.706117,-888.247130,-11325.150913,-1455.581446
21713.706450,2294.638420,-8290.306550,-2834.553343
21713.706783,0.000000,-13989.892304,1685.410096
21713.707116,2664.741391,-11029.068536,-76.609550
21713.707450,-666.185348,-9474.636058,-2528.115143
21713.707783,-2072.576638,-10140.821405,0.000000
21713.708116,814.226536,-9770.718434,0.000000
21713.708449,-74.020594,-10658.965565,3294.210641
21713.708782,1776.494261,-4367.215058,2374.896044
21713.709115,-222.061783,-8882.471304,3600.648841
21713.709448,2368.659014,-7772.162391,1838.629195
21713.709781,1776.494261,-11843.295072,4213.525239
21713.710114,-1702.473667,-7476.080014,-1225.752797
21713.710447,-3552.988522,-7179.997637,2451.505594
21713.710780,-518.144159,-12435.459826,-1915.238745
21713.711113,296.082377,-9548.656652,612.876398
21713.711446,-3701.029710,-9918.759623,-2374.896044
21713.711780,296.082377,-9622.677246,-1838.629195
21713.712113,-1998.556043,-10288.862594,-1378.971896
21713.712446,2294.638420,-11843.295072,2374.896044
21713.712779,1110.308913,-4737.318029,-76.609550
21713.713112,0.000000,-6587.832884,2451.505594
21713.713445,4663.297435,-11843.295072,2374.896044
21713.713778,3478.967927,-7772.162391,1225.752797
21713.714111,1702.473667,-10658.965565,3600.648841
21713.714444,4071.132681,-5625.565159,-689.485948
21713.714777,0.000000,-13767.830521,-766.095498
21713.715110,0.000000,-10584.944971,-1532.190996
21713.715443,-2368.659014,-7105.977043,-4673.182538
21713.715776,-2220.617826,-11917.315666,-2451.505594
21713.716110,-74.020594,-9030.512492,-3140.991542
21713.716443,-2664.741391,-12213.398043,229.828649
21713.716776,0.000000,-5995.668130,1225.752797
21713.717109,2294.638420,-9178.553681,2987.772442
21713.717442,3478.967927,-7846.182985,2221.676944
21713.717775,2960.823768,-8956.491898,6128.763984
21713.718108,2368.659014,-7698.141797,3600.648841
21713.718441,1184.329507,-5995.668130,612.876398
21713.718774,0.000000,-10732.986159,-1225.752797
21713.719107,-74.020594,-11103.089130,-2298.286494
21713.719440,-3627.009116,-10732.986159,-4443.353888
21713.719773,-370.102971,-11843.295072,-4979.620737
21713.720106,-5181.441594,-9548.656652,-2451.505594
21713.720440,-74.020594,-9770.718434,-1838.629195
21713.720773,592.164754,-7624.121203,4443.353888
21713.721106,4071.132681,-7994.224174,6665.030833
21713.721439,5255.462188,-6513.812290,6358.592633
21713.721772,3256.906145,-7994.224174,5745.716235
21713.722105,2664.741391,-4811.338623,306.438199
21713.722438,-1998.556043,-12065.356855,-1915.238745
21713.722771,2590.720797,-6661.853478,-2451.505594
21713.723104,-1184.329507,-16358.551318,842.705048
21713.723437,0.000000,-7179.997637,-4903.011187
21713.723770,-3552.988522,-11621.233289,-1762.019645
21713.724103,-1850.514855,-10362.883188,-3753.867940
21713.724436,0.000000,-9548.656652,-1225.752797
21713.724769,-962.267725,-9474.636058,3294.210641
21713.725103,3182.885551,-5477.523971,3677.258390
21713.725436,296.082377,-6291.750507,4060.306139
21713.725769,3849.070898,-9104.533087,4136.915689
21713.726102,3478.967927,-7105.977043,4826.401637
21713.726435,0.000000,-9548.656652,3830.477490
21713.726768,-74.020594,-11251.130318,-689.485948
21713.727101,-4811.338623,-12509.480420,-4903.011187
21713.727434,-2368.659014,-9844.739029,-3064.381992
21713.727767,-1850.514855,-8512.368333,-3677.258390
21713.728100,148.041188,-10732.986159,-842.705048
21713.728433,-444.123565,-9770.718434,1378.971896
21713.728766,-222.061783,-8808.450710,1915.238745
21713.729099,1998.556043,-6883.915261,1532.190996
21713.729433,2368.659014,-6735.874072,6358.592633
21713.729766,4071.132681,-10214.842000,2145.067394
21713.730099,0.000000,-5995.668130,3677.258390
21713.730432,-1184.329507,-10140.821405,2451.505594
21713.730765,-296.082377,-7476.080014,0.000000
21713.731098,148.041188,-8216.285956,-2451.505594
21713.731431,-1184.329507,-13693.809927,-689.485948
21713.731764,-444.123565,-6809.894666,-1762.019645
21713.732097,-3330.926739,-8660.409521,-4903.011187
21713.732430,814.226536,-10436.903782,-1149.143247
21713.732763,-1258.350101,-10214.842000,1149.143247
21713.733096,1480.411884,-7179.997637,2451.505594
21713.733429,3775.050304,-8142.265362,4213.525239
21713.733763,2294.638420,-9770.718434,1378.971896
21713.734096,3552.988522,-6587.832884,2451.505594
21713.734429,1480.411884,-8882.471304,3600.648841
21713.734762,1998.556043,-7772.162391,-919.314598
21713.735095,-4145.153275,-10732.986159,-2757.943793
21713.735428,-2590.720797,-11547.212695,-2145.067394
21713.735761,-4737.318029,-7772.162391,-5056.230287
21713.736094,-1702.473667,-11029.068536,-1991.848295
21713.736427,1406.391290,-8290.306550,-76.609550
21713.736760,2294.638420,-10658.965565,1302.362347
21713.737093,2960.823768,-4811.338623,4213.525239
21713.737426,3182.885551,-11547.212695,6052.154434
21713.737759,2294.638420,-6735.874072,1225.752797
21713.738093,3478.967927,-9696.697840,6281.983084
21713.738426,666.185348,-6069.688724,-1072.533697
21713.738759,0.000000,-9326.594869,-3217.601092
21713.739092,-1702.473667,-11399.171507,-2528.115143
21713.739425,0.000000,-9548.656652,-4290.134789
21713.739758,-2442.679609,-9844.739029,-6128.763984
21713.740091,-1184.329507,-12213.398043,-76.609550
21713.740424,1110.308913,-10362.883188,536.266849
21713.740757,1850.514855,-8068.244768,2451.505594
21713.741090,2812.782580,-5921.647536,4213.525239
21713.741423,1554.432478,-6957.935855,3600.648841
21713.741756,3478.967927,-8290.306550,3294.210641
21713.742089,2442.679609,-10807.006753,4136.915689
21713.742422,-1480.411884,-6587.832884,612.876398
21713.742756,962.267725,-7624.121203,-2145.067394
21713.743089,-3256.906145,-11473.192101,-1302.362347
21713.743422,-1702.473667,-12287.418637,-3753.867940
21713.743755,-7105.977043,-8364.327145,-5515.887586
21713.744088,0.000000,-8364.327145,-3677.258390
21713.744421,-74.020594,-10955.047942,229.828649
21713.744754,2960.823768,-9178.553681,4749.792088
21713.745087,4441.235652,-4515.256246,6128.763984
21713.745420,2294.638420,-9474.636058,2374.896044
21713.745753,5921.647536,-7772.162391,5745.716235
21713.746086,1110.308913,-9844.739029,1225.752797
21713.746419,-814.226536,-6587.832884,0.000000
21713.746752,-740.205942,-10436.903782,-2528.115143
21713.747086,-4515.256246,-15100.201217,-4290.134789
21713.747419,1924.535449,-7402.059420,-1302.362347
21713.747752,-2738.761985,-11399.171507,-1762.019645
21713.748085,1258.350101,-9770.718434,612.876398
21713.748418,-666.185348,-7105.977043,-689.485948
21713.748751,-1184.329507,-11695.253884,1455.581446
21713.749084,3256.906145,-3108.864956,3524.039291
21713.749417,1332.370696,-10362.883188,2681.334243
21713.749750,5403.503377,-6809.894666,3294.210641
21713.750083,4663.297435,-11843.295072,4826.401637
21713.750416,0.000000,-8142.265362,1455.581446
21713.750749,2294.638420,-10658.965565,-1302.362347
21713.751082,-4145.153275,-11029.068536,-2757.943793
21713.751416,-1776.494261,-11325.150913,-3064.381992
21713.751749,-3034.844362,-11103.089130,-1302.362347
21713.752082,-1480.411884,-7254.018232,-3600.648841
21713.752415,-4663.297435,-8438.347739,-2374.896044
21713.752748,814.226536,-9918.759623,1991.848295
21713.753081,-666.185348,-5033.400406,2145.067394
21713.753415,1480.411884,-7031.956449,6665.030833
21713.753748,3478.967927,-9474.636058,3600.648841
21713.754081,3182.885551,-7772.162391,1838.629195
21713.754414,3923.091493,-10658.965565,4826.401637
21713.754747,0.000000,-8364.327145,2451.505594
21713.755080,-814.226536,-9474.636058,-1915.238745
21713.755414,-2072.576638,-10732.986159,-5822.325785
21713.755747,-2220.617826,-11843.295072,-3524.039291
21713.756080,-1628.453072,-11695.253884,-2068.457845
21713.756413,2886.803174,-11843.295072,-2528.115143
21713.756746,0.000000,-9548.656652,306.438199
21713.757079,0.000000,-9548.656652,5209.449386
21713.757413,3478.967927,-7105.977043,5745.716235
21713.757746,3256.906145,-6291.750507,5745.716235
21713.758079,3404.947333,-9178.553681,5515.887586
21713.758412,3256.906145,-7031.956449,4673.182538
21713.758745,1110.308913,-7920.203579,1378.971896
21713.759078,-74.020594,-10066.800811,-76.609550
21713.759412,-3034.844362,-8364.327145,-7584.345430
21713.759745,-7105.977043,-13841.851115,-2528.115143
21713.760078,-2442.679609,-8290.306550,-3753.867940
21713.760411,-3627.009116,-9548.656652,-7354.516781
21713.760744,-592.164754,-10510.924376,2068.457845
21713.761077,2072.576638,-7179.997637,3830.477490
21713.761411,3552.988522,-6217.729913,6128.763984
21713.761744,5625.565159,-5551.544565,6588.421283
21713.762077,4663.297435,-9474.636058,4826.401637
21713.762410,4959.379811,-8808.450710,4596.572988
21713.762743,1554.432478,-7920.203579,689.485948
21713.763076,888.247130,-10140.821405,-2528.115143
21713.763410,-2368.659014,-10732.986159,-4290.134789
21713.763743,-3552.988522,-11917.315666,-3217.601092
21713.764076,-1258.350101,-10066.800811,-4979.620737
21713.764409,-4737.318029,-10140.821405,-5515.887586
21713.764742,-4145.153275,-9548.656652,1072.533697
21713.765075,0.000000,-5995.668130,2451.505594
21713.765409,3108.864956,-4959.379811,5056.230287
21713.765742,3330.926739,-5995.668130,6205.373534
21713.766075,2812.782580,-6217.729913,2987.772442
21713.766408,3701.029710,-11547.212695,6052.154434
21713.766741,0.000000,-7179.997637,459.657299
21713.767074,2294.638420,-9474.636058,-4903.011187
21713.767408,-3552.988522,-11029.068536,-3064.381992
21713.767741,-2368.659014,-13693.809927,-3294.210641
21713.768074,-1702.473667,-9844.739029,-1225.752797
21713.768407,-962.267725,-11103.089130,-1302.362347
21713.768740,-740.205942,-6735.874072,-1072.533697
21713.769074,1998.556043,-10732.986159,4136.915689
21713.769407,2294.638420,-4441.235652,2374.896044
21713.769740,1184.329507,-6587.832884,6281.983084
21713.770073,1184.329507,-4811.338623,0.000000
21713.770406,2960.823768,-11103.089130,5439.278036
21713.770739,-962.267725,-7031.956449,-995.924147
21713.771073,-1554.432478,-10362.883188,-3140.991542
21713.771406,-3182.885551,-10807.006753,-4673.182538
21713.771739,-962.267725,-13471.748144,-1915.238745
21713.772072,-2664.741391,-10066.800811,-995.924147
21713.772405,-888.247130,-9548.656652,-229.828649
21713.772738,-74.020594,-11843.295072,1149.143247
21713.773072,0.000000,-7772.162391,3677.258390
21713.773405,0.000000,-4811.338623,4903.011187
21713.773738,4071.132681,-7105.977043,1762.019645
21713.774071,0.000000,-6291.750507,1838.629195
21713.774404,1480.411884,-10732.986159,919.314598
21713.774737,1036.288319,-9104.533087,153.219100
21713.775071,-592.164754,-10732.986159,689.485948
21713.775404,1554.432478,-7698.141797,-689.485948
21713.775737,-666.185348,-11251.130318,-1608.800546
21713.776070,-2368.659014,-6587.832884,-995.924147
21713.776403,-1554.432478,-11843.295072,-2528.115143
21713.776736,-1850.514855,-9474.636058,-3983.696590
21713.777070,0.000000,-8364.327145,612.876398
21713.777403,-74.020594,-8068.244768,919.314598
21713.777736,2294.638420,-7402.059420,3140.991542
21713.778069,1850.514855,-8438.347739,1072.533697
21713.778402,5551.544565,-9326.594869,4596.572988
21713.778735,3478.967927,-10066.800811,4213.525239
21713.779069,2516.700203,-7698.141797,1072.533697
21713.779402,-666.185348,-10510.924376,-766.095498
21713.779735,-296.082377,-11177.109724,-2298.286494
21713.780068,-888.247130,-9548.656652,0.000000
21713.780401,-1850.514855,-10066.800811,-2987.772442
21713.780734,-3034.844362,-7698.141797,-4673.182538
21713.781068,-3552.988522,-10732.986159,-76.609550
21713.781401,1702.473667,-8586.388927,-76.609550
21713.781734,-1776.494261,-6587.832884,2451.505594
21713.782067,3330.926739,-7105.977043,5056.230287
21713.782400,4663.297435,-7920.203579,3983.696590
21713.782733,3849.070898,-8586.388927,6205.373534
21713.783067,3478.967927,-7105.977043,-76.609550
21713.783400,-74.020594,-11251.130318,-3753.867940
21713.783733,-2368.659014,-11325.150913,-2604.724693
21713.784066,-2368.659014,-13989.892304,-76.609550
21713.784399,-1998.556043,-9474.636058,-3907.087040
21713.784732,-2368.659014,-9548.656652,-1532.190996
21713.785066,-2294.638420,-11843.295072,229.828649
21713.785399,1406.391290,-7254.018232,3064.381992
21713.785732,1332.370696,-5625.565159,3907.087040
21713.786065,1332.370696,-4811.338623,2757.943793
21713.786398,4663.297435,-6661.853478,1762.019645
21713.786731,1776.494261,-11621.233289,6665.030833
21713.787065,2886.803174,-4663.297435,-1225.752797
21713.787398,-1258.350101,-11399.171507,-3064.381992
21713.787731,-2368.659014,-11843.295072,-3907.087040
21713.788064,-3923.091493,-12435.459826,-4060.306139
21713.788397,-4219.173869,-11251.130318,-5132.839837
21713.788731,-2294.638420,-8882.471304,-2221.676944
21713.789064,-1776.494261,-10881.027347,1532.190996
21713.789397,1554.432478,-5699.585753,3677.258390
21713.789730,296.082377,-5107.421000,7124.688131
21713.790063,4663.297435,-5625.565159,1302.362347
21713.790396,3552.988522,-5403.503377,3140.991542
21713.790730,2368.659014,-8364.327145,1532.190996
21713.791063,2294.638420,-7994.224174,-153.219100
21713.791396,-814.226536,-12657.521608,-4060.306139
21713.791729,-2738.761985,-13767.830521,-5209.449386
21713.792062,-1850.514855,-13619.789333,-689.485948
21713.792395,-2368.659014,-7772.162391,-153.219100
21713.792729,-74.020594,-8142.265362,-1378.971896
21713.793062,-74.020594,-8586.388927,-1149.143247
21713.793395,3849.070898,-9548.656652,7277.907231
21713.793728,1258.350101,-4959.379811,3677.258390
21713.794061,2368.659014,-7772.162391,3217.601092
21713.794394,1554.432478,-7698.141797,2068.457845
21713.794728,1258.350101,-9622.677246,76.609550
21713.795061,1998.556043,-9474.636058,-76.609550
21713.795394,-2368.659014,-11399.171507,-1685.410096
21713.795727,-1406.391290,-10288.862594,-3830.477490
21713.796060,-1406.391290,-12879.583391,-1608.800546
21713.796393,0.000000,-8586.388927,-1455.581446
21713.796727,1110.308913,-11843.295072,-76.609550
21713.797060,0.000000,-5995.668130,0.000000
21713.797393,2960.823768,-10658.965565,6052.154434
21713.797726,1998.556043,-6661.853478,4826.401637
21713.798059,1406.391290,-2442.679609,0.000000
21713.798392,2146.597232,-10362.883188,2221.676944
21713.798726,4293.194464,-9030.512492,1608.800546
21713.799059,222.061783,-9918.759623,1302.362347
21713.799392,-74.020594,-9844.739029,-1608.800546
21713.799725,-666.185348,-8882.471304,-4366.744339
21713.800058,-2368.659014,-13101.645173,612.876398
21713.800391,-370.102971,-9474.636058,-1302.362347
21713.800725,-3182.885551,-8660.409521,-4596.572988
21713.801058,-4145.153275,-8956.491898,-1532.190996
21713.801391,1702.473667,-9030.512492,995.924147
21713.801724,2886.803174,-7624.121203,6588.421283
21713.802057,2072.576638,-5403.503377,4060.306139
21713.802390,1406.391290,-7254.018232,1762.019645
21713.802724,1776.494261,-8438.347739,1838.629195
21713.803057,-1184.329507,-11473.192101,5898.935335
21713.803390,-666.185348,-6217.729913,-4213.525239
21713.803723,-1850.514855,-9104.533087,-4903.011187
21713.804056,74.020594,-10066.800811,-1302.362347
21713.804389,0.000000,-10732.986159,0.000000
21713.804723,518.144159,-9030.512492,536.266849
21713.805056,-2368.659014,-10955.047942,-1608.800546
21713.805389,962.267725,-10066.800811,1149.143247
21713.805722,0.000000,-10732.986159,3677.258390
21713.806055,4663.297435,-7105.977043,2374.896044
21713.806388,1110.308913,-7328.038826,1838.629195
21713.806722,2664.741391,-8216.285956,4903.011187
21713.807055,3478.967927,-13027.624579,4826.401637
21713.807388,-888.247130,-5107.421000,-919.314598
21713.807721,888.247130,-11103.089130,-3370.820191
21713.808054,-2146.597232,-12731.542202,-2145.067394
21713.808387,222.061783,-11029.068536,-383.047749
21713.808721,-2812.782580,-8734.430116,-2451.505594
21713.809054,-1554.432478,-8216.285956,-1915.238745
21713.809387,888.247130,-8660.409521,306.438199
21713.809720,2072.576638,-8956.491898,5515.887586
21713.810053,3478.967927,-4145.153275,76.609550
21713.810387,962.267725,-7772.162391,0.000000
21713.810720,4145.153275,-9030.512492,2987.772442
21713.811053,4071.132681,-11843.295072,2068.457845
21713.811386,0.000000,-7920.203579,306.438199
21713.811719,-74.020594,-12435.459826,-2528.115143
21713.812052,-2442.679609,-11251.130318,-4903.011187
21713.812386,814.226536,-12657.521608,536.266849
21713.812719,-1184.329507,-6587.832884,-919.314598
21713.813052,-2368.659014,-7772.162391,0.000000
21713.813385,2294.638420,-7105.977043,0.000000
21713.813718,2960.823768,-12583.501014,7890.783629
21713.814051,1998.556043,-3552.988522,2911.162892
21713.814385,222.061783,-7179.997637,1225.752797
21713.814718,888.247130,-7179.997637,306.438199
21713.815051,296.082377,-12509.480420,1762.019645
21713.815384,-222.061783,-7772.162391,-1455.581446
21713.815717,-1110.308913,-9770.718434,-2911.162892
21713.816050,-1184.329507,-11843.295072,-1302.362347
21713.816384,-666.185348,-11917.315666,-1838.629195
21713.816717,-74.020594,-9178.553681,-1302.362347
21713.817050,-1554.432478,-8216.285956,-2451.505594
21713.817383,0.000000,-7624.121203,1225.752797
21713.817716,3404.947333,-13323.706956,6894.859482
21713.818049,3034.844362,-3478.967927,4826.401637
21713.818383,2516.700203,-6809.894666,2298.286494
21713.818716,1998.556043,-11621.233289,1378.971896
21713.819049,4367.215058,-11251.130318,3600.648841
21713.819382,-4145.153275,-6587.832884,612.876398
21713.819715,-3627.009116,-9548.656652,-6281.983084
21713.820048,-5403.503377,-8364.327145,-6128.763984
21713.820382,-2368.659014,-10436.903782,-2068.457845
21713.820715,-74.020594,-12435.459826,-76.609550
21713.821048,1110.308913,-7994.224174,1762.019645
21713.821381,-1480.411884,-9400.615463,0.000000
21713.821714,3034.844362,-9326.594869,5439.278036
21713.822047,518.144159,-6439.791695,2757.943793
21713.822381,2294.638420,-9474.636058,-76.609550
21713.822714,2516.700203,-7179.997637,1225.752797
21713.823047,2368.659014,-11843.295072,3064.381992
21713.823380,5847.626942,-8882.471304,-76.609550
21713.823713,-370.102971,-9474.636058,-2834.553343
21713.824046,1702.473667,-11251.130318,-2528.115143
21713.824380,-2516.700203,-13249.686362,-4136.915689
21713.824713,-2442.679609,-11325.150913,-2451.505594
21713.825046,-4589.276840,-8808.450710,-3753.867940
21713.825379,1998.556043,-8142.265362,2987.772442
21713.825712,4145.153275,-6291.750507,6588.421283
21713.826045,3923.091493,-5921.647536,7507.735880
21713.826379,4737.318029,-4737.318029,7277.907231
21713.826712,888.247130,-5403.503377,0.000000
21713.827045,3108.864956,-11695.253884,1762.019645
21713.827378,-666.185348,-10066.800811,-1608.800546
21713.827711,-1776.494261,-13101.645173,-3140.991542
21713.828044,-1850.514855,-11843.295072,-4979.620737
21713.828378,-2442.679609,-14508.036463,-6741.640382
21713.828711,1184.329507,-9474.636058,-76.609550
21713.829044,-1258.350101,-8956.491898,-383.047749
21713.829377,2664.741391,-7698.141797,842.705048
21713.829710,1184.329507,-10140.821405,7354.516781
21713.830044,3849.070898,-6957.935855,8963.317327
21713.830377,4367.215058,-3627.009116,3677.258390
21713.830710,0.000000,-5403.503377,3677.258390
21713.831043,4811.338623,-9326.594869,1762.019645
21713.831376,-1332.370696,-9548.656652,-1225.752797
21713.831709,-74.020594,-11843.295072,-6205.373534
21713.832043,-6439.791695,-16062.468941,-5439.278036
21713.832376,-1628.453072,-11843.295072,-5132.839837
21713.832709,-1258.350101,-13619.789333,-76.609550
21713.833042,-1258.350101,-9474.636058,-689.485948
21713.833375,-2960.823768,-5995.668130,0.000000
21713.833708,1036.288319,-8734.430116,7890.783629
21713.834042,6439.791695,-4737.318029,5745.716235
21713.834375,1776.494261,-6587.832884,8350.440928
21713.834708,2590.720797,-5773.606348,3294.210641
21713.835041,518.144159,-7698.141797,-229.828649
21713.835374,296.082377,-12509.480420,-536.266849
21713.835707,-2812.782580,-8808.450710,-5056.230287
21713.836041,-1850.514855,-14211.954086,-6511.811733
21713.836374,-3923.091493,-9548.656652,-3677.258390
21713.836707,-2220.617826,-12953.603985,-383.047749
21713.837040,-74.020594,-8882.471304,-2528.115143
21713.837373,0.000000,-9474.636058,3600.648841
21713.837706,1628.453072,-7624.121203,5439.278036
21713.838040,1406.391290,-7994.224174,6818.249932
21713.838373,592.164754,-1776.494261,4213.525239
21713.838706,296.082377,-7179.997637,612.876398
21713.839039,2738.761985,-5995.668130,2451.505594
21713.839372,1036.288319,-12731.542202,3064.381992
21713.839705,-74.020594,-11251.130318,-4979.620737
21713.840039,-3849.070898,-11325.150913,-4596.572988
21713.840372,-3330.926739,-13027.624579,-4979.620737
21713.840705,0.000000,-13471.748144,-153.219100
21713.841038,-1628.453072,-7772.162391,-919.314598
21713.841371,-888.247130,-10362.883188,-842.705048
21713.841704,1776.494261,-6291.750507,6435.202183
21713.842038,4441.235652,-7846.182985,5209.449386
21713.842371,2072.576638,-6587.832884,5209.449386
21713.842704,3478.967927,-6661.853478,4443.353888
21713.843037,2368.659014,-6439.791695,2145.067394
21713.843370,592.164754,-9844.739029,612.876398
21713.843703,814.226536,-5773.606348,-4060.306139
21713.844037,-3552.988522,-11325.150913,-2451.505594
21713.844370,-666.185348,-8882.471304,-3294.210641
21713.844703,-1258.350101,-11843.295072,-5592.497135
21713.845036,-4737.318029,-11917.315666,-2604.724693
21713.845369,-1036.288319,-8660.409521,-3600.648841
21713.845702,1258.350101,-10584.944971,842.705048
21713.846036,5551.544565,-9992.780217,4903.011187
21713.846369,5107.421000,-8290.306550,7967.393179
21713.846702,3256.906145,-4219.173869,3064.381992
21713.847035,2368.659014,-5403.503377,4443.353888
21713.847368,5847.626942,-11251.130318,2374.896044
21713.847701,1184.329507,-6439.791695,0.000000
21713.848035,-74.020594,-10658.965565,-2528.115143
21713.848368,-3552.988522,-10436.903782,-3677.258390
21713.848701,-2590.720797,-13323.706956,-2604.724693
21713.849034,-1554.432478,-8734.430116,-2834.553343
21713.849367,-3627.009116,-11843.295072,-4060.306139
21713.849700,-3552.988522,-8364.327145,1225.752797
21713.850034,3775.050304,-7476.080014,6128.763984
21713.850367,5551.544565,-7105.977043,7277.907231
21713.850700,2368.659014,-3034.844362,3983.696590
21713.851033,2294.638420,-8290.306550,995.924147
21713.851366,1924.535449,-9992.780217,2451.505594
21713.851699,-1110.308913,-10288.862594,-1149.143247
21713.852032,-3552.988522,-10881.027347,-4136.915689
21713.852365,-5033.400406,-8364.327145,-6281.983084
21713.852699,-4737.318029,-11917.315666,-459.657299
21713.853032,-74.020594,-10658.965565,-383.047749
21713.853365,-666.185348,-8290.306550,-76.609550
21713.853698,-2368.659014,-6587.832884,2451.505594
21713.854031,1702.473667,-8142.265362,2757.943793
21713.854364,0.000000,-8216.285956,4903.011187
21713.854697,222.061783,-3997.112087,2604.724693
21713.855030,1628.453072,-5625.565159,-229.828649
21713.855363,1184.329507,-10140.821405,2451.505594
21713.855696,1702.473667,-9326.594869,-76.609550
21713.856029,-2812.782580,-10658.965565,-4519.963438
21713.856362,-3552.988522,-11621.233289,-4749.792088
21713.856695,-1776.494261,-13545.768739,-3447.429741
21713.857028,-74.020594,-13027.624579,-689.485948
21713.857361,-1776.494261,-5403.503377,306.438199
21713.857694,0.000000,-7772.162391,3983.696590
21713.858027,6439.791695,-6809.894666,5439.278036
21713.858360,2960.823768,-7179.997637,6128.763984
21713.858693,3478.967927,-6513.812290,842.705048
21713.859026,2146.597232,-8734.430116,2068.457845
21713.859359,1110.308913,-10955.047942,-536.266849
21713.859693,518.144159,-10658.965565,-2528.115143
21713.860026,-2960.823768,-11843.295072,-3753.867940
21713.860359,-4737.318029,-9844.739029,-3677.258390
21713.860692,1110.308913,-8882.471304,2374.896044
21713.861025,3182.885551,-10362.883188,1608.800546
21713.861358,2146.597232,-8142.265362,-76.609550
21713.861691,222.061783,-9326.594869,0.000000
21713.862024,4071.132681,-9252.574275,3294.210641
21713.862357,5699.585753,-9030.512492,5439.278036
21713.862690,2368.659014,-5995.668130,3064.381992
21713.863023,3478.967927,-9474.636058,-76.609550
21713.863356,0.000000,-10436.903782,3600.648841
21713.863689,1110.308913,-12435.459826,-2221.676944
21713.864022,-2960.823768,-8364.327145,-2911.162892
21713.864355,-1480.411884,-6883.915261,-1685.410096
21713.864688,-2072.576638,-8364.327145,-2528.115143
21713.865021,-888.247130,-11029.068536,-919.314598
21713.865354,-2664.741391,-7772.162391,-76.609550
21713.865687,-888.247130,-9474.636058,1302.362347
21713.866020,2886.803174,-5403.503377,766.095498
21713.866353,3478.967927,-13619.789333,4826.401637
21713.866687,2886.803174,-5921.647536,0.000000
21713.867020,592.164754,-10436.903782,3294.210641
21713.867353,3182.885551,-8586.388927,306.438199
21713.867686,2812.782580,-13027.624579,2987.772442
21713.868019,-1702.473667,-8808.450710,-1378.971896
21713.868352,-2812.782580,-12805.562797,-2757.943793
21713.868685,-4441.235652,-9178.553681,-5592.497135
21713.869018,0.000000,-10140.821405,1225.752797
21713.869351,-1258.350101,-9474.636058,-1915.238745
21713.869684,888.247130,-4811.338623,0.000000
21713.870017,-1776.494261,-7772.162391,6052.154434
21713.870350,2072.576638,-11695.253884,4979.620737
21713.870683,518.144159,-6513.812290,5132.839837
21713.871016,-2368.659014,-6883.915261,306.438199
21713.871349,4293.194464,-4071.132681,-76.609550
21713.871682,74.020594,-15396.283594,842.705048
21713.872015,1332.370696,-7772.162391,-1072.533697
21713.872348,-5107.421000,-12583.501014,-3217.601092
21713.872681,-3108.864956,-10807.006753,-5362.668486
21713.873014,-1406.391290,-13175.665768,-2911.162892
21713.873348,-1554.432478,-10658.965565,-76.609550
21713.873681,1776.494261,-5699.585753,612.876398
21713.874014,0.000000,-5995.668130,3983.696590
21713.874347,7624.121203,-9474.636058,5745.716235
21713.874680,2368.659014,-4811.338623,6128.763984
21713.875013,4737.318029,-7031.956449,4673.182538
21713.875346,814.226536,-8512.368333,536.266849
21713.875679,1406.391290,-12139.377449,-1532.190996
21713.876012,-1480.411884,-11547.212695,-2987.772442
21713.876345,-2146.597232,-9178.553681,-5592.497135
21713.876678,-4737.318029,-9548.656652,-4903.011187
21713.877011,-74.020594,-11251.130318,-1302.362347
21713.877344,-370.102971,-12435.459826,-76.609550
21713.877677,74.020594,-6291.750507,612.876398
21713.878010,4071.132681,-6513.812290,3907.087040
21713.878343,4515.256246,-6069.688724,5669.106685
21713.878676,5033.400406,-7920.203579,4596.572988
21713.879009,2442.679609,-7402.059420,2451.505594
21713.879342,0.000000,-10140.821405,-3524.039291
21713.879675,0.000000,-11917.315666,0.000000
21713.880008,-74.020594,-14211.954086,-2681.334243
21713.880342,222.061783,-7105.977043,-3753.867940
21713.880675,-2368.659014,-9548.656652,0.000000
21713.881008,962.267725,-7179.997637,-2145.067394
21713.881341,-1776.494261,-9992.780217,1149.143247
21713.881674,-1702.473667,-5773.606348,0.000000
21713.882007,-1184.329507,-7328.038826,306.438199
21713.882340,1998.556043,-10066.800811,4213.525239
21713.882673,2368.659014,-9918.759623,6665.030833
21713.883006,1702.473667,-6809.894666,0.000000
21713.883339,0.000000,-8660.409521,919.314598
21713.883672,-74.020594,-12139.377449,-76.609550
21713.884005,-1776.494261,-11473.192101,-1225.752797
21713.884338,-1628.453072,-9622.677246,-2834.553343
21713.884671,-1036.288319,-9548.656652,-1608.800546
21713.885004,1406.391290,-8882.471304,612.876398
21713.885337,1628.453072,-10066.800811,2987.772442
21713.885670,2294.638420,-7105.977043,1149.143247
21713.886003,0.000000,-5995.668130,0.000000
21713.886336,2664.741391,-9474.636058,2374.896044
21713.886669,814.226536,-13175.665768,2451.505594
21713.887002,1184.329507,-5403.503377,5209.449386
21713.887336,-666.185348,-8364.327145,153.219100
21713.887669,-1554.432478,-8364.327145,2757.943793
21713.888002,-3552.988522,-7772.162391,-1915.238745
21713.888335,-4293.194464,-5847.626942,-5439.278036
21713.888668,-3923.091493,-12879.583391,-3294.210641
21713.889001,-518.144159,-10214.842000,-689.485948
21713.889334,-3923.091493,-11399.171507,76.609550
21713.889667,-2368.659014,-5403.503377,-2068.457845
21713.890000,1110.308913,-8290.306550,-1302.362347
21713.890333,4441.235652,-11621.233289,5439.278036
21713.890666,6439.791695,-8364.327145,3370.820191
21713.890999,1924.535449,-11251.130318,3677.258390
21713.891332,4737.318029,-7328.038826,3064.381992
21713.891665,3034.844362,-7772.162391,3677.258390
21713.891998,4663.297435,-10214.842000,2221.676944
21713.892331,518.144159,-9400.615463,-766.095498
21713.892664,-4959.379811,-12065.356855,-5745.716235
21713.892997,-4441.235652,-7179.997637,-6281.983084
21713.893330,-3034.844362,-13619.789333,-1915.238745
21713.893663,1998.556043,-7105.977043,-76.609550
21713.893996,1332.370696,-4811.338623,2451.505594
21713.894330,3182.885551,-7994.224174,4826.401637
21713.894663,2960.823768,-7179.997637,4213.525239
21713.894996,1406.391290,-7698.141797,2987.772442
21713.895329,3404.947333,-7698.141797,-76.609550
21713.895662,3108.864956,-11177.109724,-1532.190996
21713.895995,2368.659014,-14434.015869,2451.505594
21713.896328,2294.638420,-7105.977043,-2834.553343
21713.896661,0.000000,-10140.821405,-3064.381992
21713.896994,-1776.494261,-10288.862594,-76.609550
21713.897327,-370.102971,-10066.800811,-2068.457845
21713.897660,-1850.514855,-9326.594869,1762.019645
21713.897993,0.000000,-5551.544565,689.485948
21713.898326,1184.329507,-7846.182985,5056.230287
21713.898659,3552.988522,-5995.668130,5515.887586
21713.898992,2886.803174,-9178.553681,4826.401637
21713.899325,-74.020594,-5107.421000,-3677.258390
21713.899658,0.000000,-12287.418637,-76.609550
21713.899991,-74.020594,-15396.283594,-2528.115143
21713.900324,-4367.215058,-9548.656652,-6128.763984
21713.900657,-4885.359217,-12435.459826,-3753.867940
21713.900990,-2072.576638,-8438.347739,-2911.162892
21713.901324,888.247130,-8882.471304,1455.581446
21713.901657,592.164754,-9104.533087,4290.134789
21713.901990,3182.885551,-5625.565159,4826.401637
21713.902323,1184.329507,-9252.574275,4213.525239
21713.902656,4515.256246,-8882.471304,3907.087040
21713.902989,1480.411884,-10436.903782,3830.477490
21713.903322,592.164754,-8068.244768,612.876398
21713.903655,1480.411884,-8734.430116,842.705048
21713.903988,-1850.514855,-11399.171507,-4290.134789
21713.904321,-5921.647536,-10732.986159,-2451.505594
21713.904654,-3997.112087,-10658.965565,-3753.867940
21713.904987,-3923.091493,-8882.471304,-5592.497135
21713.905320,0.000000,-9918.759623,0.000000
21713.905653,-740.205942,-9104.533087,3983.696590
21713.905986,-222.061783,-4441.235652,1915.238745
21713.906319,296.082377,-7920.203579,4290.134789
21713.906652,1184.329507,-8364.327145,5439.278036
21713.906985,4071.132681,-7550.100608,2451.505594
21713.907318,1184.329507,-7772.162391,0.000000
21713.907651,2960.823768,-11843.295072,1762.019645
21713.907984,1924.535449,-9548.656652,-2451.505594
21713.908318,1406.391290,-12435.459826,-1608.800546
21713.908651,-592.164754,-9548.656652,-3600.648841
21713.908984,-2886.803174,-11769.274478,-4213.525239
21713.909317,-74.020594,-9474.636058,-2528.115143
21713.909650,0.000000,-11917.315666,3600.648841
21713.909983,2294.638420,-2442.679609,2451.505594
21713.910316,4145.153275,-7031.956449,6052.154434
21713.910649,3330.926739,-7105.977043,3294.210641
21713.910982,4071.132681,-11251.130318,5745.716235
21713.911315,1702.473667,-6513.812290,1685.410096
21713.911648,2442.679609,-8068.244768,229.828649
21713.911981,888.247130,-8882.471304,-1149.143247
21713.912314,-1036.288319,-8660.409521,-4596.572988
21713.912647,-74.020594,-12435.459826,-2528.115143
21713.912980,-2960.823768,-10732.986159,-4290.134789
21713.913313,-1184.329507,-10732.986159,-76.609550
21713.913646,-1850.514855,-13693.809927,-1225.752797
21713.913979,0.000000,-5995.668130,0.000000
21713.914312,1776.494261,-9844.739029,3294.210641
21713.914645,3923.091493,-8586.388927,8197.221829
21713.914979,6143.709319,-6365.771101,7507.735880
21713.915312,4737.318029,-6587.832884,7967.393179
21713.915645,3478.967927,-4145.153275,0.000000
21713.915978,-1184.329507,-9918.759623,-995.924147
21713.916311,-3034.844362,-14211.954086,-4979.620737
21713.916644,-7328.038826,-9696.697840,-7967.393179
21713.916977,-7994.224174,-11917.315666,-6128.763984
21713.917310,-6513.812290,-8512.368333,-6435.202183
21713.917643,-3108.864956,-11473.192101,-1608.800546
21713.917976,-148.041188,-6661.853478,0.000000
21713.918309,3849.070898,-7920.203579,6281.983084
21713.918642,2294.638420,-6143.709319,4290.134789
21713.918975,4959.379811,-8734.430116,5286.058936
21713.919308,2738.761985,-9252.574275,3907.087040
21713.919641,4219.173869,-10066.800811,2068.457845
21713.919974,2368.659014,-9548.656652,1838.629195
21713.920307,1702.473667,-11843.295072,-1915.238745
21713.920640,-2960.823768,-8364.327145,-2451.505594
21713.920973,-1258.350101,-11547.212695,-2528.115143
21713.921306,-1406.391290,-10658.965565,-4060.306139
21713.921639,-3552.988522,-12213.398043,2451.505594
21713.921973,-1258.350101,-6217.729913,2068.457845
21713.922306,1258.350101,-3997.112087,2221.676944
21713.922639,-962.267725,-7624.121203,4596.572988
21713.922972,3775.050304,-7698.141797,2374.896044
21713.923305,-74.020594,-9474.636058,689.485948
21713.923638,296.082377,-7624.121203,0.000000
21713.923971,370.102971,-11843.295072,-1302.362347
21713.924304,-1998.556043,-11029.068536,-4443.353888
21713.924637,0.000000,-10658.965565,-2528.115143
21713.924970,-2368.659014,-10288.862594,-3064.381992
21713.925303,3182.885551,-9844.739029,-229.828649
21713.925636,518.144159,-10436.903782,0.000000
21713.925969,2146.597232,-10658.965565,1762.019645
21713.926302,4663.297435,-3330.926739,1225.752797
21713.926635,4737.318029,-8660.409521,6741.640382
21713.926968,8808.450710,-9474.636058,4826.401637
21713.927301,2146.597232,-10436.903782,3370.820191
21713.927634,1110.308913,-7105.977043,-1302.362347
21713.927967,1258.350101,-8660.409521,-842.705048
21713.928300,-1184.329507,-11843.295072,-1991.848295
21713.928633,-222.061783,-9178.553681,-2528.115143
21713.928967,-4145.153275,-7772.162391,-4749.792088
21713.929300,-2368.659014,-10732.986159,-1838.629195
21713.929633,-592.164754,-11251.130318,-76.609550
21713.929966,0.000000,-8956.491898,1225.752797
21713.930299,2368.659014,-7179.997637,2911.162892
21713.930632,2294.638420,-13027.624579,1762.019645
21713.930965,5329.482782,-7179.997637,6588.421283
21713.931298,5255.462188,-8068.244768,6435.202183
21713.931631,4959.379811,-4959.379811,4136.915689
21713.931964,-1184.329507,-8068.244768,0.000000
21713.932297,-2664.741391,-10955.047942,-3447.429741
21713.932630,-3108.864956,-10140.821405,-4903.011187
21713.932963,-7254.018232,-11621.233289,-5745.716235
21713.933296,-4219.173869,-12287.418637,-2528.115143
21713.933629,-5995.668130,-9474.636058,-3140.991542
21713.933962,-3256.906145,-7476.080014,612.876398
21713.934295,2368.659014,-6365.771101,6128.763984
21713.934628,4071.132681,-8290.306550,3294.210641
21713.934961,4145.153275,-7105.977043,5362.668486
21713.935294,1184.329507,-11621.233289,3600.648841
21713.935627,2146.597232,-7624.121203,766.095498
21713.935961,1998.556043,-9178.553681,842.705048
21713.936294,666.185348,-11843.295072,-1685.410096
21713.936627,-1776.494261,-10732.986159,-2451.505594
21713.936960,-5255.462188,-9548.656652,-4903.011187
21713.937293,592.164754,-9178.553681,-689.485948
21713.937626,-74.020594,-11843.295072,1149.143247
21713.937959,-74.020594,-11843.295072,2374.896044
21713.938292,-74.020594,-6513.812290,4519.963438
21713.938625,148.041188,-6143.709319,2987.772442
21713.938958,518.144159,-4293.194464,4826.401637
21713.939291,2146.597232,-6365.771101,612.876398
21713.939624,4367.215058,-8882.471304,1762.019645
21713.939957,-2812.782580,-12213.398043,1225.752797
21713.940290,1110.308913,-11843.295072,-4060.306139
21713.940623,-5921.647536,-12509.480420,-4903.011187
21713.940956,-4737.318029,-8660.409521,-6128.763984
21713.941289,-3034.844362,-10658.965565,-3524.039291
21713.941622,1110.308913,-6809.894666,-995.924147
21713.941955,2220.617826,-11325.150913,4519.963438
21713.942288,4663.297435,-5921.647536,7431.126331
21713.942621,5551.544565,-4071.132681,6358.592633
21713.942955,6365.771101,-7698.141797,6052.154434
21713.943288,5551.544565,-11843.295072,3600.648841
21713.943621,0.000000,-9548.656652,919.314598
21713.943954,1480.411884,-11843.295072,-1915.238745
21713.944287,-2368.659014,-9548.656652,-4903.011187
21713.944620,148.041188,-13323.706956,-2374.896044
21713.944953,-962.267725,-7254.018232,-842.705048
21713.945286,1332.370696,-8364.327145,-995.924147
21713.945619,-4737.318029,-7772.162391,-2451.505594
21713.945952,2886.803174,-11251.130318,-76.609550
21713.946285,1406.391290,-9030.512492,3370.820191
21713.946618,2368.659014,-4811.338623,3677.258390
21713.946951,6661.853478,-9474.636058,6971.469032
21713.947284,2664.741391,-9030.512492,4366.744339
21713.947617,6883.915261,-6365.771101,2987.772442
21713.947950,-814.226536,-12731.542202,1302.362347
21713.948283,370.102971,-7920.203579,-3370.820191
21713.948616,-5625.565159,-11917.315666,-4596.572988
21713.948949,-2960.823768,-9548.656652,-3600.648841
21713.949282,-3404.947333,-8068.244768,-3370.820191
21713.949615,-4293.194464,-9326.594869,-919.314598
21713.949949,-74.020594,-9474.636058,-76.609550
21713.950282,-1480.411884,-7179.997637,1532.190996
21713.950615,3701.029710,-9178.553681,6128.763984
21713.950948,2294.638420,-7105.977043,2374.896044
21713.951281,592.164754,-11325.150913,3064.381992
21713.951614,3701.029710,-8438.347739,4826.401637
21713.951947,0.000000,-9696.697840,1225.752797
21713.952280,1702.473667,-6957.935855,-1991.848295
21713.952613,-666.185348,-11029.068536,-2681.334243
21713.952946,-4071.132681,-11917.315666,-3600.648841
21713.953279,-2590.720797,-6587.832884,-2451.505594
21713.953612,-1554.432478,-11547.212695,-2528.115143
21713.953945,-370.102971,-11843.295072,-383.047749
21713.954278,-2368.659014,-7476.080014,2451.505594
21713.954611,962.267725,-7105.977043,1762.019645
21713.954944,1332.370696,-8808.450710,2757.943793
21713.955277,0.000000,-9992.780217,4749.792088
21713.955611,3108.864956,-5551.544565,3753.867940
21713.955944,0.000000,-8956.491898,3064.381992
21713.956277,-74.020594,-7105.977043,-2221.676944
21713.956610,-370.102971,-12731.542202,-2528.115143
21713.956943,-4219.173869,-12583.501014,-4366.744339
21713.957276,-5921.647536,-7179.997637,-7354.516781
21713.957609,-4737.318029,-14285.974681,-1225.752797
21713.957942,-74.020594,-5921.647536,-1608.800546
21713.958275,-888.247130,-10140.821405,3064.381992
21713.958608,2146.597232,-6439.791695,5822.325785
21713.958942,4367.215058,-7105.977043,6052.154434
21713.959275,3552.988522,-7328.038826,6128.763984
21713.959608,6735.874072,-7624.121203,3447.429741
21713.959941,296.082377,-7179.997637,1838.629195
21713.960274,5847.626942,-8290.306550,-1302.362347
21713.960607,-74.020594,-13027.624579,-3753.867940
21713.960940,2368.659014,-14211.954086,-76.609550
21713.961273,148.041188,-7031.956449,-1149.143247
21713.961606,296.082377,-10584.944971,-1455.581446
21713.961940,1036.288319,-7476.080014,-2528.115143
21713.962273,1702.473667,-13471.748144,2374.896044
21713.962606,1998.556043,-4811.338623,612.876398
21713.962939,2664.741391,-8660.409521,2451.505594
21713.963272,5847.626942,-11251.130318,4213.525239
21713.963605,5847.626942,-7550.100608,4060.306139
21713.963938,4663.297435,-7402.059420,3600.648841
21713.964271,3330.926739,-8290.306550,-153.219100
21713.964604,0.000000,-10140.821405,-2374.896044
21713.964937,-1998.556043,-13397.727550,-4060.306139
21713.965271,-1036.288319,-9474.636058,-3753.867940
21713.965604,-3034.844362,-12657.521608,-3447.429741
21713.965937,-888.247130,-8512.368333,1225.752797
21713.966270,2590.720797,-9770.718434,4060.306139
21713.966603,296.082377,-6587.832884,4903.011187
21713.966936,1628.453072,-6513.812290,3907.087040
21713.967269,-74.020594,-11843.295072,-76.609550
21713.967602,-4737.318029,-11325.150913,2451.505594
21713.967935,-1628.453072,-5403.503377,-383.047749
21713.968269,-666.185348,-9474.636058,-1072.533697
21713.968602,-1332.370696,-7179.997637,-1532.190996
21713.968935,-2146.597232,-11621.233289,-536.266849
21713.969268,-4441.235652,-9400.615463,-2528.115143
21713.969601,-2368.659014,-8364.327145,-2451.505594
21713.969934,-4737.318029,-12731.542202,-76.609550
21713.970267,518.144159,-10510.924376,1302.362347
21713.970600,-1628.453072,-4811.338623,2451.505594
21713.970933,1332.370696,-8586.388927,3294.210641
21713.971266,740.205942,-7328.038826,3370.820191
21713.971600,4589.276840,-5107.421000,5132.839837
21713.971933,2072.576638,-7550.100608,1455.581446
21713.972266,1480.411884,-11621.233289,0.000000
21713.972599,-74.020594,-11547.212695,-76.609550
21713.972932,-74.020594,-16580.613101,-76.609550
21713.973265,-3182.885551,-5995.668130,-2451.505594
21713.973598,-6217.729913,-9400.615463,-6128.763984
21713.973931,-2146.597232,-11547.212695,-1915.238745
21713.974264,-1184.329507,-9252.574275,1455.581446
21713.974598,-444.123565,-10214.842000,2451.505594
21713.974931,2294.638420,-4959.379811,4596.572988
21713.975264,2664.741391,-6217.729913,3907.087040
21713.975597,3923.091493,-8290.306550,5362.668486
21713.975930,3478.967927,-7698.141797,2681.334243
21713.976263,0.000000,-7179.997637,-1225.752797
21713.976596,1110.308913,-9474.636058,-4366.744339
21713.976929,0.000000,-11103.089130,-3064.381992
21713.977262,2294.638420,-11547.212695,1762.019645
21713.977595,444.123565,-9770.718434,-383.047749
21713.977929,1036.288319,-9474.636058,-1378.971896
21713.978262,592.164754,-12583.501014,1762.019645
21713.978595,1184.329507,-7179.997637,4903.011187
21713.978928,1702.473667,-4219.173869,1378.971896
21713.979261,5625.565159,-7476.080014,3064.381992
21713.979594,6291.750507,-11843.295072,3600.648841
21713.979927,1776.494261,-7476.080014,1532.190996
21713.980260,222.061783,-11251.130318,-689.485948
21713.980593,-3256.906145,-9992.780217,-6128.763984
21713.980926,-370.102971,-13767.830521,-4290.134789
21713.981260,-2368.659014,-13101.645173,-1378.971896
21713.981593,0.000000,-7179.997637,-2145.067394
21713.981926,-1406.391290,-7624.121203,0.000000
21713.982259,3849.070898,-7476.080014,3907.087040
21713.982592,3849.070898,-9030.512492,6052.154434
21713.982925,2738.761985,-7328.038826,5209.449386
21713.983258,1184.329507,-7179.997637,1225.752797
21713.983591,814.226536,-11843.295072,1149.143247
21713.983924,-2368.659014,-9548.656652,1838.629195
21713.984258,-1258.350101,-8290.306550,-76.609550
21713.984591,-1258.350101,-9474.636058,-3753.867940
21713.984924,-5921.647536,-11029.068536,-4290.134789
21713.985257,-3923.091493,-10807.006753,-1838.629195
21713.985590,-4515.256246,-7846.182985,-2528.115143
21713.985923,-1924.535449,-7698.141797,-229.828649
21713.986256,-888.247130,-11325.150913,2451.505594
21713.986589,1110.308913,-6587.832884,4903.011187
21713.986922,0.000000,-3627.009116,5669.106685
21713.987255,1702.473667,-9474.636058,842.705048
21713.987589,0.000000,-7772.162391,0.000000
21713.987922,1406.391290,-13619.789333,2374.896044
21713.988255,740.205942,-8808.450710,1225.752797
21713.988588,-1628.453072,-9474.636058,-3064.381992
21713.988921,-1924.535449,-11177.109724,-3907.087040
21713.989254,-370.102971,-12435.459826,-383.047749
21713.989587,-2812.782580,-6291.750507,-3064.381992
21713.989920,0.000000,-10288.862594,0.000000
21713.990253,1998.556043,-11843.295072,2374.896044
21713.990587,2368.659014,-5995.668130,4903.011187
21713.990920,2294.638420,-7994.224174,3600.648841
21713.991253,1480.411884,-5773.606348,459.657299
21713.991586,-518.144159,-9696.697840,-919.314598
21713.991919,888.247130,-9844.739029,306.438199
21713.992252,-222.061783,-7254.018232,-1455.581446
21713.992585,-4737.318029,-7772.162391,-1838.629195
21713.992918,-74.020594,-11251.130318,-2528.115143
21713.993251,-2442.679609,-9474.636058,-3140.991542
21713.993584,0.000000,-9548.656652,1532.190996
21713.993918,-370.102971,-7105.977043,-689.485948
21713.994251,3552.988522,-5181.441594,1915.238745
21713.994584,3182.885551,-10436.903782,4903.011187
21713.994917,4737.318029,-6883.915261,4366.744339
21713.995250,1258.350101,-11843.295072,1608.800546
21713.995583,3330.926739,-8660.409521,1915.238745
21713.995916,3478.967927,-11843.295072,-76.609550
21713.996249,814.226536,-12361.439231,0.000000
21713.996582,1480.411884,-7772.162391,-1302.362347
21713.996916,-666.185348,-11843.295072,-3753.867940
21713.997249,0.000000,-10140.821405,0.000000
21713.997582,-3552.988522,-7179.997637,612.876398
21713.997915,-222.061783,-8290.306550,-1915.238745
21713.998248,592.164754,-7476.080014,0.000000
21713.998581,-74.020594,-10955.047942,1455.581446
21713.998914,2960.823768,-7476.080014,2834.553343
21713.999247,3478.967927,-7698.141797,1762.019645
21713.999580,1702.473667,-8290.306550,536.266849
21713.999913,3330.926739,-8882.471304,1149.143247
21714.000247,0.000000,-9548.656652,3064.381992
21714.000580,3478.967927,-9474.636058,-383.047749
21714.000913,-370.102971,-9770.718434,-3217.601092
21714.001246,518.144159,-11843.295072,-842.705048
21714.001579,-1998.556043,-9104.533087,-1532.190996
21714.001912,-518.144159,-8290.306550,-1149.143247
21714.002245,-1776.494261,-9178.553681,-76.609550
21714.002578,0.000000,-11325.150913,1838.629195
21714.002911,2294.638420,-7846.182985,3370.820191
21714.003245,3478.967927,-9474.636058,3600.648841
21714.003578,222.061783,-6587.832884,0.000000
21714.003911,2220.617826,-9918.759623,4903.011187
21714.004244,296.082377,-11547.212695,3524.039291
21714.004577,370.102971,-6217.729913,-1685.410096
21714.004910,-2664.741391,-10214.842000,-3217.601092
21714.005243,-3108.864956,-12583.501014,-3907.087040
21714.005576,-2146.597232,-10658.965565,-383.047749
21714.005909,-5921.647536,-8068.244768,-3064.381992
21714.006242,-1258.350101,-7179.997637,-3677.258390
21714.006576,592.164754,-8364.327145,612.876398
21714.006909,5847.626942,-13619.789333,6052.154434
21714.007242,2590.720797,-3849.070898,3370.820191
21714.007575,4293.194464,-7402.059420,3524.039291
21714.007908,2072.576638,-9770.718434,2987.772442
21714.008241,0.000000,-9252.574275,1455.581446
21714.008574,-3108.864956,-7920.203579,-3447.429741
21714.008907,-3627.009116,-11251.130318,-4979.620737
21714.009240,-4219.173869,-8660.409521,-4903.011187
21714.009574,-2368.659014,-11251.130318,1225.752797
21714.009907,-74.020594,-7105.977043,-76.609550
21714.010240,-5107.421000,-5995.668130,-3064.381992
21714.010573,666.185348,-8586.388927,1149.143247
21714.010906,888.247130,-10140.821405,6511.811733
21714.011239,888.247130,-3034.844362,1838.629195
21714.011572,2738.761985,-9400.615463,3983.696590
21714.011905,4071.132681,-11251.130318,4366.744339
21714.012238,8216.285956,-7105.977043,4519.963438
21714.012571,518.144159,-11843.295072,459.657299
21714.012905,814.226536,-8216.285956,-4443.353888
21714.013238,-2368.659014,-10732.986159,-2451.505594
21714.013571,-74.020594,-10510.924376,-4290.134789
21714.013904,-2664.741391,-7179.997637,-3600.648841
21714.014237,-4737.318029,-11325.150913,-76.609550
21714.014570,2886.803174,-6809.894666,1149.143247
21714.014903,2294.638420,-6809.894666,4213.525239
21714.015236,3108.864956,-7031.956449,5439.278036
21714.015569,1776.494261,-5181.441594,2451.505594
21714.015903,2368.659014,-9548.656652,-383.047749
21714.016236,3256.906145,-15396.283594,1838.629195
21714.016569,1776.494261,-11917.315666,4826.401637
21714.016902,1110.308913,-3997.112087,-4596.572988
21714.017235,0.000000,-11621.233289,-3064.381992
21714.017568,888.247130,-13323.706956,-76.609550
21714.017901,-2146.597232,-7772.162391,-2451.505594
21714.018234,-74.020594,-8290.306550,-995.924147
21714.018567,370.102971,-8882.471304,-153.219100
21714.018900,2886.803174,-10510.924376,4749.792088
21714.019234,2886.803174,-6217.729913,5439.278036
21714.019567,1776.494261,-5995.668130,1762.019645
21714.019900,2294.638420,-7772.162391,0.000000
21714.020233,2072.576638,-13471.748144,3600.648841
21714.020566,1702.473667,-9474.636058,-383.047749
21714.020899,-2738.761985,-11547.212695,-689.485948
21714.021232,-888.247130,-9252.574275,-2911.162892
21714.021565,-444.123565,-13101.645173,1991.848295
21714.021898,-888.247130,-6439.791695,459.657299
21714.022231,-3552.988522,-8068.244768,-1532.190996
21714.022565,-370.102971,-8882.471304,-383.047749
21714.022898,1776.494261,-10140.821405,1225.752797
21714.023231,1184.329507,-12287.418637,4826.401637
21714.023564,2590.720797,-6291.750507,3677.258390
21714.023897,592.164754,-5995.668130,2145.067394
21714.024230,1480.411884,-11769.274478,3524.039291
21714.024563,-962.267725,-7772.162391,-536.266849
21714.024896,-4219.173869,-7550.100608,-6052.154434
21714.025229,-3478.967927,-13397.727550,-4213.525239
21714.025563,-2442.679609,-10140.821405,-4903.011187
21714.025896,-2812.782580,-11843.295072,-76.609550
21714.026229,-74.020594,-8290.306550,2374.896044
21714.026562,-1554.432478,-7624.121203,0.000000
21714.026895,1924.535449,-8364.327145,4290.134789
21714.027228,-592.164754,-8734.430116,4596.572988
21714.027561,1258.350101,-4737.318029,-995.924147
21714.027894,74.020594,-13027.624579,2604.724693
21714.028227,4145.153275,-9252.574275,5515.887586
21714.028560,2294.638420,-5995.668130,1532.190996
21714.028894,814.226536,-7846.182985,-1302.362347
21714.029227,518.144159,-8882.471304,-2451.505594
21714.029560,-4885.359217,-12731.542202,-3217.601092
21714.029893,0.000000,-9548.656652,-1225.752797
21714.030226,-4811.338623,-9474.636058,-5286.058936
21714.030559,-666.185348,-7179.997637,0.000000
21714.030892,3182.885551,-9474.636058,4519.963438
21714.031225,3923.091493,-7994.224174,4826.401637
21714.031558,2368.659014,-3627.009116,2757.943793
21714.031892,2664.741391,-7772.162391,2451.505594
21714.032225,3552.988522,-10732.986159,459.657299
21714.032558,1110.308913,-12065.356855,1532.190996
21714.032891,1850.514855,-9474.636058,-229.828649
21714.033224,-74.020594,-8068.244768,-4290.134789
21714.033557,1776.494261,-11621.233289,-1838.629195
21714.033890,1110.308913,-13619.789333,-76.609550
21714.034223,-2664.741391,-6587.832884,-1225.752797
21714.034556,592.164754,-9178.553681,-76.609550
21714.034889,148.041188,-11325.150913,766.095498
21714.035223,4071.132681,-10584.944971,6052.154434
21714.035556,2664.741391,-3478.967927,2298.286494
21714.035889,2886.803174,-10066.800811,-76.609550
21714.036222,2294.638420,-7179.997637,0.000000
21714.036555,1702.473667,-13027.624579,-76.609550
21714.036888,0.000000,-5107.421000,-3677.258390
21714.037221,-2368.659014,-9252.574275,-1608.800546
21714.037554,-74.020594,-11843.295072,-1915.238745
21714.037887,592.164754,-10732.986159,1532.190996
21714.038221,-1406.391290,-9474.636058,-1302.362347
21714.038554,-444.123565,-9252.574275,-766.095498
21714.038887,0.000000,-6291.750507,919.314598
21714.039220,296.082377,-9844.739029,1225.752797
21714.039553,3997.112087,-8734.430116,2374.896044
21714.039886,1110.308913,-11325.150913,1838.629195
21714.040219,2368.659014,-8068.244768,9346.365076
21714.040552,2886.803174,-10066.800811,1762.019645
21714.040885,-888.247130,-7624.121203,-689.485948
21714.041218,-4589.276840,-8882.471304,-4979.620737
21714.041552,-3701.029710,-9770.718434,-3064.381992
21714.041885,-4145.153275,-11325.150913,-2451.505594
21714.042218,-4071.132681,-7994.224174,-2221.676944
21714.042551,-2220.617826,-6957.935855,766.095498
21714.042884,0.000000,-7550.100608,2834.553343
21714.043217,2886.803174,-11547.212695,4826.401637
21714.043550,1110.308913,-4737.318029,-76.609550
21714.043883,0.000000,-7179.997637,3217.601092
21714.044216,1110.308913,-8882.471304,-76.609550
21714.044550,1110.308913,-9548.656652,1838.629195
21714.044883,-3552.988522,-7179.997637,-1225.752797
21714.045216,-1554.432478,-10288.862594,-2911.162892
21714.045549,-1702.473667,-10658.965565,-383.047749
21714.045882,-2590.720797,-13101.645173,-229.828649
21714.046215,-2368.659014,-7105.977043,-459.657299
21714.046548,-4737.318029,-6587.832884,-2451.505594
21714.046881,1998.556043,-6513.812290,-689.485948
21714.047214,2294.638420,-8956.491898,4290.134789
21714.047547,1110.308913,-9474.636058,4290.134789
21714.047881,3478.967927,-7105.977043,1149.143247
21714.048214,296.082377,-10140.821405,1455.581446
21714.048547,2664.741391,-10732.986159,919.314598
21714.048880,148.041188,-10214.842000,-383.047749
21714.049213,-1110.308913,-7994.224174,-3907.087040
21714.049546,-888.247130,-11695.253884,-1378.971896
21714.049879,0.000000,-9844.739029,0.000000
21714.050212,-2368.659014,-9548.656652,1378.971896
21714.050545,-74.020594,-8882.471304,-4213.525239
21714.050879,1998.556043,-5107.421000,1225.752797
21714.051212,4663.297435,-10658.965565,6665.030833
21714.051545,6809.894666,-5107.421000,7048.078582
21714.051878,1998.556043,-7105.977043,2987.772442
21714.052211,3182.885551,-7031.956449,76.609550
21714.052544,2886.803174,-10658.965565,995.924147
21714.052877,0.000000,-9844.739029,-2451.505594
21714.053210,-1110.308913,-10658.965565,-3753.867940
21714.053543,-2442.679609,-13027.624579,-6818.249932
21714.053876,0.000000,-11917.315666,-2451.505594
21714.054210,1110.308913,-12435.459826,383.047749
21714.054543,2072.576638,-5551.544565,536.266849
21714.054876,2664.741391,-6587.832884,3370.820191
21714.055209,5255.462188,-7402.059420,5362.668486
21714.055542,4219.173869,-7179.997637,5209.449386
21714.055875,0.000000,-7179.997637,6435.202183
21714.056208,4663.297435,-6809.894666,1455.581446
21714.056541,0.000000,-7772.162391,-2451.505594
21714.056874,1480.411884,-12509.480420,536.266849
21714.057207,-4145.153275,-5403.503377,-4903.011187
21714.057540,-2442.679609,-15396.283594,-6205.373534
21714.057873,-3552.988522,-11029.068536,-1838.629195
21714.058206,-3330.926739,-11621.233289,-612.876398
21714.058540,-2812.782580,-5403.503377,0.000000
21714.058873,-370.102971,-6365.771101,1532.190996
21714.059206,296.082377,-8142.265362,4213.525239
21714.059539,1776.494261,-6957.935855,5439.278036
21714.059872,2294.638420,-8882.471304,3600.648841
21714.060205,-74.020594,-6513.812290,-1072.533697
21714.060538,0.000000,-8956.491898,306.438199
21714.060871,-74.020594,-15396.283594,-689.485948
21714.061204,-4441.235652,-6735.874072,-6435.202183
21714.061537,-2146.597232,-13619.789333,-1608.800546
21714.061870,-1850.514855,-9918.759623,-2451.505594
21714.062203,-74.020594,-11843.295072,842.705048
21714.062536,-3108.864956,-10214.842000,2834.553343
21714.062870,-592.164754,-2442.679609,383.047749
21714.063203,1998.556043,-8660.409521,2451.505594
21714.063536,2960.823768,-5995.668130,6971.469032
21714.063869,-74.020594,-8290.306550,0.000000
21714.064202,444.123565,-3627.009116,0.000000
21714.064535,-3034.844362,-11251.130318,-2221.676944
21714.064868,-2368.659014,-13175.665768,-612.876398
21714.065201,-5107.421000,-8290.306550,-4366.744339
21714.065534,-3701.029710,-10288.862594,-4366.744339
21714.065867,0.000000,-9400.615463,0.000000
21714.066200,2294.638420,-8808.450710,0.000000
21714.066533,2368.659014,-7476.080014,5745.716235
21714.066866,4071.132681,-5921.647536,2374.896044
21714.067200,3552.988522,-9548.656652,2757.943793
21714.067533,4737.318029,-7772.162391,2757.943793
21714.067866,2516.700203,-12213.398043,2298.286494
21714.068199,1554.432478,-6883.915261,-459.657299
21714.068532,2738.761985,-9770.718434,842.705048
21714.068865,3478.967927,-10658.965565,1762.019645
21714.069198,1776.494261,-4811.338623,306.438199
21714.069531,-1554.432478,-11251.130318,-4060.306139
21714.069864,4663.297435,-4737.318029,-4673.182538
21714.070197,-592.164754,-20725.766376,1149.143247
21714.070530,8808.450710,-6513.812290,3600.648841
21714.070863,3849.070898,-8956.491898,4826.401637
21714.071196,4737.318029,-6439.791695,2374.896044
21714.071530,4145.153275,-7402.059420,2604.724693
21714.071863,-1258.350101,-8734.430116,-2604.724693
21714.072196,4145.153275,-11029.068536,3600.648841
21714.072529,-1850.514855,-9548.656652,-1838.629195
21714.072862,0.000000,-11029.068536,-2451.505594
21714.073195,-592.164754,-8586.388927,-76.609550
21714.073528,1998.556043,-9474.636058,-689.485948
21714.073861,0.000000,-8290.306550,536.266849
21714.074194,-148.041188,-12361.439231,1685.410096
21714.074527,-1258.350101,-9548.656652,-1225.752797
21714.074860,962.267725,-10066.800811,2374.896044
21714.075193,1480.411884,-10584.944971,4060.306139
21714.075526,2220.617826,-9252.574275,4903.011187
21714.075859,-1184.329507,-9474.636058,3600.648841
21714.076193,518.144159,-5477.523971,-459.657299
21714.076526,814.226536,-8290.306550,-1149.143247
21714.076859,0.000000,-14063.912898,2374.896044
21714.077192,-74.020594,-9474.636058,4213.525239
21714.077525,-4589.276840,-7772.162391,-3677.258390
21714.077858,-1628.453072,-8586.388927,536.266849
21714.078191,-4219.173869,-11251.130318,-2681.334243
21714.078524,-4219.173869,-9326.594869,-612.876398
21714.078857,-7105.977043,-8438.347739,-2528.115143
21714.079190,-2738.761985,-8586.388927,-1149.143247
21714.079523,-3552.988522,-7772.162391,4903.011187
21714.079856,0.000000,-5403.503377,4903.011187
21714.080189,4071.132681,-3478.967927,2451.505594
21714.080523,-1850.514855,-6291.750507,1225.752797
21714.080856,2664.741391,-10066.800811,1149.143247
21714.081189,-4219.173869,-11769.274478,-4290.134789
21714.081522,-1110.308913,-10066.800811,-4136.915689
21714.081855,-3108.864956,-11547.212695,-2145.067394
21714.082188,0.000000,-10288.862594,-995.924147
21714.082521,2368.659014,-9992.780217,3830.477490
21714.082854,296.082377,-9252.574275,6052.154434
21714.083187,4367.215058,-5921.647536,2145.067394
21714.083520,1184.329507,-7179.997637,1225.752797
21714.083853,2072.576638,-11177.109724,2987.772442
21714.084186,0.000000,-5995.668130,919.314598
21714.084519,222.061783,-8142.265362,-1225.752797
21714.084853,3182.885551,-8290.306550,-76.609550
21714.085186,1850.514855,-10436.903782,536.266849
21714.085519,4071.132681,-4589.276840,-1608.800546
21714.085852,2590.720797,-13619.789333,-1915.238745
21714.086185,3478.967927,-9696.697840,-4213.525239
21714.086518,296.082377,-13989.892304,306.438199
21714.086851,4663.297435,-11251.130318,2374.896044
21714.087184,6439.791695,-9918.759623,4826.401637
21714.087517,2960.823768,-9918.759623,3064.381992
21714.087850,7624.121203,-8586.388927,3677.258390
21714.088183,3627.009116,-7105.977043,3753.867940
21714.088516,5329.482782,-6587.832884,4903.011187
21714.088849,4663.297435,-6365.771101,1532.190996
21714.089183,296.082377,-12213.398043,612.876398
21714.089516,-3108.864956,-9178.553681,-4979.620737
21714.089849,-3923.091493,-10436.903782,-6435.202183
21714.090182,-4219.173869,-12953.603985,-4136.915689
21714.090515,-3627.009116,-11251.130318,-2604.724693
21714.090848,-5477.523971,-9770.718434,-1838.629195
21714.091181,888.247130,-5107.421000,842.705048
21714.091514,1332.370696,-7179.997637,3447.429741
21714.091847,4663.297435,-8882.471304,5592.497135
21714.092180,2294.638420,-5699.585753,4443.353888
21714.092513,0.000000,-9252.574275,919.314598
21714.092846,1480.411884,-9992.780217,229.828649
21714.093179,-2960.823768,-12731.542202,-1608.800546
21714.093513,-74.020594,-11843.295072,-2528.115143
21714.093846,-5625.565159,-8364.327145,-3370.820191
21714.094179,-1850.514855,-11251.130318,-2834.553343
21714.094512,-592.164754,-13693.809927,1378.971896
21714.094845,-4441.235652,-8068.244768,2451.505594
21714.095178,-1554.432478,-6957.935855,3217.601092
21714.095511,-2220.617826,-6291.750507,4826.401637
21714.095844,-1036.288319,-5995.668130,4673.182538
21714.096177,-2960.823768,-4811.338623,1225.752797
21714.096510,-1258.350101,-4959.379811,-2145.067394
21714.096843,-5921.647536,-9548.656652,0.000000
21714.097176,-1258.350101,-12435.459826,-2528.115143
21714.097509,-3034.844362,-9474.636058,-3140.991542
21714.097842,-3552.988522,-10807.006753,-2834.553343
21714.098176,-1628.453072,-10732.986159,-1991.848295
21714.098509,296.082377,-11399.171507,1225.752797
21714.098842,370.102971,-7772.162391,306.438199
21714.099175,2738.761985,-8586.388927,4826.401637
21714.099508,3478.967927,-4811.338623,3677.258390
21714.099841,5921.647536,-11473.192101,7354.516781
21714.100174,9400.615463,-7105.977043,4826.401637
21714.100507,296.082377,-5995.668130,0.000000
21714.100840,3182.885551,-7994.224174,-1608.800546
21714.101173,-592.164754,-13175.665768,-4749.792088
21714.101506,-2368.659014,-13693.809927,-4290.134789
21714.101839,-1406.391290,-6957.935855,-3524.039291
21714.102172,-1258.350101,-9474.636058,-3140.991542
21714.102506,0.000000,-7772.162391,0.000000
21714.102839,1184.329507,-10362.883188,1455.581446
21714.103172,5847.626942,-5921.647536,2374.896044
21714.103505,1184.329507,-7179.997637,4903.011187
21714.103838,9400.615463,-11103.089130,3600.648841
21714.104171,3034.844362,-12953.603985,4213.525239
21714.104504,4515.256246,-6069.688724,1532.190996
21714.104837,6143.709319,-6957.935855,1532.190996
21714.105170,2294.638420,-12731.542202,-76.609550
21714.105503,74.020594,-9918.759623,-2757.943793
21714.105836,-4663.297435,-7772.162391,-5209.449386
21714.106169,-2146.597232,-11029.068536,-3294.210641
21714.106502,-4145.153275,-10732.986159,0.000000
21714.106836,-222.061783,-11251.130318,1762.019645
21714.107169,-1850.514855,-3923.091493,612.876398
21714.107502,-2368.659014,-9548.656652,4596.572988
21714.107835,1998.556043,-5329.482782,1685.410096
21714.108168,0.000000,-10140.821405,3983.696590
21714.108501,1628.453072,-3775.050304,536.266849
21714.108834,-1258.350101,-12213.398043,1991.848295
21714.109167,0.000000,-8586.388927,-1838.629195
21714.109500,1110.308913,-11843.295072,-76.609550
21714.109833,-4219.173869,-11547.212695,-2528.115143
21714.110166,0.000000,-7179.997637,-3370.820191
21714.110499,-4737.318029,-13693.809927,0.000000
21714.110832,1332.370696,-12139.377449,995.924147
21714.111166,-444.123565,-8290.306550,3677.258390
21714.111499,518.144159,-7402.059420,3907.087040
21714.111832,1554.432478,-5773.606348,4519.963438
21714.112165,-666.185348,-8364.327145,5209.449386
21714.112498,-1850.514855,-1776.494261,-4443.353888
21714.112831,-74.020594,-11843.295072,1762.019645
21714.113164,-4737.318029,-9548.656652,-1838.629195
21714.113497,-1850.514855,-12287.418637,-3753.867940
21714.113830,-6143.709319,-8290.306550,-7124.688131
21714.114163,-1258.350101,-10362.883188,-3753.867940
21714.114496,-592.164754,-9918.759623,0.000000
21714.114829,-518.144159,-12065.356855,1455.581446
21714.115162,1110.308913,-7179.997637,1838.629195
21714.115495,1184.329507,-7179.997637,5515.887586
21714.115829,7031.956449,-9474.636058,4826.401637
21714.116162,2960.823768,-9548.656652,8273.831378
21714.116495,4367.215058,-6957.935855,3600.648841
21714.116828,3478.967927,-8290.306550,-995.924147
21714.117161,148.041188,-7179.997637,-3064.381992
21714.117494,-1184.329507,-13471.748144,-1302.362347
21714.117827,-1628.453072,-7179.997637,-4060.306139
21714.118160,-2294.638420,-9548.656652,-3983.696590
21714.118493,1036.288319,-11103.089130,-76.609550
21714.118826,-962.267725,-7772.162391,0.000000
21714.119159,2072.576638,-5921.647536,2987.772442
21714.119492,2294.638420,-8882.471304,1149.143247
21714.119825,2368.659014,-7179.997637,4903.011187
21714.120159,2368.659014,-10732.986159,4290.134789
21714.120492,4145.153275,-7254.018232,3600.648841
21714.120825,3256.906145,-7698.141797,0.000000
21714.121158,2516.700203,-10510.924376,-1532.190996
21714.121491,1998.556043,-14508.036463,-76.609550
21714.121824,-1850.514855,-8956.491898,-4903.011187
21714.122157,-666.185348,-11769.274478,-6665.030833
21714.122490,-1406.391290,-15100.201217,1149.143247
21714.122823,592.164754,-8734.430116,2987.772442
21714.123156,1776.494261,-7772.162391,7354.516781
21714.123489,4071.132681,-4441.235652,4366.744339
21714.123822,0.000000,-3330.926739,2451.505594
21714.124155,2590.720797,-11547.212695,5439.278036
21714.124489,-1850.514855,-7698.141797,-1302.362347
21714.124822,-7698.141797,-9844.739029,-3217.601092
21714.125155,-1184.329507,-8216.285956,-2528.115143
21714.125488,-1406.391290,-10807.006753,-3370.820191
21714.125821,-2146.597232,-10214.842000,-3064.381992
21714.126154,-74.020594,-8290.306550,-1915.238745
21714.126487,-3034.844362,-10362.883188,-6128.763984
21714.126820,1998.556043,-12953.603985,612.876398
21714.127153,-148.041188,-13619.789333,4213.525239
21714.127486,2590.720797,-5403.503377,3370.820191
21714.127819,3627.009116,-7994.224174,6971.469032
21714.128152,2664.741391,-8956.491898,5056.230287
21714.128485,4367.215058,-7105.977043,6358.592633
21714.128819,-1036.288319,-4885.359217,306.438199
21714.129152,1258.350101,-9178.553681,-4979.620737
21714.129485,-1850.514855,-13397.727550,-4903.011187
21714.129818,-1850.514855,-15396.283594,-689.485948
21714.130151,-74.020594,-8290.306550,-2528.115143
21714.130484,-2442.679609,-9918.759623,-2451.505594
21714.130817,-962.267725,-8290.306550,-2451.505594
21714.131150,-370.102971,-9474.636058,2374.896044
21714.131483,1332.370696,-5921.647536,4136.915689
21714.131816,1702.473667,-7402.059420,2451.505594
21714.132149,592.164754,-9548.656652,3217.601092
21714.132482,2516.700203,-9252.574275,6128.763984
21714.132815,3478.967927,-7105.977043,-76.609550
21714.133148,0.000000,-8364.327145,-1225.752797
21714.133482,0.000000,-10732.986159,-1685.410096
21714.133815,-666.185348,-14211.954086,-3447.429741
21714.134148,148.041188,-7105.977043,-2528.115143
21714.134481,1406.391290,-10140.821405,0.000000
21714.134814,2812.782580,-9992.780217,2068.457845
21714.135147,2516.700203,-11029.068536,3064.381992
21714.135480,814.226536,-7105.977043,2068.457845
21714.135813,1036.288319,-7254.018232,1608.800546
21714.136146,1554.432478,-9030.512492,4213.525239
21714.136479,4663.297435,-9474.636058,4213.525239
21714.136812,222.061783,-8290.306550,-76.609550
21714.137145,-2368.659014,-7179.997637,0.000000
21714.137478,-666.185348,-11103.089130,-2528.115143
21714.137812,-74.020594,-13915.871710,-1685.410096
21714.138145,-74.020594,-7698.141797,-1915.238745
21714.138478,0.000000,-11843.295072,-4979.620737
21714.138811,-740.205942,-12213.398043,1149.143247
21714.139144,4441.235652,-8586.388927,3983.696590
21714.139477,3997.112087,-6883.915261,7201.297681
21714.139810,5921.647536,-7179.997637,7277.907231
21714.140143,-1998.556043,-7772.162391,0.000000
21714.140476,444.123565,-11769.274478,2987.772442
21714.140809,-2590.720797,-5033.400406,-2911.162892
21714.141142,-3849.070898,-9622.677246,-2528.115143
21714.141475,-1258.350101,-9178.553681,-2221.676944
21714.141808,-3923.091493,-11251.130318,-2451.505594
21714.142142,-3849.070898,-7402.059420,-2528.115143
21714.142475,-1184.329507,-6291.750507,-1532.190996
21714.142808,-1850.514855,-11843.295072,-689.485948
21714.143141,2664.741391,-11103.089130,6665.030833
21714.143474,2294.638420,-11843.295072,3600.648841
21714.143807,2812.782580,-5995.668130,3064.381992
21714.144140,1776.494261,-10732.986159,4903.011187
21714.144473,1554.432478,-9622.677246,1838.629195
21714.144806,1258.350101,-8068.244768,1302.362347
21714.145139,-1702.473667,-9104.533087,-1838.629195
21714.145472,1332.370696,-8068.244768,-4060.306139
21714.145805,-1628.453072,-14285.974681,-3677.258390
21714.146138,666.185348,-11547.212695,3600.648841
21714.146472,814.226536,-7105.977043,-3140.991542
21714.146805,-2886.803174,-9548.656652,306.438199
21714.147138,1406.391290,-10510.924376,-76.609550
21714.147471,0.000000,-6735.874072,0.000000
21714.147804,518.144159,-9474.636058,2068.457845
21714.148137,2294.638420,-8808.450710,995.924147
21714.148470,444.123565,-11843.295072,2681.334243
21714.148803,0.000000,-4959.379811,1225.752797
21714.149136,2294.638420,-9474.636058,-689.485948
21714.149469,-2368.659014,-8364.327145,-2298.286494
21714.149802,0.000000,-9548.656652,0.000000
21714.150135,2294.638420,-10658.965565,2374.896044
21714.150468,592.164754,-6587.832884,0.000000
21714.150801,518.144159,-8660.409521,766.095498
21714.151135,1702.473667,-9178.553681,-536.266849
21714.151468,2220.617826,-11621.233289,2911.162892
21714.151801,0.000000,-8660.409521,2145.067394
21714.152134,-74.020594,-9770.718434,-2451.505594
21714.152467,2220.617826,-11473.192101,3140.991542
21714.152800,592.164754,-6513.812290,1915.238745
21714.153133,2886.803174,-4737.318029,2068.457845
21714.153466,-2220.617826,-6883.915261,-919.314598
21714.153799,-2516.700203,-11843.295072,-4060.306139
21714.154132,-2442.679609,-7772.162391,-3370.820191
21714.154465,-2072.576638,-9474.636058,-1915.238745
21714.154799,-74.020594,-12435.459826,1149.143247
21714.155132,296.082377,-9696.697840,0.000000
21714.155465,1628.453072,-10807.006753,4366.744339
21714.155798,4589.276840,-5921.647536,4136.915689
21714.156131,2368.659014,-7772.162391,1838.629195
21714.156464,0.000000,-10732.986159,3677.258390
21714.156798,2294.638420,-8882.471304,1149.143247
21714.157131,-2072.576638,-4811.338623,-2757.943793
21714.157464,-2072.576638,-9104.533087,-919.314598
21714.157797,-1258.350101,-9178.553681,-1915.238745
21714.158130,-1258.350101,-11251.130318,-76.609550
21714.158464,-3034.844362,-5477.523971,-4903.011187
21714.158797,-3701.029710,-12139.377449,-2834.553343
21714.159130,-2368.659014,-8364.327145,612.876398
21714.159463,1702.473667,-10658.965565,2528.115143
21714.159796,2368.659014,-8068.244768,6052.154434
21714.160130,3478.967927,-8586.388927,1608.800546
21714.160463,1184.329507,-10732.986159,2451.505594
21714.160796,4885.359217,-7476.080014,3983.696590
21714.161129,0.000000,-8068.244768,1225.752797
21714.161462,2886.803174,-8068.244768,-1225.752797
21714.161795,-1036.288319,-11029.068536,-2757.943793
21714.162129,2294.638420,-12731.542202,-689.485948
21714.162462,-1332.370696,-6587.832884,0.000000
21714.162795,-666.185348,-9474.636058,-1302.362347
21714.163128,-74.020594,-10362.883188,-1149.143247
21714.163461,0.000000,-9696.697840,3370.820191
21714.163795,4367.215058,-7105.977043,4213.525239
21714.164128,1480.411884,-6439.791695,3370.820191
21714.164461,2442.679609,-9474.636058,2068.457845
21714.164794,1554.432478,-10807.006753,2451.505594
21714.165127,-296.082377,-7402.059420,-1302.362347
21714.165461,-2368.659014,-8660.409521,-1225.752797
21714.165794,-1258.350101,-10510.924376,-5515.887586
21714.166127,-2072.576638,-10732.986159,-4136.915689
21714.166460,0.000000,-7402.059420,-76.609550
21714.166793,-74.020594,-11843.295072,-229.828649
21714.167126,1184.329507,-8216.285956,1762.019645
21714.167460,1184.329507,-11177.109724,3217.601092
21714.167793,4589.276840,-6587.832884,5822.325785
21714.168126,2886.803174,-7328.038826,2987.772442
21714.168459,1184.329507,-11103.089130,3600.648841
21714.168792,2368.659014,-9548.656652,2298.286494
21714.169126,0.000000,-7698.141797,2374.896044
21714.169459,0.000000,-6439.791695,-612.876398
21714.169792,-3034.844362,-9474.636058,-5592.497135
21714.170125,-3552.988522,-14656.077652,-1608.800546
21714.170458,-1406.391290,-9474.636058,-76.609550
21714.170792,-666.185348,-8290.306550,-2911.162892
21714.171125,-2368.659014,-8660.409521,612.876398
21714.171458,1998.556043,-11843.295072,2374.896044
21714.171791,3034.844362,-6587.832884,5439.278036
21714.172124,3997.112087,-5921.647536,3447.429741
21714.172457,2886.803174,-11473.192101,4519.963438
21714.172791,3552.988522,-7179.997637,3677.258390
21714.173124,0.000000,-9548.656652,3064.381992
21714.173457,2294.638420,-7105.977043,-1915.238745
21714.173790,-4737.318029,-7476.080014,-4903.011187
21714.174123,-1258.350101,-13027.624579,-1915.238745
21714.174457,-3627.009116,-8216.285956,-4903.011187
21714.174790,-3330.926739,-9326.594869,-3753.867940
21714.175123,-1924.535449,-8660.409521,306.438199
21714.175456,814.226536,-8956.491898,2528.115143
21714.175789,2664.741391,-6291.750507,5209.449386
21714.176123,0.000000,-7179.997637,6511.811733
21714.176456,2886.803174,-8586.388927,0.000000
21714.176789,888.247130,-10732.986159,0.000000
21714.177122,3330.926739,-10658.965565,2374.896044
21714.177455,296.082377,-8364.327145,0.000000
21714.177788,-518.144159,-10955.047942,-2221.676944
21714.178122,-740.205942,-9548.656652,-4749.792088
21714.178455,-2590.720797,-10436.903782,-1072.533697
21714.178788,1702.473667,-9178.553681,-1915.238745
21714.179121,1110.308913,-12435.459826,2374.896044
21714.179454,1110.308913,-8512.368333,0.000000
21714.179788,1776.494261,-8882.471304,3294.210641
21714.180121,3478.967927,-10658.965565,4826.401637
21714.180454,5255.462188,-7476.080014,4060.306139
21714.180787,3182.885551,-11399.171507,2145.067394
21714.181120,592.164754,-9474.636058,2374.896044
21714.181454,0.000000,-6143.709319,-2757.943793
21714.181787,-2072.576638,-9622.677246,-2298.286494
21714.182120,1998.556043,-8734.430116,-3140.991542
21714.182453,-3256.906145,-10140.821405,-2451.505594
21714.182786,-2072.576638,-7624.121203,-1302.362347
21714.183119,-3923.091493,-9844.739029,-3064.381992
21714.183453,-592.164754,-11325.150913,2374.896044
21714.183786,2516.700203,-8956.491898,5745.716235
21714.184119,1998.556043,-6439.791695,4673.182538
21714.184452,2590.720797,-7402.059420,2681.334243
21714.184785,0.000000,-9548.656652,1915.238745
21714.185119,2294.638420,-8290.306550,2681.334243
21714.185452,1554.432478,-6661.853478,612.876398
21714.185785,-740.205942,-11399.171507,-689.485948
21714.186118,-1036.288319,-8808.450710,-5592.497135
21714.186451,-3849.070898,-10658.965565,-1915.238745
21714.186785,-74.020594,-8290.306550,-1302.362347
21714.187118,-1850.514855,-11473.192101,-2145.067394
21714.187451,-2220.617826,-8364.327145,229.828649
21714.187784,0.000000,-9844.739029,2451.505594
21714.188117,0.000000,-7476.080014,5056.230287
21714.188450,3256.906145,-5403.503377,1838.629195
21714.188784,2960.823768,-9548.656652,5669.106685
21714.189117,2294.638420,-7698.141797,2987.772442
21714.189450,0.000000,-6587.832884,-2451.505594
21714.189783,-1258.350101,-11843.295072,-6358.592633
21714.190116,-4145.153275,-11917.315666,-3677.258390
21714.190450,-518.144159,-12287.418637,2374.896044
21714.190783,-74.020594,-6809.894666,-76.609550
21714.191116,-1776.494261,-8438.347739,842.705048
21714.191449,-1998.556043,-8660.409521,0.000000
21714.191782,1776.494261,-8142.265362,3983.696590
21714.192116,444.123565,-8512.368333,2145.067394
21714.192449,592.164754,-9474.636058,1149.143247
21714.192782,-962.267725,-9844.739029,0.000000
21714.193115,1776.494261,-9474.636058,2451.505594
21714.193448,4663.297435,-8290.306550,-1302.362347
21714.193781,0.000000,-7179.997637,-2451.505594
21714.194115,444.123565,-10955.047942,-1915.238745
21714.194448,-592.164754,-10436.903782,-2145.067394
21714.194781,518.144159,-10362.883188,-689.485948
21714.195114,592.164754,-8586.388927,-995.924147
21714.195447,4663.297435,-9474.636058,2374.896044
21714.195781,2294.638420,-5995.668130,1532.190996
21714.196114,6143.709319,-8290.306550,4213.525239
21714.196447,444.123565,-7179.997637,0.000000
21714.196780,1184.329507,-9844.739029,1225.752797
21714.197113,3478.967927,-12435.459826,2068.457845
21714.197447,-740.205942,-8216.285956,-153.219100
21714.197780,0.000000,-7920.203579,-2145.067394
21714.198113,-2220.617826,-9770.718434,-3370.820191
21714.198446,-74.020594,-11843.295072,2374.896044
21714.198779,-888.247130,-5033.400406,-766.095498
21714.199112,-2220.617826,-9474.636058,-1225.752797
21714.199446,-1776.494261,-9770.718434,229.828649
21714.199779,0.000000,-8364.327145,1225.752797
21714.200112,3330.926739,-9474.636058,6971.469032
21714.200445,2294.638420,-6513.812290,153.219100
21714.200778,-2368.659014,-10732.986159,2451.505594
21714.201112,-74.020594,-10066.800811,995.924147
21714.201445,-1776.494261,-6291.750507,0.000000
21714.201778,1110.308913,-7402.059420,766.095498
21714.202111,962.267725,-8290.306550,-1685.410096
21714.202444,-2442.679609,-12361.439231,-689.485948
21714.202778,-370.102971,-6883.915261,-229.828649
21714.203111,-2072.576638,-11547.212695,-76.609550
21714.203444,-5329.482782,-9548.656652,-1225.752797
21714.203777,2146.597232,-10066.800811,4213.525239
21714.204110,-74.020594,-10510.924376,2374.896044
21714.204443,4145.153275,-5403.503377,3677.258390
21714.204777,1998.556043,-10066.800811,2987.772442
21714.205110,3108.864956,-9252.574275,4443.353888
21714.205443,-888.247130,-8956.491898,1455.581446
21714.205776,-1850.514855,-8290.306550,-3753.867940
21714.206109,-3552.988522,-11547.212695,-3140.991542
21714.206443,-2590.720797,-8364.327145,-3677.258390
21714.206776,148.041188,-9030.512492,-76.609550
21714.207109,-74.020594,-9474.636058,-689.485948
21714.207442,-74.020594,-9474.636058,-76.609550
21714.207775,-592.164754,-9844.739029,2757.943793
21714.208109,2590.720797,-10510.924376,2298.286494
21714.208442,3404.947333,-6587.832884,3983.696590
21714.208775,1184.329507,-10140.821405,3064.381992
21714.209108,8808.450710,-7105.977043,3907.087040
21714.209441,2368.659014,-9548.656652,3677.258390
21714.209775,2664.741391,-6365.771101,-76.609550
21714.210108,-2442.679609,-11251.130318,-5362.668486
21714.210441,-4737.318029,-11917.315666,-6128.763984
21714.210774,-3182.885551,-11547.212695,-3294.210641
21714.211107,-3849.070898,-8734.430116,-3447.429741
21714.211440,-592.164754,-8882.471304,-1302.362347
21714.211774,-74.020594,-9474.636058,2911.162892
21714.212107,5847.626942,-3627.009116,4903.011187
21714.212440,3997.112087,-8290.306550,6052.154434
21714.212773,5847.626942,-9474.636058,2987.772442
21714.213106,296.082377,-10140.821405,3983.696590
21714.213440,1480.411884,-11325.150913,2374.896044
21714.213773,0.000000,-6883.915261,-1072.533697
21714.214106,444.123565,-9918.759623,-2987.772442
21714.214439,814.226536,-10214.842000,-2604.724693
21714.214772,-74.020594,-11843.295072,-76.609550
21714.215106,1480.411884,-5995.668130,-3983.696590
21714.215439,-2072.576638,-12657.521608,0.000000
21714.215772,3182.885551,-8438.347739,2911.162892
21714.216105,962.267725,-9400.615463,4136.915689
21714.216438,740.205942,-8734.430116,5822.325785
21714.216771,-370.102971,-6069.688724,-2068.457845
21714.217105,-2368.659014,-8660.409521,3677.258390
21714.217438,1110.308913,-9178.553681,2681.334243
21714.217771,-2590.720797,-4293.194464,-2221.676944
21714.218104,-2960.823768,-8956.491898,1072.533697
21714.218437,-3627.009116,-9622.677246,-3677.258390
21714.218771,-814.226536,-11251.130318,-1532.190996
21714.219104,-3330.926739,-9548.656652,-2068.457845
21714.219437,-1258.350101,-10955.047942,-76.609550
21714.219770,-1406.391290,-8364.327145,-1838.629195
21714.220103,3849.070898,-10732.986159,4903.011187
21714.220437,6735.874072,-8290.306550,6052.154434
21714.220770,2368.659014,-8364.327145,2757.943793
21714.221103,5107.421000,-10362.883188,4213.525239
21714.221436,-1184.329507,-11325.150913,1225.752797
21714.221769,0.000000,-7920.203579,-1225.752797
21714.222102,-3330.926739,-9992.780217,-3830.477490
21714.222436,-3923.091493,-7624.121203,-5898.935335
21714.222769,-4071.132681,-7179.997637,-3677.258390
21714.223102,-1258.350101,-9178.553681,-2528.115143
21714.223435,-1850.514855,-9474.636058,-2834.553343
21714.223768,-1406.391290,-9696.697840,0.000000
21714.224102,2886.803174,-10066.800811,842.705048
21714.224435,2516.700203,-9696.697840,6281.983084
21714.224768,4663.297435,-7402.059420,6665.030833
21714.225101,4663.297435,-6587.832884,4290.134789
21714.225434,4145.153275,-7920.203579,3064.381992
21714.225768,1480.411884,-8438.347739,2374.896044
21714.226101,-74.020594,-9474.636058,-4979.620737
21714.226434,-1924.535449,-10732.986159,-4903.011187
21714.226767,-4737.318029,-13101.645173,-842.705048
21714.227100,-1258.350101,-10066.800811,-4519.963438
21714.227433,-1480.411884,-7994.224174,-1378.971896
21714.227767,-370.102971,-10510.924376,-383.047749
21714.228100,2886.803174,-7402.059420,2451.505594
21714.228433,1184.329507,-9548.656652,4903.011187
21714.228766,4515.256246,-8142.265362,4366.744339
21714.229099,4293.194464,-8512.368333,4826.401637
21714.229433,3997.112087,-8364.327145,3447.429741
21714.229766,4071.132681,-9474.636058,1762.019645
21714.230099,-1628.453072,-9474.636058,-2834.553343
21714.230432,-4441.235652,-9548.656652,-4903.011187
21714.230765,-1258.350101,-11843.295072,-4366.744339
21714.231099,148.041188,-8956.491898,-4903.011187
21714.231432,2294.638420,-11177.109724,-76.609550
21714.231765,518.144159,-12879.583391,4826.401637
21714.232098,3997.112087,-5625.565159,4290.134789
21714.232431,1554.432478,-9770.718434,4903.011187
21714.232764,1776.494261,-4811.338623,3907.087040
21714.233098,592.164754,-10584.944971,1762.019645
21714.233431,0.000000,-11325.150913,6358.592633
21714.233764,1110.308913,-7698.141797,-1302.362347
21714.234097,-2368.659014,-7772.162391,-2451.505594
21714.234430,-3034.844362,-9178.553681,-2374.896044
21714.234764,-2738.761985,-7105.977043,-5898.935335
21714.235097,-740.205942,-10214.842000,-3524.039291
21714.235430,-1554.432478,-8512.368333,-306.438199
21714.235763,-3034.844362,-10658.965565,-1302.362347
21714.236096,2294.638420,-8882.471304,3600.648841
21714.236430,3552.988522,-10584.944971,7814.174080
21714.236763,6735.874072,-7105.977043,3600.648841
21714.237096,0.000000,-11325.150913,4290.134789
21714.237429,0.000000,-8364.327145,2451.505594
21714.237762,-2220.617826,-10288.862594,-1838.629195
21714.238095,148.041188,-7624.121203,-1149.143247
21714.238429,-3256.906145,-11029.068536,-383.047749
21714.238762,-1332.370696,-6513.812290,-2221.676944
21714.239095,-3849.070898,-8364.327145,-3677.258390
21714.239428,-1850.514855,-8290.306550,-1915.238745
21714.239761,-74.020594,-11843.295072,-76.609550
21714.240095,-2368.659014,-7476.080014,1225.752797
21714.240428,4663.297435,-12879.583391,4826.401637
21714.240761,1184.329507,-9252.574275,5592.497135
21714.241094,5255.462188,-9474.636058,5132.839837
21714.241427,2886.803174,-8142.265362,4060.306139
21714.241761,2368.659014,-9030.512492,229.828649
21714.242094,-1184.329507,-8068.244768,-2145.067394
21714.242427,-666.185348,-11251.130318,-4979.620737
21714.242760,-2294.638420,-8956.491898,-3677.258390
21714.243093,-4145.153275,-9548.656652,306.438199
21714.243426,2294.638420,-8290.306550,-76.609550
21714.243760,-1776.494261,-8364.327145,1225.752797
21714.244093,1406.391290,-7624.121203,0.000000
21714.244426,2368.659014,-10288.862594,3447.429741
21714.244759,3108.864956,-7920.203579,3677.258390
21714.245092,1184.329507,-9548.656652,2757.943793
21714.245426,2738.761985,-11473.192101,2604.724693
21714.245759,2960.823768,-7846.182985,1302.362347
21714.246092,518.144159,-7920.203579,-383.047749
21714.246425,-74.020594,-7994.224174,-3753.867940
21714.246758,-4737.318029,-11325.150913,-3064.381992
21714.247092,-74.020594,-9474.636058,-3140.991542
21714.247425,-74.020594,-7105.977043,-4903.011187
21714.247758,592.164754,-12509.480420,2451.505594
21714.248091,4663.297435,-10658.965565,6665.030833
21714.248424,2368.659014,-7476.080014,5439.278036
21714.248757,1850.514855,-8068.244768,4366.744339
21714.249091,1110.308913,-9326.594869,-689.485948
21714.249424,1480.411884,-9548.656652,612.876398
21714.249757,-2368.659014,-8364.327145,1225.752797
21714.250090,2294.638420,-6513.812290,-2987.772442
21714.250423,-4737.318029,-7772.162391,-4290.134789
21714.250757,-2960.823768,-9104.533087,-2298.286494
