#time,accel_x,accel_y,accel_z
21159.725620,9992.780217,-9474.636058,4826.401637
21159.725953,9030.512492,-8068.244768,2451.505594
21159.726287,8808.450710,-8660.409521,1225.752797
21159.726620,6883.915261,-10362.883188,-1072.533697
21159.726953,4737.318029,-8660.409521,-3370.820191
21159.727287,5551.544565,-8364.327145,-6741.640382
21159.727620,7105.977043,-12287.418637,-1302.362347
21159.727953,7624.121203,-9030.512492,-1608.800546
21159.728287,9104.533087,-6587.832884,0.000000
21159.728620,11843.295072,-7476.080014,4060.306139
21159.728953,12509.480420,-7920.203579,5056.230287
21159.729287,12065.356855,-8364.327145,3370.820191
21159.729620,11991.336260,-8882.471304,2987.772442
21159.729953,10214.842000,-11177.109724,1838.629195
21159.730287,3552.988522,-10288.862594,-1532.190996
21159.730620,3182.885551,-14211.954086,-1915.238745
21159.730953,-74.020594,-11251.130318,-4673.182538
21159.731286,148.041188,-7476.080014,-2298.286494
21159.731620,2960.823768,-6735.874072,0.000000
21159.731953,5403.503377,-6217.729913,2911.162892
21159.732286,9104.533087,-5255.462188,4979.620737
21159.732620,11473.192101,-5107.421000,6281.983084
21159.732953,12953.603985,-7105.977043,3600.648841
21159.733286,11843.295072,-9474.636058,3294.210641
21159.733620,11177.109724,-9474.636058,-2528.115143
21159.733953,9104.533087,-9548.656652,-6128.763984
21159.734286,9030.512492,-12287.418637,-4213.525239
21159.734620,6217.729913,-14211.954086,-6128.763984
21159.734953,5699.585753,-13397.727550,-4366.744339
21159.735286,4959.379811,-12583.501014,-2221.676944
21159.735620,7254.018232,-10362.883188,536.266849
21159.735953,9400.615463,-8290.306550,3600.648841
21159.736286,13767.830521,-6069.688724,8503.660028
21159.736620,14211.954086,-5403.503377,10112.460574
21159.736953,13545.768739,-6513.812290,8350.440928
21159.737286,10066.800811,-8438.347739,4443.353888
21159.737620,8216.285956,-10362.883188,-76.609550
21159.737953,2516.700203,-7179.997637,-7048.078582
21159.738286,2664.741391,-11843.295072,-3294.210641
21159.738620,1702.473667,-10658.965565,-7737.564530
21159.738953,2368.659014,-7179.997637,-4596.572988
21159.739286,8808.450710,-9474.636058,536.266849
21159.739620,10658.965565,-5995.668130,1149.143247
21159.739953,9622.677246,-9252.574275,1378.971896
21159.740286,10881.027347,-8290.306550,-153.219100
21159.740620,11991.336260,-7698.141797,383.047749
21159.740953,11843.295072,-9400.615463,4673.182538
21159.741286,13767.830521,-11621.233289,4826.401637
21159.741620,9400.615463,-11843.295072,612.876398
21159.741953,9474.636058,-9548.656652,2604.724693
21159.742286,11177.109724,-7772.162391,1225.752797
21159.742619,12065.356855,-7698.141797,1915.238745
21159.742953,10584.944971,-7624.121203,459.657299
21159.743286,7550.100608,-7994.224174,-1455.581446
21159.743619,6217.729913,-7920.203579,-3983.696590
21159.743953,4737.318029,-12879.583391,-689.485948
21159.744286,4071.132681,-11547.212695,-5362.668486
21159.744619,814.226536,-11325.150913,-3677.258390
21159.744953,4145.153275,-10658.965565,-76.609550
21159.745286,5921.647536,-8512.368333,3677.258390
21159.745619,10140.821405,-6069.688724,7890.783629
21159.745953,10658.965565,-5107.421000,8350.440928
21159.746286,8438.347739,-5255.462188,5286.058936
21159.746619,6069.688724,-9400.615463,2451.505594
21159.746953,4663.297435,-13027.624579,-1302.362347
21159.747286,0.000000,-8660.409521,-5822.325785
21159.747619,592.164754,-9548.656652,-8580.269578
21159.747953,2368.659014,-12435.459826,-3140.991542
21159.748286,1480.411884,-9548.656652,-3524.039291
21159.748619,4663.297435,-10955.047942,842.705048
21159.748953,4219.173869,-10510.924376,3447.429741
21159.749286,4219.173869,-10658.965565,3294.210641
21159.749619,7698.141797,-7994.224174,7354.516781
21159.749953,9400.615463,-5625.565159,7660.954980
21159.750286,9474.636058,-4367.215058,6128.763984
21159.750619,6217.729913,-6439.791695,1838.629195
21159.750953,4367.215058,-9178.553681,-2528.115143
21159.751286,-74.020594,-11547.212695,-5898.935335
21159.751619,-2960.823768,-11991.336260,-6358.592633
21159.751953,-1258.350101,-13915.871710,-6205.373534
21159.752286,-74.020594,-9104.533087,-6128.763984
21159.752619,4071.132681,-8290.306550,-689.485948
21159.752953,4441.235652,-8660.409521,3370.820191
21159.753286,4737.318029,-10584.944971,5286.058936
21159.753619,3997.112087,-9992.780217,5822.325785
21159.753952,2368.659014,-8364.327145,3983.696590
21159.754286,7031.956449,-4515.256246,2451.505594
21159.754619,7031.956449,-9474.636058,4826.401637
21159.754952,4071.132681,-5551.544565,0.000000
21159.755286,-2368.659014,-9548.656652,-1838.629195
21159.755619,-4441.235652,-11917.315666,-6281.983084
21159.755952,-5921.647536,-13101.645173,-5286.058936
21159.756286,-4219.173869,-12213.398043,-5209.449386
21159.756619,-1184.329507,-8586.388927,-2528.115143
21159.756952,2294.638420,-7105.977043,1149.143247
21159.757286,3182.885551,-6291.750507,2451.505594
21159.757619,4663.297435,-13619.789333,7277.907231
21159.757952,2294.638420,-8808.450710,5975.544884
21159.758286,1776.494261,-7254.018232,6435.202183
21159.758619,4515.256246,-7698.141797,2451.505594
21159.758952,3034.844362,-7698.141797,-383.047749
21159.759286,666.185348,-7179.997637,-2604.724693
21159.759619,-222.061783,-10362.883188,-2834.553343
21159.759952,-1554.432478,-11251.130318,-3753.867940
21159.760286,0.000000,-10732.986159,306.438199
21159.760619,2886.803174,-11251.130318,229.828649
21159.760952,1406.391290,-6291.750507,-2451.505594
21159.761286,1776.494261,-11843.295072,-76.609550
21159.761619,2294.638420,-8882.471304,1149.143247
21159.761952,2738.761985,-9326.594869,4213.525239
21159.762286,1554.432478,-8290.306550,4903.011187
21159.762619,888.247130,-7179.997637,3294.210641
21159.762952,-1480.411884,-6587.832884,-1225.752797
21159.763286,-74.020594,-10658.965565,-76.609550
21159.763619,-74.020594,-9030.512492,-2451.505594
21159.763952,296.082377,-9252.574275,0.000000
21159.764286,1776.494261,-12731.542202,3600.648841
21159.764619,2294.638420,-7105.977043,-76.609550
21159.764952,-1850.514855,-10362.883188,-2068.457845
21159.765285,-1406.391290,-10955.047942,-3447.429741
21159.765619,0.000000,-11473.192101,612.876398
21159.765952,0.000000,-8586.388927,1608.800546
21159.766285,2590.720797,-8882.471304,4826.401637
21159.766619,-1998.556043,-8364.327145,1378.971896
21159.766952,-2368.659014,-6735.874072,-2145.067394
21159.767285,-3627.009116,-9474.636058,-1762.019645
21159.767619,-2516.700203,-9548.656652,-1991.848295
21159.767952,-1184.329507,-8068.244768,1915.238745
21159.768285,1110.308913,-8290.306550,1149.143247
21159.768619,1776.494261,-6883.915261,4519.963438
21159.768952,1702.473667,-7624.121203,-995.924147
21159.769285,-74.020594,-14211.954086,-1302.362347
21159.769619,-2960.823768,-9918.759623,-2221.676944
21159.769952,-3182.885551,-12731.542202,-2834.553343
21159.770285,0.000000,-8216.285956,1378.971896
21159.770619,0.000000,-7179.997637,1225.752797
21159.770952,-592.164754,-8882.471304,2374.896044
21159.771285,-1776.494261,-7476.080014,2451.505594
21159.771619,-4145.153275,-7179.997637,1225.752797
21159.771952,1702.473667,-7698.141797,2681.334243
21159.772285,1628.453072,-7179.997637,2451.505594
21159.772619,3478.967927,-7698.141797,2298.286494
21159.772952,1480.411884,-6365.771101,-383.047749
21159.773285,2516.700203,-11621.233289,-1302.362347
21159.773619,2146.597232,-11399.171507,-76.609550
21159.773952,2294.638420,-15248.242405,-76.609550
21159.774285,-74.020594,-9252.574275,-3064.381992
21159.774619,-2960.823768,-9844.739029,-1838.629195
21159.774952,-74.020594,-9474.636058,-3753.867940
21159.775285,-1776.494261,-9548.656652,3370.820191
21159.775619,1406.391290,-6809.894666,1378.971896
21159.775952,2294.638420,-7994.224174,3294.210641
21159.776285,2072.576638,-8068.244768,4366.744339
21159.776618,3108.864956,-5329.482782,1762.019645
21159.776952,4663.297435,-9326.594869,1149.143247
21159.777285,2294.638420,-9696.697840,-3677.258390
21159.777618,0.000000,-10732.986159,0.000000
21159.777952,4145.153275,-10658.965565,2374.896044
21159.778285,2886.803174,-11695.253884,1149.143247
21159.778618,592.164754,-7772.162391,-1685.410096
21159.778952,-1998.556043,-11177.109724,-3677.258390
21159.779285,-3256.906145,-11917.315666,-1685.410096
21159.779618,-2960.823768,-8364.327145,0.000000
21159.779952,1110.308913,-5699.585753,1225.752797
21159.780285,888.247130,-6735.874072,4903.011187
21159.780618,3478.967927,-6809.894666,1762.019645
21159.780952,592.164754,-6291.750507,3370.820191
21159.781285,2294.638420,-9474.636058,2374.896044
21159.781618,592.164754,-7476.080014,1762.019645
21159.781952,2294.638420,-9400.615463,229.828649
21159.782285,1110.308913,-11473.192101,-842.705048
21159.782618,-2960.823768,-8364.327145,-4903.011187
21159.782952,-3108.864956,-13101.645173,-4903.011187
21159.783285,-1702.473667,-13323.706956,-1302.362347
21159.783618,-888.247130,-9844.739029,0.000000
21159.783952,518.144159,-9474.636058,2911.162892
21159.784285,0.000000,-5403.503377,2604.724693
21159.784618,1702.473667,-8882.471304,-76.609550
21159.784952,1110.308913,-7772.162391,4903.011187
21159.785285,1110.308913,-9178.553681,7277.907231
21159.785618,1702.473667,-7994.224174,3294.210641
21159.785952,0.000000,-8142.265362,2681.334243
21159.786285,-1406.391290,-7550.100608,-1838.629195
21159.786618,-3256.906145,-9252.574275,-5286.058936
21159.786952,-4219.173869,-13545.768739,-5132.839837
21159.787285,-4737.318029,-11917.315666,-4290.134789
21159.787618,-3034.844362,-9622.677246,-3677.258390
21159.787951,-666.185348,-7772.162391,0.000000
21159.788285,-74.020594,-8882.471304,1762.019645
21159.788618,1110.308913,-7105.977043,229.828649
21159.788951,4589.276840,-10066.800811,7277.907231
21159.789285,2960.823768,-8364.327145,5975.544884
21159.789618,4811.338623,-6365.771101,5132.839837
21159.789951,4885.359217,-7328.038826,4903.011187
21159.790285,3478.967927,-8882.471304,-76.609550
21159.790618,1110.308913,-7179.997637,-6741.640382
21159.790951,-888.247130,-15470.304188,-6128.763984
21159.791285,-1776.494261,-15692.365970,-2528.115143
21159.791618,-3552.988522,-10140.821405,-3370.820191
21159.791951,-370.102971,-11103.089130,383.047749
21159.792285,-1850.514855,-6587.832884,-459.657299
21159.792618,444.123565,-6217.729913,1378.971896
21159.792952,2072.576638,-8438.347739,5745.716235
21159.793285,1998.556043,-3849.070898,4826.401637
21159.793618,0.000000,-5403.503377,4903.011187
21159.793952,4663.297435,-7105.977043,4826.401637
21159.794285,814.226536,-7105.977043,-689.485948
21159.794619,-2960.823768,-5995.668130,-4903.011187
21159.794952,-1554.432478,-10955.047942,-5286.058936
21159.795285,-2146.597232,-11251.130318,-5286.058936
21159.795619,-1850.514855,-12139.377449,-2681.334243
21159.795952,-2072.576638,-12213.398043,-2911.162892
21159.796286,-1258.350101,-9474.636058,-2834.553343
21159.796619,0.000000,-12065.356855,1378.971896
21159.796952,4219.173869,-9696.697840,6358.592633
21159.797286,2368.659014,-6217.729913,6205.373534
21159.797619,4145.153275,-8956.491898,8503.660028
21159.797953,7031.956449,-4737.318029,5745.716235
21159.798286,592.164754,-4811.338623,2757.943793
21159.798619,3182.885551,-11251.130318,-76.609550
21159.798953,-6365.771101,-10732.986159,-6128.763984
21159.799286,-7105.977043,-10140.821405,-8580.269578
21159.799620,-3034.844362,-10658.965565,-5286.058936
21159.799953,-2368.659014,-11399.171507,-3064.381992
21159.800286,-3034.844362,-9918.759623,-3294.210641
21159.800620,-74.020594,-13619.789333,-76.609550
21159.800953,1332.370696,-13027.624579,4826.401637
21159.801287,1258.350101,-5551.544565,6128.763984
21159.801620,6735.874072,-7994.224174,11951.089769
21159.801953,7624.121203,-5921.647536,8197.221829
21159.802287,5255.462188,-4737.318029,3447.429741
21159.802620,2812.782580,-7994.224174,0.000000
21159.802954,-1332.370696,-11029.068536,-1762.019645
21159.803287,-2664.741391,-9696.697840,-4826.401637
21159.803620,-4737.318029,-9548.656652,-4903.011187
21159.803954,-2738.761985,-12435.459826,-6205.373534
21159.804287,-7105.977043,-9548.656652,-3064.381992
21159.804621,-1850.514855,-13323.706956,-76.609550
21159.804954,814.226536,-10658.965565,3600.648841
21159.805287,1702.473667,-4589.276840,5669.106685
21159.805621,4219.173869,-7179.997637,7048.078582
21159.805954,4589.276840,-6217.729913,5975.544884
21159.806288,1776.494261,-6291.750507,1072.533697
21159.806621,1480.411884,-9548.656652,0.000000
21159.806954,-666.185348,-9474.636058,-4290.134789
21159.807288,148.041188,-11547.212695,-459.657299
21159.807621,-74.020594,-11843.295072,-2221.676944
21159.807955,-2960.823768,-8660.409521,-3677.258390
21159.808288,-2368.659014,-10732.986159,-3677.258390
21159.808622,-1036.288319,-14656.077652,995.924147
21159.808955,1184.329507,-8956.491898,2221.676944
21159.809288,3701.029710,-7698.141797,5745.716235
21159.809622,6439.791695,-8290.306550,7277.907231
21159.809955,2368.659014,-4219.173869,5209.449386
21159.810289,3478.967927,-8290.306550,1149.143247
21159.810622,444.123565,-7179.997637,-3370.820191
21159.810955,-4145.153275,-9844.739029,-1608.800546
21159.811289,222.061783,-9104.533087,-2604.724693
21159.811622,-1776.494261,-9918.759623,-2298.286494
21159.811956,-4293.194464,-9548.656652,-4903.011187
21159.812289,-3478.967927,-10066.800811,-3753.867940
21159.812622,-1998.556043,-14211.954086,-76.609550
21159.812956,2368.659014,-8068.244768,4290.134789
21159.813289,3478.967927,-8882.471304,6971.469032
21159.813623,5033.400406,-7105.977043,6588.421283
21159.813956,2960.823768,-7179.997637,4213.525239
21159.814289,2294.638420,-9474.636058,2374.896044
21159.814623,444.123565,-7624.121203,766.095498
21159.814956,-4145.153275,-9548.656652,-76.609550
21159.815290,-370.102971,-7846.182985,-4443.353888
21159.815623,-3404.947333,-8956.491898,-3983.696590
21159.815956,-1776.494261,-10807.006753,-3753.867940
21159.816290,-4145.153275,-13101.645173,-2911.162892
21159.816623,-2220.617826,-13397.727550,1915.238745
21159.816957,-740.205942,-8882.471304,3294.210641
21159.817290,1110.308913,-7105.977043,5745.716235
21159.817623,0.000000,-4811.338623,4903.011187
21159.817957,1998.556043,-6217.729913,1762.019645
21159.818290,1110.308913,-5403.503377,0.000000
21159.818624,1184.329507,-8734.430116,995.924147
21159.818957,1702.473667,-9178.553681,-1608.800546
21159.819290,-444.123565,-9326.594869,-1302.362347
21159.819624,-2812.782580,-10510.924376,-4979.620737
21159.819957,-2368.659014,-9770.718434,-6588.421283
21159.820291,-2960.823768,-13397.727550,-3677.258390
21159.820624,-2368.659014,-9548.656652,2451.505594
21159.820957,4367.215058,-11251.130318,5439.278036
21159.821291,7031.956449,-9474.636058,7277.907231
21159.821624,4737.318029,-5403.503377,5822.325785
21159.821958,4959.379811,-5403.503377,3677.258390
21159.822291,2442.679609,-9474.636058,3064.381992
21159.822624,-1036.288319,-8660.409521,-919.314598
21159.822958,-1702.473667,-7105.977043,-2681.334243
21159.823291,-1776.494261,-10214.842000,-2145.067394
21159.823625,-3552.988522,-9104.533087,-1608.800546
21159.823958,-3034.844362,-9178.553681,-7584.345430
21159.824292,-5773.606348,-12509.480420,-2911.162892
21159.824625,-1036.288319,-11695.253884,2068.457845
21159.824958,0.000000,-9548.656652,5362.668486
21159.825292,4367.215058,-7846.182985,6358.592633
21159.825625,5551.544565,-5921.647536,4519.963438
21159.825959,6439.791695,-9252.574275,4903.011187
21159.826292,5847.626942,-8290.306550,4826.401637
21159.826625,3182.885551,-11251.130318,-76.609550
21159.826959,-2368.659014,-6587.832884,-4749.792088
21159.827292,-4441.235652,-10732.986159,-4290.134789
21159.827626,-2442.679609,-9474.636058,-5515.887586
21159.827959,-2368.659014,-9844.739029,-2604.724693
21159.828292,-3849.070898,-12065.356855,-2757.943793
21159.828626,74.020594,-8956.491898,1149.143247
21159.828959,2072.576638,-7920.203579,4366.744339
21159.829293,5551.544565,-8290.306550,7277.907231
21159.829626,3478.967927,-7105.977043,2374.896044
21159.829959,3775.050304,-8512.368333,1762.019645
21159.830293,2812.782580,-11399.171507,3600.648841
21159.830626,2368.659014,-7994.224174,229.828649
21159.830960,2294.638420,-10955.047942,-76.609550
21159.831293,-148.041188,-12731.542202,-76.609550
21159.831626,-2442.679609,-6957.935855,-6741.640382
21159.831960,-4145.153275,-9548.656652,-5515.887586
21159.832293,-4737.318029,-11325.150913,-1532.190996
21159.832627,-1924.535449,-7550.100608,0.000000
21159.832960,2812.782580,-8216.285956,6281.983084
21159.833293,3627.009116,-7698.141797,7048.078582
21159.833627,2072.576638,-4737.318029,3217.601092
21159.833960,0.000000,-7179.997637,919.314598
21159.834294,-74.020594,-11251.130318,-76.609550
21159.834627,-2072.576638,-5403.503377,-2451.505594
21159.834960,-666.185348,-11251.130318,-689.485948
21159.835294,-370.102971,-11843.295072,-2068.457845
21159.835627,-5329.482782,-8660.409521,-5515.887586
21159.835961,-3849.070898,-12139.377449,-5209.449386
21159.836294,-2590.720797,-11177.109724,-1455.581446
21159.836627,-814.226536,-9252.574275,1532.190996
21159.836961,3552.988522,-8364.327145,7354.516781
21159.837294,7031.956449,-5921.647536,5439.278036
21159.837628,2368.659014,-4811.338623,0.000000
21159.837961,5995.668130,-11843.295072,4826.401637
21159.838294,1702.473667,-8734.430116,229.828649
21159.838628,2072.576638,-9474.636058,-76.609550
21159.838961,740.205942,-9548.656652,-1685.410096
21159.839295,-2220.617826,-9992.780217,-4903.011187
21159.839628,-2738.761985,-9030.512492,-6818.249932
21159.839962,-666.185348,-15396.283594,-2528.115143
21159.840295,-1850.514855,-10362.883188,-4903.011187
21159.840628,-1480.411884,-9548.656652,2451.505594
21159.840962,4663.297435,-11547.212695,8503.660028
21159.841295,2886.803174,-4589.276840,3677.258390
21159.841629,3256.906145,-7105.977043,2987.772442
21159.841962,3849.070898,-8956.491898,5209.449386
21159.842295,3182.885551,-7105.977043,3830.477490
21159.842629,4737.318029,-8142.265362,2068.457845
21159.842962,2294.638420,-12361.439231,2987.772442
21159.843296,-2368.659014,-7328.038826,-5515.887586
21159.843629,-4885.359217,-11547.212695,-7277.907231
21159.843962,-2738.761985,-11621.233289,-4673.182538
21159.844296,-4737.318029,-10140.821405,-3370.820191
21159.844629,-1776.494261,-9104.533087,1915.238745
21159.844963,3478.967927,-9326.594869,4826.401637
21159.845296,1702.473667,-5699.585753,2451.505594
21159.845629,2960.823768,-5403.503377,4596.572988
21159.845963,3478.967927,-9474.636058,5439.278036
21159.846296,1332.370696,-7254.018232,3600.648841
21159.846630,2368.659014,-6587.832884,2145.067394
21159.846963,-518.144159,-9178.553681,-2451.505594
21159.847296,-2072.576638,-8882.471304,-5822.325785
21159.847630,-4737.318029,-11917.315666,-4673.182538
21159.847963,-3627.009116,-12287.418637,-7967.393179
21159.848297,-5255.462188,-10732.986159,-5975.544884
21159.848630,-1184.329507,-10140.821405,306.438199
21159.848963,2368.659014,-8956.491898,4903.011187
21159.849297,3627.009116,-6069.688724,4903.011187
21159.849630,5033.400406,-7179.997637,4903.011187
21159.849964,4811.338623,-9844.739029,7124.688131
21159.850297,5255.462188,-8290.306550,5439.278036
21159.850630,2368.659014,-6661.853478,4519.963438
21159.850964,-74.020594,-7179.997637,-4596.572988
21159.851297,-2368.659014,-9474.636058,-5898.935335
21159.851631,-3627.009116,-14211.954086,-6205.373534
21159.851964,-3627.009116,-13323.706956,-3753.867940
21159.852297,-4959.379811,-9622.677246,-4903.011187
21159.852631,-2516.700203,-11621.233289,-536.266849
21159.852964,222.061783,-8808.450710,3370.820191
21159.853298,296.082377,-3627.009116,2145.067394
21159.853631,5551.544565,-9474.636058,6052.154434
21159.853964,4737.318029,-7772.162391,7354.516781
21159.854298,4737.318029,-8808.450710,7277.907231
21159.854631,3775.050304,-5403.503377,3064.381992
21159.854965,296.082377,-7031.956449,-1838.629195
21159.855298,-2812.782580,-9918.759623,-6818.249932
21159.855632,-4293.194464,-12657.521608,-7277.907231
21159.855965,-5255.462188,-13323.706956,-6741.640382
21159.856298,-3997.112087,-11769.274478,-1685.410096
21159.856632,-74.020594,-8734.430116,-1225.752797
21159.856965,1184.329507,-7920.203579,5745.716235
21159.857299,4663.297435,-8882.471304,4826.401637
21159.857632,3034.844362,-7476.080014,4290.134789
21159.857965,2960.823768,-6365.771101,5592.497135
21159.858299,4441.235652,-7031.956449,3524.039291
21159.858632,4219.173869,-9104.533087,3907.087040
21159.858966,-1110.308913,-9252.574275,-2451.505594
21159.859299,-2664.741391,-9622.677246,-6435.202183
21159.859632,-2442.679609,-11843.295072,-6205.373534
21159.859966,-2294.638420,-11029.068536,-5209.449386
21159.860299,-1628.453072,-10362.883188,-1378.971896
21159.860633,-518.144159,-9918.759623,766.095498
21159.860966,0.000000,-7476.080014,2451.505594
21159.861299,3182.885551,-7698.141797,2681.334243
21159.861633,4071.132681,-8734.430116,3524.039291
21159.861966,3552.988522,-8808.450710,7277.907231
21159.862300,4071.132681,-7105.977043,3600.648841
21159.862633,1776.494261,-6291.750507,2451.505594
21159.862966,814.226536,-7550.100608,-2451.505594
21159.863300,-1702.473667,-11547.212695,-4673.182538
21159.863633,-3775.050304,-14137.933492,-4519.963438
21159.863967,-2516.700203,-11769.274478,-3753.867940
21159.864300,-1258.350101,-9474.636058,-3983.696590
21159.864633,148.041188,-9548.656652,0.000000
21159.864967,0.000000,-8364.327145,3600.648841
21159.865300,2146.597232,-8808.450710,2681.334243
21159.865634,1924.535449,-9474.636058,6052.154434
21159.865967,1702.473667,-8216.285956,4290.134789
21159.866300,1184.329507,-7920.203579,4749.792088
21159.866634,74.020594,-6587.832884,689.485948
21159.866967,-2442.679609,-8290.306550,-4366.744339
21159.867301,-2442.679609,-7846.182985,-7354.516781
21159.867634,-2960.823768,-12583.501014,-1455.581446
21159.867967,-1480.411884,-10584.944971,-1302.362347
21159.868301,-962.267725,-11251.130318,-2451.505594
21159.868634,-74.020594,-10658.965565,-1762.019645
21159.868968,1036.288319,-8290.306550,-153.219100
21159.869301,2886.803174,-10881.027347,2374.896044
21159.869634,3330.926739,-11473.192101,5056.230287
21159.869968,4145.153275,-5995.668130,6741.640382
21159.870301,3552.988522,-6291.750507,5515.887586
21159.870635,5847.626942,-7105.977043,1762.019645
21159.870968,-2368.659014,-7476.080014,-2451.505594
21159.871302,-3552.988522,-9548.656652,-3370.820191
21159.871635,-3627.009116,-13619.789333,-4979.620737
21159.871968,-3849.070898,-8142.265362,-4213.525239
21159.872302,-3701.029710,-10732.986159,-919.314598
21159.872635,-444.123565,-6587.832884,-689.485948
21159.872969,0.000000,-7179.997637,0.000000
21159.873302,1628.453072,-9104.533087,3294.210641
21159.873635,4145.153275,-8142.265362,4443.353888
21159.873969,2886.803174,-8364.327145,4443.353888
21159.874302,7476.080014,-8882.471304,7277.907231
21159.874636,3478.967927,-9474.636058,2374.896044
21159.874969,1702.473667,-8734.430116,-4290.134789
21159.875302,-1480.411884,-13175.665768,-919.314598
21159.875636,-2442.679609,-12435.459826,-4519.963438
21159.875969,-74.020594,-8734.430116,-1378.971896
21159.876303,-1480.411884,-9770.718434,-1302.362347
21159.876636,1406.391290,-8290.306550,-1991.848295
21159.876969,888.247130,-9474.636058,1762.019645
21159.877303,3108.864956,-9326.594869,3064.381992
21159.877636,5921.647536,-7920.203579,7354.516781
21159.877970,2368.659014,-7179.997637,7967.393179
21159.878303,7624.121203,-8882.471304,3294.210641
21159.878636,1776.494261,-5403.503377,-1225.752797
21159.878970,-1406.391290,-10807.006753,-5592.497135
21159.879303,-1406.391290,-13027.624579,-5286.058936
21159.879637,-4959.379811,-12879.583391,-3983.696590
21159.879970,-1850.514855,-8956.491898,-2451.505594
21159.880303,-1628.453072,-8956.491898,0.000000
21159.880637,-74.020594,-8290.306550,-76.609550
21159.880970,296.082377,-9474.636058,5439.278036
21159.881304,4663.297435,-8290.306550,4519.963438
21159.881637,0.000000,-9548.656652,5515.887586
21159.881970,2368.659014,-7179.997637,5209.449386
21159.882304,1998.556043,-6439.791695,2451.505594
21159.882637,-1258.350101,-9326.594869,-1455.581446
21159.882971,-2294.638420,-10288.862594,-4290.134789
21159.883304,-5403.503377,-13915.871710,-5056.230287
21159.883637,-3552.988522,-7772.162391,-4443.353888
21159.883971,-1702.473667,-11843.295072,2068.457845
21159.884304,-2442.679609,-9474.636058,-76.609550
21159.884638,-4737.318029,-5995.668130,-2145.067394
21159.884971,-74.020594,-9474.636058,2374.896044
21159.885304,0.000000,-7920.203579,4596.572988
21159.885638,2072.576638,-7179.997637,4903.011187
21159.885971,2590.720797,-7328.038826,4903.011187
21159.886305,1110.308913,-6883.915261,1915.238745
21159.886638,0.000000,-6291.750507,-612.876398
21159.886972,-74.020594,-13027.624579,-3753.867940
21159.887305,-3552.988522,-11917.315666,-3370.820191
21159.887638,-6513.812290,-8364.327145,-2451.505594
21159.887972,3478.967927,-11843.295072,-76.609550
21159.888305,0.000000,-8956.491898,766.095498
21159.888639,0.000000,-8068.244768,-306.438199
21159.888972,2886.803174,-9252.574275,2145.067394
21159.889305,3552.988522,-8586.388927,3753.867940
21159.889639,3849.070898,-7179.997637,6128.763984
21159.889972,3478.967927,-9252.574275,4903.011187
21159.890306,962.267725,-8216.285956,1455.581446
21159.890639,-592.164754,-7476.080014,-2298.286494
21159.890972,-666.185348,-11251.130318,-2834.553343
21159.891306,-3552.988522,-7476.080014,-2298.286494
21159.891639,-1554.432478,-11695.253884,-1302.362347
21159.891973,-74.020594,-8808.450710,-2911.162892
21159.892306,-2368.659014,-10584.944971,-1378.971896
21159.892639,-74.020594,-7994.224174,-995.924147
21159.892972,1924.535449,-9918.759623,1991.848295
21159.893305,666.185348,-8364.327145,3064.381992
21159.893639,3478.967927,-7698.141797,2374.896044
21159.893972,2960.823768,-7772.162391,2451.505594
21159.894305,0.000000,-9548.656652,2451.505594
21159.894638,3478.967927,-10362.883188,0.000000
21159.894971,0.000000,-10732.986159,0.000000
21159.895304,-2812.782580,-10288.862594,-1915.238745
21159.895637,-3404.947333,-9178.553681,-1302.362347
21159.895970,-3256.906145,-8142.265362,-1302.362347
21159.896304,-4145.153275,-7179.997637,-2451.505594
21159.896637,-2738.761985,-7550.100608,-3064.381992
21159.896970,592.164754,-12139.377449,2911.162892
21159.897303,-2368.659014,-6587.832884,4290.134789
21159.897636,1480.411884,-5403.503377,1225.752797
21159.897969,2664.741391,-10955.047942,4826.401637
21159.898302,3478.967927,-5403.503377,-689.485948
21159.898635,0.000000,-10732.986159,0.000000
21159.898969,74.020594,-12583.501014,-76.609550
21159.899302,-2368.659014,-8364.327145,-1915.238745
21159.899635,-1184.329507,-8808.450710,-612.876398
21159.899968,2294.638420,-9474.636058,-689.485948
21159.900301,-4737.318029,-9548.656652,-1685.410096
21159.900634,-370.102971,-10658.965565,-3753.867940
21159.900967,0.000000,-9548.656652,2604.724693
21159.901301,7031.956449,-5921.647536,7277.907231
21159.901634,7476.080014,-3034.844362,6281.983084
21159.901967,7105.977043,-7179.997637,6894.859482
21159.902300,6143.709319,-6809.894666,-689.485948
21159.902633,1702.473667,-13323.706956,-1608.800546
21159.902966,1110.308913,-14211.954086,-1608.800546
21159.903299,-4515.256246,-7772.162391,-6128.763984
21159.903632,-74.020594,-11843.295072,-3753.867940
21159.903966,0.000000,-7772.162391,-3677.258390
21159.904299,0.000000,-10288.862594,1149.143247
21159.904632,444.123565,-9696.697840,919.314598
21159.904965,2072.576638,-8068.244768,4749.792088
21159.905298,3404.947333,-6809.894666,4366.744339
21159.905631,4885.359217,-6143.709319,5515.887586
21159.905964,2590.720797,-9474.636058,3600.648841
21159.906298,444.123565,-7179.997637,-2757.943793
21159.906631,-74.020594,-10362.883188,-1762.019645
21159.906964,-1036.288319,-14730.098246,-536.266849
21159.907297,-888.247130,-7179.997637,0.000000
21159.907630,-666.185348,-12731.542202,1762.019645
21159.907963,-4145.153275,-7772.162391,-3677.258390
21159.908296,-8290.306550,-7772.162391,-2757.943793
21159.908629,-2738.761985,-11843.295072,-2528.115143
21159.908963,-1628.453072,-7179.997637,1838.629195
21159.909296,1110.308913,-8364.327145,5515.887586
21159.909629,962.267725,-5995.668130,4290.134789
21159.909962,370.102971,-7476.080014,2987.772442
21159.910295,740.205942,-6661.853478,612.876398
21159.910628,-666.185348,-10955.047942,1149.143247
21159.910961,-2368.659014,-9548.656652,0.000000
21159.911295,-666.185348,-10658.965565,-76.609550
21159.911628,-2442.679609,-10066.800811,-2681.334243
21159.911961,-4737.318029,-9252.574275,-1838.629195
21159.912294,-2442.679609,-8882.471304,-3753.867940
21159.912627,-888.247130,-9548.656652,0.000000
21159.912960,740.205942,-8660.409521,3064.381992
21159.913293,2516.700203,-7846.182985,4979.620737
21159.913626,0.000000,-7772.162391,3064.381992
21159.913960,-3552.988522,-4811.338623,1838.629195
21159.914293,1702.473667,-8882.471304,-1302.362347
21159.914626,-2812.782580,-9548.656652,0.000000
21159.914959,-592.164754,-7105.977043,-76.609550
21159.915292,-2442.679609,-9548.656652,-3524.039291
21159.915625,-74.020594,-10066.800811,-459.657299
21159.915958,-962.267725,-9030.512492,-2068.457845
21159.916292,-518.144159,-10288.862594,-2911.162892
21159.916625,1776.494261,-9918.759623,-612.876398
21159.916958,-148.041188,-13619.789333,2374.896044
21159.917291,5847.626942,-5181.441594,1225.752797
21159.917624,4145.153275,-9400.615463,4519.963438
21159.917957,5847.626942,-10510.924376,3294.210641
21159.918290,5107.421000,-8364.327145,3064.381992
21159.918623,2590.720797,-9918.759623,1991.848295
21159.918957,296.082377,-9696.697840,-229.828649
21159.919290,-1258.350101,-9474.636058,-1762.019645
21159.919623,-370.102971,-10288.862594,-1225.752797
21159.919956,444.123565,-6957.935855,-1685.410096
21159.920289,-296.082377,-10362.883188,-1532.190996
21159.920622,0.000000,-7772.162391,-612.876398
21159.920955,1776.494261,-8882.471304,1455.581446
21159.921288,2960.823768,-6291.750507,1149.143247
21159.921622,2368.659014,-7772.162391,3064.381992
21159.921955,4663.297435,-9474.636058,-76.609550
21159.922288,3478.967927,-11547.212695,76.609550
21159.922621,1702.473667,-8586.388927,-76.609550
21159.922954,2886.803174,-9474.636058,842.705048
21159.923287,3775.050304,-7994.224174,1455.581446
21159.923620,1406.391290,-10584.944971,0.000000
21159.923954,-1776.494261,-8808.450710,-3217.601092
21159.924287,-74.020594,-11251.130318,-1915.238745
21159.924620,2664.741391,-11325.150913,2987.772442
21159.924953,4663.297435,-7328.038826,2451.505594
21159.925286,4737.318029,-9548.656652,4903.011187
21159.925619,2368.659014,-4811.338623,1378.971896
21159.925952,1110.308913,-9548.656652,-1225.752797
21159.926285,2664.741391,-9918.759623,1149.143247
21159.926619,888.247130,-11695.253884,1455.581446
21159.926952,0.000000,-9400.615463,1685.410096
21159.927285,-1184.329507,-7476.080014,-1302.362347
21159.927618,-1850.514855,-10658.965565,-689.485948
21159.927951,-2442.679609,-6883.915261,-4136.915689
21159.928284,-3552.988522,-9992.780217,1072.533697
21159.928617,-518.144159,-9178.553681,-76.609550
21159.928951,-2368.659014,-7772.162391,3064.381992
21159.929284,1924.535449,-6587.832884,4213.525239
21159.929617,-1554.432478,-7920.203579,1302.362347
21159.929950,-2072.576638,-9326.594869,-842.705048
21159.930283,-3552.988522,-11325.150913,0.000000
21159.930616,-666.185348,-10658.965565,-1302.362347
21159.930949,0.000000,-9548.656652,-2451.505594
21159.931282,-3552.988522,-13397.727550,4060.306139
21159.931616,-2738.761985,-6513.812290,-3140.991542
21159.931949,-3849.070898,-10214.842000,1302.362347
21159.932282,-3775.050304,-6291.750507,-1685.410096
21159.932615,-2368.659014,-8734.430116,0.000000
21159.932948,-2738.761985,-7920.203579,1608.800546
21159.933281,3182.885551,-8290.306550,2987.772442
21159.933614,-74.020594,-5403.503377,-2451.505594
21159.933948,296.082377,-8956.491898,1149.143247
21159.934281,2294.638420,-14211.954086,-76.609550
21159.934614,-1702.473667,-9548.656652,-1991.848295
21159.934947,3701.029710,-9104.533087,1378.971896
21159.935280,814.226536,-10436.903782,0.000000
21159.935613,2368.659014,-8142.265362,-536.266849
21159.935946,1332.370696,-10214.842000,459.657299
21159.936279,3182.885551,-11547.212695,1149.143247
21159.936613,2960.823768,-6661.853478,1838.629195
21159.936946,3182.885551,-8956.491898,2681.334243
21159.937279,2590.720797,-8956.491898,4366.744339
21159.937612,0.000000,-5995.668130,0.000000
21159.937945,4219.173869,-11843.295072,1762.019645
21159.938278,1406.391290,-8956.491898,842.705048
21159.938611,0.000000,-8364.327145,766.095498
21159.938945,3478.967927,-10362.883188,536.266849
21159.939278,-1184.329507,-9548.656652,-3064.381992
21159.939611,370.102971,-8586.388927,-1838.629195
21159.939944,-1110.308913,-10288.862594,-2145.067394
21159.940277,222.061783,-11843.295072,-1225.752797
21159.940610,1110.308913,-8734.430116,-76.609550
21159.940943,2664.741391,-11843.295072,4826.401637
21159.941276,2886.803174,-3627.009116,612.876398
21159.941610,1924.535449,-10362.883188,3907.087040
21159.941943,4663.297435,-11695.253884,1149.143247
21159.942276,1184.329507,-9030.512492,2757.943793
21159.942609,1110.308913,-10807.006753,766.095498
21159.942942,1776.494261,-8734.430116,2068.457845
21159.943275,-2146.597232,-10436.903782,-76.609550
21159.943608,-2516.700203,-6809.894666,-2987.772442
21159.943941,-3997.112087,-12435.459826,-1302.362347
21159.944275,-7105.977043,-8364.327145,0.000000
21159.944608,-2590.720797,-7698.141797,-76.609550
21159.944941,-1258.350101,-9474.636058,2374.896044
21159.945274,222.061783,-4737.318029,2451.505594
21159.945607,0.000000,-5181.441594,612.876398
21159.945940,740.205942,-11547.212695,1915.238745
21159.946273,1332.370696,-8068.244768,2221.676944
21159.946607,1184.329507,-7476.080014,2451.505594
21159.946940,2294.638420,-10362.883188,0.000000
21159.947273,-1036.288319,-10658.965565,-4903.011187
21159.947606,-1998.556043,-15396.283594,-2528.115143
21159.947939,-370.102971,-10214.842000,-2374.896044
21159.948272,0.000000,-9548.656652,0.000000
21159.948605,3701.029710,-8586.388927,5132.839837
21159.948938,2960.823768,-7254.018232,3983.696590
21159.949272,3330.926739,-5625.565159,2221.676944
21159.949605,4663.297435,-8882.471304,1149.143247
21159.949938,0.000000,-10140.821405,612.876398
21159.950271,3923.091493,-9474.636058,1762.019645
21159.950604,-370.102971,-8882.471304,-1302.362347
21159.950937,0.000000,-9548.656652,76.609550
21159.951270,-3552.988522,-10732.986159,-2451.505594
21159.951604,-2368.659014,-10140.821405,-3370.820191
21159.951937,-1702.473667,-10362.883188,-995.924147
21159.952270,-1184.329507,-9030.512492,-383.047749
21159.952603,4663.297435,-7105.977043,2374.896044
21159.952936,0.000000,-8364.327145,3677.258390
21159.953269,3627.009116,-6735.874072,766.095498
21159.953602,-370.102971,-10807.006753,153.219100
21159.953935,1554.432478,-11843.295072,306.438199
21159.954269,4663.297435,-10362.883188,2374.896044
21159.954602,1036.288319,-8364.327145,1225.752797
21159.954935,2960.823768,-10436.903782,4826.401637
21159.955268,-2442.679609,-9178.553681,-3907.087040
21159.955601,-1480.411884,-11029.068536,-536.266849
21159.955934,-2960.823768,-11473.192101,995.924147
21159.956267,1332.370696,-7254.018232,766.095498
21159.956601,-666.185348,-7254.018232,1532.190996
21159.956934,592.164754,-8068.244768,1149.143247
21159.957267,2294.638420,-6809.894666,-76.609550
21159.957600,-1702.473667,-9844.739029,306.438199
21159.957933,1702.473667,-11251.130318,-76.609550
21159.958266,-74.020594,-8586.388927,0.000000
21159.958599,0.000000,-10288.862594,3140.991542
21159.958932,2294.638420,-9474.636058,-76.609550
21159.959266,-1554.432478,-9474.636058,-1991.848295
21159.959599,74.020594,-11177.109724,-689.485948
21159.959932,-814.226536,-11769.274478,1378.971896
21159.960265,0.000000,-4811.338623,153.219100
21159.960598,-4737.318029,-7179.997637,2451.505594
21159.960931,-74.020594,-8586.388927,842.705048
21159.961264,-666.185348,-5921.647536,-1608.800546
21159.961598,-2072.576638,-9844.739029,1532.190996
21159.961931,-1258.350101,-6365.771101,-919.314598
21159.962264,-962.267725,-9030.512492,766.095498
21159.962597,2220.617826,-9326.594869,3217.601092
21159.962930,0.000000,-8660.409521,0.000000
21159.963263,-2960.823768,-10214.842000,-2145.067394
21159.963596,-962.267725,-13027.624579,-76.609550
21159.963929,-1258.350101,-10362.883188,-3217.601092
21159.964263,-1776.494261,-8068.244768,1378.971896
21159.964596,296.082377,-8808.450710,2987.772442
21159.964929,-666.185348,-5551.544565,-3677.258390
21159.965262,2220.617826,-9474.636058,842.705048
21159.965595,1776.494261,-11177.109724,2834.553343
21159.965928,1480.411884,-7920.203579,1608.800546
21159.966261,3552.988522,-9030.512492,4903.011187
21159.966594,888.247130,-9474.636058,2374.896044
21159.966928,2072.576638,-7179.997637,0.000000
21159.967261,-2072.576638,-10807.006753,-2528.115143
21159.967594,-666.185348,-11843.295072,-2221.676944
21159.967927,-3256.906145,-7254.018232,-2374.896044
21159.968260,0.000000,-8364.327145,1762.019645
21159.968593,2886.803174,-9178.553681,-76.609550
21159.968926,-74.020594,-8068.244768,-2221.676944
21159.969260,4071.132681,-8882.471304,-76.609550
21159.969593,4071.132681,-10658.965565,3294.210641
21159.969926,4811.338623,-7476.080014,4060.306139
21159.970259,5255.462188,-7105.977043,4290.134789
21159.970592,3775.050304,-8808.450710,1455.581446
21159.970925,2294.638420,-10066.800811,-2528.115143
21159.971258,0.000000,-13101.645173,-76.609550
21159.971591,1702.473667,-8364.327145,-3983.696590
21159.971925,592.164754,-11029.068536,0.000000
21159.972258,3552.988522,-7476.080014,0.000000
21159.972591,1406.391290,-8956.491898,0.000000
21159.972924,2812.782580,-6957.935855,-995.924147
21159.973257,3627.009116,-10807.006753,2451.505594
21159.973590,2368.659014,-9844.739029,3370.820191
21159.973923,3182.885551,-6069.688724,2374.896044
21159.974257,4663.297435,-9178.553681,4826.401637
21159.974590,4663.297435,-9178.553681,689.485948
21159.974923,0.000000,-8364.327145,0.000000
21159.975256,-1036.288319,-13915.871710,-1302.362347
21159.975589,-4515.256246,-8660.409521,-3677.258390
21159.975922,-5403.503377,-9844.739029,-4290.134789
21159.976255,-1258.350101,-7550.100608,-1532.190996
21159.976588,-3182.885551,-8586.388927,-459.657299
21159.976922,-3849.070898,-7179.997637,0.000000
21159.977255,1702.473667,-10658.965565,2987.772442
21159.977588,-1998.556043,-8290.306550,1762.019645
21159.977921,0.000000,-6291.750507,3983.696590
21159.978254,3478.967927,-9474.636058,2374.896044
21159.978587,592.164754,-8364.327145,2987.772442
21159.978920,-3923.091493,-10066.800811,-2604.724693
21159.979254,-1554.432478,-10362.883188,-2221.676944
21159.979587,-5773.606348,-14359.995275,-2681.334243
21159.979920,-1332.370696,-9474.636058,1149.143247
21159.980253,-1258.350101,-8290.306550,-2604.724693
21159.980586,-6217.729913,-8364.327145,-2451.505594
21159.980919,0.000000,-5995.668130,1608.800546
21159.981252,-666.185348,-13027.624579,2374.896044
21159.981585,3552.988522,-7105.977043,5745.716235
21159.981919,-814.226536,-8068.244768,3753.867940
21159.982252,3330.926739,-7920.203579,3983.696590
21159.982585,1036.288319,-5699.585753,0.000000
21159.982918,296.082377,-10732.986159,-76.609550
21159.983251,-444.123565,-11769.274478,-3677.258390
21159.983584,-3182.885551,-12805.562797,-1991.848295
21159.983917,148.041188,-8734.430116,-919.314598
21159.984251,-1036.288319,-9548.656652,0.000000
21159.984584,0.000000,-5995.668130,-766.095498
21159.984917,-74.020594,-10362.883188,-76.609550
21159.985250,2294.638420,-9474.636058,995.924147
21159.985583,1480.411884,-5403.503377,4290.134789
21159.985916,5847.626942,-9474.636058,4826.401637
21159.986249,5477.523971,-7920.203579,5439.278036
21159.986582,3108.864956,-8808.450710,689.485948
21159.986916,3108.864956,-9474.636058,-995.924147
21159.987249,1184.329507,-11621.233289,-2145.067394
21159.987582,0.000000,-11325.150913,612.876398
21159.987915,1110.308913,-9844.739029,-3064.381992
21159.988248,-1036.288319,-9548.656652,-4903.011187
21159.988581,-2368.659014,-10436.903782,-2681.334243
21159.988914,592.164754,-9548.656652,-1838.629195
21159.989247,1480.411884,-9918.759623,5132.839837
21159.989581,2590.720797,-4663.297435,4673.182538
21159.989914,3108.864956,-7476.080014,4213.525239
21159.990247,3923.091493,-7105.977043,4213.525239
21159.990580,1332.370696,-5995.668130,3294.210641
21159.990913,-74.020594,-8882.471304,-3064.381992
21159.991246,-2368.659014,-12065.356855,-1302.362347
21159.991579,-666.185348,-11843.295072,-3140.991542
21159.991913,-962.267725,-13175.665768,-306.438199
21159.992246,-1776.494261,-10214.842000,-3294.210641
21159.992579,-2368.659014,-9326.594869,-2757.943793
21159.992912,-74.020594,-11547.212695,-612.876398
21159.993245,1850.514855,-7179.997637,3677.258390
21159.993578,4663.297435,-8882.471304,7277.907231
21159.993911,4737.318029,-3627.009116,6128.763984
21159.994244,2960.823768,-5107.421000,5439.278036
21159.994578,814.226536,-7328.038826,-1915.238745
21159.994911,1110.308913,-7254.018232,-2068.457845
21159.995244,-3108.864956,-11917.315666,-3064.381992
21159.995577,-814.226536,-9400.615463,-4136.915689
21159.995910,-2220.617826,-13101.645173,-2451.505594
21159.996243,-2368.659014,-10140.821405,-3064.381992
21159.996576,-1258.350101,-8882.471304,-5898.935335
21159.996909,-1184.329507,-11547.212695,766.095498
21159.997242,2294.638420,-11843.295072,4213.525239
21159.997576,1776.494261,-4811.338623,6741.640382
21159.997909,5847.626942,-5329.482782,6511.811733
21159.998242,2368.659014,-8364.327145,8503.660028
21159.998575,3478.967927,-5921.647536,2221.676944
21159.998908,-888.247130,-9696.697840,0.000000
21159.999241,1036.288319,-11843.295072,-76.609550
21159.999574,-5329.482782,-10140.821405,-4903.011187
21159.999907,-3627.009116,-11843.295072,-4443.353888
21160.000240,-3330.926739,-9622.677246,-4213.525239
21160.000573,-3034.844362,-11103.089130,-2298.286494
21160.000907,-1184.329507,-11991.336260,2451.505594
21160.001240,-370.102971,-7105.977043,766.095498
21160.001573,0.000000,-4811.338623,6128.763984
21160.001906,5551.544565,-7105.977043,6052.154434
21160.002239,2368.659014,-4441.235652,2911.162892
21160.002572,0.000000,-8660.409521,2298.286494
21160.002905,592.164754,-9326.594869,76.609550
21160.003238,-1998.556043,-9844.739029,-3370.820191
21160.003571,-222.061783,-10140.821405,-1838.629195
21160.003904,-2442.679609,-12731.542202,-2834.553343
21160.004237,-1998.556043,-8956.491898,-7048.078582
21160.004571,-2960.823768,-12509.480420,-2451.505594
21160.004904,740.205942,-11843.295072,2068.457845
21160.005237,2294.638420,-7550.100608,3294.210641
21160.005570,4663.297435,-7698.141797,7277.907231
21160.005903,5403.503377,-5107.421000,5745.716235
21160.006236,2442.679609,-5773.606348,3217.601092
21160.006569,5033.400406,-8660.409521,1455.581446
21160.006902,148.041188,-10066.800811,-229.828649
21160.007235,-2294.638420,-8364.327145,-2451.505594
21160.007568,1702.473667,-9474.636058,-2528.115143
21160.007901,-3330.926739,-12731.542202,-3140.991542
21160.008235,-4145.153275,-7179.997637,-6741.640382
21160.008568,-4811.338623,-14804.118840,-4366.744339
21160.008901,-2072.576638,-8660.409521,76.609550
21160.009234,518.144159,-7105.977043,3370.820191
21160.009567,4959.379811,-6513.812290,7890.783629
21160.009900,4737.318029,-5107.421000,5822.325785
21160.010233,2516.700203,-8142.265362,4826.401637
21160.010566,5551.544565,-8586.388927,536.266849
21160.010899,0.000000,-10288.862594,0.000000
21160.011232,0.000000,-11325.150913,2068.457845
21160.011566,-74.020594,-10362.883188,-4673.182538
21160.011899,-3404.947333,-12657.521608,-5286.058936
21160.012232,-3849.070898,-10807.006753,-4749.792088
21160.012565,-2442.679609,-12583.501014,-1302.362347
21160.012898,-2368.659014,-9548.656652,919.314598
21160.013231,1036.288319,-6513.812290,4826.401637
21160.013564,2294.638420,-6439.791695,6665.030833
21160.013897,3478.967927,-2886.803174,5056.230287
21160.014230,1998.556043,-8290.306550,3600.648841
21160.014563,592.164754,-8290.306550,1149.143247
21160.014896,-2368.659014,-7179.997637,0.000000
21160.015230,-962.267725,-11843.295072,-2528.115143
21160.015563,-1258.350101,-10807.006753,-5898.935335
21160.015896,-3182.885551,-13619.789333,-5592.497135
21160.016229,814.226536,-11399.171507,-4366.744339
21160.016562,-888.247130,-13767.830521,0.000000
21160.016895,2886.803174,-10362.883188,1762.019645
21160.017228,3849.070898,-8068.244768,6818.249932
21160.017561,6069.688724,-5995.668130,10495.508323
21160.017894,0.000000,-2442.679609,4290.134789
21160.018227,4071.132681,-8882.471304,1762.019645
21160.018560,2960.823768,-5995.668130,306.438199
21160.018894,1554.432478,-7179.997637,1455.581446
21160.019227,4071.132681,-8290.306550,-842.705048
21160.019560,-1702.473667,-11103.089130,-4826.401637
21160.019893,-4737.318029,-11917.315666,-7201.297681
21160.020226,-2368.659014,-11769.274478,-5745.716235
21160.020559,-2442.679609,-14211.954086,-3140.991542
21160.020892,-740.205942,-11177.109724,1225.752797
21160.021225,3256.906145,-9474.636058,6971.469032
21160.021558,2886.803174,-4219.173869,6281.983084
21160.021891,4145.153275,-3923.091493,5515.887586
21160.022225,2368.659014,-7772.162391,4596.572988
21160.022558,3330.926739,-7698.141797,3140.991542
21160.022891,-518.144159,-8956.491898,153.219100
21160.023224,222.061783,-9030.512492,-1608.800546
21160.023557,-3404.947333,-9548.656652,-6741.640382
21160.023890,-2442.679609,-12731.542202,-6205.373534
21160.024223,-4367.215058,-13027.624579,-5592.497135
21160.024556,-7698.141797,-12509.480420,-3064.381992
21160.024889,-2738.761985,-11251.130318,-76.609550
21160.025222,0.000000,-7846.182985,5515.887586
21160.025555,3256.906145,-6439.791695,6435.202183
21160.025889,2886.803174,-3701.029710,5132.839837
21160.026222,1924.535449,-8290.306550,3907.087040
21160.026555,2368.659014,-6587.832884,4443.353888
21160.026888,3478.967927,-9474.636058,1149.143247
21160.027221,0.000000,-9548.656652,612.876398
21160.027554,-1776.494261,-11621.233289,-1915.238745
21160.027887,-4811.338623,-13027.624579,-8044.002729
21160.028220,-4145.153275,-13693.809927,-3830.477490
21160.028553,-4959.379811,-12509.480420,-2145.067394
21160.028886,-740.205942,-9030.512492,536.266849
21160.029219,2368.659014,-8068.244768,6665.030833
21160.029553,2368.659014,-4811.338623,7354.516781
21160.029886,3923.091493,-2812.782580,4366.744339
21160.030219,4737.318029,-8068.244768,6358.592633
21160.030552,4663.297435,-7698.141797,4060.306139
21160.030885,2294.638420,-6661.853478,842.705048
21160.031218,0.000000,-8660.409521,-2451.505594
21160.031551,-5403.503377,-13619.789333,-6205.373534
21160.031884,-7179.997637,-9844.739029,-12870.404366
21160.032217,-5921.647536,-14582.057057,-5515.887586
21160.032550,-666.185348,-11251.130318,-76.609550
21160.032884,814.226536,-6587.832884,2451.505594
21160.033217,4885.359217,-7994.224174,8427.050478
21160.033550,4959.379811,-5329.482782,6358.592633
21160.033883,3552.988522,-4219.173869,3064.381992
21160.034216,2368.659014,-7772.162391,4903.011187
21160.034549,4663.297435,-7105.977043,842.705048
21160.034882,2368.659014,-8364.327145,0.000000
21160.035215,2072.576638,-11251.130318,-2528.115143
21160.035548,-3108.864956,-10436.903782,-8197.221829
21160.035881,-2590.720797,-13471.748144,-6665.030833
21160.036214,-1850.514855,-15544.324782,-1838.629195
21160.036548,-1850.514855,-10658.965565,-995.924147
21160.036881,-74.020594,-9474.636058,3600.648841
21160.037214,296.082377,-5403.503377,7814.174080
21160.037547,4663.297435,-4737.318029,4519.963438
21160.037880,3552.988522,-3627.009116,6894.859482
21160.038213,4737.318029,-9400.615463,7890.783629
21160.038546,148.041188,-7402.059420,1225.752797
21160.038879,-74.020594,-9178.553681,-995.924147
21160.039212,-1406.391290,-9770.718434,-3294.210641
21160.039545,-4441.235652,-11029.068536,-8120.612279
21160.039878,-2146.597232,-11251.130318,-6205.373534
21160.040212,-3552.988522,-16876.695478,-383.047749
21160.040545,-3034.844362,-9474.636058,-2528.115143
21160.040878,-3552.988522,-7179.997637,3677.258390
21160.041211,1406.391290,-7105.977043,4596.572988
21160.041544,4663.297435,-4145.153275,4519.963438
21160.041877,1554.432478,-8068.244768,4136.915689
21160.042210,4515.256246,-8290.306550,4136.915689
21160.042543,3775.050304,-7179.997637,3064.381992
21160.042876,3552.988522,-8364.327145,2451.505594
21160.043209,5847.626942,-11251.130318,-76.609550
21160.043543,-4737.318029,-11029.068536,-5515.887586
21160.043876,-2368.659014,-13693.809927,-4366.744339
21160.044209,-3627.009116,-13027.624579,-5515.887586
21160.044542,-1850.514855,-9474.636058,-1608.800546
21160.044875,-1554.432478,-9252.574275,1991.848295
21160.045208,0.000000,-6883.915261,2834.553343
21160.045541,1184.329507,-4811.338623,4290.134789
21160.045874,1184.329507,-4811.338623,3983.696590
21160.046207,3923.091493,-7402.059420,5132.839837
21160.046540,3478.967927,-4885.359217,3830.477490
21160.046873,3997.112087,-7624.121203,1302.362347
21160.047207,74.020594,-10881.027347,-2604.724693
21160.047540,-3552.988522,-10288.862594,-8580.269578
21160.047873,-1998.556043,-16580.613101,-5592.497135
21160.048206,-3775.050304,-11917.315666,-6128.763984
21160.048539,-2368.659014,-11621.233289,-612.876398
21160.048872,-74.020594,-11843.295072,3600.648841
21160.049205,0.000000,-3627.009116,1532.190996
21160.049538,3182.885551,-6661.853478,5515.887586
21160.049871,5699.585753,-5255.462188,8350.440928
21160.050204,3034.844362,-7698.141797,7354.516781
21160.050537,2960.823768,-4219.173869,5515.887586
21160.050871,4071.132681,-8882.471304,536.266849
21160.051204,-1776.494261,-7179.997637,-7354.516781
21160.051537,-3552.988522,-13101.645173,-5592.497135
21160.051870,-5107.421000,-15988.448347,-8044.002729
21160.052203,-4737.318029,-11621.233289,-4749.792088
21160.052536,-3701.029710,-12361.439231,-2374.896044
21160.052869,-814.226536,-9548.656652,919.314598
21160.053202,148.041188,-7105.977043,2451.505594
21160.053535,6439.791695,-7105.977043,7277.907231
21160.053868,7031.956449,-4737.318029,5132.839837
21160.054202,3552.988522,-5107.421000,8427.050478
21160.054535,7105.977043,-6291.750507,9729.412825
21160.054868,3330.926739,-7994.224174,689.485948
21160.055201,1924.535449,-10658.965565,-4366.744339
21160.055534,-3849.070898,-12953.603985,-7967.393179
21160.055867,-4737.318029,-15322.262999,-7201.297681
21160.056200,-3627.009116,-11029.068536,-5209.449386
21160.056533,-1924.535449,-11103.089130,-2221.676944
21160.056866,0.000000,-6587.832884,0.000000
21160.057199,0.000000,-7624.121203,4826.401637
21160.057532,4663.297435,-4737.318029,4443.353888
21160.057866,2368.659014,-4811.338623,6128.763984
21160.058199,5107.421000,-5921.647536,4826.401637
21160.058532,4145.153275,-6217.729913,4903.011187
21160.058865,296.082377,-8956.491898,153.219100
21160.059198,148.041188,-8956.491898,-4826.401637
21160.059531,-4515.256246,-13175.665768,-5439.278036
21160.059864,-3923.091493,-13693.809927,-6128.763984
21160.060197,-4071.132681,-12435.459826,-4519.963438
21160.060530,-2442.679609,-11177.109724,-1455.581446
21160.060863,0.000000,-9548.656652,1532.190996
21160.061196,2516.700203,-8290.306550,4826.401637
21160.061530,5847.626942,-6217.729913,5056.230287
21160.061863,2516.700203,-5699.585753,6128.763984
21160.062196,4663.297435,-5921.647536,5745.716235
21160.062529,2516.700203,-7476.080014,4290.134789
21160.062862,1998.556043,-8290.306550,766.095498
21160.063195,-1406.391290,-9104.533087,-4749.792088
21160.063528,-3627.009116,-13471.748144,-5669.106685
21160.063861,-4367.215058,-14211.954086,-5592.497135
21160.064194,-5329.482782,-9548.656652,-2451.505594
21160.064527,-666.185348,-9844.739029,-3677.258390
21160.064861,-3552.988522,-8956.491898,612.876398
21160.065194,-74.020594,-9474.636058,2068.457845
21160.065527,4663.297435,-7698.141797,6052.154434
21160.065860,5847.626942,-6217.729913,7277.907231
21160.066193,5699.585753,-6661.853478,5745.716235
21160.066526,5329.482782,-8290.306550,6205.373534
21160.066859,1184.329507,-8068.244768,1302.362347
21160.067192,-74.020594,-11843.295072,-2834.553343
21160.067525,-5921.647536,-13101.645173,-7354.516781
21160.067858,-4145.153275,-13323.706956,-4366.744339
21160.068191,-1850.514855,-9104.533087,-3370.820191
21160.068525,0.000000,-8660.409521,1532.190996
21160.068858,-74.020594,-7550.100608,1149.143247
21160.069191,1110.308913,-7550.100608,2681.334243
21160.069524,2886.803174,-7994.224174,4213.525239
21160.069857,2960.823768,-6143.709319,4979.620737
21160.070190,5551.544565,-7105.977043,4213.525239
21160.070523,3552.988522,-8364.327145,4826.401637
21160.070856,2886.803174,-11251.130318,-76.609550
21160.071189,-1406.391290,-9548.656652,-4903.011187
21160.071522,-1776.494261,-14285.974681,-2145.067394
21160.071855,-2738.761985,-11325.150913,-3983.696590
21160.072189,-2738.761985,-10436.903782,-3064.381992
21160.072522,-3627.009116,-11251.130318,-1455.581446
21160.072855,-1406.391290,-5995.668130,-1455.581446
21160.073188,0.000000,-6587.832884,1225.752797
21160.073521,5921.647536,-7698.141797,9116.536426
21160.073854,4367.215058,-3330.926739,4903.011187
21160.074187,0.000000,-5995.668130,5209.449386
21160.074520,3552.988522,-10436.903782,3294.210641
21160.074853,518.144159,-8808.450710,-3677.258390
21160.075186,1258.350101,-13471.748144,-3140.991542
21160.075520,-2664.741391,-14211.954086,-3907.087040
21160.075853,-2368.659014,-11843.295072,-3753.867940
21160.076186,-1258.350101,-8068.244768,-1685.410096
21160.076519,-666.185348,-9844.739029,0.000000
21160.076852,-1628.453072,-8216.285956,-689.485948
21160.077185,148.041188,-8734.430116,2681.334243
21160.077518,3923.091493,-7105.977043,7277.907231
21160.077851,3478.967927,-3701.029710,5669.106685
21160.078184,2368.659014,-7920.203579,4903.011187
21160.078517,4071.132681,-9474.636058,2068.457845
21160.078850,-518.144159,-8364.327145,-3064.381992
21160.079184,-2072.576638,-12509.480420,-919.314598
21160.079517,-4145.153275,-12509.480420,-3677.258390
21160.079850,-2886.803174,-10066.800811,-4366.744339
21160.080183,-1776.494261,-11177.109724,-459.657299
21160.080516,-1554.432478,-9474.636058,-1302.362347
21160.080849,-74.020594,-5181.441594,-2145.067394
21160.081182,0.000000,-10140.821405,4826.401637
21160.081515,4071.132681,-7698.141797,6052.154434
21160.081848,814.226536,-4071.132681,1225.752797
21160.082181,2886.803174,-9474.636058,4826.401637
21160.082514,1480.411884,-6735.874072,1225.752797
21160.082848,1258.350101,-10510.924376,-995.924147
21160.083181,2220.617826,-12731.542202,306.438199
21160.083514,-4145.153275,-12509.480420,-3370.820191
21160.083847,-222.061783,-9548.656652,-4903.011187
21160.084180,-74.020594,-14211.954086,-76.609550
21160.084513,-74.020594,-7179.997637,-2451.505594
21160.084846,-1258.350101,-6883.915261,-1685.410096
21160.085179,0.000000,-8956.491898,1072.533697
21160.085512,2516.700203,-5773.606348,4213.525239
21160.085845,2146.597232,-6513.812290,5592.497135
21160.086179,3849.070898,-7328.038826,4366.744339
21160.086512,3478.967927,-8882.471304,2834.553343
21160.086845,0.000000,-9548.656652,0.000000
21160.087178,2294.638420,-13619.789333,-76.609550
21160.087511,-1554.432478,-11843.295072,-3983.696590
21160.087844,0.000000,-9548.656652,0.000000
21160.088177,-444.123565,-12361.439231,-919.314598
21160.088510,-74.020594,-7846.182985,-3064.381992
21160.088843,-1480.411884,-10214.842000,-842.705048
21160.089176,0.000000,-8956.491898,1225.752797
21160.089509,3775.050304,-5625.565159,2068.457845
21160.089843,5625.565159,-10584.944971,6052.154434
21160.090176,3923.091493,-8364.327145,4903.011187
21160.090509,0.000000,-4811.338623,2451.505594
21160.090842,2294.638420,-13619.789333,-76.609550
21160.091175,0.000000,-9844.739029,-1838.629195
21160.091508,-1924.535449,-10214.842000,-3370.820191
21160.091841,-888.247130,-9992.780217,-383.047749
21160.092174,-2220.617826,-9474.636058,-306.438199
21160.092507,-4219.173869,-7402.059420,-4826.401637
21160.092840,-2886.803174,-11843.295072,-1915.238745
21160.093173,-2812.782580,-9252.574275,153.219100
21160.093507,2664.741391,-5699.585753,3830.477490
21160.093840,4145.153275,-7624.121203,5822.325785
21160.094173,4663.297435,-8882.471304,3600.648841
21160.094506,2368.659014,-7772.162391,3600.648841
21160.094839,4663.297435,-13027.624579,1762.019645
21160.095172,1776.494261,-11325.150913,2145.067394
21160.095505,-1184.329507,-11325.150913,-1149.143247
21160.095838,-74.020594,-10510.924376,-2221.676944
21160.096171,-1702.473667,-9474.636058,-2451.505594
21160.096504,-1628.453072,-8660.409521,-3294.210641
21160.096838,-1998.556043,-10140.821405,-459.657299
21160.097171,-2812.782580,-6291.750507,0.000000
21160.097504,1332.370696,-8290.306550,4826.401637
21160.097837,74.020594,-7105.977043,3600.648841
21160.098170,0.000000,-6291.750507,2757.943793
21160.098503,3182.885551,-9474.636058,2987.772442
21160.098836,222.061783,-9548.656652,1225.752797
21160.099169,3478.967927,-11843.295072,-76.609550
21160.099502,-1628.453072,-9252.574275,-612.876398
21160.099836,-1184.329507,-11473.192101,-1685.410096
21160.100169,-2072.576638,-10140.821405,-3064.381992
21160.100502,-74.020594,-13619.789333,-2528.115143
21160.100835,-2368.659014,-9548.656652,-1225.752797
21160.101168,-2368.659014,-7772.162391,1225.752797
21160.101501,4663.297435,-8586.388927,4826.401637
21160.101834,2960.823768,-5995.668130,7201.297681
21160.102167,2072.576638,-6217.729913,2298.286494
21160.102500,962.267725,-9252.574275,1149.143247
21160.102833,222.061783,-11547.212695,1608.800546
21160.103167,1110.308913,-9474.636058,-76.609550
21160.103500,1110.308913,-8882.471304,-1302.362347
21160.103833,-2368.659014,-9548.656652,0.000000
21160.104166,-740.205942,-10658.965565,-1302.362347
21160.104499,-666.185348,-9474.636058,-7431.126331
21160.104832,-4145.153275,-11917.315666,-1149.143247
21160.105165,-370.102971,-9030.512492,-766.095498
21160.105498,3701.029710,-7254.018232,5745.716235
21160.105831,4145.153275,-7105.977043,7277.907231
21160.106165,2886.803174,-5329.482782,1149.143247
21160.106498,4219.173869,-9400.615463,2145.067394
21160.106831,1406.391290,-12139.377449,2681.334243
21160.107164,2368.659014,-7624.121203,612.876398
21160.107497,-2368.659014,-10732.986159,0.000000
21160.107830,-3404.947333,-7772.162391,-3064.381992
21160.108163,-1258.350101,-10658.965565,-4366.744339
21160.108496,-1184.329507,-7476.080014,-3983.696590
21160.108829,-2368.659014,-11325.150913,919.314598
21160.109163,-814.226536,-7179.997637,536.266849
21160.109496,1332.370696,-8068.244768,4290.134789
21160.109829,1184.329507,-8068.244768,3677.258390
21160.110162,962.267725,-7698.141797,306.438199
21160.110495,1184.329507,-9696.697840,2604.724693
21160.110828,-74.020594,-10140.821405,2987.772442
21160.111161,2294.638420,-5921.647536,-1302.362347
21160.111494,0.000000,-10140.821405,1838.629195
21160.111827,-592.164754,-9474.636058,-383.047749
21160.112160,-2220.617826,-9252.574275,-3677.258390
21160.112494,-1258.350101,-12435.459826,-1915.238745
21160.112827,-1332.370696,-9696.697840,0.000000
21160.113160,222.061783,-8438.347739,383.047749
21160.113493,3775.050304,-8882.471304,4519.963438
21160.113826,592.164754,-7179.997637,3064.381992
21160.114159,2146.597232,-7698.141797,-1302.362347
21160.114492,1184.329507,-11325.150913,4519.963438
21160.114825,1110.308913,-9030.512492,536.266849
21160.115158,-74.020594,-10066.800811,842.705048
21160.115492,1110.308913,-10066.800811,1149.143247
21160.115825,-2294.638420,-9622.677246,-1072.533697
21160.116158,-2220.617826,-7920.203579,-2757.943793
21160.116491,-2294.638420,-9548.656652,-2374.896044
21160.116824,-1258.350101,-11029.068536,1762.019645
21160.117157,0.000000,-5995.668130,1838.629195
21160.117490,0.000000,-7179.997637,4903.011187
21160.117823,2886.803174,-7994.224174,0.000000
21160.118156,0.000000,-7179.997637,-1685.410096
21160.118489,2886.803174,-11695.253884,1149.143247
21160.118823,1184.329507,-9474.636058,919.314598
21160.119156,3923.091493,-9474.636058,1762.019645
21160.119489,518.144159,-11029.068536,1532.190996
21160.119822,-74.020594,-8882.471304,-1302.362347
21160.120155,-3552.988522,-8364.327145,-1532.190996
21160.120488,-74.020594,-10658.965565,-76.609550
21160.120821,-74.020594,-7698.141797,-1915.238745
21160.121154,0.000000,-6587.832884,306.438199
21160.121487,2886.803174,-7105.977043,536.266849
21160.121821,222.061783,-7846.182985,536.266849
21160.122154,666.185348,-9326.594869,-76.609550
21160.122487,1036.288319,-11399.171507,1762.019645
21160.122820,1110.308913,-9474.636058,-383.047749
21160.123153,2368.659014,-8734.430116,1225.752797
21160.123486,0.000000,-11547.212695,919.314598
21160.123819,1776.494261,-7550.100608,-995.924147
21160.124152,0.000000,-10732.986159,0.000000
21160.124485,1110.308913,-10658.965565,-995.924147
21160.124819,-1480.411884,-7179.997637,-2145.067394
21160.125152,1184.329507,-9548.656652,3907.087040
21160.125485,4071.132681,-7698.141797,2987.772442
21160.125818,-2368.659014,-5403.503377,0.000000
21160.126151,666.185348,-9474.636058,-842.705048
21160.126484,370.102971,-10584.944971,1532.190996
21160.126817,1924.535449,-7772.162391,2451.505594
21160.127150,4071.132681,-10510.924376,4060.306139
21160.127483,-74.020594,-11251.130318,-689.485948
21160.127816,-3552.988522,-7772.162391,-3064.381992
21160.128150,-4441.235652,-12213.398043,383.047749
21160.128483,-74.020594,-7179.997637,-2451.505594
21160.128816,-1776.494261,-7476.080014,1991.848295
21160.129149,1036.288319,-8734.430116,2145.067394
21160.129482,1998.556043,-6513.812290,2298.286494
21160.129815,-74.020594,-6957.935855,-2681.334243
21160.130148,1702.473667,-12879.583391,-76.609550
21160.130481,1702.473667,-11251.130318,-1302.362347
21160.130814,1184.329507,-10732.986159,2145.067394
21160.131148,3404.947333,-11399.171507,6052.154434
21160.131481,1554.432478,-9474.636058,-1302.362347
21160.131814,2146.597232,-8882.471304,-76.609550
21160.132147,0.000000,-10066.800811,1838.629195
21160.132480,222.061783,-8734.430116,-459.657299
21160.132813,-1776.494261,-8364.327145,1532.190996
21160.133146,-1776.494261,-7476.080014,-1225.752797
21160.133479,-666.185348,-6661.853478,-2451.505594
21160.133812,-2368.659014,-8364.327145,-76.609550
21160.134146,-74.020594,-11843.295072,-1302.362347
21160.134479,-2368.659014,-6809.894666,-1302.362347
21160.134812,0.000000,-8364.327145,76.609550
21160.135145,2516.700203,-10510.924376,4443.353888
21160.135478,888.247130,-7698.141797,383.047749
21160.135811,1480.411884,-11547.212695,-153.219100
21160.136144,-74.020594,-12435.459826,2068.457845
21160.136477,0.000000,-7772.162391,306.438199
21160.136810,-74.020594,-7994.224174,-842.705048
21160.137143,814.226536,-5995.668130,0.000000
21160.137477,2516.700203,-9474.636058,1762.019645
21160.137810,2590.720797,-7328.038826,536.266849
21160.138143,370.102971,-12287.418637,1149.143247
21160.138476,444.123565,-7920.203579,995.924147
21160.138809,-74.020594,-9104.533087,919.314598
21160.139142,2590.720797,-10658.965565,2374.896044
21160.139475,-1480.411884,-7179.997637,-2145.067394
21160.139808,-2812.782580,-11917.315666,-3600.648841
21160.140141,-2368.659014,-10140.821405,-919.314598
21160.140475,-1554.432478,-8068.244768,-1532.190996
21160.140808,444.123565,-9400.615463,1225.752797
21160.141141,0.000000,-5403.503377,0.000000
21160.141474,888.247130,-8068.244768,1149.143247
21160.141807,-74.020594,-10658.965565,842.705048
21160.142140,518.144159,-7920.203579,0.000000
21160.142473,2368.659014,-10066.800811,2987.772442
21160.142806,3552.988522,-7772.162391,3524.039291
21160.143139,3182.885551,-10214.842000,1455.581446
21160.143472,0.000000,-11991.336260,-689.485948
21160.143806,1110.308913,-11695.253884,-1302.362347
21160.144139,-4737.318029,-11029.068536,-1225.752797
21160.144472,2294.638420,-9474.636058,-76.609550
21160.144805,-74.020594,-7254.018232,0.000000
21160.145138,0.000000,-7179.997637,1838.629195
21160.145471,2294.638420,-6513.812290,-1149.143247
21160.145804,444.123565,-9622.677246,919.314598
21160.146137,444.123565,-10140.821405,1455.581446
21160.146470,1110.308913,-8586.388927,2681.334243
21160.146804,148.041188,-7920.203579,0.000000
21160.147137,0.000000,-9548.656652,2987.772442
21160.147470,-74.020594,-9474.636058,-1915.238745
21160.147803,-74.020594,-10658.965565,-3294.210641
21160.148136,-148.041188,-11399.171507,2068.457845
21160.148469,740.205942,-6957.935855,0.000000
21160.148802,518.144159,-9104.533087,306.438199
21160.149135,0.000000,-7179.997637,-612.876398
21160.149468,74.020594,-9252.574275,-995.924147
21160.149802,0.000000,-10140.821405,1225.752797
21160.150135,3478.967927,-10214.842000,4213.525239
21160.150468,1998.556043,-8364.327145,1838.629195
21160.150801,3256.906145,-7328.038826,3677.258390
21160.151134,2294.638420,-11547.212695,3600.648841
21160.151467,-1628.453072,-8660.409521,-2145.067394
21160.151800,-1258.350101,-9918.759623,-2221.676944
21160.152133,-2368.659014,-10658.965565,-1455.581446
21160.152466,1258.350101,-7179.997637,306.438199
21160.152799,-1480.411884,-7772.162391,-1838.629195
21160.153133,-1998.556043,-9474.636058,-2681.334243
21160.153466,-2146.597232,-8586.388927,-2528.115143
21160.153799,148.041188,-10584.944971,-76.609550
21160.154132,3478.967927,-9474.636058,2987.772442
21160.154465,5255.462188,-7920.203579,3830.477490
21160.154798,3849.070898,-9844.739029,6358.592633
21160.155131,4367.215058,-10066.800811,3600.648841
21160.155464,2738.761985,-10436.903782,-612.876398
21160.155797,-74.020594,-11843.295072,-76.609550
21160.156131,-962.267725,-9178.553681,-1532.190996
21160.156464,-1258.350101,-9178.553681,-1302.362347
21160.156797,-2664.741391,-9400.615463,-1532.190996
21160.157130,-1776.494261,-4811.338623,-3524.039291
21160.157463,1110.308913,-9622.677246,-2681.334243
21160.157796,1480.411884,-10955.047942,4213.525239
21160.158129,-74.020594,-7476.080014,153.219100
21160.158462,666.185348,-7179.997637,1225.752797
21160.158795,0.000000,-7846.182985,1532.190996
21160.159128,888.247130,-7179.997637,766.095498
21160.159462,1110.308913,-11399.171507,995.924147
21160.159795,74.020594,-9622.677246,-612.876398
21160.160128,-1480.411884,-10584.944971,-612.876398
21160.160461,-74.020594,-8660.409521,-2451.505594
21160.160794,-74.020594,-11843.295072,-76.609550
21160.161127,-666.185348,-7179.997637,-3677.258390
21160.161460,0.000000,-11325.150913,0.000000
21160.161793,0.000000,-6587.832884,1225.752797
21160.162126,1776.494261,-7698.141797,2298.286494
21160.162460,3701.029710,-8808.450710,5439.278036
21160.162793,2146.597232,-7920.203579,2757.943793
21160.163126,1998.556043,-8290.306550,-76.609550
21160.163459,-2368.659014,-10732.986159,0.000000
21160.163792,-666.185348,-10955.047942,-3294.210641
21160.164125,-962.267725,-6587.832884,-2451.505594
21160.164458,1184.329507,-10881.027347,-76.609550
21160.164791,-74.020594,-10658.965565,-1608.800546
21160.165124,-1184.329507,-10436.903782,-1608.800546
21160.165458,1036.288319,-9400.615463,1225.752797
21160.165791,444.123565,-7920.203579,1838.629195
21160.166124,3404.947333,-6735.874072,3830.477490
21160.166457,4589.276840,-9474.636058,7277.907231
21160.166790,518.144159,-6587.832884,612.876398
21160.167123,1036.288319,-9474.636058,2374.896044
21160.167456,-1850.514855,-14211.954086,-3140.991542
21160.167789,-1850.514855,-9474.636058,-3447.429741
21160.168122,-2220.617826,-10362.883188,-995.924147
21160.168455,2294.638420,-8216.285956,383.047749
21160.168789,-1036.288319,-8586.388927,-76.609550
21160.169122,-2516.700203,-10140.821405,-2757.943793
21160.169455,296.082377,-10955.047942,2374.896044
21160.169788,-444.123565,-9548.656652,1378.971896
21160.170121,5181.441594,-5995.668130,3677.258390
21160.170454,3034.844362,-9918.759623,4213.525239
21160.170787,2886.803174,-5033.400406,-842.705048
21160.171120,444.123565,-12435.459826,2068.457845
21160.171453,222.061783,-9548.656652,-2068.457845
21160.171787,0.000000,-10658.965565,2374.896044
21160.172120,-1554.432478,-8882.471304,-1608.800546
21160.172453,962.267725,-8882.471304,-1915.238745
21160.172786,-3478.967927,-8290.306550,-3447.429741
21160.173119,0.000000,-9474.636058,-1608.800546
21160.173452,-740.205942,-9622.677246,1915.238745
21160.173785,1184.329507,-5995.668130,2451.505594
21160.174118,2960.823768,-8364.327145,6358.592633
21160.174451,2146.597232,-8364.327145,1225.752797
21160.174785,1702.473667,-4811.338623,0.000000
21160.175118,888.247130,-10140.821405,1225.752797
21160.175451,2294.638420,-10362.883188,-1072.533697
21160.175784,-148.041188,-10066.800811,-689.485948
21160.176117,-1184.329507,-9844.739029,-1532.190996
21160.176450,-1332.370696,-10066.800811,-2068.457845
21160.176783,-1850.514855,-9474.636058,-2145.067394
21160.177116,-148.041188,-12435.459826,3600.648841
21160.177449,-74.020594,-7254.018232,1225.752797
21160.177782,888.247130,-7031.956449,4903.011187
21160.178116,3627.009116,-7105.977043,5439.278036
21160.178449,296.082377,-6587.832884,2451.505594
21160.178782,1110.308913,-7920.203579,0.000000
21160.179115,0.000000,-11695.253884,-76.609550
21160.179448,-1480.411884,-12287.418637,-2451.505594
21160.179781,-1258.350101,-10362.883188,-1991.848295
21160.180114,-74.020594,-11843.295072,-1608.800546
21160.180447,0.000000,-5995.668130,-2451.505594
21160.180780,-2368.659014,-9992.780217,-1149.143247
21160.181114,-74.020594,-11843.295072,1149.143247
21160.181447,1110.308913,-9474.636058,3600.648841
21160.181780,2072.576638,-7550.100608,5592.497135
21160.182113,3849.070898,-6439.791695,5669.106685
21160.182446,2294.638420,-7846.182985,3140.991542
21160.182779,592.164754,-5995.668130,0.000000
21160.183112,-74.020594,-8512.368333,-1838.629195
21160.183445,-592.164754,-12731.542202,-1225.752797
21160.183778,-370.102971,-12731.542202,-3140.991542
21160.184111,-3997.112087,-11029.068536,-2451.505594
21160.184445,-1258.350101,-10066.800811,-1915.238745
21160.184778,-2960.823768,-10288.862594,-2221.676944
21160.185111,-1628.453072,-10658.965565,689.485948
21160.185444,666.185348,-7105.977043,3753.867940
21160.185777,2368.659014,-4811.338623,6128.763984
21160.186110,7031.956449,-4441.235652,7354.516781
21160.186443,4367.215058,-7402.059420,5975.544884
21160.186776,2812.782580,-6513.812290,689.485948
21160.187109,962.267725,-11103.089130,-995.924147
21160.187443,-4145.153275,-11325.150913,-5898.935335
21160.187776,-666.185348,-10658.965565,-6205.373534
21160.188109,-6809.894666,-12509.480420,-3677.258390
21160.188442,-2442.679609,-10436.903782,-4903.011187
21160.188775,-666.185348,-11251.130318,-1302.362347
21160.189108,-740.205942,-9326.594869,2145.067394
21160.189441,2664.741391,-6587.832884,5132.839837
21160.189774,5255.462188,-5329.482782,8197.221829
21160.190107,5551.544565,-6957.935855,7584.345430
21160.190441,3552.988522,-5847.626942,2451.505594
21160.190774,1406.391290,-8364.327145,0.000000
21160.191107,-2368.659014,-8956.491898,-76.609550
21160.191440,-74.020594,-11843.295072,-4979.620737
21160.191773,-2442.679609,-9622.677246,-5439.278036
21160.192106,-2368.659014,-11917.315666,-4596.572988
21160.192439,-1554.432478,-12139.377449,-2681.334243
21160.192772,-1850.514855,-11991.336260,-1225.752797
21160.193105,-1258.350101,-9844.739029,306.438199
21160.193438,3478.967927,-7105.977043,6052.154434
21160.193772,3775.050304,-1850.514855,4903.011187
21160.194105,6217.729913,-6661.853478,6128.763984
21160.194438,4663.297435,-8290.306550,2987.772442
21160.194771,0.000000,-7179.997637,0.000000
21160.195104,1998.556043,-10955.047942,-1455.581446
21160.195437,666.185348,-12657.521608,-1685.410096
21160.195770,-2072.576638,-11991.336260,-3294.210641
21160.196103,-3775.050304,-11547.212695,-4519.963438
21160.196436,-3627.009116,-9474.636058,-6971.469032
21160.196770,-5625.565159,-8364.327145,-1225.752797
21160.197103,-1776.494261,-9474.636058,2374.896044
21160.197436,2294.638420,-7105.977043,4826.401637
21160.197769,1184.329507,-2738.761985,6128.763984
21160.198102,4663.297435,-6513.812290,5439.278036
21160.198435,2590.720797,-6809.894666,2298.286494
21160.198768,1480.411884,-8882.471304,76.609550
21160.199101,740.205942,-10214.842000,-842.705048
21160.199434,962.267725,-12731.542202,-2528.115143
21160.199768,-370.102971,-13619.789333,-4519.963438
21160.200101,-5551.544565,-10140.821405,-7354.516781
21160.200434,-3552.988522,-12509.480420,-3447.429741
21160.200767,-2368.659014,-11621.233289,1608.800546
21160.201100,-74.020594,-9474.636058,3600.648841
21160.201433,888.247130,-4811.338623,6128.763984
21160.201766,5847.626942,-4737.318029,7277.907231
21160.202099,3034.844362,-4219.173869,3064.381992
21160.202433,2664.741391,-6587.832884,2451.505594
21160.202766,2738.761985,-8216.285956,612.876398
21160.203099,222.061783,-11251.130318,-76.609550
21160.203432,370.102971,-11325.150913,-3524.039291
21160.203765,-2886.803174,-13545.768739,-5132.839837
21160.204098,-2960.823768,-10955.047942,-4979.620737
21160.204431,-74.020594,-14211.954086,-1302.362347
21160.204764,-1554.432478,-11769.274478,-1072.533697
21160.205097,-1110.308913,-7179.997637,612.876398
21160.205431,3330.926739,-7994.224174,6971.469032
21160.205764,4145.153275,-3627.009116,7354.516781
21160.206097,3108.864956,-4293.194464,5209.449386
21160.206430,3330.926739,-5921.647536,2068.457845
21160.206763,888.247130,-8956.491898,153.219100
21160.207096,-1776.494261,-10140.821405,-2451.505594
21160.207429,-74.020594,-11843.295072,-4366.744339
21160.207762,-7105.977043,-11325.150913,-3677.258390
21160.208095,-3404.947333,-12287.418637,-5592.497135
21160.208429,-2442.679609,-15100.201217,-4979.620737
21160.208762,-3552.988522,-11917.315666,-229.828649
21160.209095,-74.020594,-6809.894666,0.000000
21160.209428,4367.215058,-8290.306550,6052.154434
21160.209761,5107.421000,-4663.297435,9193.145976
21160.210094,5847.626942,-5773.606348,7890.783629
21160.210427,4663.297435,-4811.338623,3064.381992
21160.210760,1480.411884,-7772.162391,0.000000
21160.211093,2294.638420,-11843.295072,-76.609550
21160.211427,-2368.659014,-9548.656652,-4596.572988
21160.211760,-3627.009116,-13619.789333,-6358.592633
21160.212093,-4515.256246,-11177.109724,-7814.174080
21160.212426,-3923.091493,-14063.912898,-4060.306139
21160.212759,-2516.700203,-9770.718434,-1455.581446
21160.213092,-74.020594,-8882.471304,1149.143247
21160.213425,1184.329507,-4811.338623,7967.393179
21160.213758,7031.956449,-5329.482782,7277.907231
21160.214092,4367.215058,-1850.514855,2604.724693
21160.214425,2960.823768,-9548.656652,6128.763984
21160.214758,3182.885551,-8586.388927,536.266849
21160.215091,1480.411884,-10066.800811,-689.485948
21160.215424,-74.020594,-12657.521608,-2145.067394
21160.215757,-3923.091493,-11991.336260,-5209.449386
21160.216090,-5107.421000,-12731.542202,-5592.497135
21160.216423,-3034.844362,-11843.295072,-2834.553343
21160.216756,-4737.318029,-10881.027347,-76.609550
21160.217090,0.000000,-4811.338623,2451.505594
21160.217423,592.164754,-8068.244768,7967.393179
21160.217756,3256.906145,-5329.482782,6665.030833
21160.218089,1850.514855,-4515.256246,612.876398
21160.218422,0.000000,-8364.327145,4596.572988
21160.218755,3478.967927,-9474.636058,-689.485948
21160.219088,592.164754,-11917.315666,0.000000
21160.219421,666.185348,-12213.398043,-995.924147
21160.219754,-2738.761985,-10658.965565,-4979.620737
21160.220088,-1776.494261,-11473.192101,-4213.525239
21160.220421,-666.185348,-13027.624579,-76.609550
21160.220754,-1332.370696,-9474.636058,-76.609550
21160.221087,222.061783,-6143.709319,1225.752797
21160.221420,1184.329507,-8142.265362,7660.954980
21160.221753,4367.215058,-4737.318029,3600.648841
21160.222086,3478.967927,-6513.812290,3370.820191
21160.222419,3478.967927,-9030.512492,1532.190996
21160.222752,1332.370696,-8734.430116,0.000000
21160.223086,3627.009116,-8364.327145,0.000000
21160.223419,0.000000,-13027.624579,-1915.238745
21160.223752,-74.020594,-11843.295072,-4366.744339
21160.224085,-4737.318029,-11917.315666,-2451.505594
21160.224418,-1850.514855,-14211.954086,-689.485948
21160.224751,-1850.514855,-9474.636058,-1302.362347
21160.225084,-1850.514855,-8068.244768,2374.896044
21160.225417,2368.659014,-4219.173869,4903.011187
21160.225751,3478.967927,-2664.741391,4213.525239
21160.226084,4441.235652,-7994.224174,5439.278036
21160.226417,2368.659014,-7179.997637,3677.258390
21160.226750,2886.803174,-7105.977043,-766.095498
21160.227083,2960.823768,-11843.295072,3983.696590
21160.227416,2886.803174,-11547.212695,-4366.744339
21160.227749,-4145.153275,-11917.315666,-7048.078582
21160.228082,-4737.318029,-13693.809927,-6588.421283
21160.228415,-3849.070898,-13471.748144,-3753.867940
21160.228749,-1924.535449,-9622.677246,766.095498
21160.229082,1332.370696,-6957.935855,4903.011187
21160.229415,3478.967927,-6513.812290,6052.154434
21160.229748,1776.494261,-1850.514855,4903.011187
21160.230081,5847.626942,-7105.977043,6971.469032
21160.230414,1628.453072,-5107.421000,1225.752797
21160.230747,1184.329507,-6735.874072,2604.724693
21160.231080,0.000000,-10140.821405,0.000000
21160.231413,-1406.391290,-11917.315666,-5132.839837
21160.231747,-4219.173869,-13471.748144,-7660.954980
21160.232080,-5995.668130,-15396.283594,-8273.831378
21160.232413,-2442.679609,-13027.624579,-4366.744339
21160.232746,-3478.967927,-9548.656652,0.000000
21160.233079,2294.638420,-8142.265362,4673.182538
21160.233412,1850.514855,-5551.544565,7354.516781
21160.233745,4219.173869,-2886.803174,5822.325785
21160.234078,4737.318029,-7105.977043,9039.926876
21160.234411,2886.803174,-5995.668130,4290.134789
21160.234745,1184.329507,-7179.997637,5822.325785
21160.235078,-74.020594,-10362.883188,-1149.143247
21160.235411,-2738.761985,-10658.965565,-7048.078582
21160.235744,-6513.812290,-13693.809927,-6588.421283
21160.236077,-4663.297435,-13619.789333,-6435.202183
21160.236410,-4219.173869,-9844.739029,-4290.134789
21160.236743,-1258.350101,-9030.512492,-536.266849
21160.237076,-666.185348,-8290.306550,2834.553343
21160.237410,0.000000,-4811.338623,5515.887586
21160.237743,4663.297435,-4737.318029,7890.783629
21160.238076,4071.132681,-7698.141797,4213.525239
21160.238409,3552.988522,-7476.080014,5439.278036
21160.238742,5847.626942,-5921.647536,2374.896044
21160.239075,2368.659014,-9992.780217,1072.533697
21160.239408,-1850.514855,-12287.418637,-4366.744339
21160.239741,-4737.318029,-13619.789333,-7507.735880
21160.240074,-5921.647536,-14878.139434,-6128.763984
21160.240408,-5921.647536,-9548.656652,153.219100
21160.240741,-74.020594,-9474.636058,-383.047749
21160.241074,296.082377,-4885.359217,1072.533697
21160.241407,0.000000,-7476.080014,5132.839837
21160.241740,2738.761985,-3627.009116,3983.696590
21160.242073,4367.215058,-7105.977043,4903.011187
21160.242406,4663.297435,-7550.100608,3447.429741
21160.242739,3701.029710,-8956.491898,2911.162892
21160.243072,4515.256246,-10362.883188,842.705048
21160.243406,1480.411884,-11695.253884,-2528.115143
21160.243739,-666.185348,-15988.448347,-4979.620737
21160.244072,-4441.235652,-12213.398043,-3064.381992
21160.244405,-4737.318029,-10140.821405,-1762.019645
21160.244738,-1776.494261,-9030.512492,1532.190996
21160.245071,-1554.432478,-6439.791695,689.485948
21160.245404,1110.308913,-5107.421000,4673.182538
21160.245737,2960.823768,-4515.256246,6741.640382
21160.246070,888.247130,-4737.318029,5056.230287
21160.246404,3478.967927,-5921.647536,2987.772442
21160.246737,296.082377,-8364.327145,0.000000
21160.247070,1184.329507,-9622.677246,-76.609550
21160.247403,-74.020594,-11547.212695,-6511.811733
21160.247736,-2368.659014,-14285.974681,-4596.572988
21160.248069,-3849.070898,-13915.871710,-4290.134789
21160.248402,-2664.741391,-10881.027347,-2911.162892
21160.248735,-370.102971,-8660.409521,689.485948
21160.249069,-740.205942,-5773.606348,689.485948
21160.249402,3478.967927,-6661.853478,2911.162892
21160.249735,3775.050304,-5403.503377,5515.887586
21160.250068,3701.029710,-5625.565159,3983.696590
21160.250401,4737.318029,-6661.853478,4903.011187
21160.250734,5255.462188,-9326.594869,4213.525239
21160.251067,4663.297435,-11177.109724,-76.609550
21160.251400,-370.102971,-11621.233289,-6741.640382
21160.251733,-1258.350101,-15988.448347,-6435.202183
21160.252067,-4737.318029,-13693.809927,-4903.011187
21160.252400,-2664.741391,-9844.739029,-2451.505594
21160.252733,-296.082377,-9992.780217,1532.190996
21160.253066,148.041188,-6217.729913,2528.115143
21160.253399,3182.885551,-6439.791695,4979.620737
21160.253732,2368.659014,-2442.679609,5515.887586
21160.254065,4663.297435,-5625.565159,5439.278036
21160.254398,3182.885551,-5699.585753,2451.505594
21160.254731,2664.741391,-8586.388927,3600.648841
21160.255065,-74.020594,-11843.295072,-2528.115143
21160.255398,-2368.659014,-11325.150913,-4596.572988
21160.255731,-6513.812290,-14434.015869,-6435.202183
21160.256064,-5329.482782,-11473.192101,-5745.716235
21160.256397,-3478.967927,-11251.130318,-1378.971896
21160.256730,-2072.576638,-9474.636058,2451.505594
21160.257063,-74.020594,-7105.977043,0.000000
21160.257396,0.000000,-4811.338623,1225.752797
21160.257729,3182.885551,-8882.471304,6665.030833
21160.258063,1702.473667,-2072.576638,2221.676944
21160.258396,3701.029710,-9474.636058,6052.154434
21160.258729,1480.411884,-6291.750507,1225.752797
21160.259062,1332.370696,-10436.903782,-2451.505594
21160.259395,-1998.556043,-13989.892304,-4903.011187
21160.259728,-370.102971,-15396.283594,-4366.744339
21160.260061,-3923.091493,-10732.986159,-6128.763984
21160.260394,296.082377,-9844.739029,2068.457845
21160.260728,-74.020594,-11547.212695,2374.896044
21160.261061,-370.102971,-4811.338623,-1532.190996
21160.261394,-74.020594,-8882.471304,3907.087040
21160.261727,0.000000,-5699.585753,4826.401637
21160.262060,2294.638420,-4811.338623,4136.915689
21160.262393,2664.741391,-7328.038826,5515.887586
21160.262726,4663.297435,-9178.553681,3294.210641
21160.263059,-1702.473667,-9918.759623,-2604.724693
21160.263392,0.000000,-13027.624579,-4213.525239
21160.263726,-3997.112087,-13249.686362,-5745.716235
21160.264059,-1776.494261,-10140.821405,-2451.505594
21160.264392,0.000000,-11621.233289,842.705048
21160.264725,1554.432478,-10658.965565,-76.609550
21160.265058,-74.020594,-7105.977043,-2068.457845
21160.265391,592.164754,-9548.656652,3753.867940
21160.265724,3775.050304,-4145.153275,4213.525239
21160.266057,3256.906145,-7105.977043,6358.592633
21160.266390,4441.235652,-7920.203579,5515.887586
21160.266724,1332.370696,-6957.935855,1608.800546
21160.267057,148.041188,-10658.965565,-1225.752797
21160.267390,-592.164754,-11325.150913,-76.609550
21160.267723,-4811.338623,-10732.986159,-6128.763984
21160.268056,-2812.782580,-9992.780217,-4903.011187
21160.268389,-3552.988522,-11917.315666,-995.924147
21160.268722,-3552.988522,-8068.244768,-4290.134789
21160.269055,1110.308913,-7994.224174,842.705048
21160.269388,1628.453072,-8438.347739,3677.258390
21160.269722,4293.194464,-5773.606348,6281.983084
21160.270055,3478.967927,-6809.894666,4519.963438
21160.270388,4737.318029,-9104.533087,6665.030833
21160.270721,2590.720797,-5107.421000,0.000000
21160.271054,2664.741391,-11843.295072,842.705048
21160.271387,1406.391290,-11843.295072,-2528.115143
21160.271720,-666.185348,-13027.624579,-3140.991542
21160.272053,222.061783,-11177.109724,-2911.162892
21160.272387,-666.185348,-11695.253884,229.828649
21160.272720,-1184.329507,-5477.523971,-2221.676944
21160.273053,-4145.153275,-7179.997637,-2451.505594
21160.273386,2886.803174,-8290.306550,2374.896044
21160.273719,2368.659014,-5699.585753,4903.011187
21160.274052,5477.523971,-6513.812290,8197.221829
21160.274385,3478.967927,-7328.038826,4290.134789
21160.274718,296.082377,-6587.832884,0.000000
21160.275051,592.164754,-9844.739029,-1532.190996
21160.275385,-1554.432478,-14211.954086,-3753.867940
21160.275718,-2738.761985,-11917.315666,-5515.887586
21160.276051,-1184.329507,-11991.336260,-919.314598
21160.276384,-74.020594,-7624.121203,-2451.505594
21160.276717,-296.082377,-9474.636058,-76.609550
21160.277050,2294.638420,-11251.130318,2374.896044
21160.277383,0.000000,-5995.668130,4903.011187
21160.277716,0.000000,-5107.421000,3983.696590
21160.278049,1480.411884,-5995.668130,5056.230287
21160.278383,-666.185348,-7994.224174,2298.286494
21160.278716,1628.453072,-6069.688724,-612.876398
21160.279049,148.041188,-12139.377449,1532.190996
21160.279382,-2442.679609,-10881.027347,-3983.696590
21160.279715,-4293.194464,-10288.862594,-4060.306139
21160.280048,-3552.988522,-11325.150913,-2528.115143
21160.280381,0.000000,-10288.862594,-919.314598
21160.280714,-2960.823768,-9548.656652,0.000000
21160.281047,-74.020594,-7698.141797,-1378.971896
21160.281381,-2368.659014,-5995.668130,1838.629195
21160.281714,4663.297435,-7698.141797,4826.401637
21160.282047,3775.050304,-5921.647536,5439.278036
21160.282380,1184.329507,-8956.491898,4290.134789
21160.282713,1702.473667,-7031.956449,-1225.752797
21160.283046,-962.267725,-13693.809927,-612.876398
21160.283379,888.247130,-9770.718434,-689.485948
21160.283712,-74.020594,-11843.295072,-76.609550
21160.284046,-666.185348,-9548.656652,-4060.306139
21160.284379,-1184.329507,-10510.924376,-2451.505594
21160.284712,-962.267725,-11547.212695,-76.609550
21160.285045,814.226536,-6587.832884,459.657299
21160.285378,1332.370696,-8290.306550,4826.401637
21160.285711,2368.659014,-5699.585753,4903.011187
21160.286044,2590.720797,-7105.977043,4826.401637
21160.286377,1110.308913,-7772.162391,919.314598
21160.286710,-1554.432478,-9474.636058,-2528.115143
21160.287044,-2442.679609,-8364.327145,-4290.134789
21160.287377,-1480.411884,-12435.459826,-1915.238745
21160.287710,-1850.514855,-9474.636058,-2528.115143
21160.288043,-592.164754,-7476.080014,-1532.190996
21160.288376,1702.473667,-9474.636058,-1302.362347
21160.288709,1332.370696,-8956.491898,-612.876398
21160.289042,740.205942,-9474.636058,-76.609550
21160.289375,1776.494261,-8142.265362,995.924147
21160.289708,2664.741391,-8364.327145,1532.190996
21160.290042,3849.070898,-10436.903782,6128.763984
21160.290375,4663.297435,-9474.636058,-76.609550
21160.290708,0.000000,-9548.656652,1225.752797
21160.291041,296.082377,-11769.274478,3447.429741
21160.291374,-74.020594,-10066.800811,-842.705048
21160.291707,222.061783,-8512.368333,1149.143247
21160.292040,-2146.597232,-8882.471304,-229.828649
21160.292373,-2442.679609,-7402.059420,-2451.505594
21160.292707,-4737.318029,-7476.080014,-3677.258390
21160.293040,-2368.659014,-9326.594869,-1302.362347
21160.293373,-2664.741391,-8734.430116,1302.362347
21160.293706,1184.329507,-6291.750507,2451.505594
21160.294039,3182.885551,-11843.295072,2374.896044
21160.294372,2886.803174,-9474.636058,1762.019645
21160.294705,0.000000,-8364.327145,1225.752797
21160.295038,2590.720797,-11103.089130,3600.648841
21160.295371,3182.885551,-9918.759623,995.924147
21160.295705,2886.803174,-10658.965565,3217.601092
21160.296038,2072.576638,-8512.368333,2834.553343
21160.296371,-296.082377,-6439.791695,-2604.724693
21160.296704,-1184.329507,-9548.656652,-2374.896044
21160.297037,-1480.411884,-8290.306550,-1455.581446
21160.297370,1184.329507,-7772.162391,1762.019645
21160.297703,0.000000,-5995.668130,4903.011187
21160.298036,4663.297435,-9474.636058,1149.143247
21160.298369,592.164754,-8882.471304,-842.705048
21160.298702,1184.329507,-9030.512492,76.609550
21160.299035,2886.803174,-11547.212695,995.924147
21160.299369,1036.288319,-10288.862594,2145.067394
21160.299702,2590.720797,-8882.471304,689.485948
21160.300035,-2960.823768,-10140.821405,229.828649
21160.300368,2294.638420,-9178.553681,-689.485948
21160.300701,-1998.556043,-7476.080014,-2145.067394
21160.301034,0.000000,-9252.574275,1608.800546
21160.301367,-74.020594,-11251.130318,1762.019645
21160.301700,-1554.432478,-4811.338623,1225.752797
21160.302033,518.144159,-6809.894666,0.000000
21160.302366,1628.453072,-9178.553681,919.314598
21160.302700,592.164754,-9252.574275,1532.190996
21160.303033,-3034.844362,-10436.903782,1072.533697
21160.303366,370.102971,-7105.977043,-76.609550
21160.303699,-3552.988522,-12879.583391,-76.609550
21160.304032,-74.020594,-10510.924376,-76.609550
21160.304365,-2442.679609,-9548.656652,-3064.381992
21160.304698,-4145.153275,-8660.409521,-1838.629195
21160.305031,-3256.906145,-8512.368333,76.609550
21160.305364,-1184.329507,-7624.121203,2528.115143
21160.305697,2368.659014,-6291.750507,3524.039291
21160.306031,-740.205942,-7920.203579,1072.533697
21160.306364,592.164754,-7772.162391,0.000000
21160.306697,-74.020594,-13027.624579,2987.772442
21160.307030,222.061783,-7179.997637,612.876398
21160.307363,0.000000,-9548.656652,1838.629195
21160.307696,-1258.350101,-14211.954086,-536.266849
21160.308029,-1776.494261,-7476.080014,-1838.629195
21160.308362,-666.185348,-9770.718434,-76.609550
21160.308695,814.226536,-6957.935855,536.266849
21160.309028,-814.226536,-7179.997637,766.095498
21160.309362,1184.329507,-5995.668130,3064.381992
21160.309695,1998.556043,-7031.956449,1685.410096
21160.310028,740.205942,-8142.265362,-612.876398
21160.310361,-1480.411884,-11843.295072,-1455.581446
21160.310694,-666.185348,-11251.130318,-689.485948
21160.311027,-962.267725,-8364.327145,-1532.190996
21160.311360,1776.494261,-9030.512492,4826.401637
21160.311693,3478.967927,-7105.977043,-1608.800546
21160.312026,1776.494261,-9548.656652,1532.190996
21160.312359,2368.659014,-11769.274478,3294.210641
21160.312692,-1184.329507,-8660.409521,-1072.533697
21160.313026,1702.473667,-8290.306550,-76.609550
21160.313359,2220.617826,-10288.862594,2834.553343
21160.313692,3404.947333,-6513.812290,2221.676944
21160.314025,2294.638420,-4811.338623,-2451.505594
21160.314358,2294.638420,-13915.871710,1149.143247
21160.314691,-1258.350101,-11251.130318,-689.485948
21160.315024,518.144159,-9326.594869,1225.752797
21160.315357,518.144159,-10658.965565,1762.019645
21160.315690,-2072.576638,-7550.100608,-1225.752797
21160.316023,-3775.050304,-8882.471304,-2604.724693
21160.316357,-1628.453072,-7402.059420,-2451.505594
21160.316690,-2368.659014,-7476.080014,0.000000
21160.317023,-2220.617826,-8364.327145,0.000000
21160.317356,2886.803174,-9474.636058,1762.019645
21160.317689,-666.185348,-9696.697840,0.000000
21160.318022,592.164754,-6587.832884,919.314598
21160.318355,1480.411884,-9548.656652,536.266849
21160.318688,4145.153275,-9030.512492,2681.334243
21160.319021,5625.565159,-8364.327145,4519.963438
21160.319354,3478.967927,-11769.274478,2911.162892
21160.319688,3478.967927,-7698.141797,2374.896044
21160.320021,-4441.235652,-9548.656652,-2298.286494
21160.320354,-74.020594,-9474.636058,-3753.867940
21160.320687,-3923.091493,-9548.656652,-4596.572988
21160.321020,1110.308913,-8290.306550,-76.609550
21160.321353,2220.617826,-10510.924376,2451.505594
21160.321686,3478.967927,-7402.059420,1915.238745
21160.322019,2664.741391,-7698.141797,1072.533697
21160.322352,1110.308913,-11177.109724,1378.971896
21160.322685,1998.556043,-8142.265362,536.266849
21160.323019,3256.906145,-10658.965565,4213.525239
21160.323352,2590.720797,-8660.409521,1532.190996
21160.323685,-4145.153275,-8660.409521,612.876398
21160.324018,1110.308913,-10658.965565,-1302.362347
21160.324351,-444.123565,-9030.512492,-1225.752797
21160.324684,-1036.288319,-9474.636058,536.266849
21160.325017,-1924.535449,-9030.512492,919.314598
21160.325350,-1850.514855,-7328.038826,0.000000
21160.325683,-1406.391290,-6143.709319,-2911.162892
21160.326016,-296.082377,-10658.965565,-76.609550
21160.326349,-1850.514855,-9844.739029,612.876398
21160.326683,-962.267725,-8438.347739,1685.410096
21160.327016,1480.411884,-7772.162391,3600.648841
21160.327349,1110.308913,-9474.636058,-76.609550
21160.327682,296.082377,-8438.347739,2451.505594
21160.328015,-1554.432478,-13027.624579,-689.485948
21160.328348,-3849.070898,-7772.162391,-3064.381992
21160.328681,-4145.153275,-10140.821405,-1225.752797
21160.329014,-74.020594,-9918.759623,-1455.581446
21160.329347,592.164754,-7920.203579,689.485948
21160.329680,518.144159,-8956.491898,229.828649
21160.330014,2368.659014,-8882.471304,1532.190996
21160.330347,0.000000,-9548.656652,612.876398
21160.330680,4663.297435,-10658.965565,4213.525239
21160.331013,2146.597232,-8882.471304,2987.772442
21160.331346,0.000000,-9548.656652,2451.505594
21160.331679,1998.556043,-11251.130318,-76.609550
21160.332012,-3108.864956,-8364.327145,-3064.381992
21160.332345,-1850.514855,-9474.636058,-2374.896044
21160.332678,-1258.350101,-9474.636058,-1378.971896
21160.333011,592.164754,-9400.615463,2298.286494
21160.333345,592.164754,-7179.997637,3677.258390
21160.333678,5847.626942,-8882.471304,3600.648841
21160.334011,-666.185348,-7476.080014,1225.752797
21160.334344,1776.494261,-9918.759623,3600.648841
21160.334677,-74.020594,-8290.306550,1302.362347
21160.335010,0.000000,-6883.915261,2528.115143
21160.335343,296.082377,-9622.677246,-689.485948
21160.335676,-1332.370696,-10584.944971,-2451.505594
21160.336009,-518.144159,-11251.130318,-2451.505594
21160.336342,-1258.350101,-11251.130318,-76.609550
21160.336676,814.226536,-7105.977043,-2681.334243
21160.337009,0.000000,-9548.656652,2757.943793
21160.337342,4071.132681,-6809.894666,229.828649
21160.337675,2886.803174,-7994.224174,-1302.362347
21160.338008,1184.329507,-8660.409521,2987.772442
21160.338341,2738.761985,-8660.409521,1378.971896
21160.338674,2590.720797,-8808.450710,3677.258390
21160.339007,1480.411884,-9474.636058,1838.629195
21160.339340,-222.061783,-11843.295072,-995.924147
21160.339673,-3108.864956,-10436.903782,-4749.792088
21160.340006,-3552.988522,-10807.006753,-3294.210641
21160.340340,-740.205942,-9474.636058,-76.609550
21160.340673,-2368.659014,-7179.997637,0.000000
21160.341006,0.000000,-7179.997637,1838.629195
21160.341339,2886.803174,-9474.636058,1149.143247
21160.341672,2442.679609,-5921.647536,842.705048
21160.342005,296.082377,-7772.162391,1838.629195
21160.342338,666.185348,-9548.656652,2298.286494
21160.342671,3849.070898,-7846.182985,4749.792088
21160.343004,-1110.308913,-9844.739029,842.705048
21160.343337,5403.503377,-6513.812290,689.485948
21160.343671,0.000000,-11325.150913,-919.314598
21160.344004,814.226536,-9918.759623,-612.876398
21160.344337,-74.020594,-7105.977043,-3217.601092
21160.344670,-1184.329507,-8956.491898,-995.924147
21160.345003,2368.659014,-9326.594869,2374.896044
21160.345336,0.000000,-8068.244768,0.000000
21160.345669,2220.617826,-10362.883188,1149.143247
21160.346002,-1776.494261,-9178.553681,536.266849
21160.346335,888.247130,-9252.574275,1685.410096
21160.346668,2294.638420,-7105.977043,3600.648841
21160.347002,592.164754,-7179.997637,3064.381992
21160.347335,518.144159,-7105.977043,-2221.676944
21160.347668,-2072.576638,-8956.491898,-1838.629195
21160.348001,-962.267725,-11103.089130,-612.876398
21160.348334,2294.638420,-11251.130318,-76.609550
21160.348667,444.123565,-10658.965565,842.705048
21160.349000,0.000000,-8216.285956,-995.924147
21160.349333,-1406.391290,-10510.924376,-1302.362347
21160.349666,1036.288319,-8512.368333,383.047749
21160.349999,-74.020594,-10214.842000,2374.896044
21160.350333,0.000000,-8364.327145,3064.381992
21160.350666,0.000000,-8660.409521,6052.154434
21160.350999,1110.308913,-7698.141797,383.047749
21160.351332,0.000000,-6587.832884,612.876398
21160.351665,-1258.350101,-9918.759623,-1915.238745
21160.351998,-1258.350101,-9474.636058,-842.705048
21160.352331,-1480.411884,-9030.512492,0.000000
21160.352664,-1036.288319,-9622.677246,-229.828649
21160.352997,-370.102971,-8290.306550,-1915.238745
21160.353330,-2072.576638,-10732.986159,1915.238745
21160.353663,814.226536,-9474.636058,1149.143247
21160.353997,-370.102971,-6291.750507,0.000000
21160.354330,0.000000,-7179.997637,2451.505594
21160.354663,2886.803174,-7846.182985,2221.676944
21160.354996,1184.329507,-7994.224174,2528.115143
21160.355329,1184.329507,-8808.450710,766.095498
21160.355662,-2146.597232,-9400.615463,-1072.533697
21160.355995,-74.020594,-9326.594869,-995.924147
21160.356328,296.082377,-8882.471304,-76.609550
21160.356661,0.000000,-9844.739029,0.000000
21160.356994,296.082377,-9030.512492,-1302.362347
21160.357328,0.000000,-9548.656652,0.000000
21160.357661,3478.967927,-8882.471304,383.047749
21160.357994,0.000000,-7179.997637,0.000000
21160.358327,2960.823768,-8512.368333,4826.401637
21160.358660,3478.967927,-7846.182985,919.314598
21160.358993,518.144159,-7772.162391,0.000000
21160.359326,1628.453072,-9030.512492,-1149.143247
21160.359659,-1480.411884,-10362.883188,-1225.752797
21160.359992,1110.308913,-9474.636058,-842.705048
21160.360325,1998.556043,-10658.965565,2068.457845
21160.360659,2294.638420,-10658.965565,-76.609550
21160.360992,0.000000,-8364.327145,0.000000
21160.361325,1776.494261,-11325.150913,2374.896044
21160.361658,1702.473667,-8068.244768,0.000000
21160.361991,592.164754,-8660.409521,4749.792088
21160.362324,1480.411884,-7920.203579,2451.505594
21160.362657,2960.823768,-8216.285956,2681.334243
21160.362990,1850.514855,-9326.594869,2374.896044
21160.363323,1628.453072,-9474.636058,-76.609550
21160.363656,-370.102971,-7846.182985,-3753.867940
21160.363990,-2368.659014,-11547.212695,-76.609550
21160.364323,-74.020594,-9474.636058,-689.485948
21160.364656,-2738.761985,-7476.080014,-4290.134789
21160.364989,-1258.350101,-10658.965565,-689.485948
21160.365322,-2960.823768,-8068.244768,-766.095498
21160.365655,-814.226536,-8216.285956,536.266849
21160.365988,962.267725,-7179.997637,3064.381992
21160.366321,1184.329507,-7179.997637,3830.477490
21160.366654,3182.885551,-7254.018232,1225.752797
21160.366987,4737.318029,-10807.006753,4826.401637
21160.367320,1406.391290,-9622.677246,0.000000
21160.367654,-1776.494261,-10881.027347,0.000000
21160.367987,-888.247130,-8512.368333,-2451.505594
21160.368320,-888.247130,-9696.697840,-383.047749
21160.368653,-2146.597232,-9844.739029,-2068.457845
21160.368986,-2368.659014,-8808.450710,-2451.505594
21160.369319,-1258.350101,-11177.109724,1149.143247
21160.369652,-3552.988522,-7179.997637,4290.134789
21160.369985,2886.803174,-4737.318029,3600.648841
21160.370318,2146.597232,-5995.668130,3677.258390
21160.370651,4959.379811,-9178.553681,3294.210641
21160.370985,-1110.308913,-10436.903782,-2068.457845
21160.371318,-1184.329507,-10807.006753,-2681.334243
21160.371651,-2368.659014,-11325.150913,-2528.115143
21160.371984,-222.061783,-12139.377449,-689.485948
21160.372317,3182.885551,-10066.800811,2068.457845
21160.372650,-2072.576638,-10436.903782,-689.485948
21160.372983,1110.308913,-8068.244768,76.609550
21160.373316,0.000000,-8956.491898,3064.381992
21160.373649,2886.803174,-6439.791695,3677.258390
21160.373982,3552.988522,-7624.121203,6128.763984
21160.374316,444.123565,-4811.338623,0.000000
21160.374649,2960.823768,-9400.615463,2987.772442
21160.374982,1110.308913,-9622.677246,-306.438199
21160.375315,-1406.391290,-8660.409521,-4519.963438
21160.375648,-3108.864956,-11473.192101,-3753.867940
21160.375981,-1110.308913,-12139.377449,-3447.429741
21160.376314,-1110.308913,-10214.842000,-2374.896044
21160.376647,222.061783,-9770.718434,-1072.533697
21160.376980,1702.473667,-10658.965565,-689.485948
21160.377313,0.000000,-8364.327145,3677.258390
21160.377646,5625.565159,-8438.347739,8503.660028
21160.377980,4663.297435,-4811.338623,4903.011187
21160.378313,4737.318029,-7476.080014,3983.696590
21160.378646,5255.462188,-7698.141797,1149.143247
21160.378979,740.205942,-11547.212695,-536.266849
21160.379312,370.102971,-10658.965565,-2834.553343
21160.379645,-1850.514855,-12657.521608,-3907.087040
21160.379978,-1258.350101,-11769.274478,-4903.011187
21160.380311,-2072.576638,-13249.686362,2374.896044
21160.380644,-666.185348,-9104.533087,-1149.143247
21160.380977,1110.308913,-7031.956449,306.438199
21160.381311,1184.329507,-9474.636058,7277.907231
21160.381644,2220.617826,-4219.173869,5209.449386
21160.381977,2146.597232,-5255.462188,5592.497135
21160.382310,1480.411884,-6883.915261,2298.286494
21160.382643,962.267725,-7772.162391,0.000000
21160.382976,-2220.617826,-9548.656652,-2451.505594
21160.383309,-74.020594,-11251.130318,-1915.238745
21160.383642,-3923.091493,-11029.068536,-7354.516781
21160.383975,-3552.988522,-10732.986159,-6741.640382
21160.384308,-1110.308913,-13915.871710,-76.609550
21160.384642,-1924.535449,-9844.739029,0.000000
21160.384975,-1258.350101,-9326.594869,229.828649
21160.385308,74.020594,-9104.533087,4290.134789
21160.385641,3997.112087,-5773.606348,7737.564530
21160.385974,4737.318029,-4811.338623,6435.202183
21160.386307,3701.029710,-5921.647536,4749.792088
21160.386640,2294.638420,-8586.388927,1149.143247
21160.386973,-962.267725,-10807.006753,-1455.581446
21160.387306,-1258.350101,-11251.130318,-3753.867940
21160.387639,-2442.679609,-10214.842000,-6128.763984
21160.387973,-1776.494261,-11473.192101,-1915.238745
21160.388306,-74.020594,-14211.954086,-2528.115143
21160.388639,-2442.679609,-9992.780217,-3064.381992
21160.388972,-1850.514855,-10066.800811,-383.047749
21160.389305,-370.102971,-8660.409521,2068.457845
21160.389638,4515.256246,-4589.276840,7048.078582
21160.389971,6069.688724,-5255.462188,7890.783629
21160.390304,4145.153275,-4811.338623,3983.696590
21160.390637,6439.791695,-6735.874072,-1762.019645
21160.390970,3256.906145,-11843.295072,2374.896044
21160.391303,2886.803174,-9844.739029,-1838.629195
21160.391637,-444.123565,-10732.986159,-3064.381992
21160.391970,-1184.329507,-10658.965565,-4519.963438
21160.392303,-2738.761985,-11473.192101,-4596.572988
21160.392636,-2664.741391,-10288.862594,-3524.039291
21160.392969,-3701.029710,-8660.409521,-1838.629195
21160.393302,-1776.494261,-9252.574275,3677.258390
21160.393635,3478.967927,-3627.009116,4903.011187
21160.393968,2368.659014,-6587.832884,8810.098227
21160.394301,5847.626942,-3997.112087,2374.896044
21160.394634,0.000000,-7772.162391,612.876398
21160.394968,0.000000,-8956.491898,0.000000
21160.395301,-666.185348,-11843.295072,-995.924147
21160.395634,-3330.926739,-11103.089130,-2834.553343
21160.395967,-2442.679609,-10732.986159,-6052.154434
21160.396300,-3256.906145,-14211.954086,-4979.620737
21160.396633,-2368.659014,-10140.821405,-1225.752797
21160.396966,-666.185348,-9770.718434,-153.219100
21160.397299,2294.638420,-6587.832884,1838.629195
21160.397632,3552.988522,-7105.977043,8197.221829
21160.397965,5847.626942,-9474.636058,7277.907231
21160.398299,3923.091493,-6809.894666,4366.744339
21160.398632,2072.576638,-7772.162391,1838.629195
21160.398965,0.000000,-8364.327145,76.609550
21160.399298,-888.247130,-9548.656652,-306.438199
21160.399631,-1332.370696,-11843.295072,-689.485948
21160.399964,-7476.080014,-11917.315666,-7354.516781
21160.400297,-3256.906145,-9548.656652,-4903.011187
21160.400631,-1406.391290,-13027.624579,-1302.362347
21160.400964,444.123565,-7105.977043,2987.772442
21160.401297,1110.308913,-5995.668130,3064.381992
21160.401630,2960.823768,-6217.729913,6358.592633
21160.401963,5699.585753,-6217.729913,4519.963438
21160.402296,1850.514855,-9622.677246,2374.896044
21160.402630,7624.121203,-7698.141797,2374.896044
21160.402963,0.000000,-11473.192101,1072.533697
21160.403296,3627.009116,-9622.677246,-919.314598
21160.403629,-518.144159,-11325.150913,-1378.971896
21160.403962,-2368.659014,-9548.656652,-4903.011187
21160.404295,2886.803174,-8882.471304,-4979.620737
21160.404628,-5329.482782,-13101.645173,-3907.087040
21160.404962,-2960.823768,-7179.997637,-306.438199
21160.405295,962.267725,-10066.800811,3600.648841
21160.405628,5551.544565,-5107.421000,4903.011187
21160.405961,7920.203579,-4367.215058,7277.907231
21160.406294,3923.091493,-6587.832884,4060.306139
21160.406627,1776.494261,-7846.182985,153.219100
21160.406961,0.000000,-12065.356855,-1072.533697
21160.407294,2590.720797,-13027.624579,-2528.115143
21160.407627,-3552.988522,-11917.315666,-2757.943793
21160.407960,-2368.659014,-10732.986159,-5515.887586
21160.408293,-370.102971,-12435.459826,-3753.867940
21160.408626,-3256.906145,-11029.068536,0.000000
21160.408960,-1258.350101,-8290.306550,1149.143247
21160.409293,814.226536,-8512.368333,5286.058936
21160.409626,4737.318029,-6069.688724,7737.564530
21160.409959,5847.626942,-4737.318029,7890.783629
21160.410292,4663.297435,-9474.636058,3600.648841
21160.410625,0.000000,-7179.997637,2451.505594
21160.410959,-148.041188,-10955.047942,-76.609550
21160.411292,-370.102971,-10658.965565,-3140.991542
21160.411625,-1850.514855,-11547.212695,-3753.867940
21160.411958,-4441.235652,-12139.377449,-5822.325785
21160.412291,-4737.318029,-9992.780217,-4903.011187
21160.412624,-4515.256246,-10881.027347,-2604.724693
21160.412957,-4441.235652,-7179.997637,0.000000
21160.413291,-74.020594,-6661.853478,3064.381992
21160.413624,0.000000,-6587.832884,7967.393179
21160.413957,4663.297435,-6513.812290,5439.278036
21160.414290,592.164754,-7179.997637,2451.505594
21160.414623,2072.576638,-7698.141797,2374.896044
21160.414956,2442.679609,-9400.615463,1685.410096
21160.415290,518.144159,-11695.253884,-153.219100
21160.415623,-2368.659014,-10140.821405,-5745.716235
21160.415956,-4441.235652,-14582.057057,-7048.078582
21160.416289,-4441.235652,-10732.986159,-4749.792088
21160.416622,-74.020594,-11251.130318,-76.609550
21160.416955,4367.215058,-8290.306550,1762.019645
21160.417289,3552.988522,-8364.327145,8810.098227
21160.417622,4515.256246,-7105.977043,8503.660028
21160.417955,4441.235652,-3330.926739,4979.620737
21160.418288,888.247130,-9030.512492,1838.629195
21160.418621,1702.473667,-7105.977043,0.000000
21160.418954,-296.082377,-11029.068536,459.657299
21160.419287,-1480.411884,-9548.656652,-1378.971896
21160.419621,-3478.967927,-8956.491898,-5132.839837
21160.419954,-3627.009116,-11177.109724,-6665.030833
21160.420287,-2664.741391,-11399.171507,-4519.963438
21160.420620,-4737.318029,-10732.986159,-3677.258390
21160.420953,-1554.432478,-9474.636058,-1302.362347
21160.421286,0.000000,-7179.997637,5209.449386
21160.421620,8216.285956,-7698.141797,9116.536426
21160.421953,7031.956449,-5625.565159,6052.154434
21160.422286,4737.318029,-9178.553681,5745.716235
21160.422619,3923.091493,-8734.430116,2145.067394
21160.422952,2294.638420,-11399.171507,2604.724693
21160.423285,2294.638420,-10807.006753,-995.924147
21160.423619,-1258.350101,-13027.624579,-3140.991542
21160.423952,-4737.318029,-11325.150913,-5822.325785
21160.424285,-4737.318029,-9844.739029,-2987.772442
21160.424618,-4219.173869,-10510.924376,-2834.553343
21160.424951,-3478.967927,-4811.338623,0.000000
21160.425284,-666.185348,-9474.636058,4826.401637
21160.425617,3552.988522,-4737.318029,5822.325785
21160.425951,2812.782580,-5699.585753,5822.325785
21160.426284,2368.659014,-6365.771101,3524.039291
21160.426617,4071.132681,-8142.265362,2374.896044
21160.426950,0.000000,-10140.821405,2757.943793
21160.427283,4367.215058,-9474.636058,-1302.362347
21160.427616,-666.185348,-12583.501014,-5898.935335
21160.427950,592.164754,-10732.986159,-3064.381992
21160.428283,-2442.679609,-10955.047942,-3600.648841
21160.428616,0.000000,-9400.615463,-766.095498
21160.428949,740.205942,-7402.059420,2528.115143
21160.429282,1406.391290,-9918.759623,2145.067394
21160.429615,3849.070898,-5403.503377,3677.258390
21160.429949,2368.659014,-8660.409521,6971.469032
21160.430282,3478.967927,-7105.977043,612.876398
21160.430615,1776.494261,-7179.997637,2451.505594
21160.430948,2368.659014,-10658.965565,4443.353888
21160.431281,2886.803174,-8438.347739,-1532.190996
21160.431614,-814.226536,-12065.356855,-4213.525239
21160.431948,-2738.761985,-13175.665768,-6205.373534
21160.432281,-3330.926739,-11843.295072,-4673.182538
21160.432614,-3478.967927,-10732.986159,-2451.505594
21160.432947,-888.247130,-9474.636058,2374.896044
21160.433280,444.123565,-7920.203579,5822.325785
21160.433613,2886.803174,-6069.688724,6588.421283
21160.433946,4071.132681,-6513.812290,7277.907231
21160.434280,-74.020594,-6809.894666,2451.505594
21160.434613,592.164754,-7179.997637,3830.477490
21160.434946,2294.638420,-13027.624579,2374.896044
21160.435279,-1776.494261,-7476.080014,-4903.011187
21160.435612,-3108.864956,-12657.521608,-6128.763984
21160.435945,-4219.173869,-12583.501014,-7354.516781
21160.436279,-4441.235652,-10955.047942,-5745.716235
21160.436612,-2738.761985,-11695.253884,-536.266849
21160.436945,-814.226536,-6513.812290,229.828649
21160.437278,888.247130,-9474.636058,2374.896044
21160.437611,2960.823768,-5995.668130,8273.831378
21160.437944,4663.297435,-5625.565159,5439.278036
21160.438278,4367.215058,-4811.338623,4903.011187
21160.438611,4959.379811,-7994.224174,4826.401637
21160.438944,1850.514855,-9252.574275,1532.190996
21160.439277,592.164754,-9548.656652,-3447.429741
21160.439610,-3108.864956,-12213.398043,-7354.516781
21160.439943,-4589.276840,-12805.562797,-7354.516781
21160.440276,-4811.338623,-12435.459826,-5515.887586
21160.440610,-4737.318029,-9844.739029,612.876398
21160.440943,-666.185348,-9474.636058,1149.143247
21160.441276,1406.391290,-5625.565159,2604.724693
21160.441609,3552.988522,-5403.503377,7660.954980
21160.441942,4663.297435,-5255.462188,7277.907231
21160.442275,3478.967927,-6809.894666,5132.839837
21160.442609,3775.050304,-7772.162391,3370.820191
21160.442942,2886.803174,-12435.459826,-689.485948
21160.443275,1406.391290,-9548.656652,-4290.134789
21160.443608,-74.020594,-15396.283594,-4979.620737
21160.443941,-1554.432478,-13471.748144,-6741.640382
21160.444274,-4737.318029,-11621.233289,-1762.019645
21160.444608,-74.020594,-9474.636058,-76.609550
21160.444941,-2664.741391,-7624.121203,3753.867940
21160.445274,444.123565,-4515.256246,2451.505594
21160.445607,2368.659014,-8364.327145,6281.983084
21160.445940,1998.556043,-3627.009116,4903.011187
21160.446273,1184.329507,-6883.915261,6052.154434
21160.446606,2294.638420,-5847.626942,0.000000
21160.446940,0.000000,-9548.656652,-4903.011187
21160.447273,1332.370696,-13027.624579,-1915.238745
21160.447606,-666.185348,-14952.160028,-4366.744339
21160.447939,-4145.153275,-13693.809927,-6052.154434
21160.448272,-1924.535449,-11177.109724,-1225.752797
21160.448605,592.164754,-10510.924376,3907.087040
21160.448939,2664.741391,-6661.853478,4903.011187
21160.449272,2072.576638,-8068.244768,6358.592633
21160.449605,2886.803174,-6587.832884,4903.011187
21160.449938,1554.432478,-4219.173869,2987.772442
21160.450271,2220.617826,-8290.306550,3217.601092
21160.450604,3182.885551,-8290.306550,1149.143247
21160.450938,-2368.659014,-10436.903782,-459.657299
21160.451271,-74.020594,-11843.295072,-3140.991542
21160.451604,-7698.141797,-12213.398043,-6128.763984
21160.451937,-4293.194464,-12583.501014,-4903.011187
21160.452270,-1258.350101,-10658.965565,-229.828649
21160.452603,-740.205942,-8290.306550,1838.629195
21160.452937,888.247130,-6957.935855,4596.572988
21160.453270,2368.659014,-5107.421000,5515.887586
21160.453603,2368.659014,-4219.173869,5515.887586
21160.453936,0.000000,-5403.503377,4979.620737
21160.454269,2294.638420,-7846.182985,-842.705048
21160.454602,814.226536,-8660.409521,0.000000
21160.454935,1480.411884,-11843.295072,-2834.553343
21160.455269,3182.885551,-10807.006753,-4903.011187
21160.455602,-2294.638420,-14804.118840,-4060.306139
21160.455935,-1184.329507,-10732.986159,-2987.772442
21160.456268,-740.205942,-10214.842000,919.314598
21160.456601,1480.411884,-7772.162391,1838.629195
21160.456934,1184.329507,-7772.162391,6971.469032
21160.457268,1702.473667,-6809.894666,1532.190996
21160.457601,2368.659014,-5551.544565,2451.505594
21160.457934,1628.453072,-9474.636058,4213.525239
21160.458267,0.000000,-7772.162391,2451.505594
21160.458600,1702.473667,-10955.047942,995.924147
21160.458933,740.205942,-9918.759623,-842.705048
21160.459267,814.226536,-11103.089130,-1532.190996
21160.459600,-814.226536,-11843.295072,-1915.238745
21160.459933,-1258.350101,-10658.965565,-1915.238745
21160.460266,-1850.514855,-8216.285956,-3064.381992
21160.460599,-2220.617826,-9696.697840,1685.410096
21160.460932,-74.020594,-9474.636058,-76.609550
21160.461265,-814.226536,-9326.594869,1762.019645
21160.461599,0.000000,-5995.668130,2298.286494
21160.461932,1480.411884,-7179.997637,3600.648841
21160.462265,1628.453072,-9400.615463,3600.648841
21160.462598,2442.679609,-7179.997637,1302.362347
21160.462931,3182.885551,-9178.553681,-1149.143247
21160.463264,1184.329507,-9548.656652,-3677.258390
21160.463598,-1776.494261,-13471.748144,-689.485948
21160.463931,-1998.556043,-11251.130318,-2834.553343
21160.464264,-74.020594,-9474.636058,-76.609550
21160.464597,-1998.556043,-9400.615463,-536.266849
21160.464930,74.020594,-8808.450710,766.095498
21160.465263,-444.123565,-7624.121203,1838.629195
21160.465597,296.082377,-4811.338623,919.314598
21160.465930,3478.967927,-7624.121203,3907.087040
21160.466263,2442.679609,-8290.306550,4213.525239
21160.466596,3775.050304,-8290.306550,2221.676944
21160.466929,444.123565,-11029.068536,1072.533697
21160.467262,1184.329507,-8290.306550,-2528.115143
21160.467595,-74.020594,-13915.871710,-76.609550
21160.467929,-962.267725,-9548.656652,-3370.820191
21160.468262,-1776.494261,-10140.821405,-1838.629195
21160.468595,-2368.659014,-10510.924376,0.000000
21160.468928,-1924.535449,-7179.997637,0.000000
21160.469261,-370.102971,-9104.533087,536.266849
21160.469594,2072.576638,-7402.059420,3600.648841
21160.469928,2738.761985,-8216.285956,4979.620737
21160.470261,1776.494261,-7772.162391,2451.505594
21160.470594,4071.132681,-6957.935855,0.000000
21160.470927,0.000000,-9548.656652,0.000000
21160.471260,2146.597232,-11843.295072,-2528.115143
21160.471593,-2442.679609,-11843.295072,-2681.334243
21160.471927,-1184.329507,-11103.089130,-995.924147
21160.472260,-1184.329507,-9178.553681,0.000000
21160.472593,-2220.617826,-9992.780217,-1378.971896
21160.472926,-2368.659014,-8290.306550,-1225.752797
21160.473259,-1702.473667,-8882.471304,1762.019645
21160.473592,-74.020594,-5107.421000,0.000000
21160.473925,2516.700203,-8364.327145,4903.011187
21160.474259,4071.132681,-10658.965565,3294.210641
21160.474592,0.000000,-7179.997637,1532.190996
21160.474925,2886.803174,-10362.883188,1762.019645
21160.475258,1258.350101,-10510.924376,-306.438199
21160.475591,-1184.329507,-10066.800811,-2298.286494
21160.475924,0.000000,-10732.986159,-536.266849
21160.476258,-74.020594,-11251.130318,-1302.362347
21160.476591,-1776.494261,-7179.997637,0.000000
21160.476924,814.226536,-9474.636058,536.266849
21160.477257,-1110.308913,-6069.688724,-1302.362347
21160.477590,0.000000,-6587.832884,3064.381992
21160.477923,4663.297435,-7994.224174,4519.963438
21160.478257,1480.411884,-7476.080014,2987.772442
21160.478590,2146.597232,-7179.997637,995.924147
21160.478923,-370.102971,-9548.656652,-689.485948
21160.479256,-666.185348,-10362.883188,-1608.800546
21160.479589,-3478.967927,-11029.068536,-3600.648841
21160.479922,-2368.659014,-11843.295072,-2987.772442
21160.480256,-1850.514855,-10658.965565,-1991.848295
21160.480589,0.000000,-10732.986159,0.000000
21160.480922,1110.308913,-10658.965565,1149.143247
21160.481255,0.000000,-5403.503377,1225.752797
21160.481588,0.000000,-7179.997637,7354.516781
21160.481921,4811.338623,-8290.306550,6052.154434
21160.482254,1776.494261,-8512.368333,1838.629195
21160.482588,2590.720797,-9474.636058,1608.800546
21160.482921,-888.247130,-10436.903782,-383.047749
21160.483254,-1480.411884,-9770.718434,-2221.676944
21160.483587,-666.185348,-11843.295072,-76.609550
21160.483920,-1406.391290,-10658.965565,-76.609550
21160.484253,-1850.514855,-8364.327145,-3370.820191
21160.484587,-1184.329507,-9992.780217,0.000000
21160.484920,1110.308913,-8882.471304,-689.485948
21160.485253,-148.041188,-8068.244768,1225.752797
21160.485586,2294.638420,-8660.409521,2604.724693
21160.485919,2442.679609,-9474.636058,3294.210641
21160.486252,1184.329507,-9400.615463,1685.410096
21160.486586,3478.967927,-8290.306550,0.000000
21160.486919,2812.782580,-11769.274478,1762.019645
21160.487252,-2368.659014,-8364.327145,306.438199
21160.487585,-74.020594,-10658.965565,-1302.362347
21160.487918,-444.123565,-10658.965565,-3447.429741
21160.488251,1110.308913,-11399.171507,-1302.362347
21160.488584,814.226536,-9548.656652,1225.752797
21160.488918,-1480.411884,-7105.977043,-689.485948
21160.489251,222.061783,-8216.285956,689.485948
21160.489584,592.164754,-7179.997637,3677.258390
21160.489917,4663.297435,-7105.977043,3140.991542
21160.490250,2072.576638,-9474.636058,4826.401637
21160.490583,1110.308913,-9104.533087,-2451.505594
21160.490917,-3552.988522,-10510.924376,229.828649
21160.491250,-1036.288319,-7476.080014,-1225.752797
21160.491583,0.000000,-10140.821405,1225.752797
21160.491916,1036.288319,-8660.409521,689.485948
21160.492249,1110.308913,-9918.759623,-689.485948
21160.492582,-74.020594,-10658.965565,-76.609550
21160.492916,-3330.926739,-7772.162391,-3370.820191
21160.493249,-740.205942,-12583.501014,1149.143247
21160.493582,2294.638420,-7698.141797,2068.457845
21160.493915,592.164754,-9696.697840,5286.058936
21160.494248,2368.659014,-6587.832884,2451.505594
21160.494581,1184.329507,-7476.080014,2451.505594
21160.494914,74.020594,-8586.388927,229.828649
21160.495248,1110.308913,-9474.636058,-842.705048
21160.495581,-74.020594,-12287.418637,1149.143247
21160.495914,-2146.597232,-8512.368333,-3370.820191
21160.496247,-2368.659014,-8660.409521,-3064.381992
21160.496580,-1850.514855,-11251.130318,-3140.991542
21160.496913,-3478.967927,-8660.409521,-2681.334243
21160.497247,1406.391290,-11843.295072,2374.896044
21160.497580,1628.453072,-7179.997637,3983.696590
21160.497913,1184.329507,-9548.656652,6128.763984
21160.498246,5847.626942,-9474.636058,3600.648841
21160.498579,666.185348,-8364.327145,2145.067394
21160.498921,-888.247130,-8068.244768,1072.533697
21160.499254,592.164754,-9474.636058,2374.896044
21160.499587,-1184.329507,-10140.821405,766.095498
21160.499920,0.000000,-8586.388927,-1378.971896
21160.500254,-1258.350101,-10658.965565,-2528.115143
21160.500587,-2146.597232,-8364.327145,-2451.505594
21160.500920,-814.226536,-8290.306550,-76.609550
21160.501253,-1184.329507,-9548.656652,0.000000
21160.501587,2886.803174,-8734.430116,1149.143247
21160.501920,1184.329507,-7179.997637,3677.258390
21160.502253,4663.297435,-10658.965565,2374.896044
21160.502586,2886.803174,-7179.997637,2451.505594
21160.502919,2368.659014,-5255.462188,919.314598
21160.503253,2294.638420,-8364.327145,689.485948
21160.503586,518.144159,-5995.668130,0.000000
21160.503919,-74.020594,-12731.542202,-4979.620737
21160.504252,0.000000,-9770.718434,-4060.306139
21160.504586,-2368.659014,-9548.656652,-3064.381992
21160.504919,-666.185348,-10066.800811,-2298.286494
21160.505252,3478.967927,-8586.388927,2604.724693
21160.505585,2886.803174,-8512.368333,3217.601092
21160.505918,5847.626942,-8512.368333,3983.696590
21160.506252,3404.947333,-10510.924376,2604.724693
21160.506585,2664.741391,-9474.636058,2374.896044
21160.506918,-1258.350101,-7772.162391,-2145.067394
21160.507251,1776.494261,-10436.903782,3600.648841
21160.507585,-2294.638420,-10658.965565,-689.485948
21160.507918,-962.267725,-7328.038826,-3370.820191
21160.508251,-1258.350101,-11251.130318,-1915.238745
21160.508584,-3627.009116,-9178.553681,-2451.505594
21160.508917,-2960.823768,-8512.368333,-536.266849
21160.509251,-666.185348,-10658.965565,2374.896044
21160.509584,0.000000,-5403.503377,2451.505594
21160.509917,444.123565,-8956.491898,2757.943793
21160.510250,3478.967927,-11843.295072,2374.896044
21160.510584,-2146.597232,-7179.997637,-1838.629195
21160.510917,-2442.679609,-11103.089130,0.000000
21160.511250,-1258.350101,-10658.965565,842.705048
21160.511583,-1332.370696,-8808.450710,0.000000
21160.511916,-222.061783,-7772.162391,-1378.971896
21160.512250,-2664.741391,-10140.821405,-1225.752797
21160.512583,-3034.844362,-7179.997637,-2451.505594
21160.512916,-3256.906145,-9770.718434,612.876398
21160.513249,814.226536,-8882.471304,2451.505594
21160.513583,2442.679609,-7179.997637,3524.039291
21160.513916,0.000000,-8364.327145,612.876398
21160.514249,814.226536,-8290.306550,-2528.115143
21160.514582,-2368.659014,-7772.162391,153.219100
21160.514915,-74.020594,-10955.047942,-76.609550
21160.515249,2294.638420,-7994.224174,2068.457845
21160.515582,-1184.329507,-8956.491898,-842.705048
21160.515915,814.226536,-10066.800811,-1685.410096
21160.516248,-1776.494261,-10288.862594,-842.705048
21160.516582,296.082377,-7920.203579,-919.314598
21160.516915,3552.988522,-10658.965565,3830.477490
21160.517248,3034.844362,-8364.327145,1225.752797
21160.517581,2368.659014,-10140.821405,3677.258390
21160.517914,4663.297435,-9474.636058,-153.219100
21160.518248,518.144159,-7846.182985,0.000000
21160.518581,2294.638420,-10510.924376,1762.019645
21160.518914,2368.659014,-7994.224174,3064.381992
21160.519247,1184.329507,-7031.956449,2145.067394
