#time,accel_x,accel_y,accel_z
20032.579304,8216.285956,-9474.636058,2068.457845
20032.579638,9992.780217,-9178.553681,4213.525239
20032.579971,11029.068536,-8216.285956,4290.134789
20032.580305,11769.274478,-8956.491898,3447.429741
20032.580639,10732.986159,-8660.409521,1915.238745
20032.580972,8586.388927,-7772.162391,-1532.190996
20032.581306,9400.615463,-10658.965565,-2834.553343
20032.581640,4737.318029,-9548.656652,-2451.505594
20032.581973,9844.739029,-10658.965565,-2834.553343
20032.582307,9030.512492,-8290.306550,-3753.867940
20032.582641,9474.636058,-7772.162391,0.000000
20032.582974,11621.233289,-10140.821405,2681.334243
20032.583308,12805.562797,-9474.636058,4366.744339
20032.583642,10362.883188,-9844.739029,3524.039291
20032.583975,8290.306550,-11769.274478,3064.381992
20032.584309,6439.791695,-10807.006753,0.000000
20032.584642,4145.153275,-11177.109724,2451.505594
20032.584976,4293.194464,-10658.965565,1762.019645
20032.585310,1110.308913,-6291.750507,-1225.752797
20032.585643,296.082377,-6587.832884,306.438199
20032.585977,2590.720797,-6661.853478,-76.609550
20032.586311,2516.700203,-6809.894666,-766.095498
20032.586644,3849.070898,-6809.894666,-842.705048
20032.586978,4663.297435,-9474.636058,1149.143247
20032.587312,2368.659014,-7179.997637,0.000000
20032.587645,5847.626942,-12731.542202,-76.609550
20032.587979,4663.297435,-14211.954086,-689.485948
20032.588313,592.164754,-10732.986159,-1225.752797
20032.588646,592.164754,-10732.986159,0.000000
20032.588980,1258.350101,-11473.192101,383.047749
20032.589314,-888.247130,-8068.244768,766.095498
20032.589647,-1110.308913,-7550.100608,2068.457845
20032.589981,1110.308913,-6809.894666,2374.896044
20032.590314,0.000000,-4959.379811,2681.334243
20032.590648,4071.132681,-5181.441594,2528.115143
20032.590982,4071.132681,-7031.956449,3983.696590
20032.591315,2442.679609,-7698.141797,383.047749
20032.591649,3256.906145,-10658.965565,-689.485948
20032.591983,1110.308913,-11547.212695,-3064.381992
20032.592316,-3552.988522,-13397.727550,-383.047749
20032.592650,-2442.679609,-12731.542202,-4979.620737
20032.592984,-6217.729913,-13397.727550,-2757.943793
20032.593317,-4589.276840,-11769.274478,536.266849
20032.593651,-814.226536,-7105.977043,3064.381992
20032.593985,3478.967927,-3330.926739,5822.325785
20032.594318,5773.606348,-3478.967927,7354.516781
20032.594652,9400.615463,-3256.906145,6052.154434
20032.594985,9400.615463,-4219.173869,2451.505594
20032.595319,11473.192101,-8882.471304,3524.039291
20032.595653,9400.615463,-9474.636058,-2528.115143
20032.595986,4885.359217,-12065.356855,-4290.134789
20032.596320,5255.462188,-15100.201217,-4979.620737
20032.596654,1332.370696,-14804.118840,-5439.278036
20032.596987,444.123565,-14137.933492,-4749.792088
20032.597321,-1258.350101,-12879.583391,-2221.676944
20032.597655,-1628.453072,-10214.842000,0.000000
20032.597988,74.020594,-4811.338623,2451.505594
20032.598322,3478.967927,-6513.812290,6665.030833
20032.598656,7031.956449,-3552.988522,7277.907231
20032.598989,6957.935855,-1850.514855,7354.516781
20032.599323,11177.109724,-2368.659014,5669.106685
20032.599657,9992.780217,-5773.606348,2681.334243
20032.599990,7994.224174,-8290.306550,-2451.505594
20032.600324,6513.812290,-11177.109724,-5975.544884
20032.600657,2960.823768,-14285.974681,-8886.707777
20032.600991,1480.411884,-18209.066173,-7967.393179
20032.601325,-370.102971,-18949.272115,-8963.317327
20032.601658,-3256.906145,-15766.386565,-5515.887586
20032.601992,-3552.988522,-14285.974681,3600.648841
20032.602326,-666.185348,-11547.212695,2604.724693
20032.602659,-2664.741391,-7846.182985,6971.469032
20032.602993,0.000000,-4293.194464,9806.022374
20032.603327,3552.988522,-740.205942,12717.185267
20032.603660,4737.318029,-74.020594,12257.527968
20032.603994,5255.462188,-2072.576638,7737.564530
20032.604328,4663.297435,-3404.947333,3064.381992
20032.604661,1554.432478,-6809.894666,-2987.772442
20032.604995,-666.185348,-11251.130318,-8656.879127
20032.605329,-7328.038826,-16580.613101,-13559.890315
20032.605662,-12065.356855,-16654.633695,-15934.786358
20032.605996,-12509.480420,-19541.436869,-10495.508323
20032.606329,-9548.656652,-18949.272115,-6511.811733
20032.606663,-7772.162391,-14804.118840,1762.019645
20032.606997,-5403.503377,-10510.924376,8963.317327
20032.607330,-222.061783,-4145.153275,14325.985813
20032.607664,5403.503377,-370.102971,18539.511052
20032.607998,7772.162391,2368.659014,18156.463303
20032.608331,7698.141797,1702.473667,13406.671215
20032.608665,2960.823768,-74.020594,4903.011187
20032.608999,5181.441594,-4737.318029,-2681.334243
20032.609332,1110.308913,-11843.295072,-10495.508323
20032.609666,-5995.668130,-14656.077652,-17007.320056
20032.610000,-8068.244768,-19541.436869,-18692.730151
20032.610333,-9844.739029,-21465.972318,-14785.643111
20032.610667,-8142.265362,-20281.642811,-8810.098227
20032.611000,-5699.585753,-16358.551318,-766.095498
20032.611334,-1258.350101,-13619.789333,7890.783629
20032.611668,2368.659014,-4811.338623,14096.157163
20032.612001,4737.318029,-1554.432478,21680.502593
20032.612335,9400.615463,2664.741391,17390.367805
20032.612669,7105.977043,5847.626942,14709.033562
20032.613002,10436.903782,3034.844362,6741.640382
20032.613336,9030.512492,-814.226536,-1302.362347
20032.613670,5551.544565,-7105.977043,-9116.536426
20032.614003,1036.288319,-13175.665768,-16394.443657
20032.614337,-4515.256246,-18135.045579,-20837.797546
20032.614671,-4737.318029,-24574.837274,-17237.148705
20032.615004,-4811.338623,-27683.702231,-10801.946522
20032.615338,-3627.009116,-21243.910535,-4213.525239
20032.615672,1110.308913,-16136.489536,8197.221829
20032.616005,2960.823768,-8512.368333,16011.395908
20032.616339,7920.203579,-888.247130,20454.749797
20032.616672,9992.780217,3330.926739,21450.673944
20032.617006,10066.800811,4885.359217,17850.025103
20032.617340,7698.141797,5255.462188,9806.022374
20032.617673,7254.018232,-2368.659014,1149.143247
20032.618007,4219.173869,-2442.679609,-9499.584175
20032.618341,-2368.659014,-10732.986159,-14402.595362
20032.618674,-2220.617826,-18949.272115,-17237.148705
20032.619008,-7105.977043,-22280.198854,-19612.044749
20032.619342,-8364.327145,-26351.331535,-15704.957709
20032.619675,-7179.997637,-24722.878463,-6971.469032
20032.620009,-5329.482782,-18875.251521,2068.457845
20032.620343,-4737.318029,-11917.315666,12257.527968
20032.620676,666.185348,-3775.050304,18616.120601
20032.621010,2812.782580,2886.803174,20531.359346
20032.621343,5255.462188,6661.853478,18922.558801
20032.621677,5847.626942,7105.977043,14632.424012
20032.622011,4515.256246,4885.359217,3677.258390
20032.622344,2664.741391,-888.247130,-2451.505594
20032.622678,2886.803174,-9474.636058,-10495.508323
20032.623012,-2738.761985,-14359.995275,-17160.539155
20032.623345,-6513.812290,-22576.281231,-17237.148705
20032.623679,-9548.656652,-25759.166782,-18003.244203
20032.624013,-9844.739029,-27831.743419,-11261.603821
20032.624346,-9696.697840,-21984.116477,-4290.134789
20032.624680,-7920.203579,-14508.036463,2374.896044
20032.625014,-3034.844362,-5477.523971,12257.527968
20032.625347,2072.576638,592.164754,21374.064394
20032.625681,7402.059420,5181.441594,24438.446386
20032.626015,7328.038826,9474.636058,17160.539155
20032.626348,6735.874072,5329.482782,12180.918418
20032.626682,6809.894666,1332.370696,3907.087040
20032.627015,6809.894666,-4293.194464,-4979.620737
20032.627349,1554.432478,-13101.645173,-13483.280765
20032.627683,-3552.988522,-19615.457463,-20837.797546
20032.628016,-5403.503377,-22872.363608,-24515.055936
20032.628350,-5921.647536,-30200.402434,-14172.766713
20032.628684,-6143.709319,-25389.063811,-9882.631924
20032.629017,-5403.503377,-18949.272115,-3370.820191
20032.629351,-3256.906145,-11029.068536,7354.516781
20032.629685,3182.885551,-2368.659014,18922.558801
20032.630018,8364.327145,5699.585753,20837.797546
20032.630352,9178.553681,7328.038826,19305.606550
20032.630685,11769.274478,6217.729913,17083.929605
20032.631019,9474.636058,4367.215058,9806.022374
20032.631352,11769.274478,-5921.647536,3294.210641
20032.631686,6439.791695,-5995.668130,-11031.775171
20032.632019,2590.720797,-15322.262999,-20301.530697
20032.632353,666.185348,-23686.590144,-17850.025103
20032.632686,-4811.338623,-27535.661042,-17237.148705
20032.633020,-8364.327145,-28423.908173,-16011.395908
20032.633353,-10955.047942,-23464.528361,-9039.926876
20032.633687,-9474.636058,-14878.139434,0.000000
20032.634020,-1554.432478,-8882.471304,13406.671215
20032.634354,2146.597232,4293.194464,17773.415554
20032.634687,4737.318029,7031.956449,25204.541884
20032.635021,12953.603985,12139.377449,21144.235745
20032.635354,14137.933492,8290.306550,20454.749797
20032.635688,11843.295072,1850.514855,9729.412825
20032.636021,9622.677246,-3552.988522,-3753.867940
20032.636355,2072.576638,-12953.603985,-15321.909960
20032.636688,-4145.153275,-20207.622217,-22676.426741
20032.637022,-8142.265362,-28423.908173,-23672.350888
20032.637355,-13545.768739,-29534.217086,-22063.550342
20032.637689,-15470.304188,-28423.908173,-15704.957709
20032.638022,-14730.098246,-20947.828159,-4903.011187
20032.638356,-9252.574275,-11251.130318,6052.154434
20032.638689,-2960.823768,-1110.308913,19612.044749
20032.639023,5255.462188,5329.482782,26277.075581
20032.639356,9696.697840,12657.521608,25740.808733
20032.639690,11843.295072,12361.439231,26966.561530
20032.640023,13545.768739,4293.194464,14402.595362
20032.640357,10584.944971,666.185348,1762.019645
20032.640690,6291.750507,-6439.791695,-12563.966167
20032.641024,-814.226536,-18579.169144,-20378.140247
20032.641357,-8882.471304,-25537.104999,-28192.314326
20032.641691,-13619.789333,-30792.567187,-25357.760984
20032.642024,-15470.304188,-33753.390955,-19688.654299
20032.642358,-15470.304188,-24648.857869,-11644.651570
20032.642691,-9844.739029,-17616.901420,4213.525239
20032.643025,-4737.318029,-4811.338623,15321.909960
20032.643358,5403.503377,6365.771101,26277.075581
20032.643692,11029.068536,11991.336260,31026.867669
20032.644025,16580.613101,12435.459826,30720.429470
20032.644358,15396.283594,10584.944971,22063.550342
20032.644692,13915.871710,1184.329507,8503.660028
20032.645025,7624.121203,-1998.556043,-9806.022374
20032.645359,0.000000,-13397.727550,-19612.044749
20032.645692,-4885.359217,-24278.754898,-26736.732880
20032.646026,-12435.459826,-30126.381839,-27502.828378
20032.646359,-15396.283594,-31754.834912,-24974.713235
20032.646693,-13915.871710,-30718.546593,-13942.938064
20032.647026,-9178.553681,-20725.766376,-689.485948
20032.647360,-1850.514855,-11843.295072,14325.985813
20032.647693,5255.462188,0.000000,23212.693589
20032.648027,10436.903782,11177.109724,28192.314326
20032.648360,14211.954086,12065.356855,30643.819920
20032.648694,17690.922014,10658.965565,24438.446386
20032.649027,13027.624579,9252.574275,11491.432470
20032.649361,8660.409521,888.247130,-4903.011187
20032.649694,3997.112087,-10436.903782,-16930.710506
20032.650028,-2886.803174,-19689.478057,-24974.713235
20032.650361,-7179.997637,-29904.320057,-26506.904231
20032.650695,-11769.274478,-31384.731941,-25970.637382
20032.651028,-14434.015869,-34419.576303,-18539.511052
20032.651362,-12657.521608,-27609.681637,-5822.325785
20032.651695,-7476.080014,-13101.645173,5056.230287
20032.652029,-1776.494261,-2738.761985,19612.044749
20032.652362,7550.100608,5921.647536,28115.704777
20032.652696,12953.603985,11843.295072,29341.457573
20032.653029,12879.583391,14582.057057,27885.876127
20032.653363,12731.542202,13027.624579,15704.957709
20032.653696,7476.080014,5847.626942,306.438199
20032.654030,5033.400406,-5181.441594,-11414.822920
20032.654363,-962.267725,-16580.613101,-20914.407095
20032.654697,-8882.471304,-26129.269753,-26966.561530
20032.655030,-12213.398043,-32643.082042,-29418.067123
20032.655364,-13101.645173,-36122.049970,-20914.407095
20032.655697,-11843.295072,-29682.258274,-9499.584175
20032.656031,-8586.388927,-17838.963202,2451.505594
20032.656364,-4737.318029,-8660.409521,12870.404366
20032.656698,2442.679609,3404.947333,23212.693589
20032.657031,7105.977043,12065.356855,29418.067123
20032.657365,11547.212695,14656.077652,28115.704777
20032.657698,11769.274478,11251.130318,20761.187996
20032.658032,5921.647536,9400.615463,4903.011187
20032.658365,6439.791695,0.000000,-6818.249932
20032.658699,1924.535449,-10140.821405,-15321.909960
20032.659032,-2442.679609,-23686.590144,-23289.303139
20032.659366,-5995.668130,-31976.896694,-24898.103685
20032.659699,-9770.718434,-32791.123231,-22140.159892
20032.660033,-10362.883188,-33975.452738,-12947.013916
20032.660366,-8512.368333,-25537.104999,-1685.410096
20032.660700,-6143.709319,-14359.995275,7048.078582
20032.661033,0.000000,-2738.761985,21067.626195
20032.661367,6735.874072,12287.418637,24515.055936
20032.661700,9474.636058,17098.757260,28192.314326
20032.662034,12657.521608,11843.295072,22599.817191
20032.662367,10584.944971,12435.459826,10189.070123
20032.662701,9104.533087,3256.906145,995.924147
20032.663034,8438.347739,-5699.585753,-8580.269578
20032.663368,1702.473667,-18505.148550,-18233.072852
20032.663701,-4441.235652,-26573.393318,-25281.151434
20032.664035,-6587.832884,-33161.226202,-23365.912689
20032.664368,-11103.089130,-33235.246796,-17160.539155
20032.664702,-8142.265362,-29386.175897,-7354.516781
20032.665035,-5995.668130,-21021.848753,-76.609550
20032.665369,-5107.421000,-8290.306550,9882.631924
20032.665702,814.226536,3849.070898,19535.435199
20032.666036,5847.626942,11177.109724,24515.055936
20032.666369,10214.842000,15396.283594,22599.817191
20032.666703,9178.553681,12657.521608,18999.168350
20032.667036,11473.192101,6661.853478,8503.660028
20032.667370,9030.512492,-1036.288319,-1149.143247
20032.667703,4145.153275,-12509.480420,-11644.651570
20032.668037,-592.164754,-22576.281231,-21527.283494
20032.668370,-6513.812290,-29090.093521,-24515.055936
20032.668704,-9252.574275,-34271.535115,-21067.626195
20032.669037,-11917.315666,-34345.555709,-16317.834107
20032.669371,-13619.789333,-23760.610738,-7354.516781
20032.669704,-9992.780217,-15248.242405,4443.353888
20032.670038,-3034.844362,-1924.535449,14709.033562
20032.670371,3997.112087,9474.636058,23136.084040
20032.670705,7179.997637,14434.015869,25817.418283
20032.671038,10584.944971,15692.365970,24515.055936
20032.671372,12139.377449,10436.903782,18539.511052
20032.671705,11769.274478,0.000000,6971.469032
20032.672039,7994.224174,-3627.009116,-7967.393179
20032.672372,518.144159,-16062.468941,-19305.606550
20032.672706,-5625.565159,-27017.516883,-23672.350888
20032.673039,-11177.109724,-32050.917289,-26660.123330
20032.673373,-13323.706956,-33679.370361,-21527.283494
20032.673706,-12731.542202,-28794.011144,-12334.137518
20032.674040,-11843.295072,-19467.416275,-536.266849
20032.674373,-4811.338623,-9178.553681,11874.480219
20032.674707,-74.020594,592.164754,19535.435199
20032.675040,3849.070898,12953.603985,25740.808733
20032.675374,10807.006753,15322.262999,26966.561530
20032.675707,15026.180623,10658.965565,25664.199183
20032.676041,14952.160028,7031.956449,15168.690860
20032.676374,9844.739029,-74.020594,-383.047749
20032.676708,5625.565159,-9400.615463,-15168.690860
20032.677041,-2072.576638,-23242.466579,-22982.864940
20032.677375,-7105.977043,-29682.258274,-27502.828378
20032.677708,-11029.068536,-33161.226202,-26430.294681
20032.678042,-14211.954086,-31458.752535,-19612.044749
20032.678375,-11843.295072,-26943.496289,-6205.373534
20032.678709,-6587.832884,-15396.283594,5745.716235
20032.679042,814.226536,-2960.823768,17696.806004
20032.679376,7402.059420,8808.450710,28039.095227
20032.679709,13397.727550,13471.748144,29494.676673
20032.680043,17024.736666,14137.933492,28805.190725
20032.680376,15396.283594,8808.450710,21144.235745
20032.680710,12509.480420,5847.626942,3064.381992
20032.681043,9326.594869,-6587.832884,-9806.022374
20032.681377,2294.638420,-20133.601622,-20914.407095
20032.681710,-6587.832884,-26129.269753,-30030.943522
20032.682044,-10732.986159,-33753.390955,-28268.923876
20032.682377,-14582.057057,-33827.411549,-23748.960438
20032.682711,-12287.418637,-30866.587781,-11797.870669
20032.683044,-8068.244768,-20429.683999,2221.676944
20032.683378,-2960.823768,-7772.162391,14709.033562
20032.683711,5255.462188,4219.173869,25127.932334
20032.684045,10510.924376,11103.089130,29111.628924
20032.684378,13249.686362,13027.624579,29341.457573
20032.684712,11325.150913,10510.924376,23289.303139
20032.685045,9770.718434,10584.944971,7967.393179
20032.685379,7031.956449,0.000000,-4979.620737
20032.685712,1776.494261,-8364.327145,-17160.539155
20032.686046,-3627.009116,-21910.095883,-23902.179538
20032.686379,-8660.409521,-31976.896694,-27043.171079
20032.686713,-16432.571912,-32050.917289,-26660.123330
20032.687046,-17320.819043,-35307.823433,-18156.463303
20032.687380,-13101.645173,-26943.496289,-5592.497135
20032.687713,-8438.347739,-13767.830521,8273.831378
20032.688047,592.164754,-3997.112087,22063.550342
20032.688380,5847.626942,11177.109724,26353.685131
20032.688714,9474.636058,15322.262999,34321.078310
20032.689047,15322.262999,14211.954086,29035.019374
20032.689381,11917.315666,14730.098246,14709.033562
20032.689714,9030.512492,4737.318029,-76.609550
20032.690048,2664.741391,-6587.832884,-13713.109414
20032.690381,-3552.988522,-18283.086767,-23136.084040
20032.690715,-9400.615463,-28571.949361,-29111.628924
20032.691048,-12361.439231,-34197.514520,-28575.362075
20032.691382,-16062.468941,-34419.576303,-23289.303139
20032.691715,-11251.130318,-31458.752535,-9193.145976
20032.692049,-6809.894666,-19467.416275,7277.907231
20032.692382,-1776.494261,-6587.832884,15015.471761
20032.692716,5551.544565,4885.359217,24668.275036
20032.693049,10362.883188,12805.562797,30490.600820
20032.693383,13545.768739,15100.201217,29341.457573
20032.693716,12583.501014,13027.624579,19765.263848
20032.694050,8660.409521,9474.636058,3600.648841
20032.694383,3552.988522,-74.020594,-7967.393179
20032.694717,3108.864956,-14211.954086,-16624.272307
20032.695050,-2738.761985,-23686.590144,-25817.418283
20032.695384,-9474.636058,-30866.587781,-28192.314326
20032.695717,-9548.656652,-34567.617491,-23212.693589
20032.696051,-9178.553681,-34641.638086,-12180.918418
20032.696384,-6513.812290,-25092.981434,-306.438199
20032.696718,-3404.947333,-12361.439231,9193.145976
20032.697051,2812.782580,0.000000,20761.187996
20032.697385,8290.306550,9474.636058,28881.800275
20032.697718,12287.418637,14656.077652,29341.457573
20032.698052,12509.480420,13915.871710,23059.474490
20032.698385,10214.842000,9696.697840,11261.603821
20032.698718,8660.409521,2960.823768,-2528.115143
20032.699052,4367.215058,-5995.668130,-13176.842566
20032.699385,-2368.659014,-20799.786970,-19765.263848
20032.699719,-4959.379811,-28423.908173,-26277.075581
20032.700052,-10658.965565,-31458.752535,-26660.123330
20032.700386,-9474.636058,-34271.535115,-17237.148705
20032.700719,-7846.182985,-30348.443622,-5898.935335
20032.701053,-6439.791695,-18653.189738,2604.724693
20032.701386,-666.185348,-7698.141797,15551.738609
20032.701720,4441.235652,2368.659014,24438.446386
20032.702053,6957.935855,14137.933492,25740.808733
20032.702387,8734.430116,12805.562797,24515.055936
20032.702720,10066.800811,10140.821405,18309.682402
20032.703054,9104.533087,9474.636058,5822.325785
20032.703387,7772.162391,-1258.350101,-4290.134789
20032.703721,1480.411884,-15100.201217,-13866.328514
20032.704054,-3997.112087,-23686.590144,-22906.255390
20032.704388,-8586.388927,-28497.928767,-25740.808733
20032.704721,-9696.697840,-35381.844028,-19995.092498
20032.705055,-15396.283594,-31458.752535,-13483.280765
20032.705388,-11621.233289,-25759.166782,-4443.353888
20032.705722,-8068.244768,-13027.624579,4213.525239
20032.706055,-2146.597232,296.082377,18309.682402
20032.706389,5107.421000,11843.295072,25434.370534
20032.706722,8216.285956,14211.954086,26353.685131
20032.707056,11177.109724,16062.468941,22906.255390
20032.707389,9770.718434,9400.615463,15321.909960
20032.707723,12361.439231,2368.659014,2221.676944
20032.708056,7105.977043,-7624.121203,-9806.022374
20032.708390,592.164754,-22502.260637,-18462.901502
20032.708723,-5403.503377,-26425.352129,-26813.342430
20032.709057,-11251.130318,-33235.246796,-26047.246932
20032.709390,-13027.624579,-33605.349767,-19918.482948
20032.709724,-11769.274478,-28349.887579,-10112.460574
20032.710057,-9696.697840,-18727.210333,2068.457845
20032.710391,-2442.679609,-8290.306550,15551.738609
20032.710724,962.267725,8808.450710,20837.797546
20032.711058,9400.615463,10658.965565,26889.951980
20032.711391,12065.356855,15396.283594,25357.760984
20032.711725,11843.295072,12953.603985,23289.303139
20032.712058,10658.965565,7031.956449,9806.022374
20032.712392,9622.677246,-2294.638420,-3524.039291
20032.712725,4737.318029,-11621.233289,-16394.443657
20032.713059,-1776.494261,-24722.878463,-23136.084040
20032.713392,-4811.338623,-33087.205607,-25204.541884
20032.713726,-12583.501014,-33383.287984,-24515.055936
20032.714059,-12805.562797,-31828.855506,-18003.244203
20032.714393,-12657.521608,-25685.146187,-5592.497135
20032.714726,-7254.018232,-12805.562797,7201.297681
20032.715060,592.164754,-888.247130,19918.482948
20032.715393,6587.832884,11103.089130,25740.808733
20032.715727,9474.636058,17098.757260,30030.943522
20032.716060,16950.716072,13619.789333,27502.828378
20032.716394,13249.686362,10362.883188,16854.100956
20032.716727,11843.295072,2738.761985,3524.039291
20032.717061,7105.977043,-6365.771101,-11951.089769
20032.717394,-1036.288319,-20725.766376,-21680.502593
20032.717728,-7698.141797,-27979.784608,-28422.142976
20032.718061,-12509.480420,-34789.679274,-27043.171079
20032.718395,-14582.057057,-32050.917289,-23902.179538
20032.718728,-12583.501014,-30792.567187,-10725.336972
20032.719062,-9030.512492,-20725.766376,4826.401637
20032.719395,-3627.009116,-5255.462188,12870.404366
20032.719729,4367.215058,4145.153275,25664.199183
20032.720062,9178.553681,13027.624579,29647.895773
20032.720396,12953.603985,14952.160028,28651.971625
20032.720729,12953.603985,11843.295072,22599.817191
20032.721063,11547.212695,10066.800811,7431.126331
20032.721396,7031.956449,2294.638420,-7354.516781
20032.721730,3552.988522,-14211.954086,-17237.148705
20032.722063,-3627.009116,-26055.249158,-25817.418283
20032.722397,-9844.739029,-31680.814318,-29341.457573
20032.722730,-13693.809927,-33753.390955,-27043.171079
20032.723064,-14730.098246,-34123.493926,-16547.662757
20032.723397,-11103.089130,-25018.960840,-2757.943793
20032.723731,-4885.359217,-11621.233289,10418.898773
20032.724064,2368.659014,-74.020594,23289.303139
20032.724398,8882.471304,10436.903782,32329.230016
20032.724731,13545.768739,14211.954086,29954.333972
20032.725065,12139.377449,15322.262999,26966.561530
20032.725398,13027.624579,12361.439231,17083.929605
20032.725732,9400.615463,3108.864956,-2834.553343
20032.726065,3701.029710,-7698.141797,-15704.957709
20032.726399,-4737.318029,-20873.807564,-23595.741338
20032.726732,-8512.368333,-28942.052332,-29418.067123
20032.727066,-14804.118840,-33827.411549,-28805.190725
20032.727399,-14211.954086,-35307.823433,-20148.311597
20032.727733,-9548.656652,-30496.484810,-6052.154434
20032.728066,-5625.565159,-16950.716072,8120.612279
20032.728400,3478.967927,-6513.812290,19535.435199
20032.728733,5847.626942,5033.400406,26889.951980
20032.729067,9400.615463,14137.933492,29418.067123
20032.729400,15396.283594,14211.954086,31256.696318
20032.729734,14359.995275,12731.542202,19535.435199
20032.730067,10584.944971,7105.977043,2681.334243
20032.730400,4293.194464,-3034.844362,-10648.727422
20032.730733,222.061783,-14952.160028,-19995.092498
20032.731067,-4737.318029,-24426.796086,-26047.246932
20032.731400,-11177.109724,-33531.329173,-28192.314326
20032.731733,-12435.459826,-33531.329173,-22216.769442
20032.732066,-14211.954086,-33235.246796,-12257.527968
20032.732400,-7402.059420,-23538.548956,2374.896044
20032.732733,-1258.350101,-11843.295072,13406.671215
20032.733066,2368.659014,1110.308913,24515.055936
20032.733399,9474.636058,12953.603985,28192.314326
20032.733733,11251.130318,17394.839637,29418.067123
20032.734066,11769.274478,14211.954086,21680.502593
20032.734399,9696.697840,9474.636058,7277.907231
20032.734732,7698.141797,370.102971,-3677.258390
20032.735066,3182.885551,-8364.327145,-16547.662757
20032.735399,-5551.544565,-20799.786970,-23902.179538
20032.735732,-8586.388927,-31828.855506,-26736.732880
20032.736065,-10140.821405,-32865.143825,-25434.370534
20032.736399,-8956.491898,-34937.720462,-14172.766713
20032.736732,-5625.565159,-27535.661042,-2145.067394
20032.737065,-5181.441594,-15914.427753,7354.516781
20032.737398,-666.185348,-4737.318029,17313.758255
20032.737732,5847.626942,7105.977043,24438.446386
20032.738065,4885.359217,14137.933492,26966.561530
20032.738398,9474.636058,13323.706956,24438.446386
20032.738731,9400.615463,13323.706956,11568.042020
20032.739065,4737.318029,7031.956449,1225.752797
20032.739398,7328.038826,-2960.823768,-7507.735880
20032.739731,1776.494261,-16580.613101,-14938.862211
20032.740064,-3034.844362,-25092.981434,-22369.988542
20032.740398,-7476.080014,-31310.711347,-24055.398637
20032.740731,-9548.656652,-31976.896694,-21144.235745
20032.741064,-13619.789333,-32050.917289,-9806.022374
20032.741397,-8068.244768,-23686.590144,-1302.362347
20032.741731,-5699.585753,-11251.130318,7277.907231
20032.742064,-3552.988522,3478.967927,19612.044749
20032.742397,7624.121203,11843.295072,24438.446386
20032.742730,8734.430116,15026.180623,25894.027832
20032.743064,11695.253884,14878.139434,21603.893044
20032.743397,11473.192101,10214.842000,12180.918418
20032.743730,10510.924376,0.000000,1762.019645
20032.744063,4885.359217,-11029.068536,-10495.508323
20032.744397,-1998.556043,-22798.343014,-21450.673944
20032.744730,-6143.709319,-28201.846390,-25740.808733
20032.745063,-10658.965565,-34567.617491,-23595.741338
20032.745396,-9548.656652,-33161.226202,-17850.025103
20032.745730,-10732.986159,-26129.269753,-7967.393179
20032.746063,-11251.130318,-14878.139434,4903.011187
20032.746396,-2442.679609,-5329.482782,15245.300410
20032.746729,1480.411884,9104.533087,19612.044749
20032.747063,8512.368333,11843.295072,26736.732880
20032.747396,11473.192101,15322.262999,25587.589633
20032.747729,11991.336260,11399.171507,19305.606550
20032.748062,12953.603985,3552.988522,9729.412825
20032.748395,10658.965565,-4737.318029,-2528.115143
20032.748729,3108.864956,-13397.727550,-15934.786358
20032.749062,296.082377,-26351.331535,-20914.407095
20032.749395,-5403.503377,-33161.226202,-26736.732880
20032.749728,-11325.150913,-34123.493926,-22982.864940
20032.750062,-13545.768739,-31680.814318,-16700.881856
20032.750395,-12213.398043,-23982.672521,-4903.011187
20032.750728,-6217.729913,-11769.274478,9039.926876
20032.751061,-1110.308913,4441.235652,17773.415554
20032.751395,8512.368333,9474.636058,28115.704777
20032.751728,7105.977043,17690.922014,30643.819920
20032.752061,15914.427753,12435.459826,26583.513781
20032.752394,12657.521608,9474.636058,14325.985813
20032.752728,11103.089130,592.164754,1762.019645
20032.753061,5255.462188,-7179.997637,-13330.061665
20032.753394,-3256.906145,-22428.240043,-22523.207641
20032.753727,-7772.162391,-28497.928767,-28881.800275
20032.754061,-14211.954086,-35159.782245,-26966.561530
20032.754394,-13101.645173,-33161.226202,-22753.036291
20032.754727,-13175.665768,-29756.278868,-9193.145976
20032.755060,-9474.636058,-18949.272115,6052.154434
20032.755394,-1406.391290,-2960.823768,15628.348159
20032.755727,3552.988522,7920.203579,26966.561530
20032.756060,10362.883188,13101.645173,32099.401366
20032.756393,13989.892304,15840.407159,29035.019374
20032.756727,13027.624579,11547.212695,22753.036291
20032.757060,12953.603985,5033.400406,7890.783629
20032.757393,6143.709319,-74.020594,-8580.269578
20032.757726,2886.803174,-16580.613101,-20301.530697
20032.758060,-5699.585753,-23982.672521,-28575.362075
20032.758393,-12731.542202,-33235.246796,-28192.314326
20032.758726,-16580.613101,-32939.164419,-26583.513781
20032.759059,-17024.736666,-34123.493926,-16011.395908
20032.759393,-12361.439231,-24204.734303,-2834.553343
20032.759726,-4219.173869,-9696.697840,11874.480219
20032.760059,4663.297435,296.082377,27809.266577
20032.760392,9474.636058,14137.933492,30643.819920
20032.760726,12065.356855,15248.242405,32405.839565
20032.761059,15100.201217,14508.036463,27885.876127
20032.761392,15470.304188,11843.295072,14325.985813
20032.761725,10658.965565,666.185348,-766.095498
20032.762059,2590.720797,-8956.491898,-18692.730151
20032.762392,-9474.636058,-22576.281231,-26660.123330
20032.762725,-8364.327145,-30792.567187,-30720.429470
20032.763058,-15174.221811,-34863.699868,-29724.505322
20032.763392,-14211.954086,-34863.699868,-17850.025103
20032.763725,-10658.965565,-29460.196492,-4596.572988
20032.764058,-5477.523971,-14952.160028,8963.317327
20032.764391,1998.556043,-3478.967927,21603.893044
20032.764725,8216.285956,7105.977043,28115.704777
20032.765058,10288.862594,15618.345376,30030.943522
20032.765391,15026.180623,13027.624579,30030.943522
20032.765724,14952.160028,12435.459826,19535.435199
20032.766058,8512.368333,7624.121203,0.000000
20032.766391,6513.812290,-5329.482782,-13253.452115
20032.766724,-444.123565,-17172.777854,-20837.797546
20032.767057,-4145.153275,-26721.434506,-27119.780629
20032.767391,-10955.047942,-34419.576303,-28728.581175
20032.767724,-15248.242405,-33531.329173,-25434.370534
20032.768057,-14211.954086,-33235.246796,-9806.022374
20032.768390,-5403.503377,-21910.095883,3600.648841
20032.768724,1702.473667,-11251.130318,14632.424012
20032.769057,2812.782580,4663.297435,24515.055936
20032.769390,9400.615463,13175.665768,28651.971625
20032.769723,12879.583391,16210.510130,30107.553071
20032.770057,12065.356855,14508.036463,21910.331243
20032.770390,9770.718434,9844.739029,6818.249932
20032.770723,6809.894666,814.226536,-6588.421283
20032.771056,1776.494261,-12731.542202,-13866.328514
20032.771389,-3034.844362,-23094.425390,-25510.980083
20032.771723,-11177.109724,-31458.752535,-28039.095227
20032.772056,-13027.624579,-33531.329173,-23059.474490
20032.772389,-9844.739029,-34789.679274,-15092.081311
20032.772722,-6587.832884,-26943.496289,-995.924147
20032.773056,-6513.812290,-14582.057057,7507.735880
20032.773389,-1850.514855,-2960.823768,17773.415554
20032.773722,4737.318029,9696.697840,25127.932334
20032.774055,9104.533087,14211.954086,28575.362075
20032.774389,9400.615463,15840.407159,23136.084040
20032.774722,9030.512492,11991.336260,11874.480219
20032.775055,7105.977043,4737.318029,-76.609550
20032.775388,6513.812290,-4145.153275,-9882.631924
20032.775722,0.000000,-19023.292709,-15628.348159
20032.776055,-2442.679609,-29608.237680,-22446.598091
20032.776388,-7254.018232,-34937.720462,-25817.418283
20032.776721,-8364.327145,-34641.638086,-19688.654299
20032.777055,-8660.409521,-33161.226202,-8656.879127
20032.777388,-7624.121203,-21021.848753,842.705048
20032.777721,-4145.153275,-8808.450710,11797.870669
20032.778054,1850.514855,4811.338623,21067.626195
20032.778388,7994.224174,11843.295072,28575.362075
20032.778721,4737.318029,16506.592507,27579.437928
20032.779054,11769.274478,15396.283594,17083.929605
20032.779387,8734.430116,11547.212695,7201.297681
20032.779721,8438.347739,-74.020594,-1838.629195
20032.780054,4663.297435,-12879.583391,-13789.718964
20032.780387,-2072.576638,-25167.002028,-22216.769442
20032.780720,-7624.121203,-29978.340651,-27119.780629
20032.781054,-9992.780217,-35529.885216,-23672.350888
20032.781387,-10732.986159,-35529.885216,-16011.395908
20032.781720,-9326.594869,-28423.908173,-3140.991542
20032.782053,-7179.997637,-13915.871710,3600.648841
20032.782387,-4737.318029,-1554.432478,17466.977354
20032.782720,3552.988522,9400.615463,26047.246932
20032.783053,8216.285956,15248.242405,26966.561530
20032.783386,11251.130318,16950.716072,24515.055936
20032.783720,10881.027347,11695.253884,15858.176809
20032.784053,11029.068536,3849.070898,4903.011187
20032.784386,6587.832884,-4811.338623,-7967.393179
20032.784719,3478.967927,-20725.766376,-18462.901502
20032.785053,-1258.350101,-28423.908173,-23365.912689
20032.785386,-9400.615463,-33827.411549,-27579.437928
20032.785719,-11325.150913,-34789.679274,-21220.845295
20032.786052,-14211.954086,-31680.814318,-13253.452115
20032.786386,-11399.171507,-19763.498651,-2374.896044
20032.786719,-5477.523971,-8364.327145,12717.185267
20032.787052,2294.638420,5329.482782,21680.502593
20032.787385,7105.977043,13545.768739,29418.067123
20032.787719,12361.439231,15396.283594,28115.704777
20032.788052,13693.809927,16506.592507,23289.303139
20032.788385,9474.636058,9104.533087,13483.280765
20032.788718,12657.521608,-3552.988522,-76.609550
20032.789052,2664.741391,-11917.315666,-15321.909960
20032.789385,-2886.803174,-23686.590144,-25740.808733
20032.789718,-6587.832884,-31088.649564,-28498.752526
20032.790051,-10732.986159,-36714.214723,-26430.294681
20032.790385,-12879.583391,-31162.670158,-18079.853753
20032.790718,-11621.233289,-27239.578666,-6741.640382
20032.791051,-6217.729913,-15692.365970,6052.154434
20032.791384,-1332.370696,-1628.453072,18156.463303
20032.791718,5847.626942,7698.141797,25664.199183
20032.792051,8290.306550,15914.427753,29418.067123
20032.792384,15174.221811,14211.954086,28728.581175
20032.792717,13545.768739,11547.212695,17773.415554
20032.793050,10658.965565,5551.544565,6128.763984
20032.793384,9400.615463,-3552.988522,-7890.783629
20032.793717,1184.329507,-17838.963202,-20454.749797
20032.794050,-4219.173869,-26055.249158,-27732.657028
20032.794383,-11399.171507,-34345.555709,-28115.704777
20032.794717,-13989.892304,-31458.752535,-26353.685131
20032.795050,-16062.468941,-31162.670158,-14709.033562
20032.795383,-10214.842000,-22798.343014,-76.609550
20032.795716,-2738.761985,-10658.965565,13406.671215
20032.796050,3923.091493,4441.235652,24515.055936
20032.796383,9474.636058,14211.954086,29954.333972
20032.796716,13397.727550,16580.613101,32252.620466
20032.797049,15322.262999,14656.077652,25510.980083
20032.797383,13249.686362,11029.068536,11568.042020
20032.797716,10955.047942,0.000000,-2604.724693
20032.798049,296.082377,-11029.068536,-17160.539155
20032.798382,-3923.091493,-25463.084405,-28575.362075
20032.798716,-13027.624579,-31162.670158,-31869.572717
20032.799049,-18949.272115,-34419.576303,-28651.971625
20032.799382,-16210.510130,-35455.864622,-19612.044749
20032.799715,-12953.603985,-27461.640448,-4903.011187
20032.800049,-5995.668130,-15396.283594,9729.412825
20032.800382,1924.535449,-1258.350101,23365.912689
20032.800715,8512.368333,11843.295072,29341.457573
20032.801048,8586.388927,12435.459826,35470.221557
20032.801382,13619.789333,15396.283594,29035.019374
20032.801715,11251.130318,15322.262999,18386.291952
20032.802048,9918.759623,5033.400406,1838.629195
20032.802381,5255.462188,-4737.318029,-15551.738609
20032.802715,-2442.679609,-19393.395680,-24361.836836
20032.803048,-5255.462188,-27831.743419,-29035.019374
20032.803381,-12435.459826,-35974.008781,-29264.848024
20032.803714,-12435.459826,-34271.535115,-23595.741338
20032.804048,-10732.986159,-33235.246796,-12257.527968
20032.804381,-5921.647536,-19689.478057,6358.592633
20032.804714,3034.844362,-7994.224174,19535.435199
20032.805047,5847.626942,6217.729913,24515.055936
20032.805381,9474.636058,15766.386565,30643.819920
20032.805714,13915.871710,17098.757260,31256.696318
20032.806047,13027.624579,16654.633695,22676.426741
20032.806380,9400.615463,9474.636058,5132.839837
20032.806714,4737.318029,-1110.308913,-8886.707777
20032.807047,814.226536,-12065.356855,-21144.235745
20032.807380,-3923.091493,-24278.754898,-25817.418283
20032.807713,-11251.130318,-33753.390955,-28651.971625
20032.808047,-12583.501014,-35974.008781,-25817.418283
20032.808380,-13027.624579,-34419.576303,-14402.595362
20032.808713,-5403.503377,-25463.084405,-1915.238745
20032.809046,-2368.659014,-10732.986159,9806.022374
20032.809380,2516.700203,-1850.514855,23059.474490
20032.809713,9400.615463,9474.636058,29341.457573
20032.810046,9474.636058,16506.592507,29724.505322
20032.810379,12065.356855,15248.242405,24132.008187
20032.810713,10140.821405,13397.727550,10878.556072
20032.811046,8808.450710,3997.112087,-1378.971896
20032.811379,6661.853478,-7105.977043,-11108.384721
20032.811712,-74.020594,-20429.683999,-21603.893044
20032.812046,-5921.647536,-29682.258274,-26966.561530
20032.812379,-8438.347739,-35529.885216,-24591.665486
20032.812712,-9696.697840,-35233.802839,-19075.777900
20032.813045,-10362.883188,-31754.834912,-5898.935335
20032.813379,-9844.739029,-19393.395680,1378.971896
20032.813712,-4071.132681,-6143.709319,13176.842566
20032.814045,2738.761985,8956.491898,23748.960438
20032.814378,9400.615463,13027.624579,30567.210370
20032.814711,11177.109724,20281.642811,23289.303139
20032.815045,8882.471304,14137.933492,18922.558801
20032.815378,7698.141797,7920.203579,8197.221829
20032.815711,7031.956449,-2072.576638,-6052.154434
20032.816044,2294.638420,-16580.613101,-16624.272307
20032.816378,-5477.523971,-26943.496289,-23825.569988
20032.816711,-9548.656652,-32495.040854,-27732.657028
20032.817044,-10288.862594,-35307.823433,-21220.845295
20032.817377,-11695.253884,-33235.246796,-12717.185267
20032.817711,-9474.636058,-23760.610738,-4903.011187
20032.818044,-7105.977043,-12139.377449,10342.289223
20032.818377,-1258.350101,1702.473667,18003.244203
20032.818710,5255.462188,12953.603985,25127.932334
20032.819044,8808.450710,14211.954086,27502.828378
20032.819377,9918.759623,15026.180623,22599.817191
20032.819710,9104.533087,12065.356855,13483.280765
20032.820043,9844.739029,2368.659014,2374.896044
20032.820377,5033.400406,-6883.915261,-10035.851024
20032.820710,888.247130,-19911.539840,-19612.044749
20032.821043,-3256.906145,-27313.599260,-24974.713235
20032.821376,-8956.491898,-35159.782245,-25051.322785
20032.821710,-10658.965565,-34271.535115,-19765.263848
20032.822043,-10140.821405,-31606.793723,-9269.755526
20032.822376,-8364.327145,-17172.777854,-1455.581446
20032.822709,-4737.318029,-5403.503377,11031.775171
20032.823043,1776.494261,8216.285956,22676.426741
20032.823376,8586.388927,13471.748144,27119.780629
20032.823709,11769.274478,16284.530724,28728.581175
20032.824042,14211.954086,14730.098246,21144.235745
20032.824376,13545.768739,5625.565159,9729.412825
20032.824709,10288.862594,-4145.153275,-3753.867940
20032.825042,2368.659014,-14285.974681,-16624.272307
20032.825375,-1258.350101,-23168.445985,-26353.685131
20032.825709,-6365.771101,-33161.226202,-26123.856482
20032.826042,-9474.636058,-35529.885216,-22753.036291
20032.826375,-12213.398043,-32198.958477,-17237.148705
20032.826708,-10288.862594,-24870.919651,-4673.182538
20032.827042,-7179.997637,-12287.418637,8044.002729
20032.827375,-1332.370696,962.267725,18692.730151
20032.827708,4811.338623,10214.842000,25740.808733
20032.828041,9400.615463,14804.118840,28728.581175
20032.828375,14211.954086,14730.098246,26966.561530
20032.828708,12731.542202,7698.141797,18922.558801
20032.829041,10881.027347,1628.453072,2528.115143
20032.829374,5921.647536,-5995.668130,-10418.898773
20032.829708,222.061783,-20281.642811,-21450.673944
20032.830041,-1850.514855,-28423.908173,-27349.609279
20032.830374,-11547.212695,-35307.823433,-27349.609279
20032.830707,-12953.603985,-33235.246796,-23519.131789
20032.831041,-15840.407159,-30718.546593,-11108.384721
20032.831374,-8808.450710,-21021.848753,1762.019645
20032.831707,-3775.050304,-4737.318029,12793.794817
20032.832040,1776.494261,6735.874072,26966.561530
20032.832374,10066.800811,13249.686362,32022.791816
20032.832707,14137.933492,16580.613101,30567.210370
20032.833040,13101.645173,12731.542202,25051.322785
20032.833373,12509.480420,7846.182985,10725.336972
20032.833707,7846.182985,-962.267725,-4979.620737
20032.834040,0.000000,-13101.645173,-19612.044749
20032.834373,-7105.977043,-24944.940245,-28805.190725
20032.834706,-11473.192101,-33753.390955,-29494.676673
20032.835039,-14582.057057,-34123.493926,-28268.923876
20032.835373,-13397.727550,-34345.555709,-17543.586904
20032.835706,-13619.789333,-24944.940245,-2451.505594
20032.836039,-6513.812290,-12583.501014,11261.603821
20032.836372,1332.370696,370.102971,23289.303139
20032.836706,8882.471304,11917.315666,31026.867669
20032.837039,11103.089130,13619.789333,32482.449115
20032.837372,15840.407159,14804.118840,28881.800275
20032.837705,14434.015869,12805.562797,17313.758255
20032.838039,9474.636058,4441.235652,-919.314598
20032.838372,5847.626942,-7105.977043,-16624.272307
20032.838705,-4737.318029,-20207.622217,-24515.055936
20032.839038,-5551.544565,-30644.525999,-29494.676673
20032.839372,-13101.645173,-37898.544230,-30107.553071
20032.839705,-15174.221811,-35011.741057,-25740.808733
20032.840038,-11917.315666,-34049.473332,-8044.002729
20032.840371,-7105.977043,-16654.633695,5515.887586
20032.840705,2368.659014,-3552.988522,20684.578446
20032.841038,7031.956449,7772.162391,28575.362075
20032.841371,9770.718434,16506.592507,32176.010916
20032.841704,17098.757260,16580.613101,29418.067123
20032.842038,15100.201217,13619.789333,23825.569988
20032.842371,11473.192101,7994.224174,2987.772442
20032.842704,5551.544565,-3997.112087,-13559.890315
20032.843037,-2220.617826,-16358.551318,-24515.055936
20032.843371,-7105.977043,-27017.516883,-28192.314326
20032.843704,-10362.883188,-34123.493926,-29801.114872
20032.844037,-11547.212695,-34937.720462,-24591.665486
20032.844370,-9474.636058,-35529.885216,-9652.803275
20032.844704,-5107.421000,-21021.848753,2145.067394
20032.845037,-74.020594,-11843.295072,14632.424012
20032.845370,2442.679609,2886.803174,23289.303139
20032.845703,8882.471304,10881.027347,29418.067123
20032.846037,11251.130318,15988.448347,30643.819920
20032.846370,10510.924376,14804.118840,22906.255390
20032.846703,6957.935855,10881.027347,7201.297681
20032.847036,3478.967927,962.267725,-6205.373534
20032.847369,1554.432478,-9474.636058,-15398.519510
20032.847703,-4737.318029,-20207.622217,-21450.673944
20032.848036,-7179.997637,-30200.402434,-26813.342430
20032.848369,-11325.150913,-32050.917289,-26966.561530
20032.848702,-11399.171507,-35529.885216,-15398.519510
20032.849036,-5995.668130,-30200.402434,-3753.867940
20032.849369,-6069.688724,-17172.777854,6358.592633
20032.849702,-2368.659014,-5107.421000,16241.224558
20032.850035,4589.276840,8956.491898,24744.884585
20032.850369,7698.141797,13619.789333,29341.457573
20032.850702,11769.274478,13545.768739,28728.581175
20032.851035,7772.162391,16506.592507,13483.280765
20032.851368,7994.224174,5255.462188,2451.505594
20032.851702,8068.244768,-4737.318029,-6818.249932
20032.852035,2294.638420,-18949.272115,-17237.148705
20032.852368,-4737.318029,-27831.743419,-24285.227287
20032.852701,-10140.821405,-32939.164419,-26966.561530
20032.853035,-8364.327145,-32791.123231,-20914.407095
20032.853368,-9918.759623,-33383.287984,-9806.022374
20032.853701,-7994.224174,-23242.466579,-76.609550
20032.854034,-6957.935855,-9696.697840,9806.022374
20032.854368,-370.102971,3182.885551,19382.216099
20032.854701,6143.709319,12287.418637,26966.561530
20032.855034,7476.080014,16580.613101,25051.322785
20032.855367,10658.965565,13915.871710,21986.940793
20032.855701,9400.615463,8290.306550,10955.165621
20032.856034,8290.306550,2294.638420,0.000000
20032.856367,6735.874072,-12287.418637,-9882.631924
20032.856700,3478.967927,-22206.178260,-19995.092498
20032.857034,-3256.906145,-28053.805202,-25434.370534
20032.857367,-7402.059420,-34863.699868,-24974.713235
20032.857700,-8734.430116,-33679.370361,-18692.730151
20032.858033,-11547.212695,-29090.093521,-8580.269578
20032.858367,-7698.141797,-16062.468941,4213.525239
20032.858700,-3034.844362,-3997.112087,13100.233016
20032.859033,3182.885551,10584.944971,21450.673944
20032.859366,8438.347739,13471.748144,29035.019374
20032.859699,12361.439231,18357.107362,25127.932334
20032.860033,13545.768739,13175.665768,19841.873398
20032.860366,12953.603985,4737.318029,9576.193725
20032.860699,8290.306550,-4811.338623,-3830.477490
20032.861032,3108.864956,-16210.510130,-17160.539155
20032.861366,-148.041188,-27461.640448,-22446.598091
20032.861699,-6587.832884,-30940.608376,-28805.190725
20032.862032,-12435.459826,-33235.246796,-26966.561530
20032.862365,-12435.459826,-31088.649564,-15398.519510
20032.862699,-11251.130318,-22132.157666,-4903.011187
20032.863032,-5699.585753,-12139.377449,9116.536426
20032.863365,1406.391290,1998.556043,19918.482948
20032.863698,6439.791695,10140.821405,27732.657028
20032.864032,9400.615463,15100.201217,29341.457573
20032.864365,15322.262999,14211.954086,26277.075581
20032.864698,12065.356855,11769.274478,15015.471761
20032.865031,13027.624579,518.144159,5439.278036
20032.865365,8216.285956,-9474.636058,-11108.384721
20032.865698,1110.308913,-22206.178260,-21067.626195
20032.866031,-6069.688724,-28942.052332,-28651.971625
20032.866364,-13175.665768,-36492.152941,-28881.800275
20032.866698,-14804.118840,-33161.226202,-23748.960438
20032.867031,-17468.860231,-29682.258274,-12257.527968
20032.867364,-10732.986159,-17764.942608,459.657299
20032.867697,-6439.791695,-3923.091493,13483.280765
20032.868031,3552.988522,5921.647536,28115.704777
20032.868364,9400.615463,15692.365970,31486.524968
20032.868697,14063.912898,17246.798449,33631.592362
20032.869030,12139.377449,13249.686362,23595.741338
20032.869364,10214.842000,6217.729913,7660.954980
20032.869697,7179.997637,-1554.432478,-7814.174080
20032.870030,-1776.494261,-15470.304188,-22676.426741
20032.870363,-6291.750507,-26795.455100,-29571.286223
20032.870697,-13249.686362,-33901.432144,-31409.915418
20032.871030,-15840.407159,-34789.679274,-27349.609279
20032.871363,-15840.407159,-33383.287984,-16317.834107
20032.871696,-11029.068536,-24574.837274,-1608.800546
20032.872029,-3034.844362,-13027.624579,13406.671215
20032.872363,2886.803174,4663.297435,24821.494135
20032.872696,10288.862594,10066.800811,33708.201912
20032.873029,10066.800811,16062.468941,32635.668215
20032.873362,12435.459826,15766.386565,27579.437928
20032.873696,13397.727550,12287.418637,14632.424012
20032.874029,9178.553681,2886.803174,-2221.676944
20032.874362,4959.379811,-8956.491898,-17313.758255
20032.874695,-4737.318029,-21984.116477,-26966.561530
20032.875029,-4811.338623,-30200.402434,-30107.553071
20032.875362,-10732.986159,-36714.214723,-29035.019374
20032.875695,-14730.098246,-35011.741057,-22523.207641
20032.876028,-10436.903782,-32272.979071,-7431.126331
20032.876362,-7105.977043,-16654.633695,7201.297681
20032.876695,2220.617826,-3330.926739,20761.187996
20032.877028,8216.285956,9548.656652,29341.457573
20032.877361,11473.192101,15174.221811,33325.154163
20032.877695,17172.777854,16580.613101,33861.421012
20032.878028,15914.427753,16876.695478,18845.949251
20032.878361,10362.883188,7031.956449,612.876398
20032.878694,7328.038826,-6513.812290,-11108.384721
20032.879028,-666.185348,-16432.571912,-24515.055936
20032.879361,-3923.091493,-27979.784608,-27656.047478
20032.879694,-10807.006753,-34271.535115,-29264.848024
20032.880027,-12583.501014,-35085.761651,-25894.027832
20032.880361,-11843.295072,-35529.885216,-11874.480219
20032.880694,-6291.750507,-23686.590144,2374.896044
20032.881027,-2442.679609,-6587.832884,12257.527968
20032.881360,2368.659014,2442.679609,24591.665486
20032.881694,6217.729913,12361.439231,31256.696318
20032.882027,12065.356855,18653.189738,29341.457573
20032.882360,12805.562797,15544.324782,23978.789087
20032.882693,9548.656652,10955.047942,8273.831378
20032.883027,5847.626942,148.041188,-5975.544884
20032.883360,2220.617826,-11251.130318,-16777.491406
20032.883693,-962.267725,-23686.590144,-21527.283494
20032.884026,-7476.080014,-32346.999665,-27962.485677
20032.884359,-11325.150913,-37010.297100,-26813.342430
20032.884693,-11843.295072,-35974.008781,-16700.881856
20032.885026,-9474.636058,-27609.681637,-3983.696590
20032.885359,-7105.977043,-15174.221811,9116.536426
20032.885692,-1258.350101,-3849.070898,17696.806004
20032.886026,3775.050304,13545.768739,24515.055936
20032.886359,7105.977043,16210.510130,31792.963167
20032.886692,11029.068536,18949.272115,26277.075581
20032.887025,8290.306550,13915.871710,14938.862211
20032.887359,6587.832884,6291.750507,1072.533697
20032.887692,4663.297435,-4071.132681,-9882.631924
20032.888025,-1184.329507,-20207.622217,-19458.825649
20032.888358,-6365.771101,-29534.217086,-24898.103685
20032.888692,-11029.068536,-34271.535115,-30030.943522
20032.889025,-11547.212695,-32346.999665,-22982.864940
20032.889358,-10658.965565,-32346.999665,-7660.954980
20032.889691,-7624.121203,-21391.951724,306.438199
20032.890025,-3330.926739,-8068.244768,12947.013916
20032.890358,2516.700203,4811.338623,23365.912689
20032.890691,7846.182985,14211.954086,29418.067123
20032.891024,11473.192101,16580.613101,29035.019374
20032.891358,10362.883188,14359.995275,21833.721693
20032.891691,9400.615463,11769.274478,6128.763984
20032.892024,8290.306550,-1702.473667,-1302.362347
20032.892357,6809.894666,-13915.871710,-12334.137518
20032.892691,-74.020594,-25981.228564,-20607.968896
20032.893024,-3849.070898,-30052.361245,-26966.561530
20032.893357,-7254.018232,-35677.926404,-23365.912689
20032.893690,-10140.821405,-35307.823433,-16854.100956
20032.894024,-10658.965565,-26129.269753,-7354.516781
20032.894357,-5403.503377,-15396.283594,4826.401637
20032.894690,-2368.659014,-74.020594,15015.471761
20032.895023,5921.647536,8956.491898,28728.581175
20032.895357,9400.615463,14508.036463,27196.390179
20032.895690,9770.718434,17912.983796,23289.303139
20032.896023,10510.924376,13027.624579,15781.567259
20032.896356,10658.965565,3478.967927,5669.106685
20032.896689,6735.874072,-7476.080014,-7124.688131
20032.897023,296.082377,-19023.292709,-20148.311597
20032.897356,-2442.679609,-26647.413912,-27579.437928
20032.897689,-8290.306550,-35159.782245,-24898.103685
20032.898022,-8364.327145,-36122.049970,-19995.092498
20032.898356,-12583.501014,-29682.258274,-12257.527968
20032.898689,-10510.924376,-19097.313304,-2757.943793
20032.899022,-6069.688724,-8586.388927,11261.603821
20032.899355,0.000000,3923.091493,21527.283494
20032.899689,4663.297435,11769.274478,26966.561530
20032.900022,7105.977043,15322.262999,28498.752526
20032.900355,11769.274478,14730.098246,22063.550342
20032.900688,10362.883188,8068.244768,13483.280765
20032.901022,8956.491898,-370.102971,919.314598
20032.901355,4145.153275,-10288.862594,-12563.966167
20032.901688,-3256.906145,-21391.951724,-22982.864940
20032.902021,-5699.585753,-29608.237680,-26736.732880
20032.902355,-11917.315666,-34715.658680,-28192.314326
20032.902688,-15396.283594,-32050.917289,-20837.797546
20032.903021,-14285.974681,-30200.402434,-9882.631924
20032.903354,-12361.439231,-15026.180623,2757.943793
20032.903688,-4219.173869,-2812.782580,15628.348159
20032.904021,3701.029710,9474.636058,26430.294681
20032.904354,9992.780217,16284.530724,31716.353617
20032.904687,15396.283594,15914.427753,33708.201912
20032.905021,15914.427753,13619.789333,21680.502593
20032.905354,13619.789333,4071.132681,7354.516781
20032.905687,9918.759623,-4737.318029,-6511.811733
20032.906020,1998.556043,-18801.230927,-22293.378992
20032.906354,-6513.812290,-28201.846390,-27732.657028
20032.906687,-12583.501014,-34567.617491,-31486.524968
20032.907020,-14285.974681,-33901.432144,-26583.513781
20032.907353,-15322.262999,-32939.164419,-15168.690860
20032.907686,-8660.409521,-23390.507767,-76.609550
20032.908020,-3034.844362,-7105.977043,10648.727422
20032.908353,2664.741391,5847.626942,28039.095227
20032.908686,12139.377449,11399.171507,35163.783358
20032.909019,12953.603985,18505.148550,30873.648569
20032.909353,17098.757260,13175.665768,27502.828378
20032.909686,13619.789333,8586.388927,13789.718964
20032.910019,10214.842000,1332.370696,-3064.381992
20032.910352,4515.256246,-13323.706956,-18462.901502
20032.910686,-3034.844362,-23686.590144,-27272.999729
20032.911019,-7994.224174,-30866.587781,-32482.449115
20032.911352,-13027.624579,-35751.946999,-27809.266577
20032.911685,-11917.315666,-36418.132346,-19995.092498
20032.912019,-9548.656652,-28868.031738,-7354.516781
20032.912352,-3849.070898,-14804.118840,9116.536426
20032.912685,2368.659014,-962.267725,22676.426741
20032.913018,9178.553681,11103.089130,29954.333972
20032.913352,10066.800811,14359.995275,32559.058665
20032.913685,15618.345376,18061.024985,28651.971625
20032.914018,13323.706956,13989.892304,20071.702048
20032.914351,10140.821405,5995.668130,2221.676944
20032.914685,3552.988522,-6439.791695,-14096.157163
20032.915018,-2812.782580,-19689.478057,-24515.055936
20032.915351,-3849.070898,-28942.052332,-27349.609279
20032.915684,-11917.315666,-34937.720462,-31256.696318
20032.916018,-14211.954086,-32050.917289,-26966.561530
20032.916351,-14804.118840,-34715.658680,-10418.898773
20032.916684,-6809.894666,-19023.292709,3217.601092
20032.917017,1036.288319,-7698.141797,18233.072852
20032.917351,4663.297435,4219.173869,26430.294681
20032.917684,8586.388927,13249.686362,31639.744067
20032.918017,11177.109724,15396.283594,32405.839565
20032.918350,10658.965565,16506.592507,24515.055936
20032.918684,10584.944971,11991.336260,5822.325785
20032.919017,7105.977043,-74.020594,-4903.011187
20032.919350,4145.153275,-11769.274478,-16624.272307
20032.919683,-370.102971,-24278.754898,-23672.350888
20032.920016,-7698.141797,-33161.226202,-29494.676673
20032.920350,-12805.562797,-37084.317694,-29111.628924
20032.920683,-12065.356855,-37084.317694,-18922.558801
20032.921016,-7698.141797,-28275.866984,-3677.258390
20032.921349,-4145.153275,-14285.974681,11414.822920
20032.921683,0.000000,-74.020594,18692.730151
20032.922016,5921.647536,11769.274478,30950.258119
20032.922349,12953.603985,16580.613101,36083.097956
20032.922682,13841.851115,20281.642811,27885.876127
20032.923016,10584.944971,13027.624579,14785.643111
20032.923349,6883.915261,5181.441594,-2145.067394
20032.923682,2146.597232,-7698.141797,-12717.185267
20032.924015,-1480.411884,-20799.786970,-22216.769442
20032.924349,-7179.997637,-32569.061448,-27656.047478
20032.924682,-14211.954086,-35307.823433,-28115.704777
20032.925015,-14211.954086,-33235.246796,-20224.921147
20032.925348,-11029.068536,-31088.649564,-8656.879127
20032.925682,-11547.212695,-19023.292709,3677.258390
20032.926015,-6069.688724,-5033.400406,13559.890315
20032.926348,1702.473667,7105.977043,24744.884585
20032.926681,5477.523971,13397.727550,31792.963167
20032.927015,8068.244768,18283.086767,28498.752526
20032.927348,5995.668130,16136.489536,15092.081311
20032.927681,6513.812290,6513.812290,7890.783629
20032.928014,5847.626942,-1776.494261,-5286.058936
20032.928348,3478.967927,-13323.706956,-17007.320056
20032.928681,-5773.606348,-24352.775492,-23289.303139
20032.929014,-7624.121203,-31976.896694,-27426.218828
20032.929347,-8734.430116,-34419.576303,-23059.474490
20032.929681,-9400.615463,-35011.741057,-13789.718964
20032.930014,-7698.141797,-25833.187376,-4673.182538
20032.930347,-6291.750507,-10955.047942,3983.696590
20032.930680,-518.144159,-444.123565,17390.367805
20032.931014,5847.626942,11547.212695,25664.199183
20032.931347,9548.656652,15248.242405,28651.971625
20032.931680,12435.459826,14508.036463,26277.075581
20032.932013,12065.356855,13619.789333,14479.204912
20032.932346,9770.718434,4663.297435,0.000000
20032.932680,7402.059420,-10881.027347,-6511.811733
20032.933013,2886.803174,-20725.766376,-19995.092498
20032.933346,-2960.823768,-26129.269753,-24515.055936
20032.933679,-4811.338623,-33087.205607,-24744.884585
20032.934013,-6883.915261,-34123.493926,-19918.482948
20032.934346,-9030.512492,-30718.546593,-11338.213370
20032.934679,-5995.668130,-21317.931130,-1915.238745
20032.935012,-4737.318029,-8364.327145,12180.918418
20032.935346,-74.020594,7031.956449,19612.044749
20032.935679,5329.482782,12953.603985,27196.390179
20032.936012,10658.965565,15322.262999,30260.772171
20032.936346,14137.933492,15988.448347,20761.187996
20032.936679,12435.459826,10584.944971,12257.527968
20032.937012,12509.480420,-2368.659014,1762.019645
20032.937345,7254.018232,-12435.459826,-13100.233016
20032.937679,296.082377,-23760.610738,-22676.426741
20032.938012,-3627.009116,-31976.896694,-29188.238474
20032.938345,-9548.656652,-37898.544230,-25817.418283
20032.938678,-13101.645173,-33753.390955,-21144.235745
20032.939012,-14211.954086,-26721.434506,-9806.022374
20032.939345,-9400.615463,-13989.892304,4903.011187
20032.939678,-2960.823768,-74.020594,18539.511052
20032.940011,4811.338623,11843.295072,27426.218828
20032.940345,10584.944971,16580.613101,33018.715964
20032.940678,15914.427753,16580.613101,31486.524968
20032.941011,10881.027347,13545.768739,19612.044749
20032.941344,11769.274478,1776.494261,4826.401637
20032.941678,5551.544565,-6365.771101,-12027.699319
20032.942011,-2960.823768,-20207.622217,-22829.645840
20032.942344,-6291.750507,-29904.320057,-28881.800275
20032.942677,-14211.954086,-36270.091158,-30567.210370
20032.943011,-15248.242405,-32939.164419,-25127.932334
20032.943344,-17172.777854,-31606.793723,-13636.499864
20032.943677,-11695.253884,-20799.786970,1149.143247
20032.944010,-7105.977043,-5995.668130,18386.291952
20032.944344,2886.803174,7846.182985,25127.932334
20032.944677,7105.977043,15322.262999,30643.819920
20032.945010,12731.542202,16284.530724,34244.468761
20032.945343,13767.830521,12731.542202,27732.657028
20032.945677,12361.439231,9178.553681,11721.261119
20032.946010,8216.285956,370.102971,-4903.011187
20032.946343,2072.576638,-13767.830521,-20531.359346
20032.946676,-4959.379811,-26055.249158,-29801.114872
20032.947010,-9474.636058,-32643.082042,-30873.648569
20032.947343,-13249.686362,-36566.173535,-29111.628924
20032.947676,-14508.036463,-35677.926404,-18922.558801
20032.948009,-11399.171507,-28053.805202,-4903.011187
20032.948343,-4811.338623,-13027.624579,9116.536426
20032.948676,4145.153275,962.267725,25587.589633
20032.949009,9474.636058,12657.521608,34321.078310
20032.949342,14137.933492,16580.613101,33018.715964
20032.949676,17024.736666,16802.674883,29724.505322
20032.950009,16210.510130,12435.459826,19535.435199
20032.950342,10066.800811,4071.132681,-536.266849
20032.950675,3701.029710,-9770.718434,-16930.710506
20032.951009,-3330.926739,-22280.198854,-27809.266577
20032.951342,-6957.935855,-29164.114115,-31639.744067
20032.951675,-13915.871710,-35011.741057,-29418.067123
20032.952008,-10732.986159,-35233.802839,-22753.036291
20032.952342,-9548.656652,-32495.040854,-9652.803275
20032.952675,-5477.523971,-16950.716072,7048.078582
20032.953008,3478.967927,-5329.482782,20148.311597
20032.953341,6957.935855,6883.915261,27809.266577
20032.953675,9326.594869,13397.727550,31792.963167
20032.954008,13027.624579,16580.613101,30567.210370
20032.954341,13027.624579,15914.427753,21450.673944
20032.954674,7105.977043,9400.615463,7354.516781
20032.955008,6439.791695,-4145.153275,-10495.508323
20032.955341,-370.102971,-14211.954086,-21527.283494
20032.955674,-4737.318029,-24944.940245,-26583.513781
20032.956007,-10881.027347,-32346.999665,-30030.943522
20032.956341,-13323.706956,-36048.029375,-26583.513781
20032.956674,-13619.789333,-36936.276506,-14709.033562
20032.957007,-8808.450710,-23760.610738,-383.047749
20032.957340,-2442.679609,-11547.212695,12947.013916
20032.957674,148.041188,0.000000,25664.199183
20032.958007,8216.285956,12435.459826,28115.704777
20032.958340,7698.141797,17394.839637,33708.201912
20032.958673,12953.603985,14804.118840,28115.704777
20032.959007,7698.141797,13545.768739,12563.966167
20032.959340,5181.441594,2294.638420,-3983.696590
20032.959673,1110.308913,-10362.883188,-15245.300410
20032.960007,-3997.112087,-23612.569550,-23059.474490
20032.960340,-8660.409521,-31606.793723,-28268.923876
20032.960673,-12213.398043,-37306.379477,-27656.047478
20032.961006,-13323.706956,-30274.423028,-22063.550342
20032.961340,-10658.965565,-30866.587781,-2834.553343
20032.961673,-6291.750507,-17172.777854,7277.907231
20032.962006,-3849.070898,-3627.009116,17926.634653
20032.962339,3034.844362,9844.739029,25740.808733
20032.962673,7772.162391,15396.283594,31486.524968
20032.963006,9696.697840,17764.942608,27502.828378
20032.963339,8216.285956,14211.954086,15551.738609
20032.963672,7328.038826,6291.750507,2681.334243
20032.964006,6069.688724,-2886.803174,-7890.783629
20032.964339,3330.926739,-16728.654289,-18156.463303
20032.964672,-1702.473667,-28275.866984,-24515.055936
20032.965005,-4811.338623,-33753.390955,-26583.513781
20032.965339,-7105.977043,-34123.493926,-19688.654299
20032.965672,-5403.503377,-34937.720462,-11721.261119
20032.966005,-6809.894666,-22576.281231,-3217.601092
20032.966338,-3256.906145,-9548.656652,8886.707777
20032.966672,2738.761985,2738.761985,18845.949251
20032.967005,8808.450710,11843.295072,28115.704777
20032.967338,11029.068536,15840.407159,28575.362075
20032.967671,10658.965565,15322.262999,23289.303139
20032.968005,10436.903782,13841.851115,11874.480219
20032.968338,12361.439231,0.000000,1149.143247
20032.968671,7624.121203,-11547.212695,-12104.308868
20032.969004,0.000000,-22576.281231,-19995.092498
20032.969338,-2294.638420,-30792.567187,-25970.637382
20032.969671,-7698.141797,-33235.246796,-25281.151434
20032.970004,-9030.512492,-32865.143825,-19458.825649
20032.970337,-10288.862594,-30052.361245,-9039.926876
20032.970671,-8142.265362,-16580.613101,842.705048
20032.971004,-4737.318029,-4811.338623,12257.527968
20032.971337,4663.297435,7698.141797,22446.598091
20032.971670,6513.812290,15470.304188,26277.075581
20032.972004,7402.059420,16210.510130,28192.314326
20032.972337,11769.274478,11843.295072,19535.435199
20032.972670,11547.212695,5699.585753,10265.679673
20032.973003,9400.615463,-3923.091493,-2451.505594
20032.973337,4737.318029,-15618.345376,-16088.005458
20032.973670,-962.267725,-25167.002028,-25051.322785
20032.974003,-6513.812290,-34123.493926,-27272.999729
20032.974336,-11325.150913,-34789.679274,-27732.657028
20032.974670,-14211.954086,-33235.246796,-16700.881856
20032.975003,-10362.883188,-25241.022622,-3753.867940
20032.975336,-8364.327145,-13027.624579,8503.660028
20032.975669,-2368.659014,2516.700203,20454.749797
20032.976003,3775.050304,12065.356855,28651.971625
20032.976336,8512.368333,16062.468941,31946.182267
20032.976669,11991.336260,17394.839637,28192.314326
20032.977002,10066.800811,9992.780217,18845.949251
20032.977336,8438.347739,74.020594,3294.210641
20032.977669,3701.029710,-7698.141797,-12487.356617
20032.978002,-2072.576638,-21243.910535,-24285.227287
20032.978335,-8364.327145,-29312.155303,-29418.067123
20032.978669,-15100.201217,-36196.070564,-29418.067123
20032.979002,-14285.974681,-32865.143825,-22753.036291
20032.979335,-15470.304188,-30792.567187,-13559.890315
20032.979668,-11399.171507,-17394.839637,1838.629195
20032.980002,-4219.173869,-6809.894666,17083.929605
20032.980335,3627.009116,8142.265362,28728.581175
20032.980668,9178.553681,14656.077652,34244.468761
20032.981001,13027.624579,19171.333898,31946.182267
20032.981335,10658.965565,14137.933492,23595.741338
20032.981668,9474.636058,7624.121203,9806.022374
20032.982001,10584.944971,-1776.494261,-7431.126331
20032.982334,148.041188,-14285.974681,-22753.036291
20032.982668,-4737.318029,-26277.310941,-28881.800275
20032.983001,-9252.574275,-33975.452738,-32559.058665
20032.983334,-11547.212695,-35899.988187,-28039.095227
20032.983667,-13397.727550,-34863.699868,-17543.586904
20032.984001,-9400.615463,-26499.372724,-3064.381992
20032.984334,-3256.906145,-10510.924376,11338.213370
20032.984667,3552.988522,3182.885551,27809.266577
20032.985001,14137.933492,13027.624579,31792.963167
20032.985334,13027.624579,16950.716072,36466.145705
20032.985667,20059.581028,13619.789333,31792.963167
20032.986000,14508.036463,12657.521608,15015.471761
20032.986334,11769.274478,1628.453072,-1608.800546
20032.986667,5033.400406,-10140.821405,-16930.710506
20032.987000,-1702.473667,-23686.590144,-27502.828378
20032.987333,-5403.503377,-30792.567187,-31333.305868
20032.987667,-11547.212695,-36936.276506,-29494.676673
20032.988000,-13841.851115,-34937.720462,-23978.789087
20032.988333,-12731.542202,-30570.505405,-8580.269578
20032.988666,-5551.544565,-18949.272115,7890.783629
20032.989000,3182.885551,-3552.988522,21374.064394
20032.989333,6735.874072,9622.677246,29877.724422
20032.989666,9104.533087,15840.407159,32482.449115
20032.989999,14063.912898,17542.880825,31333.305868
20032.990333,11251.130318,17098.757260,22063.550342
20032.990666,11769.274478,5921.647536,3907.087040
20032.990999,2960.823768,-4219.173869,-11644.651570
20032.991332,-3552.988522,-17838.963202,-23595.741338
20032.991666,-4811.338623,-29016.072926,-29494.676673
20032.991999,-9696.697840,-35233.802839,-29801.114872
20032.992332,-13101.645173,-36048.029375,-26736.732880
20032.992665,-13175.665768,-36788.235317,-12947.013916
20032.992999,-8438.347739,-22872.363608,1455.581446
20032.993332,-3552.988522,-7772.162391,14709.033562
20032.993665,3478.967927,2960.823768,24438.446386
20032.993998,8882.471304,14952.160028,32099.401366
20032.994332,11177.109724,17394.839637,34321.078310
20032.994665,12213.398043,17320.819043,26430.294681
20032.994998,6513.812290,13545.768739,8886.707777
20032.995331,4663.297435,0.000000,-4979.620737
20032.995665,-74.020594,-11251.130318,-20454.749797
20032.995998,-6809.894666,-24352.775492,-25434.370534
20032.996331,-9178.553681,-34049.473332,-29494.676673
20032.996664,-13693.809927,-35825.967593,-29418.067123
20032.996998,-11769.274478,-33753.390955,-18079.853753
20032.997331,-8364.327145,-28719.990550,-2681.334243
20032.997664,-5477.523971,-14656.077652,8503.660028
20032.997997,-2960.823768,-1850.514855,19612.044749
20032.998331,7031.956449,10658.965565,26889.951980
20032.998664,7402.059420,18579.169144,30797.039020
20032.998997,10066.800811,18579.169144,29647.895773
20032.999330,10584.944971,13027.624579,14632.424012
20032.999664,5329.482782,6439.791695,919.314598
20032.999997,5551.544565,-5033.400406,-11338.213370
20033.000330,740.205942,-19393.395680,-20454.749797
20033.000663,-3034.844362,-29534.217086,-26966.561530
20033.000997,-6661.853478,-35529.885216,-27732.657028
20033.001330,-5403.503377,-35529.885216,-22140.159892
20033.001663,-9474.636058,-33531.329173,-8120.612279
20033.001996,-9474.636058,-21391.951724,1225.752797
20033.002330,-1554.432478,-8290.306550,11261.603821
20033.002663,2664.741391,4145.153275,24438.446386
20033.002996,8438.347739,15248.242405,30797.039020
20033.003329,10066.800811,17320.819043,29494.676673
20033.003663,11621.233289,15988.448347,21144.235745
20033.003996,10288.862594,10658.965565,9729.412825
20033.004329,7550.100608,-74.020594,-4673.182538
20033.004662,2368.659014,-14878.139434,-14096.157163
20033.004996,-2146.597232,-27831.743419,-23365.912689
20033.005329,-5995.668130,-29386.175897,-31869.572717
20033.005662,-7698.141797,-35529.885216,-24591.665486
20033.005995,-8882.471304,-33531.329173,-16624.272307
20033.006329,-8586.388927,-28349.887579,-5898.935335
20033.006662,-7105.977043,-14508.036463,4519.963438
20033.006995,-1850.514855,-2368.659014,15858.176809
20033.007328,4441.235652,10362.883188,26353.685131
20033.007662,7920.203579,14211.954086,30107.553071
20033.007995,10732.986159,16210.510130,26736.732880
20033.008328,9474.636058,14137.933492,17160.539155
20033.008661,10658.965565,3775.050304,9729.412825
20033.008995,7920.203579,-6809.894666,-6205.373534
20033.009328,0.000000,-17246.798449,-21450.673944
20033.009661,-4737.318029,-26721.434506,-26200.466032
20033.009995,-10362.883188,-32643.082042,-29418.067123
20033.010328,-12435.459826,-34271.535115,-23595.741338
20033.010661,-13175.665768,-31976.896694,-14096.157163
20033.010994,-11251.130318,-20577.725188,-4290.134789
20033.011328,-7179.997637,-10066.800811,12180.918418
20033.011661,-1258.350101,6439.791695,21067.626195
20033.011994,7031.956449,13619.789333,27502.828378
20033.012327,7105.977043,17098.757260,32635.668215
20033.012661,14211.954086,15914.427753,28422.142976
20033.012994,13101.645173,8290.306550,17160.539155
20033.013327,10881.027347,-888.247130,2374.896044
20033.013660,4737.318029,-11843.295072,-13636.499864
20033.013994,-2664.741391,-25167.002028,-24898.103685
20033.014327,-7920.203579,-30644.525999,-30720.429470
20033.014660,-15396.283594,-35899.988187,-28805.190725
20033.014993,-14063.912898,-30200.402434,-23672.350888
20033.015327,-14508.036463,-27313.599260,-9806.022374
20033.015660,-7772.162391,-15988.448347,4903.011187
20033.015993,-666.185348,-1776.494261,18922.558801
20033.016326,4885.359217,9992.780217,27502.828378
20033.016660,8882.471304,15988.448347,32405.839565
20033.016993,13619.789333,18283.086767,29494.676673
20033.017326,12065.356855,11917.315666,20914.407095
20033.017659,14137.933492,2368.659014,9116.536426
20033.017993,7402.059420,-2442.679609,-7354.516781
20033.018326,2368.659014,-17542.880825,-20837.797546
20033.018659,-74.020594,-29608.237680,-28268.923876
20033.018992,-9844.739029,-34123.493926,-32635.668215
20033.019326,-10140.821405,-34049.473332,-28039.095227
20033.019659,-12879.583391,-33383.287984,-16241.224558
20033.019992,-6809.894666,-22946.384202,-1072.533697
20033.020325,-3256.906145,-8068.244768,13176.842566
20033.020659,7031.956449,6217.729913,25357.760984
20033.020992,10658.965565,12953.603985,36159.707506
20033.021325,14952.160028,17468.860231,35470.221557
20033.021658,17690.922014,15396.283594,26123.856482
20033.021992,10658.965565,11769.274478,13483.280765
20033.022325,11769.274478,1184.329507,-3753.867940
20033.022658,2886.803174,-13915.871710,-18539.511052
20033.022991,-4071.132681,-24648.857869,-28575.362075
20033.023325,-8808.450710,-31828.855506,-32635.668215
20033.023658,-11917.315666,-36714.214723,-30873.648569
20033.023991,-14656.077652,-35603.905810,-21680.502593
20033.024324,-11917.315666,-29312.155303,-8044.002729
20033.024658,-7179.997637,-15174.221811,6741.640382
20033.024991,1184.329507,-888.247130,23595.741338
20033.025324,8808.450710,10955.047942,31639.744067
20033.025657,9474.636058,17690.922014,31869.572717
20033.025991,13027.624579,17098.757260,34014.640111
20033.026324,14137.933492,14211.954086,21527.283494
20033.026657,9252.574275,8216.285956,3064.381992
20033.026990,3997.112087,-5847.626942,-13713.109414
20033.027324,-2886.803174,-19393.395680,-25894.027832
20033.027657,-7328.038826,-29460.196492,-31103.477219
20033.027990,-11325.150913,-36714.214723,-29647.895773
20033.028323,-14285.974681,-37602.461854,-27043.171079
20033.028657,-15988.448347,-34419.576303,-12870.404366
20033.028990,-11843.295072,-19615.457463,3677.258390
20033.029323,-2146.597232,-6513.812290,17083.929605
20033.029656,2368.659014,7624.121203,28192.314326
20033.029990,9104.533087,15766.386565,33861.421012
20033.030323,11917.315666,17912.983796,34857.345159
20033.030656,11547.212695,16358.551318,26353.685131
20033.030989,8216.285956,10658.965565,8503.660028
20033.031323,4071.132681,-1776.494261,-9882.631924
20033.031656,-2368.659014,-13101.645173,-20684.578446
20033.031989,-6587.832884,-27683.702231,-25817.418283
20033.032322,-9548.656652,-32569.061448,-32788.887314
20033.032656,-13101.645173,-37898.544230,-27656.047478
20033.032989,-13027.624579,-34641.638086,-17160.539155
20033.033323,-7920.203579,-26573.393318,-536.266849
20033.033656,-4885.359217,-11991.336260,11568.042020
20033.033990,0.000000,1110.308913,21757.112143
20033.034323,5847.626942,13915.871710,28192.314326
20033.034656,8290.306550,18875.251521,33401.763713
20033.034989,13545.768739,16580.613101,28115.704777
20033.035323,9474.636058,11843.295072,13406.671215
20033.035656,6809.894666,5107.421000,-2528.115143
20033.035989,3552.988522,-8438.347739,-13023.623466
20033.036322,0.000000,-20799.786970,-22063.550342
20033.036656,-3775.050304,-31088.649564,-27885.876127
20033.036989,-7105.977043,-35529.885216,-27885.876127
20033.037322,-8882.471304,-32346.999665,-20837.797546
20033.037655,-4219.173869,-32569.061448,-4979.620737
20033.037989,-2738.761985,-20725.766376,2374.896044
20033.038322,-1776.494261,-5995.668130,16088.005458
20033.038655,4145.153275,8586.388927,23825.569988
20033.038988,9030.512492,15544.324782,31026.867669
20033.039322,11251.130318,17838.963202,29418.067123
20033.039655,10732.986159,15174.221811,19995.092498
20033.039988,9474.636058,7846.182985,8580.269578
20033.040321,8438.347739,-2886.803174,-3524.039291
20033.040655,4811.338623,-16062.468941,-15245.300410
20033.040988,-2368.659014,-27757.722825,-23519.131789
20033.041321,-7328.038826,-31902.876100,-29341.457573
20033.041654,-9474.636058,-34715.658680,-25127.932334
20033.041988,-9252.574275,-31976.896694,-17083.929605
20033.042321,-9474.636058,-26129.269753,-3370.820191
20033.042654,-4811.338623,-11547.212695,7890.783629
20033.042987,-666.185348,0.000000,18309.682402
20033.043321,4885.359217,10807.006753,29341.457573
20033.043654,7105.977043,15248.242405,29724.505322
20033.043987,9474.636058,15840.407159,24974.713235
20033.044320,8734.430116,12361.439231,15858.176809
20033.044654,10584.944971,1184.329507,6052.154434
20033.044987,3552.988522,-8364.327145,-7967.393179
20033.045320,0.000000,-20207.622217,-18999.168350
20033.045653,-3627.009116,-28423.908173,-26430.294681
20033.045987,-11843.295072,-32346.999665,-29418.067123
20033.046320,-9844.739029,-33161.226202,-22446.598091
20033.046653,-13397.727550,-30792.567187,-12104.308868
20033.046986,-8364.327145,-16950.716072,-1532.190996
20033.047320,-6587.832884,-6439.791695,12563.966167
20033.047653,2294.638420,7105.977043,23825.569988
20033.047986,2960.823768,14137.933492,31256.696318
20033.048319,10584.944971,15396.283594,33018.715964
20033.048653,14137.933492,14804.118840,20761.187996
20033.048986,10066.800811,6883.915261,12870.404366
20033.049319,9992.780217,-2368.659014,-2298.286494
20033.049652,2368.659014,-15248.242405,-15781.567259
20033.049986,-1998.556043,-25389.063811,-25051.322785
20033.050319,-8142.265362,-31754.834912,-29724.505322
20033.050652,-13027.624579,-35011.741057,-29418.067123
20033.050985,-14211.954086,-30274.423028,-17926.634653
20033.051319,-11029.068536,-26055.249158,-8044.002729
20033.051652,-10066.800811,-10732.986159,3677.258390
20033.051985,-2960.823768,-74.020594,20837.797546
20033.052318,5847.626942,11991.336260,28192.314326
20033.052652,9030.512492,15988.448347,33784.811462
20033.052985,14211.954086,16580.613101,29341.457573
20033.053318,10658.965565,10362.883188,19612.044749
20033.053651,10658.965565,2294.638420,4136.915689
20033.053985,7550.100608,-6957.935855,-9882.631924
20033.054318,2072.576638,-20059.581028,-23059.474490
20033.054651,-3627.009116,-28719.990550,-28575.362075
20033.054984,-8364.327145,-37602.461854,-29494.676673
20033.055318,-10140.821405,-34049.473332,-26123.856482
20033.055651,-15840.407159,-31162.670158,-14096.157163
20033.055984,-9474.636058,-20799.786970,2374.896044
20033.056317,-2812.782580,-6735.874072,14632.424012
20033.056651,5625.565159,7328.038826,26966.561530
20033.056984,12213.398043,14582.057057,34857.345159
20033.057317,14804.118840,18431.127956,34397.687860
20033.057651,15100.201217,13841.851115,26966.561530
20033.057984,12953.603985,7105.977043,10955.165621
20033.058317,8882.471304,-1184.329507,-5592.497135
20033.058650,0.000000,-16062.468941,-20148.311597
20033.058984,-4811.338623,-26943.496289,-30873.648569
20033.059317,-10881.027347,-33087.205607,-34321.078310
20033.059650,-12657.521608,-36714.214723,-28422.142976
20033.059983,-13767.830521,-33235.246796,-18692.730151
20033.060317,-10362.883188,-26425.352129,-3524.039291
20033.060650,-5921.647536,-11547.212695,10801.946522
20033.060983,1184.329507,2886.803174,24821.494135
20033.061316,10584.944971,11843.295072,31792.963167
20033.061650,8290.306550,16506.592507,35546.831107
20033.061983,15322.262999,13619.789333,30567.210370
20033.062316,14137.933492,11251.130318,18309.682402
20033.062649,7179.997637,4071.132681,-919.314598
20033.062983,2590.720797,-9548.656652,-17083.929605
20033.063316,-3997.112087,-22502.260637,-26660.123330
20033.063649,-5995.668130,-29608.237680,-30260.772171
20033.063982,-10955.047942,-35825.967593,-28498.752526
20033.064316,-12509.480420,-32643.082042,-25740.808733
20033.064649,-11621.233289,-33161.226202,-8580.269578
20033.064982,-6587.832884,-18949.272115,4826.401637
20033.065315,-1776.494261,-2442.679609,18386.291952
20033.065649,3552.988522,7624.121203,28192.314326
20033.065982,8956.491898,14804.118840,32559.058665
20033.066315,11843.295072,18579.169144,31256.696318
20033.066648,13397.727550,15100.201217,23825.569988
20033.066982,10584.944971,7105.977043,6665.030833
20033.067315,2368.659014,-3627.009116,-10725.336972
20033.067648,-74.020594,-18949.272115,-24591.665486
20033.067981,-6291.750507,-28423.908173,-27962.485677
20033.068315,-13027.624579,-33235.246796,-30490.600820
20033.068648,-13323.706956,-36048.029375,-26660.123330
20033.068981,-11991.336260,-34715.658680,-13330.061665
20033.069314,-6291.750507,-21614.013506,1838.629195
20033.069648,-2146.597232,-8660.409521,14709.033562
20033.069981,2294.638420,2368.659014,24132.008187
20033.070314,4737.318029,13989.892304,30797.039020
20033.070647,8364.327145,17098.757260,30950.258119
20033.070981,10288.862594,16580.613101,24974.713235
20033.071314,8512.368333,10955.047942,10878.556072
20033.071647,8808.450710,0.000000,-2528.115143
20033.071980,1480.411884,-10140.821405,-15321.909960
20033.072314,-2368.659014,-22576.281231,-22063.550342
20033.072647,-3627.009116,-33161.226202,-28881.800275
20033.072980,-8586.388927,-35159.782245,-28039.095227
20033.073313,-7105.977043,-33161.226202,-17850.025103
20033.073647,-5625.565159,-29238.134709,-4596.572988
20033.073980,-3182.885551,-16432.571912,4903.011187
20033.074313,222.061783,-5033.400406,16088.005458
20033.074646,5847.626942,10066.800811,25357.760984
20033.074980,8882.471304,16506.592507,30950.258119
20033.075313,13545.768739,15988.448347,29341.457573
20033.075646,12953.603985,12435.459826,15551.738609
20033.075979,7624.121203,5107.421000,4290.134789
20033.076313,9400.615463,-5329.482782,-6818.249932
20033.076646,4589.276840,-17912.983796,-16624.272307
20033.076979,-2590.720797,-29164.114115,-24515.055936
20033.077312,-6957.935855,-31458.752535,-29494.676673
20033.077646,-8882.471304,-32346.999665,-25127.932334
20033.077979,-11251.130318,-29682.258274,-12257.527968
20033.078312,-6143.709319,-23686.590144,-3140.991542
20033.078645,-6143.709319,-10658.965565,7277.907231
20033.078979,-2368.659014,2294.638420,18386.291952
20033.079312,4663.297435,13249.686362,26966.561530
20033.079645,8956.491898,14952.160028,30413.991271
20033.079978,10584.944971,14434.015869,25051.322785
20033.080312,10362.883188,11621.233289,15628.348159
20033.080645,9770.718434,-518.144159,4290.134789
20033.080978,6587.832884,-11843.295072,-7431.126331
20033.081311,-74.020594,-22502.260637,-23595.741338
20033.081645,-7105.977043,-28053.805202,-27579.437928
20033.081978,-10658.965565,-34419.576303,-27043.171079
20033.082311,-10732.986159,-31162.670158,-22982.864940
20033.082644,-12361.439231,-30792.567187,-10572.117872
20033.082978,-9548.656652,-16358.551318,536.266849
20033.083311,-6291.750507,-4293.194464,14785.643111
20033.083644,1258.350101,7105.977043,26047.246932
20033.083977,5477.523971,15322.262999,30030.943522
20033.084311,7402.059420,16506.592507,29801.114872
20033.084644,10881.027347,13915.871710,22063.550342
20033.084977,9548.656652,4737.318029,11568.042020
20033.085311,6735.874072,-3552.988522,-4060.306139
20033.085644,0.000000,-15026.180623,-17160.539155
20033.085977,-2442.679609,-28127.825796,-27043.171079
20033.086310,-8956.491898,-31680.814318,-32022.791816
20033.086644,-13397.727550,-37010.297100,-27043.171079
20033.086977,-13101.645173,-30792.567187,-18692.730151
20033.087310,-11843.295072,-23686.590144,-6358.592633
20033.087643,-7772.162391,-11103.089130,9116.536426
20033.087977,-2442.679609,2294.638420,22676.426741
20033.088310,5847.626942,11843.295072,30413.991271
20033.088643,4737.318029,17690.922014,34321.078310
20033.088976,14137.933492,15692.365970,26277.075581
20033.089310,11029.068536,9770.718434,17390.367805
20033.089643,9474.636058,1110.308913,3370.820191
20033.089976,7031.956449,-7994.224174,-13942.938064
20033.090309,1850.514855,-21614.013506,-23672.350888
20033.090643,-3552.988522,-29534.217086,-29111.628924
20033.090976,-9622.677246,-35751.946999,-31256.696318
20033.091309,-11695.253884,-32272.979071,-24591.665486
20033.091642,-15396.283594,-30274.423028,-13176.842566
20033.091976,-7179.997637,-20133.601622,2374.896044
20033.092309,-74.020594,-5921.647536,14632.424012
20033.092642,4737.318029,8808.450710,29418.067123
20033.092975,11843.295072,15618.345376,35546.831107
20033.093309,15322.262999,19541.436869,32712.277765
20033.093642,14211.954086,13175.665768,25510.980083
20033.093975,12731.542202,7328.038826,10112.460574
20033.094308,9474.636058,-3701.029710,-6128.763984
20033.094642,3478.967927,-17172.777854,-22753.036291
20033.094975,-4737.318029,-26721.434506,-30260.772171
20033.095308,-11843.295072,-32643.082042,-33095.325514
20033.095641,-11917.315666,-36714.214723,-28268.923876
20033.095975,-13101.645173,-34049.473332,-19075.777900
20033.096308,-10066.800811,-25981.228564,-4136.915689
20033.096641,-6217.729913,-10732.986159,10725.336972
20033.096974,2072.576638,3182.885551,24515.055936
20033.097308,10584.944971,10658.965565,35163.783358
20033.097641,10584.944971,17172.777854,31333.305868
20033.097974,11843.295072,15322.262999,32405.839565
20033.098307,11843.295072,10288.862594,20454.749797
20033.098641,9400.615463,3552.988522,-1302.362347
20033.098974,2960.823768,-10732.986159,-15704.957709
20033.099307,-4293.194464,-23834.631332,-27579.437928
20033.099640,-7476.080014,-29978.340651,-31486.524968
20033.099974,-13175.665768,-36492.152941,-30490.600820
20033.100307,-13619.789333,-32346.999665,-22753.036291
20033.100640,-13841.851115,-32495.040854,-9422.974625
20033.100973,-8734.430116,-17320.819043,6435.202183
20033.101307,-222.061783,-2368.659014,19841.873398
20033.101640,4145.153275,11473.192101,27732.657028
20033.101973,8290.306550,17394.839637,34321.078310
20033.102306,14137.933492,17172.777854,34244.468761
20033.102640,15322.262999,14211.954086,22599.817191
20033.102973,8438.347739,7624.121203,4903.011187
20033.103306,4663.297435,-7105.977043,-11108.384721
20033.103639,-2812.782580,-18505.148550,-25357.760984
20033.103973,-6291.750507,-28868.031738,-29418.067123
20033.104306,-10584.944971,-34863.699868,-31180.086769
20033.104639,-14211.954086,-35011.741057,-26966.561530
20033.104972,-13619.789333,-33235.246796,-12717.185267
20033.105306,-5107.421000,-22502.260637,842.705048
20033.105639,-1776.494261,-6217.729913,13713.109414
20033.105972,2368.659014,4071.132681,25894.027832
20033.106305,7105.977043,15026.180623,30490.600820
20033.106639,11399.171507,17616.901420,33018.715964
20033.106972,11843.295072,16506.592507,25970.637382
20033.107305,9918.759623,10362.883188,10955.165621
20033.107638,8216.285956,0.000000,-4979.620737
20033.107972,1480.411884,-11473.192101,-16011.395908
20033.108305,-74.020594,-24130.713709,-25204.541884
20033.108638,-6809.894666,-32939.164419,-28192.314326
20033.108971,-11251.130318,-36196.070564,-28192.314326
20033.109305,-9548.656652,-34049.473332,-19612.044749
20033.109638,-7476.080014,-28794.011144,-4903.011187
20033.109971,-5033.400406,-15174.221811,7277.907231
20033.110304,-518.144159,-2738.761985,18769.339701
20033.110638,5847.626942,13767.830521,26583.513781
20033.110971,10955.047942,15988.448347,34857.345159
20033.111304,11843.295072,20133.601622,27962.485677
20033.111637,9474.636058,12657.521608,18845.949251
20033.111971,8216.285956,3552.988522,2374.896044
20033.112304,4663.297435,-7105.977043,-11261.603821
20033.112637,0.000000,-19911.539840,-21757.112143
20033.112971,-6217.729913,-30792.567187,-27426.218828
20033.113304,-9548.656652,-33753.390955,-30643.819920
20033.113637,-9474.636058,-31458.752535,-22676.426741
20033.113970,-5995.668130,-32569.061448,-9882.631924
20033.114304,-8290.306550,-20799.786970,1838.629195
20033.114637,-7105.977043,-7179.997637,13636.499864
20033.114970,1998.556043,4737.318029,21220.845295
20033.115303,5847.626942,13619.789333,29188.238474
20033.115637,8660.409521,16876.695478,29264.848024
20033.115970,8660.409521,14508.036463,21067.626195
20033.116303,6809.894666,9178.553681,10035.851024
20033.116636,4737.318029,-370.102971,-3064.381992
20033.116970,3775.050304,-13767.830521,-13559.890315
20033.117303,-1480.411884,-25907.207970,-21986.940793
20033.117636,-5107.421000,-29238.134709,-27272.999729
20033.117969,-7772.162391,-34123.493926,-24898.103685
20033.118303,-10066.800811,-30274.423028,-18999.168350
20033.118636,-9548.656652,-29016.072926,-4979.620737
20033.118969,-8364.327145,-14211.954086,689.485948
20033.119302,-4737.318029,-1258.350101,16011.395908
20033.119636,3256.906145,7772.162391,26889.951980
20033.119969,6735.874072,17542.880825,28192.314326
20033.120302,9400.615463,15692.365970,27349.609279
20033.120635,12287.418637,13619.789333,18845.949251
20033.120969,11399.171507,3478.967927,8503.660028
20033.121302,7105.977043,-7772.162391,-4290.134789
20033.121635,3478.967927,-21021.848753,-20301.530697
20033.121968,-4441.235652,-27831.743419,-27656.047478
20033.122302,-9474.636058,-32050.917289,-29111.628924
20033.122635,-10732.986159,-34937.720462,-23672.350888
20033.122968,-11547.212695,-29978.340651,-14709.033562
20033.123301,-9474.636058,-19911.539840,-3217.601092
20033.123635,-6883.915261,-8882.471304,10342.289223
20033.123968,-1628.453072,6291.750507,22063.550342
20033.124301,6439.791695,10214.842000,29341.457573
20033.124634,11177.109724,16580.613101,28115.704777
20033.124968,11843.295072,15026.180623,26353.685131
20033.125301,9474.636058,8808.450710,17773.415554
20033.125634,11473.192101,-2812.782580,2681.334243
20033.125967,7031.956449,-13027.624579,-12947.013916
20033.126301,1924.535449,-22872.363608,-23672.350888
20033.126634,-3997.112087,-30866.587781,-28805.190725
20033.126967,-9844.739029,-35307.823433,-29418.067123
20033.127300,-10140.821405,-32421.020260,-21527.283494
20033.127634,-11991.336260,-26425.352129,-12870.404366
20033.127967,-8882.471304,-15470.304188,6894.859482
20033.128300,-666.185348,-3256.906145,19535.435199
20033.128633,7624.121203,11547.212695,25510.980083
20033.128967,11473.192101,14211.954086,34244.468761
20033.129300,14359.995275,18209.066173,31563.134518
20033.129633,15100.201217,11695.253884,23825.569988
20033.129966,13545.768739,5477.523971,7354.516781
20033.130300,9104.533087,-5921.647536,-7431.126331
20033.130633,1480.411884,-18727.210333,-22676.426741
20033.130966,-4219.173869,-29312.155303,-30643.819920
20033.131299,-10214.842000,-34345.555709,-32559.058665
20033.131633,-13915.871710,-33235.246796,-28192.314326
20033.131966,-14211.954086,-32421.020260,-14785.643111
20033.132299,-9548.656652,-22502.260637,-3140.991542
20033.132632,-7105.977043,-7402.059420,10955.165621
20033.132966,2368.659014,5847.626942,26353.685131
20033.133299,8290.306550,12953.603985,34321.078310
20033.133632,11251.130318,17616.901420,34321.078310
20033.133965,13841.851115,15396.283594,29418.067123
20033.134299,11991.336260,7994.224174,15858.176809
20033.134632,10584.944971,0.000000,-383.047749
20033.134965,2738.761985,-10881.027347,-17237.148705
20033.135298,-2442.679609,-25759.166782,-30107.553071
20033.135632,-10658.965565,-30274.423028,-32788.887314
20033.135965,-14211.954086,-37972.564825,-30030.943522
20033.136298,-14434.015869,-33753.390955,-22446.598091
20033.136631,-13101.645173,-30200.402434,-8044.002729
20033.136965,-9178.553681,-15396.283594,6971.469032
20033.137298,814.226536,592.164754,23519.131789
20033.137631,6735.874072,11843.295072,31792.963167
20033.137964,7994.224174,18875.251521,33095.325514
20033.138298,14137.933492,18949.272115,30413.991271
20033.138631,10584.944971,15914.427753,20837.797546
20033.138964,7698.141797,4959.379811,4366.744339
20033.139297,4071.132681,-8290.306550,-14785.643111
20033.139631,-2442.679609,-21317.931130,-27809.266577
20033.139964,-8734.430116,-29090.093521,-31103.477219
20033.140297,-12213.398043,-36492.152941,-31486.524968
20033.140630,-13101.645173,-33901.432144,-26736.732880
20033.140963,-11917.315666,-34937.720462,-11108.384721
20033.141297,-9252.574275,-17838.963202,2451.505594
20033.141630,-1850.514855,-7624.121203,19535.435199
20033.141963,4663.297435,5329.482782,25051.322785
20033.142296,4737.318029,16506.592507,32482.449115
20033.142630,12065.356855,18357.107362,33631.592362
20033.142963,13323.706956,15914.427753,27502.828378
20033.143296,8290.306550,9400.615463,9806.022374
20033.143629,5403.503377,-2072.576638,-7737.564530
20033.143963,666.185348,-12953.603985,-21067.626195
20033.144296,-4737.318029,-23760.610738,-25740.808733
20033.144629,-6143.709319,-33901.432144,-28881.800275
20033.144962,-7772.162391,-37898.544230,-27043.171079
20033.145296,-10214.842000,-34419.576303,-18999.168350
20033.145629,-5403.503377,-27535.661042,-3140.991542
20033.145962,-2368.659014,-12435.459826,9729.412825
20033.146295,518.144159,-1332.370696,19612.044749
20033.146628,7254.018232,12879.583391,28422.142976
20033.146962,11621.233289,17764.942608,32405.839565
20033.147295,14656.077652,17024.736666,30337.381721
20033.147628,12879.583391,12435.459826,15858.176809
20033.147961,8660.409521,2146.597232,-229.828649
20033.148295,4737.318029,-8660.409521,-12180.918418
20033.148628,3478.967927,-23094.425390,-22140.159892
20033.148961,-4737.318029,-29682.258274,-27579.437928
20033.149294,-9474.636058,-33827.411549,-27885.876127
20033.149628,-6291.750507,-31976.896694,-21833.721693
20033.149961,-7105.977043,-30866.587781,-7967.393179
20033.150294,-4219.173869,-19541.436869,3294.210641
20033.150627,-2812.782580,-7550.100608,14402.595362
20033.150960,2146.597232,8068.244768,22216.769442
20033.151294,6439.791695,12139.377449,30567.210370
20033.151627,8808.450710,15396.283594,29341.457573
20033.151960,6883.915261,15322.262999,19612.044749
20033.152293,6069.688724,6513.812290,7354.516781
20033.152627,7105.977043,-3478.967927,-2068.457845
20033.152960,4663.297435,-15692.365970,-13100.233016
20033.153293,-1184.329507,-26129.269753,-22293.378992
20033.153626,-7105.977043,-31902.876100,-28039.095227
20033.153960,-7846.182985,-32939.164419,-24898.103685
20033.154293,-11103.089130,-30866.587781,-17160.539155
20033.154626,-7772.162391,-26943.496289,-5592.497135
20033.154959,-10658.965565,-11917.315666,6128.763984
20033.155292,-3552.988522,0.000000,17696.806004
20033.155626,4663.297435,9474.636058,27502.828378
20033.155959,7179.997637,17172.777854,29418.067123
20033.156292,9622.677246,16506.592507,26966.561530
20033.156625,9400.615463,12435.459826,17160.539155
20033.156959,9474.636058,2442.679609,4519.963438
20033.157292,3552.988522,-10436.903782,-8580.269578
20033.157625,-74.020594,-21317.931130,-22446.598091
20033.157958,-4515.256246,-29312.155303,-25204.541884
20033.158292,-7179.997637,-34345.555709,-28881.800275
20033.158625,-11029.068536,-31162.670158,-23595.741338
20033.158958,-12731.542202,-29090.093521,-12870.404366
20033.159291,-8512.368333,-18283.086767,-76.609550
20033.159625,-5847.626942,-6439.791695,13176.842566
20033.159958,1628.453072,6365.771101,24438.446386
20033.160291,7031.956449,11843.295072,30567.210370
20033.160624,6513.812290,18875.251521,29418.067123
20033.160957,12361.439231,13027.624579,21986.940793
20033.161291,9696.697840,8512.368333,8886.707777
20033.161624,8290.306550,-3330.926739,-76.609550
20033.161957,5921.647536,-13841.851115,-15092.081311
20033.162290,2368.659014,-23538.548956,-23672.350888
20033.162624,-2738.761985,-31532.773129,-29111.628924
20033.162957,-8512.368333,-36344.111752,-27962.485677
20033.163290,-9548.656652,-34049.473332,-19688.654299
20033.163623,-11843.295072,-26129.269753,-9193.145976
20033.163957,-8660.409521,-14211.954086,4673.182538
20033.164290,-2664.741391,-370.102971,17773.415554
20033.164623,4737.318029,11843.295072,28728.581175
20033.164956,11769.274478,15396.283594,37232.241203
20033.165289,13471.748144,18875.251521,30337.381721
20033.165623,10658.965565,11769.274478,24515.055936
20033.165956,11769.274478,1184.329507,5132.839837
20033.166289,4663.297435,-7179.997637,-11031.775171
20033.166622,-3256.906145,-20207.622217,-25587.589633
20033.166956,-5699.585753,-29534.217086,-30643.819920
20033.167289,-10288.862594,-35455.864622,-31869.572717
20033.167622,-9548.656652,-30940.608376,-25740.808733
20033.167955,-11325.150913,-31976.896694,-12334.137518
20033.168289,-9548.656652,-19023.292709,-1225.752797
20033.168622,-3034.844362,-9474.636058,16241.224558
20033.168955,5551.544565,5329.482782,26889.951980
20033.169288,7994.224174,13989.892304,33708.201912
20033.169622,12953.603985,16580.613101,33018.715964
20033.169955,11843.295072,13545.768739,27579.437928
20033.170288,10362.883188,7772.162391,12947.013916
20033.170621,8364.327145,370.102971,-3447.429741
20033.170954,1036.288319,-13323.706956,-19688.654299
20033.171288,-6735.874072,-23760.610738,-29418.067123
20033.171621,-8364.327145,-33161.226202,-31946.182267
20033.171954,-11917.315666,-36714.214723,-29494.676673
20033.172287,-14211.954086,-32050.917289,-20684.578446
20033.172621,-10732.986159,-28275.866984,-7431.126331
20033.172954,-7476.080014,-14211.954086,8197.221829
20033.173287,1998.556043,1776.494261,23289.303139
20033.173620,7698.141797,12657.521608,32635.668215
20033.173954,10658.965565,18283.086767,34321.078310
20033.174287,15100.201217,15026.180623,34244.468761
20033.174620,14730.098246,11251.130318,20761.187996
20033.174953,9030.512492,4663.297435,1532.190996
20033.175286,2368.659014,-8956.491898,-11721.261119
20033.175620,-1258.350101,-23094.425390,-29341.457573
20033.175953,-7254.018232,-31236.690752,-31180.086769
20033.176286,-11177.109724,-36196.070564,-30643.819920
20033.176619,-11695.253884,-32569.061448,-25281.151434
20033.176953,-13027.624579,-30866.587781,-11031.775171
20033.177286,-6069.688724,-18949.272115,4979.620737
20033.177619,74.020594,-4071.132681,20914.407095
20033.177952,6439.791695,7402.059420,29341.457573
20033.178286,9400.615463,14508.036463,34244.468761
20033.178619,11177.109724,16580.613101,31180.086769
20033.178952,10658.965565,16506.592507,23289.303139
20033.179285,10140.821405,7105.977043,9193.145976
20033.179619,7624.121203,-4737.318029,-9882.631924
20033.179952,2146.597232,-16580.613101,-20914.407095
20033.180285,-2664.741391,-28349.887579,-26583.513781
20033.180618,-6957.935855,-34197.514520,-30030.943522
20033.180951,-10214.842000,-35529.885216,-27043.171079
20033.181285,-10436.903782,-34049.473332,-16317.834107
20033.181618,-5921.647536,-24944.940245,766.095498
20033.181951,-4737.318029,-9548.656652,14709.033562
20033.182284,3330.926739,0.000000,23212.693589
20033.182618,6735.874072,13027.624579,29341.457573
20033.182951,9548.656652,18061.024985,32712.277765
20033.183284,12953.603985,16580.613101,26889.951980
20033.183617,9474.636058,10658.965565,13713.109414
20033.183951,6217.729913,1036.288319,-3294.210641
20033.184284,2516.700203,-10214.842000,-14785.643111
20033.184617,-74.020594,-24278.754898,-23978.789087
20033.184950,-5921.647536,-33901.432144,-26966.561530
20033.185283,-9548.656652,-37306.379477,-28881.800275
20033.185617,-9844.739029,-29978.340651,-22063.550342
20033.185950,-8882.471304,-28497.928767,-5515.887586
20033.186283,-5403.503377,-17098.757260,5362.668486
20033.186616,-2220.617826,-4219.173869,16854.100956
20033.186950,3034.844362,9030.512492,26047.246932
20033.187283,7402.059420,14656.077652,31563.134518
20033.187616,7846.182985,18875.251521,26966.561530
20033.187949,9104.533087,11251.130318,19228.997000
20033.188283,6143.709319,5329.482782,3600.648841
20033.188616,3552.988522,-2738.761985,-5515.887586
20033.188949,6291.750507,-17172.777854,-14172.766713
20033.189282,-2368.659014,-28497.928767,-24285.227287
20033.189615,-6957.935855,-32421.020260,-29724.505322
20033.189949,-8660.409521,-34493.596897,-25587.589633
20033.190282,-8660.409521,-33383.287984,-14709.033562
20033.190615,-9474.636058,-23760.610738,-3677.258390
20033.190948,-4811.338623,-13027.624579,7277.907231
20033.191282,-1258.350101,3627.009116,17466.977354
20033.191615,2368.659014,15914.427753,29418.067123
20033.191948,10362.883188,14211.954086,33478.373263
20033.192281,9474.636058,15766.386565,25281.151434
20033.192615,8808.450710,10732.986159,15168.690860
20033.192948,8438.347739,0.000000,2604.724693
20033.193281,4737.318029,-11473.192101,-9652.803275
20033.193614,-2220.617826,-20799.786970,-22063.550342
20033.193948,-4885.359217,-29164.114115,-27885.876127
20033.194281,-7550.100608,-33753.390955,-27579.437928
20033.194614,-9326.594869,-32050.917289,-20607.968896
20033.194947,-9548.656652,-30792.567187,-9882.631924
20033.195280,-8660.409521,-16062.468941,0.000000
20033.195614,-5625.565159,-5921.647536,15858.176809
20033.195947,3182.885551,7105.977043,23212.693589
20033.196280,4737.318029,14730.098246,28805.190725
20033.196613,9178.553681,15174.221811,30567.210370
20033.196947,10066.800811,14137.933492,21986.940793
20033.197280,10881.027347,5329.482782,11644.651570
20033.197613,8660.409521,-3923.091493,-1455.581446
20033.197946,4293.194464,-15248.242405,-16624.272307
20033.198280,0.000000,-23168.445985,-24515.055936
20033.198613,-4219.173869,-33161.226202,-28268.923876
20033.198946,-8956.491898,-36714.214723,-27656.047478
20033.199279,-13027.624579,-31162.670158,-19305.606550
20033.199612,-9548.656652,-26055.249158,-7431.126331
20033.199946,-7698.141797,-12139.377449,7814.174080
20033.200279,-1702.473667,962.267725,19152.387450
20033.200612,4589.276840,12065.356855,27272.999729
20033.200945,8290.306550,15174.221811,32788.887314
20033.201279,13249.686362,18579.169144,29418.067123
20033.201612,15026.180623,8290.306550,20761.187996
20033.201945,10807.006753,1702.473667,5209.449386
20033.202278,4811.338623,-5995.668130,-9193.145976
20033.202612,1036.288319,-20873.807564,-23825.569988
20033.202945,-4293.194464,-30200.402434,-29494.676673
20033.203278,-11695.253884,-35233.802839,-32329.230016
20033.203611,-12435.459826,-32865.143825,-26123.856482
20033.203945,-11917.315666,-32272.979071,-12947.013916
20033.204278,-10658.965565,-18135.045579,1838.629195
20033.204611,-4219.173869,-8734.430116,15245.300410
20033.204944,1998.556043,10436.903782,24821.494135
20033.205277,7402.059420,12953.603985,32482.449115
20033.205611,12139.377449,19393.395680,33708.201912
20033.205944,12287.418637,14804.118840,25204.541884
20033.206277,11029.068536,6217.729913,11874.480219
20033.206610,8956.491898,-1258.350101,-4366.744339
20033.206944,1184.329507,-15100.201217,-20991.016645
20033.207277,-1332.370696,-29460.196492,-27656.047478
20033.207610,-10140.821405,-32346.999665,-34321.078310
20033.207943,-11917.315666,-36048.029375,-31869.572717
20033.208277,-14804.118840,-33235.246796,-20454.749797
20033.208610,-9918.759623,-28275.866984,-4903.011187
20033.208943,-6735.874072,-11621.233289,8810.098227
20033.209276,2960.823768,3478.967927,24821.494135
20033.209609,9400.615463,13693.809927,34091.249661
20033.209943,12361.439231,18949.272115,35317.002458
20033.210276,16284.530724,16876.695478,32712.277765
20033.210609,13027.624579,11769.274478,19612.044749
20033.210942,10436.903782,3108.864956,153.219100
20033.211276,3182.885551,-10732.986159,-17083.929605
20033.211609,-2442.679609,-24870.919651,-30107.553071
20033.211942,-9474.636058,-32717.102636,-33095.325514
20033.212275,-12509.480420,-39082.873738,-31946.182267
20033.212609,-12805.562797,-32346.999665,-25740.808733
20033.212942,-13619.789333,-31162.670158,-9193.145976
20033.213275,-5107.421000,-17616.901420,5745.716235
20033.213608,370.102971,-1850.514855,22829.645840
20033.213942,6809.894666,9178.553681,31869.572717
20033.214275,8586.388927,17616.901420,33095.325514
20033.214608,12065.356855,20651.745782,30720.429470
20033.214941,13027.624579,13027.624579,25664.199183
20033.215274,10584.944971,4737.318029,6052.154434
20033.215608,3552.988522,-3627.009116,-12870.404366
20033.215941,1036.288319,-20133.601622,-22446.598091
20033.216274,-3627.009116,-28794.011144,-29418.067123
20033.216607,-7624.121203,-36862.255912,-31026.867669
20033.216941,-11251.130318,-36862.255912,-28039.095227
20033.217274,-11917.315666,-36714.214723,-15168.690860
20033.217607,-9474.636058,-23760.610738,0.000000
20033.217940,-1998.556043,-10658.965565,15858.176809
20033.218274,1406.391290,5033.400406,23442.522239
20033.218607,6735.874072,18875.251521,30030.943522
20033.218940,10807.006753,18949.272115,35470.221557
20033.219273,12139.377449,19319.375086,29188.238474
20033.219606,8882.471304,11843.295072,13100.233016
20033.219940,5255.462188,-740.205942,-5822.325785
20033.220273,592.164754,-12805.562797,-18616.120601
20033.220606,-2146.597232,-26647.413912,-26123.856482
20033.220939,-6587.832884,-37306.379477,-31946.182267
20033.221273,-13915.871710,-36788.235317,-30950.258119
20033.221606,-8512.368333,-34937.720462,-19688.654299
20033.221939,-4811.338623,-30496.484810,-3753.867940
20033.222272,-4737.318029,-14285.974681,9806.022374
20033.222606,-814.226536,-2812.782580,19995.092498
20033.222939,4219.173869,12657.521608,27656.047478
20033.223272,8586.388927,18283.086767,32482.449115
20033.223605,10881.027347,19097.313304,31256.696318
20033.223939,9104.533087,14137.933492,17160.539155
20033.224272,6883.915261,5329.482782,2145.067394
20033.224605,4663.297435,-6365.771101,-10035.851024
20033.224938,1628.453072,-18357.107362,-21220.845295
20033.225271,-4737.318029,-29682.258274,-26966.561530
20033.225605,-7994.224174,-35677.926404,-29647.895773
20033.225938,-7179.997637,-36714.214723,-23365.912689
20033.226271,-8068.244768,-33013.185013,-12563.966167
20033.226604,-6291.750507,-22502.260637,-76.609550
20033.226938,-4737.318029,-8364.327145,10878.556072
20033.227271,2072.576638,6365.771101,22063.550342
20033.227604,7031.956449,15100.201217,31026.867669
20033.227937,9474.636058,18875.251521,32176.010916
20033.228271,11473.192101,16062.468941,22063.550342
20033.228604,10362.883188,7179.997637,13100.233016
20033.228937,7920.203579,-74.020594,-2451.505594
20033.229270,2664.741391,-14878.139434,-12717.185267
20033.229603,-1702.473667,-25315.043216,-24208.617737
20033.229937,-7328.038826,-33013.185013,-29877.724422
20033.230270,-8882.471304,-35381.844028,-27579.437928
20033.230603,-10288.862594,-32643.082042,-18999.168350
20033.230936,-8660.409521,-28423.908173,-6205.373534
20033.231270,-9474.636058,-12213.398043,2757.943793
20033.231603,-2442.679609,0.000000,14632.424012
20033.231936,592.164754,12361.439231,28498.752526
20033.232269,7328.038826,15396.283594,31869.572717
20033.232603,9400.615463,16580.613101,28192.314326
20033.232936,7698.141797,12657.521608,18462.901502
20033.233269,9030.512492,3404.947333,7431.126331
20033.233602,5329.482782,-8142.265362,-5822.325785
20033.233935,3034.844362,-19763.498651,-19228.997000
20033.234269,-2960.823768,-26129.269753,-25740.808733
20033.234602,-6143.709319,-32346.999665,-30030.943522
20033.234935,-9252.574275,-32643.082042,-25740.808733
20033.235268,-11251.130318,-34345.555709,-14172.766713
20033.235602,-8364.327145,-19837.519246,-6205.373534
20033.235935,-5995.668130,-9474.636058,10189.070123
20033.236268,1406.391290,5181.441594,22293.378992
20033.236601,5773.606348,14359.995275,29801.114872
20033.236935,9770.718434,16654.633695,32252.620466
20033.237268,15174.221811,14211.954086,28115.704777
20033.237601,9474.636058,9400.615463,17160.539155
20033.237934,11325.150913,-2368.659014,4673.182538
20033.238267,7031.956449,-13027.624579,-13559.890315
20033.238600,1406.391290,-23686.590144,-25817.418283
20033.238934,-4811.338623,-29682.258274,-33095.325514
20033.239267,-9622.677246,-37010.297100,-29494.676673
20033.239600,-11473.192101,-30052.361245,-23748.960438
20033.239933,-12509.480420,-27683.702231,-11797.870669
20033.240266,-6735.874072,-15988.448347,2987.772442
20033.240600,-3256.906145,-2516.700203,17543.586904
20033.240933,4293.194464,10288.862594,27809.266577
20033.241266,10584.944971,16062.468941,33401.763713
20033.241599,13027.624579,18283.086767,32482.449115
20033.241932,15914.427753,11251.130318,23825.569988
20033.242266,12953.603985,4737.318029,9422.974625
20033.242599,7105.977043,-4811.338623,-5515.887586
20033.242932,3552.988522,-19393.395680,-21220.845295
20033.243265,-1998.556043,-28201.846390,-30643.819920
20033.243598,-7624.121203,-33753.390955,-33095.325514
20033.243932,-12435.459826,-35381.844028,-29188.238474
20033.244265,-14211.954086,-32569.061448,-18845.949251
20033.244598,-10658.965565,-24870.919651,-2834.553343
20033.244931,-5107.421000,-11843.295072,12180.918418
20033.245264,1406.391290,8216.285956,25740.808733
20033.245598,7920.203579,17098.757260,33095.325514
20033.245931,11547.212695,19763.498651,36389.536155
20033.246264,12731.542202,17098.757260,30720.429470
20033.246597,11103.089130,8734.430116,17160.539155
20033.246930,7846.182985,1406.391290,-1149.143247
20033.247263,1184.329507,-14285.974681,-18309.682402
20033.247597,-4811.338623,-26055.249158,-30260.772171
20033.247930,-10732.986159,-35529.885216,-34397.687860
20033.248263,-17172.777854,-36196.070564,-32788.887314
20033.248596,-14285.974681,-33161.226202,-22446.598091
20033.248929,-12509.480420,-31384.731941,-8350.440928
20033.249263,-7179.997637,-15396.283594,10648.727422
20033.249596,222.061783,1628.453072,24515.055936
20033.249929,5773.606348,11473.192101,34014.640111
20033.250262,8956.491898,18653.189738,34704.126059
20033.250595,12139.377449,20651.745782,31869.572717
20033.250929,12953.603985,14211.954086,21833.721693
20033.251262,7105.977043,6735.874072,3983.696590
20033.251595,2960.823768,-8882.471304,-13559.890315
20033.251928,-2442.679609,-22502.260637,-28268.923876
20033.252261,-6587.832884,-30200.402434,-31026.867669
20033.252595,-10066.800811,-36714.214723,-30950.258119
20033.252928,-11325.150913,-33235.246796,-27196.390179
20033.253261,-12583.501014,-34197.514520,-13253.452115
20033.253594,-6809.894666,-20059.581028,2757.943793
20033.253927,-2220.617826,-3627.009116,18386.291952
20033.254261,7476.080014,5329.482782,29341.457573
20033.254594,10584.944971,16580.613101,30567.210370
20033.254927,11843.295072,18875.251521,34474.297410
20033.255260,14582.057057,15396.283594,27502.828378
20033.255593,9844.739029,9400.615463,10495.508323
20033.255927,6291.750507,-2368.659014,-8197.221829
20033.256260,592.164754,-15174.221811,-21757.112143
20033.256593,-2960.823768,-28201.846390,-27579.437928
20033.256926,-7328.038826,-34715.658680,-31256.696318
20033.257259,-10807.006753,-36862.255912,-29571.286223
20033.257592,-9992.780217,-33827.411549,-18769.339701
20033.257926,-4737.318029,-26055.249158,-1762.019645
20033.258259,-2368.659014,-10436.903782,10418.898773
20033.258592,2294.638420,0.000000,20761.187996
20033.258925,4737.318029,14137.933492,28498.752526
20033.259258,9770.718434,17172.777854,34321.078310
20033.259592,12657.521608,15396.283594,29341.457573
20033.259925,8586.388927,12065.356855,15934.786358
20033.260258,5847.626942,1998.556043,-766.095498
20033.260591,2738.761985,-8438.347739,-13636.499864
20033.260924,888.247130,-22058.137072,-21374.064394
20033.261258,-2442.679609,-31976.896694,-25204.541884
20033.261591,-9400.615463,-33235.246796,-30643.819920
20033.261924,-11177.109724,-32050.917289,-23902.179538
20033.262257,-6587.832884,-31976.896694,-7737.564530
20033.262590,-6883.915261,-17912.983796,1225.752797
20033.262924,-2146.597232,-5921.647536,14938.862211
20033.263257,1924.535449,8956.491898,24208.617737
20033.263590,7328.038826,16210.510130,31256.696318
20033.263923,9622.677246,17987.004391,31486.524968
20033.264256,10436.903782,14211.954086,20761.187996
20033.264590,4737.318029,8216.285956,9806.022374
20033.264923,6217.729913,-5181.441594,-4903.011187
20033.265256,5255.462188,-18357.107362,-15398.519510
20033.265589,-4737.318029,-27609.681637,-24515.055936
20033.265922,-8068.244768,-32865.143825,-31256.696318
20033.266255,-10658.965565,-33531.329173,-26506.904231
20033.266589,-9326.594869,-31976.896694,-16241.224558
20033.266922,-7772.162391,-24278.754898,-4443.353888
20033.267255,-7994.224174,-10362.883188,6281.983084
20033.267588,-4737.318029,4663.297435,22063.550342
20033.267921,2960.823768,10955.047942,29341.457573
20033.268255,7624.121203,16580.613101,29341.457573
20033.268588,6217.729913,16506.592507,26353.685131
20033.268921,8808.450710,11251.130318,15245.300410
20033.269254,8586.388927,888.247130,3907.087040
20033.269587,5181.441594,-11103.089130,-8350.440928
20033.269921,2590.720797,-21021.848753,-20684.578446
20033.270254,-1702.473667,-28423.908173,-26123.856482
20033.270587,-6069.688724,-33235.246796,-27656.047478
20033.270920,-8808.450710,-32346.999665,-22906.255390
20033.271253,-11251.130318,-31014.628970,-12947.013916
20033.271587,-8290.306550,-18801.230927,-1378.971896
20033.271920,-4811.338623,-7105.977043,11414.822920
20033.272253,0.000000,8216.285956,23289.303139
20033.272586,4737.318029,14137.933492,32712.277765
20033.272919,10584.944971,16580.613101,30567.210370
20033.273253,12139.377449,16506.592507,23289.303139
20033.273586,11769.274478,6883.915261,13559.890315
20033.273919,8734.430116,-3997.112087,-1072.533697
20033.274252,3701.029710,-16062.468941,-15704.957709
20033.274585,-74.020594,-26499.372724,-26430.294681
20033.274919,-5773.606348,-34345.555709,-29494.676673
20033.275252,-13027.624579,-34715.658680,-29418.067123
20033.275585,-11029.068536,-31458.752535,-22063.550342
20033.275918,-9252.574275,-27239.578666,-7431.126331
20033.276251,-5995.668130,-13619.789333,8197.221829
20033.276584,-1184.329507,888.247130,20837.797546
20033.276918,4811.338623,11473.192101,29418.067123
20033.277251,9400.615463,15396.283594,35087.173808
20033.277584,11251.130318,20059.581028,29418.067123
20033.277917,13545.768739,9770.718434,21986.940793
20033.278250,7846.182985,3478.967927,6435.202183
20033.278584,6217.729913,-8290.306550,-8044.002729
20033.278917,1110.308913,-21317.931130,-23978.789087
20033.279250,-5329.482782,-29312.155303,-29954.333972
20033.279583,-10807.006753,-34567.617491,-33095.325514
20033.279916,-11843.295072,-34345.555709,-26813.342430
20033.280250,-13249.686362,-31902.876100,-16164.615008
20033.280583,-9474.636058,-21391.951724,0.000000
20033.280916,-4219.173869,-6365.771101,12334.137518
20033.281249,4219.173869,5921.647536,29341.457573
20033.281582,10584.944971,16580.613101,32865.496864
20033.281916,12435.459826,18875.251521,36542.755255
20033.282249,14211.954086,15026.180623,28422.142976
20033.282582,11917.315666,6957.935855,14632.424012
20033.282915,9178.553681,-1110.308913,-3524.039291
20033.283248,1406.391290,-16506.592507,-20531.359346
20033.283582,-4811.338623,-29608.237680,-30107.553071
20033.283915,-13397.727550,-33235.246796,-36159.707506
20033.284248,-12509.480420,-37898.544230,-32252.620466
20033.284581,-14137.933492,-31976.896694,-22446.598091
20033.284914,-13619.789333,-26425.352129,-4903.011187
20033.285247,-7698.141797,-12065.356855,11031.775171
20033.285581,2220.617826,3330.926739,27043.171079
20033.285914,7254.018232,13101.645173,35087.173808
20033.286247,9252.574275,19763.498651,35470.221557
20033.286580,14137.933492,15988.448347,31180.086769
20033.286913,10658.965565,12953.603985,19765.263848
20033.287247,9696.697840,4293.194464,1838.629195
20033.287580,3108.864956,-9918.759623,-16241.224558
20033.287913,-1998.556043,-23612.569550,-29035.019374
20033.288246,-5551.544565,-32569.061448,-30720.429470
20033.288579,-11251.130318,-36492.152941,-32942.106414
20033.288913,-12583.501014,-32050.917289,-25740.808733
20033.289246,-9696.697840,-34345.555709,-11108.384721
20033.289579,-4959.379811,-17764.942608,4213.525239
20033.289912,592.164754,-3034.844362,22906.255390
20033.290245,8290.306550,9178.553681,30950.258119
20033.290579,10807.006753,17172.777854,34244.468761
20033.290912,13545.768739,19097.313304,33248.544613
20033.291245,14137.933492,14804.118840,25051.322785
20033.291578,8512.368333,8512.368333,7354.516781
20033.291911,6883.915261,-6513.812290,-8044.002729
20033.292245,2294.638420,-18949.272115,-23978.789087
20033.292578,-4071.132681,-28497.928767,-29877.724422
20033.292911,-8068.244768,-36270.091158,-31333.305868
20033.293244,-11991.336260,-36048.029375,-28728.581175
20033.293577,-10955.047942,-33827.411549,-16394.443657
20033.293911,-6069.688724,-21910.095883,-306.438199
20033.294244,-1998.556043,-7476.080014,12334.137518
20033.294577,222.061783,5847.626942,22063.550342
20033.294910,7846.182985,11843.295072,31180.086769
20033.295243,9400.615463,15396.283594,31792.963167
20033.295576,10436.903782,17394.839637,26966.561530
20033.295910,9400.615463,9770.718434,13100.233016
20033.296243,5921.647536,-222.061783,-3140.991542
20033.296576,1406.391290,-12213.398043,-15704.957709
20033.296909,0.000000,-23168.445985,-23825.569988
20033.297242,-5329.482782,-33827.411549,-27579.437928
20033.297576,-10214.842000,-35899.988187,-27579.437928
20033.297909,-9252.574275,-33161.226202,-22140.159892
20033.298242,-9696.697840,-28497.928767,-8886.707777
20033.298575,-8882.471304,-14878.139434,6281.983084
20033.298908,-3627.009116,-4441.235652,14785.643111
20033.299242,1998.556043,10066.800811,24668.275036
20033.299575,5625.565159,17394.839637,30797.039020
20033.299908,8512.368333,17616.901420,31180.086769
20033.300241,8290.306550,13545.768739,20224.921147
20033.300574,5995.668130,3849.070898,6665.030833
20033.300908,5329.482782,-5107.421000,-5822.325785
20033.301241,2516.700203,-18653.189738,-17083.929605
20033.301574,-3923.091493,-31976.896694,-25817.418283
20033.301907,-10140.821405,-34345.555709,-31333.305868
20033.302240,-11473.192101,-32791.123231,-28805.190725
20033.302574,-10066.800811,-30866.587781,-14709.033562
20033.302907,-6291.750507,-23686.590144,-2528.115143
20033.303240,-4811.338623,-10362.883188,10955.165621
20033.303573,740.205942,3849.070898,21680.502593
20033.303906,5033.400406,13841.851115,30337.381721
20033.304239,8882.471304,16580.613101,32559.058665
20033.304573,10288.862594,14952.160028,25281.151434
20033.304906,9178.553681,9696.697840,16088.005458
20033.305239,5033.400406,-74.020594,2451.505594
20033.305572,7624.121203,-14211.954086,-9882.631924
20033.305905,2886.803174,-25167.002028,-21527.283494
20033.306239,-3849.070898,-29016.072926,-28345.533426
20033.306572,-5699.585753,-33013.185013,-28345.533426
20033.306905,-7179.997637,-31458.752535,-21986.940793
20033.307238,-9918.759623,-29386.175897,-10801.946522
20033.307571,-7550.100608,-16062.468941,-306.438199
20033.307905,-2738.761985,-4737.318029,13406.671215
20033.308238,3701.029710,6439.791695,27579.437928
20033.308571,11621.233289,14211.954086,30567.210370
20033.308904,11621.233289,17838.963202,29418.067123
20033.309237,11843.295072,15322.262999,22676.426741
20033.309571,12065.356855,5107.421000,10572.117872
20033.309904,9992.780217,-6439.791695,-2987.772442
20033.310237,3701.029710,-19171.333898,-17466.977354
20033.310570,-2368.659014,-27091.537477,-27885.876127
20033.310903,-7920.203579,-30866.587781,-32635.668215
20033.311237,-9474.636058,-36048.029375,-26430.294681
20033.311570,-9548.656652,-33161.226202,-17237.148705
20033.311903,-8956.491898,-21095.869347,-7048.078582
20033.312236,-6365.771101,-12657.521608,11568.042020
20033.312569,-2664.741391,3182.885551,22063.550342
20033.312903,2960.823768,11769.274478,29418.067123
20033.313236,7402.059420,17098.757260,32788.887314
20033.313569,11843.295072,16728.654289,29035.019374
20033.313902,9770.718434,9400.615463,19612.044749
20033.314235,10584.944971,0.000000,2987.772442
20033.314568,2812.782580,-9548.656652,-12870.404366
20033.314902,-3552.988522,-20207.622217,-25127.932334
20033.315235,-4811.338623,-31976.896694,-29494.676673
20033.315568,-13027.624579,-34419.576303,-32788.887314
20033.315901,-13101.645173,-32865.143825,-25894.027832
20033.316234,-13767.830521,-30274.423028,-13330.061665
20033.316568,-10362.883188,-17542.880825,2451.505594
20033.316901,-4737.318029,-3034.844362,17773.415554
20033.317234,4071.132681,8956.491898,28805.190725
20033.317567,9400.615463,16284.530724,35700.050207
20033.317900,11695.253884,19319.375086,33861.421012
20033.318234,12953.603985,13619.789333,25664.199183
20033.318567,10066.800811,6883.915261,11644.651570
20033.318900,7698.141797,-4441.235652,-3140.991542
20033.319233,2294.638420,-16580.613101,-23365.912689
20033.319566,-6809.894666,-27461.640448,-31563.134518
20033.319900,-10362.883188,-34419.576303,-33631.592362
20033.320233,-12731.542202,-35233.802839,-29954.333972
20033.320566,-12879.583391,-33087.205607,-19765.263848
20033.320899,-9326.594869,-24278.754898,-4136.915689
20033.321232,-5921.647536,-9548.656652,10878.556072
20033.321566,2886.803174,7031.956449,24515.055936
20033.321899,11177.109724,10658.965565,36389.536155
20033.322232,12953.603985,18949.272115,34244.468761
20033.322565,15026.180623,17246.798449,30030.943522
20033.322898,12435.459826,9474.636058,18922.558801
20033.323231,10362.883188,2442.679609,153.219100
20033.323565,2886.803174,-12879.583391,-17696.806004
20033.323898,-592.164754,-23908.651927,-29264.848024
20033.324231,-6513.812290,-32050.917289,-32788.887314
20033.324564,-9252.574275,-35011.741057,-33708.201912
20033.324897,-11251.130318,-32495.040854,-23978.789087
20033.325231,-11325.150913,-30792.567187,-12257.527968
20033.325564,-6883.915261,-16062.468941,3677.258390
20033.325897,0.000000,-1258.350101,19612.044749
20033.326230,7550.100608,9918.759623,31563.134518
20033.326563,9918.759623,17838.963202,34244.468761
20033.326897,12805.562797,18949.272115,32712.277765
20033.327230,14137.933492,13323.706956,25051.322785
20033.327563,9474.636058,7031.956449,8427.050478
20033.327896,4663.297435,-8290.306550,-10495.508323
20033.328229,-2294.638420,-18135.045579,-26966.561530
20033.328563,-7105.977043,-29978.340651,-31869.572717
20033.328896,-9548.656652,-35529.885216,-31563.134518
20033.329229,-12805.562797,-35529.885216,-29571.286223
20033.329562,-12361.439231,-34197.514520,-16241.224558
20033.329895,-7179.997637,-22798.343014,919.314598
20033.330229,-3627.009116,-6513.812290,14785.643111
20033.330562,3775.050304,2960.823768,26889.951980
20033.330895,3997.112087,16506.592507,31256.696318
20033.331228,7105.977043,18875.251521,34321.078310
20033.331561,11769.274478,15396.283594,29341.457573
20033.331895,9400.615463,10362.883188,14709.033562
20033.332228,4959.379811,-222.061783,-4673.182538
20033.332561,444.123565,-12731.542202,-17696.806004
20033.332894,-2738.761985,-24426.796086,-26430.294681
20033.333227,-7031.956449,-33457.308578,-30720.429470
20033.333560,-10436.903782,-37602.461854,-30720.429470
20033.333894,-10807.006753,-33161.226202,-22216.769442
20033.334227,-8882.471304,-29016.072926,-5898.935335
20033.334560,-5033.400406,-14878.139434,7967.393179
20033.334893,-74.020594,-3552.988522,19535.435199
20033.335226,4737.318029,11917.315666,31869.572717
20033.335560,12361.439231,19541.436869,32712.277765
20033.335893,10658.965565,20059.581028,33708.201912
20033.336226,10658.965565,14137.933492,19918.482948
20033.336559,8216.285956,4885.359217,2068.457845
20033.336892,5403.503377,-7550.100608,-9882.631924
20033.337226,1776.494261,-20207.622217,-21910.331243
20033.337559,-4293.194464,-32346.999665,-28728.581175
20033.337892,-10214.842000,-33235.246796,-33708.201912
20033.338225,-9104.533087,-36418.132346,-24591.665486
20033.338559,-5403.503377,-34345.555709,-11108.384721
20033.338892,-4811.338623,-21762.054695,0.000000
20033.339225,-666.185348,-9474.636058,14479.204912
20033.339558,2960.823768,5551.544565,26889.951980
20033.339892,8216.285956,15396.283594,32405.839565
20033.340225,10288.862594,18875.251521,32788.887314
20033.340558,9770.718434,16062.468941,22982.864940
20033.340891,9400.615463,7550.100608,13100.233016
20033.341224,9400.615463,-3552.988522,-3140.991542
20033.341558,3849.070898,-14285.974681,-14096.157163
20033.341891,-1776.494261,-24944.940245,-23902.179538
20033.342224,-3849.070898,-33161.226202,-28881.800275
20033.342557,-7402.059420,-36270.091158,-27656.047478
20033.342891,-8956.491898,-32421.020260,-20531.359346
20033.343224,-9844.739029,-28645.969955,-8733.488677
20033.343557,-8882.471304,-14285.974681,3677.258390
20033.343890,-2442.679609,0.000000,16471.053207
20033.344223,1924.535449,14137.933492,24821.494135
20033.344557,7105.977043,17394.839637,33554.982812
20033.344890,9400.615463,16580.613101,29341.457573
