#time,accel_x,accel_y,accel_z
21987.777452,-1184.329507,-8660.409521,-1915.238745
21987.777786,-962.267725,-9030.512492,-3217.601092
21987.778120,-2590.720797,-8586.388927,-3753.867940
21987.778454,-74.020594,-9474.636058,-3140.991542
21987.778789,0.000000,-9844.739029,2145.067394
21987.779123,2516.700203,-9992.780217,4213.525239
21987.779457,5847.626942,-9474.636058,2374.896044
21987.779791,6439.791695,-8882.471304,4826.401637
21987.780125,6809.894666,-7402.059420,4826.401637
21987.780459,7402.059420,-7476.080014,2834.553343
21987.780793,5329.482782,-8216.285956,0.000000
21987.781127,3552.988522,-8956.491898,-2451.505594
21987.781461,2294.638420,-8660.409521,-4903.011187
21987.781795,2368.659014,-10732.986159,-2374.896044
21987.782129,4515.256246,-11547.212695,-4060.306139
21987.782464,4293.194464,-9474.636058,-1762.019645
21987.782798,6513.812290,-8364.327145,919.314598
21987.783132,10955.047942,-7920.203579,4596.572988
21987.783466,11843.295072,-8216.285956,5056.230287
21987.783800,12657.521608,-7624.121203,4826.401637
21987.784134,12953.603985,-8290.306550,4519.963438
21987.784468,10658.965565,-8068.244768,3600.648841
21987.784802,10584.944971,-9474.636058,-1302.362347
21987.785136,5699.585753,-7772.162391,-4903.011187
21987.785470,4145.153275,-12805.562797,-3217.601092
21987.785804,2072.576638,-11917.315666,-6971.469032
21987.786139,-148.041188,-12139.377449,-4979.620737
21987.786473,888.247130,-11399.171507,-1991.848295
21987.786807,4145.153275,-9252.574275,4366.744339
21987.787141,9400.615463,-5329.482782,9116.536426
21987.787475,10140.821405,-4515.256246,10189.070123
21987.787809,11473.192101,-5033.400406,8886.707777
21987.788143,11917.315666,-4811.338623,6435.202183
21987.788477,10732.986159,-5403.503377,1685.410096
21987.788811,11177.109724,-8734.430116,-1302.362347
21987.789145,4293.194464,-8364.327145,-9806.022374
21987.789479,2960.823768,-12213.398043,-8886.707777
21987.789814,5847.626942,-13915.871710,-7431.126331
21987.790148,4367.215058,-12509.480420,-7354.516781
21987.790482,7031.956449,-14211.954086,-3753.867940
21987.790816,7772.162391,-11325.150913,1532.190996
21987.791150,11769.274478,-8808.450710,7048.078582
21987.791484,14508.036463,-5699.585753,10648.727422
21987.791818,16950.716072,-4441.235652,10035.851024
21987.792152,13027.624579,-4219.173869,10495.508323
21987.792486,13027.624579,-7476.080014,7814.174080
21987.792820,10288.862594,-8142.265362,-1149.143247
21987.793154,2960.823768,-10732.986159,-4290.134789
21987.793489,1110.308913,-10955.047942,-9116.536426
21987.793823,-296.082377,-10955.047942,-7660.954980
21987.794157,2072.576638,-10955.047942,-4979.620737
21987.794491,4737.318029,-9104.533087,-1991.848295
21987.794825,9474.636058,-7179.997637,1991.848295
21987.795159,11843.295072,-8956.491898,9422.974625
21987.795493,13545.768739,-6365.771101,4826.401637
21987.795827,13841.851115,-7031.956449,1532.190996
21987.796161,12657.521608,-7994.224174,3294.210641
21987.796495,10066.800811,-7476.080014,306.438199
21987.796830,9400.615463,-9918.759623,-1762.019645
21987.797164,6217.729913,-11769.274478,-3294.210641
21987.797498,4885.359217,-11325.150913,-2451.505594
21987.797832,7846.182985,-9918.759623,612.876398
21987.798166,14137.933492,-8882.471304,4213.525239
21987.798500,12953.603985,-5255.462188,612.876398
21987.798834,14952.160028,-8364.327145,3677.258390
21987.799168,15914.427753,-10658.965565,4213.525239
21987.799502,12435.459826,-8512.368333,0.000000
21987.799836,12361.439231,-12435.459826,0.000000
21987.800170,9474.636058,-11399.171507,-1685.410096
21987.800505,7624.121203,-11251.130318,-2911.162892
21987.800839,8882.471304,-9696.697840,-2451.505594
21987.801173,10584.944971,-7920.203579,0.000000
21987.801507,11769.274478,-7698.141797,2528.115143
21987.801841,11621.233289,-7105.977043,3294.210641
21987.802175,9400.615463,-8882.471304,536.266849
21987.802509,9992.780217,-9474.636058,0.000000
21987.802843,11843.295072,-7772.162391,3600.648841
21987.803177,16506.592507,-9474.636058,2374.896044
21987.803511,12879.583391,-6883.915261,0.000000
21987.803845,12657.521608,-10658.965565,-689.485948
21987.804180,9696.697840,-10732.986159,-1225.752797
21987.804514,8290.306550,-8586.388927,-1608.800546
21987.804848,8660.409521,-10955.047942,-1838.629195
21987.805182,5921.647536,-10140.821405,1225.752797
21987.805516,11177.109724,-6291.750507,0.000000
21987.805850,8290.306550,-8956.491898,4826.401637
21987.806184,9400.615463,-7105.977043,0.000000
21987.806518,7105.977043,-9548.656652,3677.258390
21987.806852,10881.027347,-5551.544565,2221.676944
21987.807186,12731.542202,-7254.018232,2911.162892
21987.807520,11547.212695,-6439.791695,-995.924147
21987.807855,8438.347739,-9992.780217,-2757.943793
21987.808189,9474.636058,-12509.480420,-76.609550
21987.808523,9992.780217,-9622.677246,-1838.629195
21987.808857,9474.636058,-8660.409521,0.000000
21987.809191,11843.295072,-11621.233289,1915.238745
21987.809525,9400.615463,-11843.295072,-76.609550
21987.809859,7698.141797,-10140.821405,3677.258390
21987.810193,10140.821405,-10658.965565,3600.648841
21987.810527,9770.718434,-5995.668130,3064.381992
21987.810861,10140.821405,-7698.141797,3140.991542
21987.811195,7031.956449,-5921.647536,-76.609550
21987.811530,3552.988522,-7179.997637,0.000000
21987.811864,5551.544565,-10955.047942,-3907.087040
21987.812198,14730.098246,-5625.565159,306.438199
21987.812532,9474.636058,-8660.409521,4443.353888
21987.812866,12953.603985,-6513.812290,-76.609550
21987.813200,4959.379811,-16284.530724,-1762.019645
21987.813534,5181.441594,-11769.274478,-4213.525239
21987.813868,6217.729913,-11695.253884,0.000000
21987.814201,3997.112087,-8956.491898,-1608.800546
21987.814534,5551.544565,-12731.542202,-76.609550
21987.814868,2886.803174,-7328.038826,0.000000
21987.815201,7994.224174,-9474.636058,7354.516781
21987.815535,9400.615463,-5921.647536,7277.907231
21987.815868,9400.615463,-4145.153275,2987.772442
21987.816202,7031.956449,-9474.636058,1455.581446
21987.816535,4959.379811,-9104.533087,1378.971896
21987.816869,5255.462188,-7476.080014,-842.705048
21987.817202,2072.576638,-11399.171507,-1225.752797
21987.817536,4663.297435,-8882.471304,-2528.115143
21987.817869,-2368.659014,-12657.521608,-2911.162892
21987.818203,2220.617826,-6957.935855,-4903.011187
21987.818536,-1924.535449,-14582.057057,-3064.381992
21987.818869,1184.329507,-8364.327145,-1838.629195
21987.819203,2664.741391,-11917.315666,4596.572988
21987.819536,8808.450710,-3923.091493,5515.887586
21987.819870,5625.565159,-5403.503377,5209.449386
21987.820203,11029.068536,-7994.224174,5439.278036
21987.820537,9474.636058,-4811.338623,2834.553343
21987.820870,8290.306550,-7550.100608,1762.019645
21987.821204,7105.977043,-9844.739029,-1838.629195
21987.821537,518.144159,-11473.192101,-6052.154434
21987.821871,3478.967927,-14211.954086,-3294.210641
21987.822204,296.082377,-13397.727550,-842.705048
21987.822538,370.102971,-9844.739029,-4903.011187
21987.822871,-2368.659014,-10732.986159,-4290.134789
21987.823204,2368.659014,-11843.295072,5439.278036
21987.823538,2368.659014,-7179.997637,4903.011187
21987.823871,6735.874072,-3849.070898,7814.174080
21987.824205,6513.812290,-4367.215058,7048.078582
21987.824538,7920.203579,-5921.647536,5362.668486
21987.824872,4959.379811,-6809.894666,1455.581446
21987.825205,1924.535449,-10510.924376,-76.609550
21987.825539,-2960.823768,-7772.162391,-6128.763984
21987.825872,-4293.194464,-13027.624579,-6205.373534
21987.826206,-74.020594,-11843.295072,-6818.249932
21987.826539,-2442.679609,-10955.047942,-4366.744339
21987.826872,-2812.782580,-12509.480420,-1072.533697
21987.827206,1776.494261,-7772.162391,766.095498
21987.827539,740.205942,-13693.809927,7584.345430
21987.827873,5921.647536,-74.020594,6741.640382
21987.828206,4663.297435,-12435.459826,6052.154434
21987.828540,5921.647536,-1258.350101,3677.258390
21987.828873,592.164754,-7476.080014,3600.648841
21987.829207,4663.297435,-5921.647536,-2681.334243
21987.829540,1776.494261,-6291.750507,-3677.258390
21987.829874,-5329.482782,-13471.748144,-6205.373534
21987.830207,-370.102971,-9622.677246,-6665.030833
21987.830541,-5625.565159,-14952.160028,-5515.887586
21987.830874,-74.020594,-14211.954086,-1302.362347
21987.831207,-74.020594,-7179.997637,0.000000
21987.831541,2960.823768,-12435.459826,6511.811733
21987.831874,4367.215058,-7105.977043,3600.648841
21987.832208,0.000000,-9844.739029,6128.763984
21987.832541,2960.823768,-6365.771101,8963.317327
21987.832875,2960.823768,-3997.112087,7354.516781
21987.833208,2960.823768,-6513.812290,1685.410096
21987.833542,-3627.009116,-5699.585753,-3064.381992
21987.833875,-3627.009116,-9474.636058,-4979.620737
21987.834209,-4219.173869,-9992.780217,-4903.011187
21987.834542,-1850.514855,-10955.047942,-4596.572988
21987.834876,-4663.297435,-12139.377449,-4366.744339
21987.835209,-2590.720797,-12731.542202,-306.438199
21987.835542,-1628.453072,-11177.109724,1532.190996
21987.835876,1702.473667,-8882.471304,1762.019645
21987.836209,1332.370696,-7179.997637,7354.516781
21987.836543,4885.359217,-7105.977043,7277.907231
21987.836876,1702.473667,-7105.977043,4826.401637
21987.837210,0.000000,-5995.668130,3064.381992
21987.837543,74.020594,-7179.997637,-689.485948
21987.837877,-2442.679609,-8586.388927,-4060.306139
21987.838210,1184.329507,-7550.100608,-5592.497135
21987.838544,-1850.514855,-13915.871710,-3753.867940
21987.838877,-74.020594,-11251.130318,-3983.696590
21987.839210,-888.247130,-11769.274478,0.000000
21987.839544,1776.494261,-13471.748144,4519.963438
21987.839877,4663.297435,-8290.306550,3447.429741
21987.840211,2220.617826,-10955.047942,4519.963438
21987.840544,1184.329507,-7476.080014,3677.258390
21987.840878,962.267725,-6069.688724,842.705048
21987.841211,888.247130,-9844.739029,4749.792088
21987.841545,-2220.617826,-5625.565159,229.828649
21987.841878,-2442.679609,-4811.338623,-4903.011187
21987.842212,-740.205942,-7105.977043,-1302.362347
21987.842545,-3034.844362,-11843.295072,-6205.373534
21987.842879,-1184.329507,-7179.997637,-2145.067394
21987.843212,2294.638420,-10214.842000,-2221.676944
21987.843545,4071.132681,-11547.212695,4213.525239
21987.843879,3552.988522,-9104.533087,4213.525239
21987.844212,2738.761985,-13397.727550,2528.115143
21987.844546,4737.318029,-8068.244768,3217.601092
21987.844879,592.164754,-12435.459826,3064.381992
21987.845213,4663.297435,-9474.636058,-76.609550
21987.845546,-518.144159,-10140.821405,1225.752797
21987.845880,-2072.576638,-8660.409521,3600.648841
21987.846213,-370.102971,-5921.647536,-4060.306139
21987.846547,-1850.514855,-9252.574275,-4673.182538
21987.846880,-1258.350101,-8660.409521,-1225.752797
21987.847214,0.000000,-6291.750507,306.438199
21987.847547,3256.906145,-10140.821405,3677.258390
21987.847880,592.164754,-9400.615463,4519.963438
21987.848214,1184.329507,-9548.656652,766.095498
21987.848547,3775.050304,-9770.718434,2911.162892
21987.848881,2590.720797,-9474.636058,-76.609550
21987.849214,-1776.494261,-9548.656652,-3524.039291
21987.849548,-5921.647536,-11325.150913,-2451.505594
21987.849881,-74.020594,-9474.636058,-3140.991542
21987.850215,-666.185348,-9104.533087,-995.924147
21987.850548,2886.803174,-9474.636058,-76.609550
21987.850882,518.144159,-9178.553681,2068.457845
21987.851215,-444.123565,-7846.182985,-995.924147
21987.851549,1850.514855,-10510.924376,3830.477490
21987.851882,2146.597232,-6143.709319,3217.601092
21987.852215,4663.297435,-10140.821405,5286.058936
21987.852549,0.000000,-8364.327145,4903.011187
21987.852882,-74.020594,-10362.883188,-2068.457845
21987.853216,0.000000,-7772.162391,-3064.381992
21987.853549,-2368.659014,-11917.315666,-2604.724693
21987.853883,-3034.844362,-11547.212695,-5362.668486
21987.854216,-5699.585753,-11621.233289,-229.828649
21987.854550,-2442.679609,-6809.894666,-3140.991542
21987.854883,-1480.411884,-8660.409521,1149.143247
21987.855217,-666.185348,-5921.647536,1455.581446
21987.855550,3552.988522,-7994.224174,7277.907231
21987.855883,1110.308913,-9474.636058,6052.154434
21987.856217,0.000000,-5699.585753,612.876398
21987.856550,0.000000,-9252.574275,3217.601092
21987.856884,1702.473667,-5403.503377,-1225.752797
21987.857217,2294.638420,-12509.480420,76.609550
21987.857551,0.000000,-10140.821405,0.000000
21987.857884,-74.020594,-11843.295072,-2834.553343
21987.858218,-5625.565159,-11917.315666,-3677.258390
21987.858551,1110.308913,-9474.636058,-3140.991542
21987.858885,-1850.514855,-13027.624579,-1302.362347
21987.859218,0.000000,-4811.338623,1532.190996
21987.859552,4071.132681,-11251.130318,6052.154434
21987.859885,1480.411884,-6143.709319,5362.668486
21987.860218,3330.926739,-7402.059420,4903.011187
21987.860552,1110.308913,-9992.780217,2374.896044
21987.860885,4737.318029,-7179.997637,1915.238745
21987.861219,296.082377,-9474.636058,1149.143247
21987.861552,-74.020594,-9474.636058,-3753.867940
21987.861886,-3552.988522,-9844.739029,-4366.744339
21987.862219,-2442.679609,-16580.613101,-1915.238745
21987.862553,-74.020594,-8882.471304,-1915.238745
21987.862886,-2368.659014,-12879.583391,842.705048
21987.863220,888.247130,-7624.121203,0.000000
21987.863553,962.267725,-7920.203579,2834.553343
21987.863887,4071.132681,-6809.894666,5362.668486
21987.864220,5921.647536,-7179.997637,7737.564530
21987.864553,3478.967927,-8364.327145,4290.134789
21987.864887,3182.885551,-6735.874072,2757.943793
21987.865220,-2220.617826,-8290.306550,-842.705048
21987.865554,-962.267725,-6217.729913,-7507.735880
21987.865887,-3552.988522,-11917.315666,-3370.820191
21987.866221,-74.020594,-11547.212695,-2528.115143
21987.866554,-2738.761985,-9548.656652,-3677.258390
21987.866888,-1480.411884,-10658.965565,-383.047749
21987.867221,-666.185348,-11843.295072,-1915.238745
21987.867555,0.000000,-9326.594869,1302.362347
21987.867888,4219.173869,-9992.780217,4366.744339
21987.868221,2516.700203,-5699.585753,6128.763984
21987.868555,1776.494261,-9548.656652,5515.887586
21987.868888,1184.329507,-2738.761985,7354.516781
21987.869222,-74.020594,-10362.883188,995.924147
21987.869555,-1184.329507,-4811.338623,-3064.381992
21987.869889,-4737.318029,-11325.150913,-2451.505594
21987.870222,-4293.194464,-8660.409521,-5286.058936
21987.870556,-2960.823768,-8660.409521,-2834.553343
21987.870889,-5921.647536,-12361.439231,-1378.971896
21987.871223,-3775.050304,-8808.450710,-2221.676944
21987.871556,-1554.432478,-11251.130318,-76.609550
21987.871890,2368.659014,-7254.018232,4826.401637
21987.872223,2294.638420,-6587.832884,2451.505594
21987.872556,4145.153275,-7772.162391,6435.202183
21987.872890,3182.885551,-11547.212695,4213.525239
21987.873223,2886.803174,-6069.688724,3064.381992
21987.873557,4367.215058,-6957.935855,-383.047749
21987.873890,-444.123565,-12805.562797,-1302.362347
21987.874224,-666.185348,-10214.842000,-2604.724693
21987.874557,-6069.688724,-10807.006753,-4366.744339
21987.874891,-1998.556043,-13619.789333,-2528.115143
21987.875224,-2368.659014,-7179.997637,-3677.258390
21987.875558,0.000000,-10288.862594,2298.286494
21987.875891,4071.132681,-7105.977043,3294.210641
21987.876225,666.185348,-6809.894666,4366.744339
21987.876558,222.061783,-8364.327145,1378.971896
21987.876891,2442.679609,-7328.038826,6128.763984
21987.877225,2294.638420,-6143.709319,1685.410096
21987.877558,2960.823768,-8364.327145,2604.724693
21987.877892,-74.020594,-8882.471304,-4903.011187
21987.878225,-2368.659014,-11843.295072,-3140.991542
21987.878559,-3552.988522,-10436.903782,-229.828649
21987.878892,-370.102971,-9178.553681,-4903.011187
21987.879226,-74.020594,-8586.388927,-3907.087040
21987.879559,-1480.411884,-11621.233289,-995.924147
21987.879893,4515.256246,-8290.306550,2221.676944
21987.880226,1480.411884,-9548.656652,3524.039291
21987.880559,5921.647536,-9252.574275,4903.011187
21987.880893,4515.256246,-10658.965565,5439.278036
21987.881226,4367.215058,-6439.791695,2757.943793
21987.881560,4071.132681,-9474.636058,-76.609550
21987.881893,-1776.494261,-12509.480420,1072.533697
21987.882227,0.000000,-5403.503377,-2451.505594
21987.882560,-3034.844362,-12435.459826,-1915.238745
21987.882894,-4737.318029,-7179.997637,-3677.258390
21987.883227,-4441.235652,-12435.459826,-3140.991542
21987.883561,-3627.009116,-11843.295072,-689.485948
21987.883894,-1184.329507,-4811.338623,0.000000
21987.884228,-1184.329507,-10807.006753,3370.820191
21987.884561,3034.844362,-6513.812290,4749.792088
21987.884894,1184.329507,-8364.327145,5439.278036
21987.885228,2738.761985,-9178.553681,4213.525239
21987.885561,-1258.350101,-10658.965565,-689.485948
21987.885895,-888.247130,-8660.409521,-2451.505594
21987.886228,1184.329507,-10955.047942,1762.019645
21987.886562,-962.267725,-8882.471304,-2451.505594
21987.886895,0.000000,-10436.903782,-76.609550
21987.887229,-5921.647536,-11325.150913,-2298.286494
21987.887562,-2368.659014,-10436.903782,-612.876398
21987.887896,-1184.329507,-6439.791695,-2451.505594
21987.888229,1110.308913,-13027.624579,3600.648841
21987.888563,2294.638420,-4441.235652,0.000000
21987.888896,4219.173869,-11251.130318,6665.030833
21987.889229,3775.050304,-9474.636058,2374.896044
21987.889563,1850.514855,-6291.750507,1532.190996
21987.889896,1110.308913,-12879.583391,1455.581446
21987.890230,-518.144159,-6439.791695,-3677.258390
21987.890563,-3404.947333,-12657.521608,-2911.162892
21987.890897,-1998.556043,-7772.162391,-4366.744339
21987.891230,-2368.659014,-11325.150913,-1685.410096
21987.891564,-2368.659014,-5995.668130,0.000000
21987.891897,1554.432478,-12731.542202,2374.896044
21987.892231,1110.308913,-6957.935855,1838.629195
21987.892564,2664.741391,-4811.338623,6128.763984
21987.892898,4367.215058,-7994.224174,2987.772442
21987.893231,7698.141797,-6513.812290,3830.477490
21987.893564,4145.153275,-8660.409521,1072.533697
21987.893898,1702.473667,-11621.233289,-2757.943793
21987.894231,0.000000,-9548.656652,-5439.278036
21987.894565,-2812.782580,-14211.954086,-4749.792088
21987.894898,592.164754,-9770.718434,-4596.572988
21987.895232,1406.391290,-9400.615463,-2757.943793
21987.895565,5255.462188,-13915.871710,3600.648841
21987.895899,4663.297435,-9474.636058,7890.783629
21987.896232,4367.215058,-7328.038826,2911.162892
21987.896566,2368.659014,-7476.080014,4903.011187
21987.896899,1998.556043,-7994.224174,1762.019645
21987.897232,2220.617826,-7550.100608,3064.381992
21987.897566,296.082377,-7179.997637,689.485948
21987.897899,-3552.988522,-9548.656652,-2757.943793
21987.898233,-1406.391290,-7846.182985,-4596.572988
21987.898566,-3627.009116,-11991.336260,-3370.820191
21987.898900,-2072.576638,-9844.739029,-1455.581446
21987.899233,-5403.503377,-9548.656652,-4290.134789
21987.899567,-2368.659014,-10732.986159,-1302.362347
21987.899900,2886.803174,-10658.965565,4213.525239
21987.900234,1702.473667,-8142.265362,4136.915689
21987.900567,6439.791695,-6513.812290,5132.839837
21987.900901,1554.432478,-8512.368333,5056.230287
21987.901234,0.000000,-7772.162391,3907.087040
21987.901567,148.041188,-4663.297435,76.609550
21987.901901,-2442.679609,-9474.636058,-2528.115143
21987.902234,-2442.679609,-13027.624579,-76.609550
21987.902568,-2442.679609,-10658.965565,-4673.182538
21987.902901,-4737.318029,-10140.821405,-4290.134789
21987.903235,-2368.659014,-10807.006753,-459.657299
21987.903568,-1998.556043,-9104.533087,2145.067394
21987.903902,-666.185348,-8216.285956,1225.752797
21987.904235,2294.638420,-6809.894666,4366.744339
21987.904569,-74.020594,-8216.285956,3447.429741
21987.904902,2664.741391,-8364.327145,6052.154434
21987.905236,2886.803174,-6513.812290,2221.676944
21987.905569,592.164754,-8364.327145,0.000000
21987.905902,3478.967927,-11843.295072,-1302.362347
21987.906236,-6513.812290,-9548.656652,-4596.572988
21987.906569,-4737.318029,-7772.162391,-4290.134789
21987.906903,-1628.453072,-10732.986159,-1225.752797
21987.907236,2738.761985,-6661.853478,536.266849
21987.907570,-1702.473667,-11177.109724,-2451.505594
21987.907903,3849.070898,-10214.842000,3217.601092
21987.908237,4071.132681,-11843.295072,4826.401637
21987.908570,4071.132681,-5699.585753,2451.505594
21987.908904,7105.977043,-9548.656652,3677.258390
21987.909237,5551.544565,-14211.954086,4213.525239
21987.909570,5329.482782,-4811.338623,3983.696590
21987.909904,3182.885551,-8882.471304,-1302.362347
21987.910237,592.164754,-10288.862594,-536.266849
21987.910571,-3552.988522,-8586.388927,-5209.449386
21987.910904,-370.102971,-11843.295072,-3677.258390
21987.911238,-4145.153275,-11695.253884,-4519.963438
21987.911571,-1480.411884,-8660.409521,-2298.286494
21987.911905,0.000000,-8364.327145,3140.991542
21987.912238,4293.194464,-2442.679609,1378.971896
21987.912572,2960.823768,-8364.327145,6128.763984
21987.912905,2294.638420,-10658.965565,2374.896044
21987.913239,3478.967927,-11251.130318,-76.609550
21987.913572,-888.247130,-8364.327145,0.000000
21987.913905,3775.050304,-8956.491898,0.000000
21987.914239,814.226536,-7179.997637,0.000000
21987.914572,-1480.411884,-11251.130318,-919.314598
21987.914905,-1850.514855,-11695.253884,-2834.553343
21987.915239,-3256.906145,-9030.512492,-536.266849
21987.915572,-2146.597232,-8956.491898,-3064.381992
21987.915905,-74.020594,-11103.089130,-995.924147
21987.916239,592.164754,-6587.832884,5515.887586
21987.916572,0.000000,-8512.368333,4826.401637
21987.916906,1776.494261,-7105.977043,3677.258390
21987.917239,1258.350101,-8808.450710,4290.134789
21987.917572,148.041188,-9030.512492,1455.581446
21987.917906,296.082377,-8142.265362,1225.752797
21987.918239,-740.205942,-13027.624579,-2528.115143
21987.918572,-3478.967927,-11325.150913,-3064.381992
21987.918906,-1554.432478,-5403.503377,-1685.410096
21987.919239,-592.164754,-11325.150913,-1225.752797
21987.919572,-74.020594,-10658.965565,-842.705048
21987.919906,-3701.029710,-9844.739029,-1838.629195
21987.920239,-2368.659014,-7179.997637,3830.477490
21987.920572,74.020594,-5921.647536,3983.696590
21987.920906,3701.029710,-5329.482782,4826.401637
21987.921239,2960.823768,-6513.812290,2068.457845
21987.921573,2664.741391,-9992.780217,2681.334243
21987.921906,-666.185348,-8586.388927,-5822.325785
21987.922239,-1628.453072,-14804.118840,-1072.533697
21987.922573,1406.391290,-12731.542202,-2528.115143
21987.922906,-2368.659014,-9548.656652,-4903.011187
21987.923239,2886.803174,-10362.883188,-76.609550
21987.923573,-666.185348,-9178.553681,-2528.115143
21987.923906,4441.235652,-8364.327145,2221.676944
21987.924239,2368.659014,-9548.656652,4443.353888
21987.924573,3478.967927,-9326.594869,4519.963438
21987.924906,2590.720797,-4811.338623,1838.629195
21987.925239,3478.967927,-11843.295072,4826.401637
21987.925573,1776.494261,-4737.318029,-76.609550
21987.925906,148.041188,-5995.668130,0.000000
21987.926239,814.226536,-11843.295072,-3140.991542
21987.926573,-3775.050304,-9992.780217,-4213.525239
21987.926906,-4811.338623,-10732.986159,-5286.058936
21987.927240,-1776.494261,-9104.533087,-3907.087040
21987.927573,-1554.432478,-13619.789333,-689.485948
21987.927906,592.164754,-7476.080014,1149.143247
21987.928240,1850.514855,-8808.450710,3830.477490
21987.928573,5181.441594,-8068.244768,7277.907231
21987.928906,4737.318029,-5699.585753,5515.887586
21987.929240,5699.585753,-10362.883188,5745.716235
21987.929573,3108.864956,-4811.338623,306.438199
21987.929906,0.000000,-11029.068536,1762.019645
21987.930240,1110.308913,-11103.089130,-2528.115143
21987.930573,-3404.947333,-9548.656652,-4903.011187
21987.930906,-3627.009116,-15248.242405,-2528.115143
21987.931240,-1628.453072,-9474.636058,-1991.848295
21987.931573,-5773.606348,-11251.130318,-1762.019645
21987.931907,-74.020594,-6809.894666,2374.896044
21987.932240,-740.205942,-10066.800811,4213.525239
21987.932573,1406.391290,-3034.844362,3064.381992
21987.932907,4145.153275,-6587.832884,6128.763984
21987.933240,1628.453072,-11547.212695,4826.401637
21987.933573,2368.659014,-7476.080014,1225.752797
21987.933907,-1702.473667,-9474.636058,-2221.676944
21987.934240,0.000000,-11917.315666,-1302.362347
21987.934573,-3997.112087,-11029.068536,-4903.011187
21987.934907,-2738.761985,-9474.636058,-3753.867940
21987.935240,-2516.700203,-11251.130318,-3753.867940
21987.935573,-3404.947333,-9548.656652,0.000000
21987.935907,-1332.370696,-9252.574275,-76.609550
21987.936240,4071.132681,-9474.636058,6665.030833
21987.936574,3478.967927,-5625.565159,5286.058936
21987.936907,2442.679609,-6143.709319,5592.497135
21987.937240,6143.709319,-3552.988522,2834.553343
21987.937574,-518.144159,-9918.759623,-1762.019645
21987.937907,5329.482782,-8364.327145,-1225.752797
21987.938240,-666.185348,-16580.613101,-2068.457845
21987.938574,2368.659014,-9548.656652,-4596.572988
21987.938907,-1258.350101,-18949.272115,-2221.676944
21987.939240,-1850.514855,-8364.327145,-5822.325785
21987.939574,-2368.659014,-7772.162391,-3370.820191
21987.939907,-2072.576638,-10140.821405,4290.134789
21987.940240,4737.318029,-4959.379811,2911.162892
21987.940574,2590.720797,-7994.224174,6511.811733
21987.940907,4663.297435,-8290.306550,4826.401637
21987.941240,370.102971,-4219.173869,0.000000
21987.941574,5847.626942,-10658.965565,4826.401637
21987.941907,4071.132681,-4737.318029,536.266849
21987.942241,-4145.153275,-13101.645173,0.000000
21987.942574,-2368.659014,-8364.327145,-5515.887586
21987.942907,-3552.988522,-11325.150913,-4826.401637
21987.943241,-962.267725,-12435.459826,-1072.533697
21987.943574,2812.782580,-7179.997637,0.000000
21987.943907,-2738.761985,-15396.283594,-76.609550
21987.944241,2368.659014,-5995.668130,4136.915689
21987.944574,518.144159,-8660.409521,2374.896044
21987.944907,5033.400406,-4145.153275,6741.640382
21987.945241,-1924.535449,-9844.739029,3600.648841
21987.945574,4071.132681,-8882.471304,-76.609550
21987.945907,-3404.947333,-9548.656652,3064.381992
21987.946241,-74.020594,-7698.141797,-76.609550
21987.946574,0.000000,-11325.150913,0.000000
21987.946908,-2368.659014,-8808.450710,-76.609550
21987.947241,-3108.864956,-13323.706956,-2834.553343
21987.947574,-5773.606348,-10140.821405,-1225.752797
21987.947908,-2664.741391,-11251.130318,-842.705048
21987.948241,-4219.173869,-9178.553681,536.266849
21987.948574,2146.597232,-6069.688724,3140.991542
21987.948908,-2368.659014,-7179.997637,2757.943793
21987.949241,4071.132681,-4737.318029,2987.772442
21987.949574,1702.473667,-6587.832884,1532.190996
21987.949908,2368.659014,-8364.327145,4290.134789
21987.950241,2294.638420,-8290.306550,536.266849
21987.950574,-1924.535449,-8956.491898,-1762.019645
21987.950908,-1924.535449,-8438.347739,-3447.429741
21987.951241,-2812.782580,-10881.027347,-7354.516781
21987.951574,740.205942,-12657.521608,-4596.572988
21987.951908,-3552.988522,-9548.656652,-612.876398
21987.952241,5847.626942,-13027.624579,2374.896044
21987.952575,2738.761985,-5921.647536,2374.896044
21987.952908,3108.864956,-8364.327145,5209.449386
21987.953241,2442.679609,-4811.338623,3064.381992
21987.953575,7031.956449,-9326.594869,5439.278036
21987.953908,3256.906145,-8068.244768,4136.915689
21987.954241,2590.720797,-7698.141797,306.438199
21987.954575,1110.308913,-9474.636058,-842.705048
21987.954908,-3997.112087,-11843.295072,-2528.115143
21987.955241,-74.020594,-8586.388927,-5975.544884
21987.955575,-2220.617826,-10436.903782,-1532.190996
21987.955908,-4145.153275,-12065.356855,-2528.115143
21987.956241,1184.329507,-8364.327145,-536.266849
21987.956575,-1480.411884,-9104.533087,1378.971896
21987.956908,5255.462188,-5773.606348,3830.477490
21987.957242,5107.421000,-9474.636058,5439.278036
21987.957575,3775.050304,-8290.306550,3830.477490
21987.957908,4663.297435,-9474.636058,2221.676944
21987.958242,592.164754,-7179.997637,0.000000
21987.958575,740.205942,-11695.253884,-76.609550
21987.958908,-4811.338623,-10066.800811,-3294.210641
21987.959242,-2368.659014,-8956.491898,-1685.410096
21987.959575,-5995.668130,-10658.965565,-3524.039291
21987.959908,-2664.741391,-7031.956449,-3600.648841
21987.960242,-2294.638420,-12065.356855,2451.505594
21987.960575,-222.061783,-6513.812290,3294.210641
21987.960908,-74.020594,-7846.182985,1302.362347
21987.961242,0.000000,-9696.697840,4290.134789
21987.961575,2738.761985,-7624.121203,5439.278036
21987.961909,1850.514855,-8216.285956,4136.915689
21987.962242,1998.556043,-8882.471304,2374.896044
21987.962575,-1850.514855,-13027.624579,-1915.238745
21987.962909,-4145.153275,-9548.656652,-2451.505594
21987.963242,-4367.215058,-11843.295072,-2757.943793
21987.963575,-3849.070898,-10732.986159,-4136.915689
21987.963909,-5181.441594,-10140.821405,-1225.752797
21987.964242,-3478.967927,-9178.553681,-1378.971896
21987.964575,-1184.329507,-5329.482782,1991.848295
21987.964909,740.205942,-8068.244768,1685.410096
21987.965242,2960.823768,-7179.997637,4903.011187
21987.965575,5847.626942,-4737.318029,3600.648841
21987.965909,4515.256246,-6587.832884,2451.505594
21987.966242,1998.556043,-11843.295072,2374.896044
21987.966575,4663.297435,-9474.636058,-3140.991542
21987.966909,-2368.659014,-14285.974681,-2221.676944
21987.967242,222.061783,-11843.295072,-3600.648841
21987.967576,-2368.659014,-12287.418637,-3294.210641
21987.967909,-1480.411884,-9622.677246,-1608.800546
21987.968242,1776.494261,-7846.182985,2987.772442
21987.968576,-74.020594,-8290.306550,306.438199
21987.968909,4737.318029,-4219.173869,4903.011187
21987.969242,5847.626942,-9474.636058,3600.648841
21987.969576,4885.359217,-6291.750507,4366.744339
21987.969909,2590.720797,-7698.141797,1149.143247
21987.970242,3256.906145,-9474.636058,-842.705048
21987.970576,1406.391290,-9474.636058,-1532.190996
21987.970909,-962.267725,-13693.809927,-4290.134789
21987.971242,-74.020594,-10658.965565,-2528.115143
21987.971576,-4071.132681,-9844.739029,-6128.763984
21987.971909,-1036.288319,-13915.871710,-1455.581446
21987.972243,-74.020594,-8290.306550,-76.609550
21987.972576,0.000000,-5403.503377,3677.258390
21987.972909,4663.297435,-5625.565159,6665.030833
21987.973243,2664.741391,-7254.018232,5362.668486
21987.973576,1184.329507,-6587.832884,1608.800546
21987.973909,2960.823768,-8956.491898,2757.943793
21987.974243,2294.638420,-9474.636058,2374.896044
21987.974576,-1702.473667,-11103.089130,-2681.334243
21987.974909,-3330.926739,-10362.883188,-4903.011187
21987.975243,-2072.576638,-11769.274478,-4749.792088
21987.975576,-4737.318029,-11325.150913,-1838.629195
21987.975909,-222.061783,-9474.636058,-689.485948
21987.976243,-3552.988522,-10140.821405,2451.505594
21987.976576,-3552.988522,-5403.503377,2757.943793
21987.976909,3478.967927,-7105.977043,5745.716235
21987.977243,-1480.411884,-6587.832884,2528.115143
21987.977576,2442.679609,-5773.606348,2911.162892
21987.977910,-1850.514855,-7846.182985,2068.457845
21987.978243,1776.494261,-3552.988522,919.314598
21987.978576,1702.473667,-11251.130318,-383.047749
21987.978910,-3627.009116,-15100.201217,-4060.306139
21987.979243,-4737.318029,-9548.656652,-5515.887586
21987.979576,-3182.885551,-16432.571912,-2528.115143
21987.979910,2294.638420,-10362.883188,-2528.115143
21987.980243,0.000000,-10436.903782,0.000000
21987.980576,4071.132681,-9178.553681,3447.429741
21987.980910,3552.988522,-8512.368333,6511.811733
21987.981243,4663.297435,-6957.935855,5056.230287
21987.981576,5847.626942,-9474.636058,7277.907231
21987.981910,2368.659014,-5995.668130,4673.182538
21987.982243,2294.638420,-7550.100608,0.000000
21987.982577,-2368.659014,-9548.656652,-459.657299
21987.982910,0.000000,-10214.842000,-1608.800546
21987.983243,-3923.091493,-12435.459826,-4979.620737
21987.983577,-3627.009116,-13101.645173,-6052.154434
21987.983910,-2442.679609,-9474.636058,-2681.334243
21987.984243,-518.144159,-11103.089130,1455.581446
21987.984577,1776.494261,-4219.173869,3064.381992
21987.984910,5847.626942,-9474.636058,5439.278036
21987.985243,1184.329507,-5403.503377,0.000000
21987.985577,5921.647536,-8882.471304,7277.907231
21987.985910,1110.308913,-7179.997637,0.000000
21987.986243,2664.741391,-7772.162391,2834.553343
21987.986577,0.000000,-8364.327145,-1225.752797
21987.986910,-2664.741391,-12213.398043,-3830.477490
21987.987243,1406.391290,-7550.100608,-4826.401637
21987.987577,-1184.329507,-16062.468941,-919.314598
21987.987910,2294.638420,-7550.100608,-2145.067394
21987.988244,-5329.482782,-13471.748144,-689.485948
21987.988577,2516.700203,-8290.306550,-76.609550
21987.988910,0.000000,-7179.997637,6435.202183
21987.989244,7402.059420,-2664.741391,6665.030833
21987.989577,3552.988522,-8364.327145,6741.640382
21987.989910,2812.782580,-7698.141797,2451.505594
21987.990244,-1332.370696,-10881.027347,1378.971896
21987.990577,-1184.329507,-8956.491898,-2451.505594
21987.990910,-962.267725,-11029.068536,-4290.134789
21987.991244,-4811.338623,-9992.780217,-6205.373534
21987.991577,-1776.494261,-11917.315666,-4443.353888
21987.991910,-4293.194464,-9326.594869,-2298.286494
21987.992244,0.000000,-9548.656652,612.876398
21987.992577,-74.020594,-9178.553681,3447.429741
21987.992911,1110.308913,-3034.844362,3677.258390
21987.993244,444.123565,-6809.894666,2374.896044
21987.993577,3478.967927,-7105.977043,2374.896044
21987.993911,1184.329507,-8364.327145,3370.820191
21987.994244,2738.761985,-8438.347739,1608.800546
21987.994577,1480.411884,-12065.356855,0.000000
21987.994911,-4737.318029,-12953.603985,-4060.306139
21987.995244,1110.308913,-10066.800811,-3447.429741
21987.995577,-3923.091493,-12657.521608,-4749.792088
21987.995911,2072.576638,-10362.883188,0.000000
21987.996244,-666.185348,-10066.800811,1149.143247
21987.996577,0.000000,-10140.821405,3677.258390
21987.996911,4367.215058,-5921.647536,6052.154434
21987.997244,222.061783,-7846.182985,3370.820191
21987.997578,3997.112087,-6217.729913,2068.457845
21987.997911,2294.638420,-9992.780217,2145.067394
21987.998244,1554.432478,-11843.295072,2374.896044
21987.998578,-74.020594,-3627.009116,0.000000
21987.998911,-1480.411884,-13027.624579,-2528.115143
21987.999244,-666.185348,-11251.130318,-3140.991542
21987.999578,-1554.432478,-9770.718434,-2757.943793
21987.999911,-666.185348,-9474.636058,-1762.019645
21988.000244,-1628.453072,-10584.944971,842.705048
21988.000578,-1036.288319,-7846.182985,0.000000
21988.000911,1480.411884,-6735.874072,4443.353888
21988.001244,2664.741391,-4811.338623,1532.190996
21988.001578,2664.741391,-12509.480420,4903.011187
21988.001911,6439.791695,-8290.306550,4213.525239
21988.002244,740.205942,-8364.327145,0.000000
21988.002578,1184.329507,-9548.656652,3140.991542
21988.002911,-74.020594,-10066.800811,-3140.991542
21988.003245,-666.185348,-9770.718434,-4673.182538
21988.003578,1406.391290,-12509.480420,-1072.533697
21988.003911,-2960.823768,-9252.574275,-4213.525239
21988.004245,-3849.070898,-10732.986159,-3370.820191
21988.004578,-962.267725,-9326.594869,1149.143247
21988.004911,1184.329507,-7624.121203,1072.533697
21988.005245,2146.597232,-7476.080014,5439.278036
21988.005578,2294.638420,-7105.977043,3600.648841
21988.005911,2294.638420,-9178.553681,3600.648841
21988.006245,0.000000,-6587.832884,2451.505594
21988.006578,4367.215058,-9178.553681,3600.648841
21988.006911,-74.020594,-11695.253884,-3217.601092
21988.007245,-666.185348,-13027.624579,-1915.238745
21988.007578,-962.267725,-11547.212695,-3140.991542
21988.007912,-3552.988522,-11325.150913,-4826.401637
21988.008245,518.144159,-8438.347739,-2451.505594
21988.008578,-1258.350101,-11399.171507,689.485948
21988.008912,4663.297435,-5773.606348,4826.401637
21988.009245,0.000000,-7179.997637,5209.449386
21988.009578,4071.132681,-8882.471304,2374.896044
21988.009912,1776.494261,-5995.668130,3064.381992
21988.010245,370.102971,-9030.512492,1608.800546
21988.010578,4071.132681,-7402.059420,1762.019645
21988.010912,-2812.782580,-10807.006753,-2145.067394
21988.011245,-2072.576638,-9696.697840,-3217.601092
21988.011578,-2442.679609,-9474.636058,-3907.087040
21988.011912,-3923.091493,-14211.954086,-3753.867940
21988.012245,-2368.659014,-8660.409521,-1838.629195
21988.012578,-1554.432478,-13027.624579,-76.609550
21988.012912,0.000000,-7920.203579,612.876398
21988.013245,4145.153275,-7179.997637,5209.449386
21988.013579,3182.885551,-8734.430116,6435.202183
21988.013912,5107.421000,-5773.606348,7660.954980
21988.014245,222.061783,-7031.956449,3677.258390
21988.014579,0.000000,-7772.162391,383.047749
21988.014912,0.000000,-5403.503377,-4903.011187
21988.015245,-2590.720797,-15988.448347,-3753.867940
21988.015579,-2442.679609,-9474.636058,-4979.620737
21988.015912,-6513.812290,-11325.150913,-3064.381992
21988.016245,-1258.350101,-12435.459826,-689.485948
21988.016579,-1184.329507,-8364.327145,919.314598
21988.016912,518.144159,-9400.615463,2374.896044
21988.017245,2664.741391,-9104.533087,5898.935335
21988.017579,-1258.350101,-6439.791695,3370.820191
21988.017912,2960.823768,-5551.544565,4290.134789
21988.018245,7031.956449,-7105.977043,4519.963438
21988.018578,3552.988522,-6143.709319,4673.182538
21988.018911,2886.803174,-13619.789333,1149.143247
21988.019245,-1258.350101,-7698.141797,-6665.030833
21988.019578,-6513.812290,-11917.315666,-9193.145976
21988.019911,-3849.070898,-12731.542202,-4979.620737
21988.020244,-370.102971,-9030.512492,-3753.867940
21988.020577,-1776.494261,-9992.780217,-1685.410096
21988.020911,3182.885551,-10362.883188,3677.258390
21988.021244,4071.132681,-6661.853478,3677.258390
21988.021577,4959.379811,-8586.388927,6052.154434
21988.021910,4071.132681,-5921.647536,6741.640382
21988.022243,1702.473667,-5995.668130,1378.971896
21988.022577,1850.514855,-3330.926739,1532.190996
21988.022910,-148.041188,-10658.965565,-3140.991542
21988.023243,-1554.432478,-8660.409521,-5898.935335
21988.023576,-2368.659014,-10732.986159,-3524.039291
21988.023909,-1258.350101,-13619.789333,-3753.867940
21988.024243,-3552.988522,-12213.398043,-1838.629195
21988.024576,-3849.070898,-11029.068536,-2604.724693
21988.024909,444.123565,-7550.100608,1532.190996
21988.025242,4737.318029,-6587.832884,5515.887586
21988.025575,5847.626942,-5699.585753,7354.516781
21988.025909,6439.791695,-5921.647536,6052.154434
21988.026242,3182.885551,-8882.471304,2451.505594
21988.026575,-1628.453072,-7179.997637,0.000000
21988.026908,-2368.659014,-11325.150913,-2298.286494
21988.027241,-74.020594,-8956.491898,-4366.744339
21988.027575,-1332.370696,-13249.686362,-3983.696590
21988.027908,-3330.926739,-12435.459826,-995.924147
21988.028241,1110.308913,-9178.553681,-76.609550
21988.028574,-5773.606348,-10140.821405,306.438199
21988.028907,-74.020594,-10658.965565,2374.896044
21988.029241,-1258.350101,-5773.606348,1838.629195
21988.029574,592.164754,-5995.668130,6128.763984
21988.029907,6439.791695,-4145.153275,3600.648841
21988.030240,3256.906145,-12731.542202,6358.592633
21988.030573,4663.297435,-6217.729913,2834.553343
21988.030907,-592.164754,-11177.109724,-766.095498
21988.031240,-3849.070898,-12213.398043,-5515.887586
21988.031573,-2368.659014,-11917.315666,-3907.087040
21988.031906,-4589.276840,-10732.986159,-5515.887586
21988.032239,-2368.659014,-10140.821405,0.000000
21988.032573,-74.020594,-11251.130318,1762.019645
21988.032906,962.267725,-8586.388927,766.095498
21988.033239,5255.462188,-6809.894666,8273.831378
21988.033572,1258.350101,-6143.709319,4826.401637
21988.033906,1628.453072,-6661.853478,1608.800546
21988.034239,1998.556043,-6143.709319,1532.190996
21988.034572,-74.020594,-9474.636058,-689.485948
21988.034905,0.000000,-7179.997637,1225.752797
21988.035238,-666.185348,-11843.295072,-1915.238745
21988.035572,-1258.350101,-15396.283594,-5592.497135
21988.035905,-3330.926739,-9770.718434,-4213.525239
21988.036238,-2442.679609,-11843.295072,-2834.553343
21988.036571,888.247130,-7254.018232,1149.143247
21988.036904,296.082377,-7476.080014,3983.696590
21988.037238,3923.091493,-2886.803174,1225.752797
21988.037571,4071.132681,-9474.636058,4213.525239
21988.037904,2960.823768,-7550.100608,1302.362347
21988.038237,1184.329507,-10436.903782,1072.533697
21988.038570,1184.329507,-9474.636058,842.705048
21988.038904,1776.494261,-10732.986159,0.000000
21988.039237,962.267725,-10066.800811,-1608.800546
21988.039570,888.247130,-7179.997637,-4903.011187
21988.039903,0.000000,-13841.851115,2374.896044
21988.040236,-222.061783,-8808.450710,-1685.410096
21988.040570,-3034.844362,-8364.327145,-1838.629195
21988.040903,-2072.576638,-12435.459826,76.609550
21988.041236,1554.432478,-6957.935855,2987.772442
21988.041569,444.123565,-6735.874072,3524.039291
21988.041902,4885.359217,-7254.018232,5898.935335
21988.042236,5255.462188,-9178.553681,4826.401637
21988.042569,0.000000,-7179.997637,3677.258390
21988.042902,3478.967927,-11251.130318,-76.609550
21988.043235,-666.185348,-11621.233289,-4596.572988
21988.043568,-3552.988522,-11917.315666,306.438199
21988.043902,-1406.391290,-9548.656652,-2604.724693
21988.044235,-518.144159,-9992.780217,383.047749
21988.044568,-2886.803174,-10658.965565,-2298.286494
21988.044901,1406.391290,-8882.471304,1149.143247
21988.045234,1110.308913,-9474.636058,1762.019645
21988.045568,592.164754,-5403.503377,4290.134789
21988.045901,-1554.432478,-9474.636058,6052.154434
21988.046234,2294.638420,-3849.070898,0.000000
21988.046567,2738.761985,-11251.130318,4826.401637
21988.046900,2368.659014,-6291.750507,306.438199
21988.047234,962.267725,-13619.789333,-1532.190996
21988.047567,-2442.679609,-11991.336260,-2911.162892
21988.047900,-2072.576638,-10732.986159,-4596.572988
21988.048233,-3775.050304,-11251.130318,-4596.572988
21988.048566,-2368.659014,-7179.997637,-2681.334243
21988.048900,1110.308913,-11843.295072,-76.609550
21988.049233,740.205942,-7179.997637,1838.629195
21988.049566,1184.329507,-4811.338623,2987.772442
21988.049899,1924.535449,-9252.574275,5592.497135
21988.050232,5995.668130,-6809.894666,6205.373534
21988.050566,1850.514855,-7624.121203,3677.258390
21988.050899,4219.173869,-7105.977043,-76.609550
21988.051232,-4737.318029,-11917.315666,-1072.533697
21988.051565,-2442.679609,-8290.306550,-3140.991542
21988.051899,-74.020594,-8882.471304,-3753.867940
21988.052232,-5551.544565,-11029.068536,-7354.516781
21988.052565,-3552.988522,-11621.233289,-4749.792088
21988.052898,-2294.638420,-9770.718434,-2528.115143
21988.053231,1184.329507,-10732.986159,3524.039291
21988.053565,3849.070898,-7031.956449,5898.935335
21988.053898,6143.709319,-9326.594869,6052.154434
21988.054231,4737.318029,-6883.915261,5822.325785
21988.054564,4071.132681,-7105.977043,1149.143247
21988.054897,5107.421000,-9770.718434,4213.525239
21988.055231,296.082377,-9474.636058,1608.800546
21988.055564,-148.041188,-10214.842000,-3677.258390
21988.055897,-4737.318029,-11917.315666,-6128.763984
21988.056230,-1776.494261,-12435.459826,-1915.238745
21988.056563,-1554.432478,-7698.141797,-3524.039291
21988.056897,-2294.638420,-9548.656652,-2374.896044
21988.057230,1110.308913,-8882.471304,4213.525239
21988.057563,-444.123565,-6069.688724,3370.820191
21988.057896,4737.318029,-7105.977043,5439.278036
21988.058229,1406.391290,-9548.656652,4979.620737
21988.058563,4367.215058,-4737.318029,2374.896044
21988.058896,0.000000,-9844.739029,4290.134789
21988.059229,4663.297435,-9474.636058,-1302.362347
21988.059562,-3849.070898,-9548.656652,-4903.011187
21988.059895,-4145.153275,-10732.986159,-2451.505594
21988.060229,-666.185348,-9474.636058,-6358.592633
21988.060562,-2294.638420,-13323.706956,-689.485948
21988.060895,0.000000,-8142.265362,-1838.629195
21988.061228,962.267725,-7328.038826,2757.943793
21988.061561,2516.700203,-7179.997637,2451.505594
21988.061895,2368.659014,-9548.656652,9729.412825
21988.062228,1110.308913,-5921.647536,3294.210641
21988.062561,0.000000,-3923.091493,1225.752797
21988.062894,3478.967927,-11251.130318,1762.019645
21988.063227,0.000000,-8956.491898,-2451.505594
21988.063561,518.144159,-10362.883188,-1302.362347
21988.063894,-4293.194464,-13323.706956,-5822.325785
21988.064227,-2294.638420,-11917.315666,-2451.505594
21988.064560,-4737.318029,-9548.656652,-6128.763984
21988.064893,-74.020594,-15396.283594,2068.457845
21988.065227,-666.185348,-7179.997637,1378.971896
21988.065560,3552.988522,-5107.421000,6128.763984
21988.065893,8808.450710,-8290.306550,8503.660028
21988.066226,3108.864956,-3627.009116,6128.763984
21988.066559,3923.091493,-7994.224174,3524.039291
21988.066893,-1406.391290,-9622.677246,536.266849
21988.067226,-1184.329507,-11029.068536,-4060.306139
21988.067559,-5329.482782,-12509.480420,-4903.011187
21988.067892,-2738.761985,-7994.224174,-5362.668486
21988.068225,-2886.803174,-9474.636058,-6741.640382
21988.068559,-740.205942,-13249.686362,-766.095498
21988.068892,-74.020594,-8290.306550,-383.047749
21988.069225,1702.473667,-6957.935855,306.438199
21988.069558,4145.153275,-12139.377449,7277.907231
21988.069892,4663.297435,-9474.636058,4826.401637
21988.070225,3478.967927,-4811.338623,2451.505594
21988.070558,8216.285956,-9178.553681,4826.401637
21988.070891,3034.844362,-9992.780217,4826.401637
21988.071224,1332.370696,-7328.038826,-1302.362347
21988.071558,-2442.679609,-11843.295072,-4903.011187
21988.071891,-7105.977043,-11917.315666,-6741.640382
21988.072224,-2738.761985,-9992.780217,-6128.763984
21988.072557,-518.144159,-11843.295072,-76.609550
21988.072890,-370.102971,-7846.182985,0.000000
21988.073224,0.000000,-7179.997637,3677.258390
21988.073557,1776.494261,-3330.926739,4519.963438
21988.073890,1480.411884,-7179.997637,4596.572988
21988.074223,370.102971,-8882.471304,1225.752797
21988.074556,2294.638420,-6957.935855,383.047749
21988.074890,2590.720797,-11103.089130,2681.334243
21988.075223,2886.803174,-8956.491898,0.000000
21988.075556,-74.020594,-14211.954086,-2528.115143
21988.075889,-2072.576638,-8364.327145,-3677.258390
21988.076222,-888.247130,-11473.192101,-2145.067394
21988.076556,-888.247130,-12287.418637,-995.924147
21988.076889,-1184.329507,-9474.636058,-1762.019645
21988.077222,814.226536,-9918.759623,3677.258390
21988.077555,1702.473667,-6365.771101,2834.553343
21988.077888,4737.318029,-6957.935855,6052.154434
21988.078222,0.000000,-7179.997637,3064.381992
21988.078555,3478.967927,-8956.491898,1302.362347
21988.078888,-2960.823768,-8364.327145,2451.505594
21988.079221,2294.638420,-9474.636058,-2528.115143
21988.079554,-1258.350101,-9178.553681,-1302.362347
21988.079888,-1406.391290,-10658.965565,-3753.867940
21988.080221,0.000000,-10732.986159,-1302.362347
21988.080554,-4071.132681,-9622.677246,-2681.334243
21988.080887,-2886.803174,-10732.986159,-2528.115143
21988.081220,-2442.679609,-11843.295072,2374.896044
21988.081554,-1332.370696,-3627.009116,0.000000
21988.081887,3997.112087,-5921.647536,6052.154434
21988.082220,4071.132681,-8290.306550,2298.286494
21988.082553,3775.050304,-7105.977043,4519.963438
21988.082886,4367.215058,-9326.594869,1762.019645
21988.083220,3997.112087,-10288.862594,-229.828649
21988.083553,-1480.411884,-13767.830521,-2451.505594
21988.083886,0.000000,-10288.862594,-4060.306139
21988.084219,-74.020594,-15988.448347,-1915.238745
21988.084552,-666.185348,-10362.883188,1838.629195
21988.084886,-74.020594,-6809.894666,-689.485948
21988.085219,-962.267725,-9400.615463,2145.067394
21988.085552,-1776.494261,-3034.844362,766.095498
21988.085885,-740.205942,-7402.059420,2374.896044
21988.086219,962.267725,-5921.647536,1762.019645
21988.086552,592.164754,-7179.997637,3370.820191
21988.086885,2368.659014,-11695.253884,3447.429741
21988.087218,-74.020594,-7698.141797,-1991.848295
21988.087551,-1184.329507,-10436.903782,-5286.058936
21988.087885,-3256.906145,-13323.706956,-4060.306139
21988.088218,-1628.453072,-11029.068536,-3907.087040
21988.088551,296.082377,-9548.656652,-1991.848295
21988.088884,1110.308913,-13915.871710,-76.609550
21988.089217,1036.288319,-7179.997637,2451.505594
21988.089551,0.000000,-5995.668130,7354.516781
21988.089884,5847.626942,-7698.141797,6052.154434
21988.090217,2368.659014,-3923.091493,4903.011187
21988.090550,2294.638420,-9474.636058,0.000000
21988.090883,2442.679609,-8956.491898,3064.381992
21988.091217,-370.102971,-8216.285956,-995.924147
21988.091550,-74.020594,-12435.459826,-2528.115143
21988.091883,-370.102971,-13027.624579,-2528.115143
21988.092216,-5921.647536,-11917.315666,-4136.915689
21988.092549,-1110.308913,-11843.295072,-919.314598
21988.092883,-3330.926739,-14211.954086,-5286.058936
21988.093216,-74.020594,-10066.800811,3600.648841
21988.093549,2516.700203,-4367.215058,5209.449386
21988.093882,5847.626942,-4811.338623,7967.393179
21988.094215,2442.679609,-4959.379811,4443.353888
21988.094549,1480.411884,-4811.338623,1225.752797
21988.094882,-74.020594,-11251.130318,1072.533697
21988.095215,-2368.659014,-9844.739029,2987.772442
21988.095548,1702.473667,-7698.141797,-3907.087040
21988.095881,-7105.977043,-14285.974681,-6435.202183
21988.096215,-1258.350101,-7105.977043,-6205.373534
21988.096548,-2220.617826,-11917.315666,-3830.477490
21988.096881,-814.226536,-13323.706956,-76.609550
21988.097214,1406.391290,-7550.100608,459.657299
21988.097547,1184.329507,-6957.935855,3064.381992
21988.097881,2368.659014,-7179.997637,6741.640382
21988.098214,5847.626942,-7698.141797,8503.660028
21988.098547,4663.297435,-7698.141797,2757.943793
21988.098880,1184.329507,-6587.832884,3677.258390
21988.099213,1184.329507,-10066.800811,-1302.362347
21988.099547,-888.247130,-10510.924376,-4903.011187
21988.099880,-2516.700203,-13693.809927,-2604.724693
21988.100213,-2368.659014,-10881.027347,-5592.497135
21988.100546,-2368.659014,-13397.727550,-1225.752797
21988.100879,-4737.318029,-7179.997637,-766.095498
21988.101213,-370.102971,-7550.100608,76.609550
21988.101546,1258.350101,-6217.729913,3983.696590
21988.101879,2442.679609,-5921.647536,4366.744339
21988.102212,592.164754,-5107.421000,4903.011187
21988.102545,2146.597232,-4219.173869,995.924147
21988.102879,2664.741391,-8882.471304,3600.648841
21988.103212,1110.308913,-8364.327145,0.000000
21988.103545,1110.308913,-11843.295072,-76.609550
21988.103878,-888.247130,-10955.047942,-1915.238745
21988.104212,-1776.494261,-10214.842000,-4213.525239
21988.104545,-1258.350101,-13767.830521,-1608.800546
21988.104878,-1554.432478,-8216.285956,-1762.019645
21988.105211,-74.020594,-11843.295072,-76.609550
21988.105544,0.000000,-7179.997637,3064.381992
21988.105878,2368.659014,-6587.832884,5439.278036
21988.106211,1110.308913,-9474.636058,1608.800546
21988.106544,-3552.988522,-8364.327145,1225.752797
21988.106877,1702.473667,-9178.553681,4826.401637
21988.107210,5181.441594,-2516.700203,2374.896044
21988.107544,2368.659014,-10584.944971,2145.067394
21988.107877,-1776.494261,-7550.100608,-1685.410096
21988.108210,-2146.597232,-10510.924376,-4060.306139
21988.108543,-7105.977043,-11325.150913,-1838.629195
21988.108876,-3478.967927,-10584.944971,-4903.011187
21988.109210,-1406.391290,-14211.954086,-2528.115143
21988.109543,-1184.329507,-7772.162391,1838.629195
21988.109876,444.123565,-7179.997637,1532.190996
21988.110209,2960.823768,-7994.224174,3983.696590
21988.110542,4737.318029,-6291.750507,6205.373534
21988.110876,1406.391290,-8438.347739,3064.381992
21988.111209,5033.400406,-7772.162391,1838.629195
21988.111542,0.000000,-13693.809927,4673.182538
21988.111875,2294.638420,-4737.318029,-4136.915689
21988.112208,-1776.494261,-6587.832884,-4903.011187
21988.112542,-1776.494261,-13101.645173,-1991.848295
21988.112875,-370.102971,-8660.409521,-3983.696590
21988.113208,-4811.338623,-13619.789333,-3753.867940
21988.113541,222.061783,-9400.615463,536.266849
21988.113874,0.000000,-9548.656652,2987.772442
21988.114208,4737.318029,-4811.338623,6128.763984
21988.114541,4663.297435,-5625.565159,5592.497135
21988.114874,6069.688724,-6069.688724,6281.983084
21988.115207,518.144159,-8068.244768,2911.162892
21988.115540,3478.967927,-9474.636058,-1302.362347
21988.115874,-1850.514855,-8438.347739,-4596.572988
21988.116207,-4737.318029,-12213.398043,-4443.353888
21988.116540,-666.185348,-13027.624579,-3140.991542
21988.116873,-4071.132681,-9104.533087,-5745.716235
21988.117206,2590.720797,-11103.089130,1762.019645
21988.117540,666.185348,-7772.162391,2451.505594
21988.117873,5329.482782,-7994.224174,5439.278036
21988.118206,1776.494261,-7994.224174,5898.935335
21988.118539,2368.659014,-5995.668130,3677.258390
21988.118873,4959.379811,-6365.771101,919.314598
21988.119206,1776.494261,-10066.800811,3600.648841
21988.119539,1702.473667,-8142.265362,-3064.381992
21988.119872,-3182.885551,-10436.903782,-4596.572988
21988.120205,-3182.885551,-10807.006753,-6205.373534
21988.120539,-7105.977043,-11917.315666,612.876398
21988.120872,-5033.400406,-10066.800811,229.828649
21988.121205,-1628.453072,-6291.750507,-1762.019645
21988.121538,0.000000,-10140.821405,3064.381992
21988.121872,3478.967927,-5033.400406,2604.724693
21988.122205,0.000000,-8512.368333,6665.030833
21988.122538,2294.638420,-5625.565159,229.828649
21988.122871,1184.329507,-9548.656652,612.876398
21988.123204,296.082377,-11621.233289,306.438199
21988.123538,2886.803174,-8142.265362,-383.047749
21988.123871,-6291.750507,-13323.706956,-5132.839837
21988.124204,296.082377,-9992.780217,-2604.724693
21988.124537,-3034.844362,-11843.295072,-76.609550
21988.124870,-3849.070898,-7179.997637,-1838.629195
21988.125204,-74.020594,-8290.306550,689.485948
21988.125537,-3034.844362,-7179.997637,0.000000
21988.125870,4885.359217,-4145.153275,6971.469032
21988.126203,4071.132681,-7105.977043,3600.648841
21988.126537,4293.194464,-10510.924376,2681.334243
21988.126870,4293.194464,-7402.059420,536.266849
21988.127203,0.000000,-14804.118840,2451.505594
21988.127536,4663.297435,-7105.977043,-2145.067394
21988.127869,-3108.864956,-15470.304188,-76.609550
21988.128203,-666.185348,-7179.997637,-7967.393179
21988.128536,0.000000,-9696.697840,-2451.505594
21988.128869,1702.473667,-13027.624579,1149.143247
21988.129202,3478.967927,-7994.224174,1762.019645
21988.129536,740.205942,-9474.636058,3907.087040
21988.129869,1110.308913,-6809.894666,2757.943793
21988.130202,2294.638420,-5625.565159,2681.334243
21988.130535,4293.194464,-6439.791695,1762.019645
21988.130868,3849.070898,-10436.903782,3600.648841
21988.131202,0.000000,-9548.656652,-842.705048
21988.131535,2072.576638,-10362.883188,-995.924147
21988.131868,-888.247130,-11325.150913,-3217.601092
21988.132201,1628.453072,-11991.336260,-1149.143247
21988.132535,-592.164754,-11991.336260,-76.609550
21988.132868,-74.020594,-11843.295072,-2528.115143
21988.133201,-3997.112087,-8660.409521,0.000000
21988.133534,-1110.308913,-7994.224174,1762.019645
21988.133867,3478.967927,-4737.318029,2681.334243
21988.134201,-74.020594,-7698.141797,4826.401637
21988.134534,888.247130,-7476.080014,3217.601092
21988.134867,-666.185348,-7179.997637,1685.410096
21988.135200,0.000000,-8956.491898,612.876398
21988.135533,1184.329507,-10732.986159,4213.525239
21988.135867,-5995.668130,-11103.089130,-6128.763984
21988.136200,-2738.761985,-8364.327145,-7048.078582
21988.136533,-6513.812290,-14434.015869,-766.095498
21988.136866,3330.926739,-3108.864956,0.000000
21988.137200,-5181.441594,-13693.809927,1608.800546
21988.137533,962.267725,-5551.544565,459.657299
21988.137866,-4293.194464,-10807.006753,2145.067394
21988.138199,1110.308913,-4737.318029,3600.648841
21988.138532,4515.256246,-10658.965565,6052.154434
21988.138866,-2812.782580,-5995.668130,1378.971896
21988.139199,4441.235652,-6365.771101,3600.648841
21988.139532,-1850.514855,-9474.636058,-1455.581446
21988.139865,5329.482782,-8364.327145,536.266849
21988.140199,-5255.462188,-15470.304188,-4826.401637
21988.140532,1184.329507,-10436.903782,-4060.306139
21988.140865,-5773.606348,-13989.892304,-4443.353888
21988.141198,1110.308913,-9474.636058,-536.266849
21988.141531,3478.967927,-8290.306550,536.266849
21988.141865,4959.379811,-6587.832884,3983.696590
21988.142198,7105.977043,-8068.244768,9422.974625
21988.142531,5847.626942,-7550.100608,9116.536426
21988.142864,5255.462188,-7105.977043,4213.525239
21988.143197,1184.329507,-5551.544565,2681.334243
21988.143531,518.144159,-11843.295072,-919.314598
21988.143864,-3256.906145,-8660.409521,-4136.915689
21988.144197,296.082377,-8364.327145,-4596.572988
21988.144530,-6587.832884,-13101.645173,-6128.763984
21988.144864,-888.247130,-6883.915261,-4903.011187
21988.145197,-6069.688724,-13915.871710,-4366.744339
21988.145530,222.061783,-6883.915261,-2298.286494
21988.145863,1406.391290,-11251.130318,3907.087040
21988.146196,3627.009116,-7550.100608,5822.325785
21988.146530,7031.956449,-3330.926739,5515.887586
21988.146863,2072.576638,-11843.295072,5209.449386
21988.147196,6217.729913,-6291.750507,4903.011187
21988.147529,2146.597232,-8364.327145,1225.752797
21988.147863,444.123565,-13175.665768,-842.705048
21988.148196,-4589.276840,-10066.800811,-4213.525239
21988.148529,-4293.194464,-10807.006753,-5209.449386
21988.148862,-3552.988522,-9548.656652,-4903.011187
21988.149195,-1258.350101,-13027.624579,-1302.362347
21988.149529,-4515.256246,-8364.327145,-1838.629195
21988.149862,-3256.906145,-7254.018232,1225.752797
21988.150195,-666.185348,-9474.636058,4519.963438
21988.150528,0.000000,-3627.009116,4596.572988
21988.150861,3034.844362,-6587.832884,5669.106685
21988.151195,1332.370696,-7402.059420,5056.230287
21988.151528,3330.926739,-7772.162391,2374.896044
21988.151861,1776.494261,-10658.965565,2757.943793
21988.152194,-3330.926739,-9548.656652,-4903.011187
21988.152528,-5921.647536,-11917.315666,-3677.258390
21988.152861,-3627.009116,-13619.789333,-4979.620737
21988.153194,-2738.761985,-9104.533087,-5669.106685
21988.153527,1850.514855,-9474.636058,2987.772442
21988.153860,2960.823768,-6439.791695,3983.696590
21988.154194,3552.988522,-6365.771101,5209.449386
21988.154527,3182.885551,-7994.224174,3907.087040
21988.154860,4071.132681,-10362.883188,3600.648841
21988.155193,0.000000,-6291.750507,2451.505594
21988.155527,2220.617826,-9474.636058,1532.190996
21988.155860,2294.638420,-9474.636058,-2528.115143
21988.156193,-2960.823768,-10140.821405,-3370.820191
21988.156526,-1258.350101,-9918.759623,-5056.230287
21988.156859,-296.082377,-10658.965565,-2911.162892
21988.157193,-3182.885551,-11769.274478,0.000000
21988.157526,-740.205942,-7402.059420,-766.095498
21988.157859,4663.297435,-6069.688724,3370.820191
21988.158192,0.000000,-10732.986159,8273.831378
21988.158526,9400.615463,-4441.235652,3600.648841
21988.158859,1184.329507,-8364.327145,2451.505594
21988.159192,9474.636058,-4737.318029,2374.896044
21988.159525,962.267725,-13101.645173,0.000000
21988.159858,666.185348,-7402.059420,-5362.668486
21988.160192,-666.185348,-13545.768739,-3524.039291
21988.160525,-4515.256246,-14804.118840,-4519.963438
21988.160858,1924.535449,-8364.327145,-2528.115143
21988.161191,-4737.318029,-10658.965565,-1072.533697
21988.161524,888.247130,-7328.038826,689.485948
21988.161858,-3627.009116,-6735.874072,2221.676944
21988.162191,4663.297435,-6513.812290,3600.648841
21988.162524,3478.967927,-7994.224174,2528.115143
21988.162857,-1480.411884,-10732.986159,4903.011187
21988.163191,0.000000,-7179.997637,2987.772442
21988.163524,-1554.432478,-12435.459826,0.000000
21988.163857,1480.411884,-7031.956449,0.000000
21988.164190,-2442.679609,-11843.295072,-1915.238745
21988.164523,-296.082377,-10066.800811,-2528.115143
21988.164857,-1924.535449,-10140.821405,-919.314598
21988.165190,-3775.050304,-12435.459826,-1302.362347
21988.165523,-296.082377,-5551.544565,-689.485948
21988.165856,-4737.318029,-9844.739029,4213.525239
21988.166190,4071.132681,-7105.977043,3600.648841
21988.166523,-74.020594,-8290.306550,4213.525239
21988.166856,2294.638420,-5921.647536,2374.896044
21988.167189,3997.112087,-6883.915261,7048.078582
21988.167522,1998.556043,-7920.203579,2374.896044
21988.167856,740.205942,-8438.347739,-1838.629195
21988.168189,-5921.647536,-11917.315666,-6128.763984
21988.168522,-74.020594,-13915.871710,-5592.497135
21988.168855,1184.329507,-11843.295072,-1302.362347
21988.169188,-1850.514855,-13249.686362,-2451.505594
21988.169522,0.000000,-4811.338623,-2298.286494
21988.169855,0.000000,-7476.080014,1532.190996
21988.170188,1776.494261,-6587.832884,3753.867940
21988.170521,2960.823768,-7031.956449,3830.477490
21988.170855,2738.761985,-8216.285956,4443.353888
21988.171188,4071.132681,-9474.636058,3294.210641
21988.171521,1406.391290,-7179.997637,0.000000
21988.171854,4663.297435,-10658.965565,2374.896044
21988.172187,2294.638420,-9178.553681,-2834.553343
21988.172521,296.082377,-10140.821405,-1532.190996
21988.172854,1332.370696,-15988.448347,-2068.457845
21988.173187,-2072.576638,-13175.665768,-1072.533697
21988.173520,-1628.453072,-8808.450710,-4060.306139
21988.173854,-888.247130,-11843.295072,383.047749
21988.174187,1850.514855,-3627.009116,2145.067394
21988.174520,-1184.329507,-9548.656652,6741.640382
21988.174853,4663.297435,-5329.482782,3447.429741
21988.175186,296.082377,-8660.409521,1225.752797
21988.175520,4663.297435,-9474.636058,2374.896044
21988.175853,-74.020594,-7624.121203,1762.019645
21988.176186,-1776.494261,-7031.956449,-2987.772442
21988.176519,-666.185348,-10807.006753,-4136.915689
21988.176852,-4663.297435,-15988.448347,-2987.772442
21988.177186,222.061783,-7550.100608,-3447.429741
21988.177519,-5921.647536,-13841.851115,-919.314598
21988.177852,1332.370696,-9030.512492,-76.609550
21988.178185,962.267725,-8290.306550,3907.087040
21988.178519,2368.659014,-10955.047942,6511.811733
21988.178852,4367.215058,-4737.318029,3600.648841
21988.179185,148.041188,-8660.409521,5209.449386
21988.179518,7031.956449,-7698.141797,6052.154434
21988.179851,-2072.576638,-6587.832884,2451.505594
21988.180185,-814.226536,-12435.459826,-689.485948
21988.180518,-3330.926739,-9474.636058,-3140.991542
21988.180851,-3256.906145,-10732.986159,-2528.115143
21988.181184,-1554.432478,-7105.977043,-3217.601092
21988.181518,-4367.215058,-9548.656652,-4673.182538
21988.181851,-2072.576638,-8068.244768,-2451.505594
21988.182184,0.000000,-8364.327145,2451.505594
21988.182517,4663.297435,-8882.471304,2451.505594
21988.182850,2294.638420,-6587.832884,2451.505594
21988.183184,5773.606348,-8882.471304,4826.401637
21988.183517,5847.626942,-11621.233289,1532.190996
21988.183850,7624.121203,-6513.812290,7507.735880
21988.184183,3478.967927,-5995.668130,306.438199
21988.184517,0.000000,-8956.491898,-1225.752797
21988.184850,-4145.153275,-10436.903782,-4903.011187
21988.185183,-7105.977043,-14582.057057,-4060.306139
21988.185516,-4811.338623,-7698.141797,-6128.763984
21988.185849,-4737.318029,-9548.656652,-6128.763984
21988.186183,1924.535449,-7698.141797,3907.087040
21988.186516,-2368.659014,-7179.997637,3983.696590
21988.186849,4367.215058,-5847.626942,1072.533697
21988.187182,1184.329507,-10214.842000,2221.676944
21988.187515,3552.988522,-9622.677246,2757.943793
21988.187849,3478.967927,-9474.636058,2374.896044
21988.188182,740.205942,-12435.459826,-689.485948
21988.188515,2886.803174,-7772.162391,-4903.011187
21988.188848,2812.782580,-12213.398043,-1302.362347
21988.189182,4663.297435,-16580.613101,3600.648841
21988.189515,-1850.514855,-10658.965565,-76.609550
21988.189848,-2664.741391,-9178.553681,1532.190996
21988.190181,-3330.926739,-7105.977043,-612.876398
21988.190514,0.000000,-5921.647536,536.266849
21988.190848,0.000000,-5551.544565,2451.505594
21988.191181,1702.473667,-3404.947333,0.000000
21988.191514,0.000000,-10732.986159,1225.752797
21988.191847,-1850.514855,-11251.130318,-1302.362347
21988.192181,-3627.009116,-9178.553681,-4903.011187
21988.192514,-7179.997637,-12287.418637,-6205.373534
21988.192847,666.185348,-7624.121203,-3064.381992
21988.193180,-2886.803174,-10955.047942,0.000000
21988.193513,2590.720797,-5255.462188,2757.943793
21988.193847,-2368.659014,-10140.821405,3677.258390
21988.194180,1554.432478,-6809.894666,3064.381992
21988.194513,5847.626942,-7105.977043,7890.783629
21988.194846,2590.720797,-7550.100608,5132.839837
21988.195179,6957.935855,-4959.379811,3524.039291
21988.195513,0.000000,-9844.739029,-1302.362347
21988.195846,4367.215058,-7105.977043,-2528.115143
21988.196179,0.000000,-12213.398043,-229.828649
21988.196512,-1258.350101,-10658.965565,-7660.954980
21988.196846,-74.020594,-13767.830521,-4749.792088
21988.197179,-6957.935855,-17542.880825,-1072.533697
21988.197512,3775.050304,-4071.132681,2374.896044
21988.197845,-296.082377,-8364.327145,7277.907231
21988.198178,6217.729913,-962.267725,7507.735880
21988.198512,1184.329507,-4367.215058,6128.763984
21988.198845,814.226536,-5921.647536,1302.362347
21988.199178,74.020594,-4811.338623,-2451.505594
21988.199511,-2516.700203,-14804.118840,-1302.362347
21988.199845,1702.473667,-9178.553681,-4979.620737
21988.200178,-2220.617826,-12509.480420,-3140.991542
21988.200511,-1184.329507,-14211.954086,-6818.249932
21988.200844,-888.247130,-12509.480420,-3217.601092
21988.201177,-888.247130,-12065.356855,-995.924147
21988.201511,1702.473667,-9474.636058,-76.609550
21988.201844,74.020594,-5107.421000,1225.752797
21988.202177,3701.029710,-7105.977043,6052.154434
21988.202510,9400.615463,-7105.977043,7277.907231
21988.202843,2368.659014,-8364.327145,9806.022374
21988.203177,4811.338623,-5181.441594,3217.601092
21988.203510,888.247130,-10140.821405,1455.581446
21988.203843,-3404.947333,-9326.594869,-1915.238745
21988.204176,-4663.297435,-10140.821405,-5515.887586
21988.204510,-7105.977043,-9548.656652,-4903.011187
21988.204843,-8290.306550,-11917.315666,-4443.353888
21988.205176,-1850.514855,-12435.459826,-3294.210641
21988.205509,-2146.597232,-6587.832884,-1225.752797
21988.205842,0.000000,-5551.544565,5209.449386
21988.206176,-2368.659014,-7772.162391,3064.381992
21988.206509,0.000000,-7031.956449,2145.067394
21988.206842,518.144159,-8290.306550,2834.553343
21988.207175,3034.844362,-5255.462188,2757.943793
21988.207509,4145.153275,-8956.491898,2451.505594
21988.207842,2664.741391,-8216.285956,4213.525239
21988.208175,3552.988522,-6883.915261,1225.752797
21988.208508,-666.185348,-10881.027347,-2757.943793
21988.208841,-370.102971,-12731.542202,-3140.991542
21988.209175,-2738.761985,-13027.624579,-4290.134789
21988.209508,-1776.494261,-8808.450710,1532.190996
21988.209841,-1258.350101,-9178.553681,-76.609550
21988.210174,962.267725,-7698.141797,-689.485948
21988.210508,1110.308913,-7994.224174,2987.772442
21988.210841,296.082377,-7772.162391,229.828649
21988.211174,1184.329507,-11029.068536,4136.915689
21988.211507,4071.132681,-8882.471304,4673.182538
21988.211840,592.164754,-7179.997637,3983.696590
21988.212174,2738.761985,-8142.265362,2757.943793
21988.212507,4071.132681,-8290.306550,-2528.115143
21988.212840,-3552.988522,-10140.821405,-2451.505594
21988.213173,-2368.659014,-10436.903782,-3217.601092
21988.213506,-2664.741391,-9992.780217,-4749.792088
21988.213840,-3552.988522,-12213.398043,-3753.867940
21988.214173,222.061783,-10362.883188,0.000000
21988.214506,518.144159,-10288.862594,1762.019645
21988.214839,5847.626942,-7105.977043,4826.401637
21988.215173,2590.720797,-7698.141797,3294.210641
21988.215506,2368.659014,-4811.338623,0.000000
21988.215839,1480.411884,-9844.739029,4213.525239
21988.216172,2294.638420,-9252.574275,-2145.067394
21988.216505,2368.659014,-11251.130318,1149.143247
21988.216839,296.082377,-12953.603985,-76.609550
21988.217172,1332.370696,-8882.471304,995.924147
21988.217505,-2886.803174,-10362.883188,-2987.772442
21988.217838,-3182.885551,-10732.986159,-2374.896044
21988.218171,-2368.659014,-8660.409521,-1838.629195
21988.218504,-74.020594,-10955.047942,-1302.362347
21988.218837,1776.494261,-3627.009116,1838.629195
21988.219171,592.164754,-10288.862594,5439.278036
21988.219504,4367.215058,-4737.318029,4213.525239
21988.219837,1628.453072,-9030.512492,3830.477490
21988.220170,2368.659014,-8808.450710,1378.971896
21988.220503,-1110.308913,-10066.800811,-306.438199
21988.220836,-5625.565159,-10732.986159,-3677.258390
21988.221169,-1850.514855,-9474.636058,-2528.115143
21988.221502,-4811.338623,-6291.750507,-4290.134789
21988.221835,2072.576638,-9474.636058,1149.143247
21988.222169,3478.967927,-10658.965565,3600.648841
21988.222502,2294.638420,-7179.997637,1225.752797
21988.222835,3182.885551,-8290.306550,3294.210641
21988.223168,814.226536,-10881.027347,2221.676944
21988.223501,1258.350101,-10881.027347,842.705048
21988.223834,1554.432478,-9030.512492,995.924147
21988.224167,1998.556043,-9474.636058,-76.609550
21988.224500,-1480.411884,-10436.903782,-2221.676944
21988.224834,-1776.494261,-9548.656652,-1072.533697
21988.225167,-444.123565,-9252.574275,-536.266849
21988.225500,-3256.906145,-9548.656652,0.000000
21988.225833,-370.102971,-10658.965565,-383.047749
21988.226166,-2294.638420,-8734.430116,1225.752797
21988.226499,0.000000,-4811.338623,4903.011187
21988.226832,3478.967927,-8586.388927,4213.525239
21988.227165,3552.988522,-5403.503377,2757.943793
21988.227499,3997.112087,-8438.347739,2374.896044
21988.227832,1998.556043,-10584.944971,1072.533697
21988.228165,1702.473667,-10658.965565,-1302.362347
21988.228498,-74.020594,-13027.624579,-2528.115143
21988.228831,-1036.288319,-13027.624579,-2528.115143
21988.229164,-4737.318029,-9548.656652,-3064.381992
21988.229497,-74.020594,-11547.212695,-383.047749
21988.229830,-74.020594,-9178.553681,-1915.238745
21988.230164,-74.020594,-7402.059420,612.876398
21988.230497,2294.638420,-6957.935855,1915.238745
21988.230830,4293.194464,-8660.409521,6281.983084
21988.231163,2368.659014,-8660.409521,4060.306139
21988.231496,2146.597232,-7994.224174,1762.019645
21988.231829,5255.462188,-8734.430116,-76.609550
21988.232162,0.000000,-11325.150913,2451.505594
21988.232495,2886.803174,-12435.459826,-76.609550
21988.232829,-2738.761985,-7772.162391,-7048.078582
21988.233162,-3627.009116,-13323.706956,-2374.896044
21988.233495,-4441.235652,-6883.915261,-4290.134789
21988.233828,-4293.194464,-10881.027347,-383.047749
21988.234161,-1036.288319,-6735.874072,2298.286494
21988.234494,296.082377,-7179.997637,3677.258390
21988.234827,2294.638420,-6217.729913,4213.525239
21988.235160,2368.659014,-7105.977043,6971.469032
21988.235494,1110.308913,-9474.636058,-76.609550
21988.235827,0.000000,-6291.750507,0.000000
21988.236160,-1184.329507,-10732.986159,-919.314598
21988.236493,2368.659014,-8216.285956,-2374.896044
21988.236826,-4441.235652,-13841.851115,-2451.505594
21988.237159,-2516.700203,-9622.677246,-4060.306139
21988.237492,-1554.432478,-11251.130318,-76.609550
21988.237825,-2368.659014,-6291.750507,0.000000
21988.238159,3182.885551,-12731.542202,1762.019645
21988.238492,0.000000,-7624.121203,2681.334243
21988.238825,1776.494261,-5699.585753,3907.087040
21988.239158,1406.391290,-7179.997637,2451.505594
21988.239491,2960.823768,-8956.491898,4596.572988
21988.239824,666.185348,-6735.874072,1072.533697
21988.240157,592.164754,-9104.533087,-919.314598
21988.240490,-1850.514855,-14211.954086,-3753.867940
21988.240824,-740.205942,-8956.491898,-2298.286494
21988.241157,74.020594,-9030.512492,-76.609550
21988.241490,-740.205942,-9844.739029,153.219100
21988.241823,-2738.761985,-7920.203579,-2757.943793
21988.242156,-296.082377,-10658.965565,2681.334243
21988.242489,-962.267725,-7179.997637,1225.752797
21988.242822,1184.329507,-2442.679609,2451.505594
21988.243155,740.205942,-12139.377449,1762.019645
21988.243489,3701.029710,-6587.832884,1838.629195
21988.243822,1480.411884,-8068.244768,2374.896044
21988.244155,3552.988522,-10140.821405,383.047749
21988.244488,3256.906145,-11103.089130,229.828649
21988.244821,0.000000,-9992.780217,-2374.896044
21988.245154,0.000000,-10732.986159,-2451.505594
21988.245487,1480.411884,-12805.562797,1149.143247
21988.245820,3182.885551,-10807.006753,-229.828649
21988.246154,1110.308913,-8956.491898,1225.752797
21988.246487,2368.659014,-6883.915261,2374.896044
21988.246820,-2664.741391,-12509.480420,4826.401637
21988.247153,666.185348,-2368.659014,0.000000
21988.247486,-222.061783,-9474.636058,995.924147
21988.247819,4145.153275,-6587.832884,3600.648841
21988.248152,4071.132681,-8512.368333,3600.648841
21988.248485,-1258.350101,-13027.624579,-76.609550
21988.248819,-5329.482782,-6587.832884,-6128.763984
21988.249152,-4811.338623,-14804.118840,-2451.505594
21988.249485,-1258.350101,-11251.130318,-2834.553343
21988.249818,-3552.988522,-10732.986159,383.047749
21988.250151,-370.102971,-7179.997637,612.876398
21988.250484,2368.659014,-6143.709319,4136.915689
21988.250817,3775.050304,-8956.491898,8197.221829
21988.251150,4589.276840,-4589.276840,5745.716235
21988.251483,1110.308913,-11251.130318,2987.772442
21988.251817,0.000000,-5995.668130,612.876398
21988.252150,-74.020594,-13323.706956,2374.896044
21988.252483,814.226536,-7698.141797,-1915.238745
21988.252816,-1998.556043,-10658.965565,-3140.991542
21988.253149,-3478.967927,-10362.883188,-3447.429741
21988.253482,-2590.720797,-9992.780217,-4979.620737
21988.253815,-4219.173869,-12583.501014,-2604.724693
21988.254148,-6809.894666,-11325.150913,-2451.505594
21988.254482,-222.061783,-7772.162391,3677.258390
21988.254815,5551.544565,-5921.647536,9729.412825
21988.255148,8808.450710,-4737.318029,9116.536426
21988.255481,592.164754,-3923.091493,6128.763984
21988.255814,2294.638420,-9474.636058,2068.457845
21988.256147,-1184.329507,-9548.656652,0.000000
21988.256480,-3182.885551,-12139.377449,-4213.525239
21988.256813,518.144159,-10066.800811,-5439.278036
21988.257147,-3849.070898,-14285.974681,-4596.572988
21988.257480,-740.205942,-8956.491898,-6128.763984
21988.257813,1628.453072,-10288.862594,-1302.362347
21988.258146,-592.164754,-10584.944971,536.266849
21988.258479,3775.050304,-6439.791695,1225.752797
21988.258812,1776.494261,-8364.327145,3677.258390
21988.259145,6439.791695,-8882.471304,4213.525239
21988.259478,4737.318029,-5995.668130,4903.011187
21988.259812,7031.956449,-11251.130318,6971.469032
21988.260145,5847.626942,-5477.523971,3217.601092
21988.260478,-1776.494261,-10436.903782,-76.609550
21988.260811,-3404.947333,-7698.141797,-6128.763984
21988.261144,-6365.771101,-13249.686362,-6435.202183
21988.261477,-370.102971,-8216.285956,-3217.601092
21988.261810,-74.020594,-14063.912898,2681.334243
21988.262143,-3478.967927,-5995.668130,0.000000
21988.262477,-2368.659014,-3627.009116,0.000000
21988.262810,-74.020594,-13027.624579,4213.525239
21988.263143,3404.947333,-2738.761985,1838.629195
21988.263476,2886.803174,-11547.212695,3600.648841
21988.263809,1036.288319,-10362.883188,3524.039291
21988.264142,814.226536,-4515.256246,919.314598
21988.264475,2664.741391,-9252.574275,1762.019645
21988.264808,4071.132681,-9178.553681,2068.457845
21988.265142,-5921.647536,-13101.645173,0.000000
21988.265475,-1554.432478,-11251.130318,-4366.744339
21988.265808,-3034.844362,-13027.624579,-4366.744339
21988.266141,-2368.659014,-7179.997637,0.000000
21988.266474,-222.061783,-10658.965565,2681.334243
21988.266807,1110.308913,-5847.626942,2221.676944
21988.267140,148.041188,-8956.491898,3064.381992
21988.267473,-1036.288319,-10214.842000,2987.772442
21988.267807,1628.453072,-7179.997637,0.000000
21988.268140,-2368.659014,-10436.903782,7277.907231
21988.268473,4663.297435,-7698.141797,229.828649
21988.268806,-3256.906145,-7179.997637,-2451.505594
21988.269139,-4737.318029,-9548.656652,-2451.505594
21988.269472,-666.185348,-4589.276840,-5439.278036
21988.269805,-5329.482782,-12583.501014,-689.485948
21988.270138,-2960.823768,-7994.224174,-2681.334243
21988.270472,1332.370696,-9474.636058,383.047749
21988.270805,0.000000,-9548.656652,536.266849
21988.271138,4737.318029,-5921.647536,2987.772442
21988.271471,888.247130,-11695.253884,3447.429741
21988.271804,6217.729913,-9992.780217,5592.497135
21988.272137,4663.297435,-9474.636058,2987.772442
21988.272470,4663.297435,-9474.636058,0.000000
21988.272803,0.000000,-8660.409521,153.219100
21988.273137,3478.967927,-12731.542202,-76.609550
21988.273470,1924.535449,-6883.915261,-2145.067394
21988.273803,3552.988522,-8068.244768,-2451.505594
21988.274136,-962.267725,-15544.324782,-536.266849
21988.274469,370.102971,-7179.997637,0.000000
21988.274802,-1036.288319,-10732.986159,-383.047749
21988.275135,2294.638420,-7105.977043,2068.457845
21988.275468,1850.514855,-7254.018232,1762.019645
21988.275802,4145.153275,-6217.729913,4826.401637
21988.276135,2294.638420,-6957.935855,76.609550
21988.276468,-2368.659014,-11325.150913,0.000000
21988.276801,-74.020594,-8882.471304,-1302.362347
21988.277134,-3997.112087,-11325.150913,-4519.963438
21988.277467,-2442.679609,-13249.686362,-4213.525239
21988.277800,-2368.659014,-8660.409521,-2911.162892
21988.278133,0.000000,-9548.656652,-1532.190996
21988.278466,5255.462188,-5329.482782,229.828649
21988.278800,3552.988522,-11843.295072,9116.536426
21988.279133,4071.132681,-4071.132681,1838.629195
21988.279466,2368.659014,-9696.697840,4903.011187
21988.279799,1776.494261,-9992.780217,1991.848295
21988.280132,740.205942,-8660.409521,2451.505594
21988.280465,-1554.432478,-9548.656652,-306.438199
21988.280798,-1480.411884,-7846.182985,-3677.258390
21988.281131,-3182.885551,-12435.459826,-1915.238745
21988.281465,-2738.761985,-7179.997637,-4290.134789
21988.281798,-3923.091493,-10362.883188,1762.019645
21988.282131,-1850.514855,-7994.224174,-2834.553343
21988.282464,-3404.947333,-5995.668130,306.438199
21988.282797,-1480.411884,-13471.748144,7660.954980
21988.283130,5107.421000,-3775.050304,7277.907231
21988.283463,-1036.288319,-8142.265362,3140.991542
21988.283796,740.205942,-10362.883188,689.485948
21988.284130,740.205942,-5847.626942,-919.314598
21988.284463,-1184.329507,-11917.315666,2911.162892
21988.284796,1110.308913,-7994.224174,-4443.353888
21988.285129,-3552.988522,-12213.398043,-4290.134789
21988.285462,-2220.617826,-14211.954086,995.924147
21988.285795,2294.638420,-8290.306550,-76.609550
21988.286128,-2072.576638,-10288.862594,842.705048
21988.286461,962.267725,-6217.729913,0.000000
21988.286795,1998.556043,-9252.574275,3064.381992
21988.287128,3478.967927,-6439.791695,3064.381992
21988.287461,3849.070898,-10436.903782,1378.971896
21988.287794,3256.906145,-11621.233289,2911.162892
21988.288127,3552.988522,-7550.100608,1072.533697
21988.288460,74.020594,-11769.274478,-1532.190996
21988.288793,1850.514855,-8290.306550,-2528.115143
21988.289126,-3552.988522,-11103.089130,-3447.429741
21988.289460,2072.576638,-9030.512492,-76.609550
21988.289793,1554.432478,-7994.224174,-3294.210641
21988.290126,-2368.659014,-11325.150913,153.219100
21988.290459,4663.297435,-5921.647536,1149.143247
21988.290792,592.164754,-8068.244768,4826.401637
21988.291125,2442.679609,-9622.677246,1838.629195
21988.291458,-1110.308913,-11103.089130,1762.019645
21988.291791,-1776.494261,-5403.503377,0.000000
21988.292125,3552.988522,-7179.997637,4749.792088
21988.292458,7031.956449,-6513.812290,4826.401637
21988.292791,1184.329507,-7179.997637,0.000000
21988.293124,444.123565,-7846.182985,-2528.115143
21988.293457,-3182.885551,-13545.768739,-7048.078582
21988.293790,-2590.720797,-14359.995275,-3140.991542
21988.294123,-2812.782580,-10362.883188,-1685.410096
21988.294456,-3775.050304,-10955.047942,-3064.381992
21988.294790,296.082377,-9918.759623,1532.190996
21988.295123,3034.844362,-10436.903782,7277.907231
21988.295456,2220.617826,-5403.503377,8580.269578
21988.295789,3552.988522,-4589.276840,7048.078582
21988.296122,3478.967927,-8882.471304,3907.087040
21988.296455,-3552.988522,-5995.668130,612.876398
21988.296788,1110.308913,-9030.512492,-919.314598
21988.297121,-5625.565159,-11769.274478,-3140.991542
21988.297455,-2960.823768,-9252.574275,-5515.887586
21988.297788,-4219.173869,-9474.636058,-6205.373534
21988.298121,-4811.338623,-13619.789333,-3447.429741
21988.298454,-3034.844362,-9030.512492,-3983.696590
21988.298787,-2072.576638,-9844.739029,2451.505594
21988.299120,5329.482782,-9326.594869,9729.412825
21988.299453,4663.297435,-8882.471304,7890.783629
21988.299786,4737.318029,-5699.585753,7967.393179
21988.300120,3182.885551,-4515.256246,4136.915689
21988.300453,814.226536,-10658.965565,1149.143247
21988.300786,-2368.659014,-9548.656652,-1225.752797
21988.301119,-666.185348,-6069.688724,-7814.174080
21988.301452,0.000000,-15026.180623,-6128.763984
21988.301785,-1628.453072,-16284.530724,-76.609550
21988.302118,-2368.659014,-7179.997637,-5515.887586
21988.302451,-74.020594,-12435.459826,-76.609550
21988.302785,1480.411884,-8808.450710,1991.848295
21988.303118,2442.679609,-7772.162391,3907.087040
21988.303451,3404.947333,-3849.070898,4443.353888
21988.303784,2960.823768,-5995.668130,2451.505594
21988.304117,3478.967927,-6291.750507,2911.162892
21988.304450,4071.132681,-5403.503377,1991.848295
21988.304783,2590.720797,-8364.327145,0.000000
21988.305116,-1998.556043,-10362.883188,-4673.182538
21988.305449,-4737.318029,-13101.645173,-7737.564530
21988.305783,-666.185348,-13619.789333,-4979.620737
21988.306116,-962.267725,-8068.244768,-2451.505594
21988.306449,1480.411884,-9178.553681,1838.629195
21988.306782,5699.585753,-8586.388927,5132.839837
21988.307115,2516.700203,-9548.656652,6128.763984
21988.307448,3775.050304,-7402.059420,4213.525239
21988.307781,4145.153275,-6143.709319,3830.477490
21988.308114,2960.823768,-10510.924376,3447.429741
21988.308448,1480.411884,-10436.903782,3064.381992
21988.308781,-666.185348,-7772.162391,-4136.915689
21988.309114,-2886.803174,-7772.162391,-4903.011187
21988.309447,-1036.288319,-14211.954086,-4979.620737
21988.309780,-3627.009116,-13027.624579,-3140.991542
21988.310113,-2960.823768,-9474.636058,536.266849
21988.310446,666.185348,-6957.935855,689.485948
21988.310779,1184.329507,-10066.800811,7277.907231
21988.311113,-1628.453072,-6143.709319,2911.162892
21988.311446,4663.297435,-5329.482782,6052.154434
21988.311779,-4441.235652,-6587.832884,1225.752797
21988.312112,1184.329507,-5403.503377,1225.752797
21988.312445,-1258.350101,-11843.295072,1762.019645
21988.312778,-3552.988522,-7179.997637,-4903.011187
21988.313111,-3034.844362,-10362.883188,-5286.058936
21988.313444,-3182.885551,-12657.521608,-2528.115143
21988.313778,222.061783,-9622.677246,689.485948
21988.314111,-2442.679609,-10658.965565,-919.314598
21988.314444,-444.123565,-6957.935855,0.000000
21988.314777,-4737.318029,-10140.821405,4903.011187
21988.315110,7031.956449,-2220.617826,1532.190996
21988.315443,1332.370696,-7179.997637,3064.381992
21988.315776,2368.659014,-6587.832884,2757.943793
21988.316109,3478.967927,-9178.553681,536.266849
21988.316443,-592.164754,-13175.665768,919.314598
21988.316776,2812.782580,-9104.533087,-1762.019645
21988.317109,-74.020594,-10955.047942,-4366.744339
21988.317442,0.000000,-14804.118840,-76.609550
21988.317775,-666.185348,-7994.224174,-1762.019645
21988.318109,-222.061783,-9918.759623,-1302.362347
21988.318442,-1332.370696,-9474.636058,536.266849
21988.318775,592.164754,-10214.842000,1532.190996
21988.319108,3330.926739,-7105.977043,2374.896044
21988.319442,2368.659014,-7179.997637,6818.249932
21988.319775,5847.626942,-7994.224174,4826.401637
21988.320108,2294.638420,-9104.533087,1225.752797
21988.320441,1184.329507,-6587.832884,-1838.629195
21988.320775,-740.205942,-11991.336260,-3677.258390
21988.321108,3034.844362,-8882.471304,-2834.553343
21988.321441,-2960.823768,-13915.871710,-3294.210641
21988.321774,1998.556043,-7846.182985,-1455.581446
21988.322108,0.000000,-14063.912898,2987.772442
21988.322441,-666.185348,-9548.656652,0.000000
21988.322774,3108.864956,-4811.338623,4903.011187
21988.323107,296.082377,-11547.212695,7890.783629
21988.323441,6439.791695,-5921.647536,4213.525239
21988.323774,-2812.782580,-7550.100608,2451.505594
21988.324107,3182.885551,-7031.956449,-306.438199
21988.324440,370.102971,-9918.759623,153.219100
21988.324774,0.000000,-8364.327145,0.000000
21988.325107,-1850.514855,-13027.624579,-1915.238745
21988.325440,-4737.318029,-10732.986159,-1838.629195
21988.325773,-666.185348,-10362.883188,-3447.429741
21988.326107,-3034.844362,-9474.636058,-2528.115143
21988.326440,-2368.659014,-9844.739029,689.485948
21988.326773,-2368.659014,-4663.297435,0.000000
21988.327106,-1924.535449,-11769.274478,3907.087040
21988.327440,3108.864956,-3997.112087,4213.525239
21988.327773,0.000000,-10140.821405,4903.011187
21988.328106,-666.185348,-7179.997637,-1838.629195
21988.328439,4663.297435,-8290.306550,4826.401637
21988.328772,-74.020594,-9474.636058,-1302.362347
21988.329106,592.164754,-10140.821405,-1378.971896
21988.329439,-3256.906145,-11621.233289,-3677.258390
21988.329772,-74.020594,-10955.047942,-3753.867940
21988.330105,518.144159,-9844.739029,-1225.752797
21988.330439,-1332.370696,-12805.562797,76.609550
21988.330772,2590.720797,-8290.306550,-76.609550
21988.331105,0.000000,-8364.327145,6128.763984
21988.331438,4663.297435,-7105.977043,2374.896044
21988.331772,3627.009116,-4441.235652,2221.676944
21988.332105,1480.411884,-7476.080014,4213.525239
21988.332438,3552.988522,-8882.471304,2911.162892
21988.332771,148.041188,-10288.862594,-229.828649
21988.333105,-1036.288319,-10288.862594,-1991.848295
21988.333438,-1480.411884,-10807.006753,-4136.915689
21988.333771,-1406.391290,-12435.459826,-4979.620737
21988.334104,592.164754,-9844.739029,-2911.162892
21988.334438,-1998.556043,-11991.336260,153.219100
21988.334771,2072.576638,-6587.832884,1149.143247
21988.335104,1184.329507,-7846.182985,2834.553343
21988.335437,4071.132681,-9474.636058,6052.154434
21988.335771,1184.329507,-6291.750507,3064.381992
21988.336104,5847.626942,-10658.965565,7277.907231
21988.336437,370.102971,-7920.203579,0.000000
21988.336770,1554.432478,-9474.636058,2374.896044
21988.337104,-2146.597232,-11843.295072,-1608.800546
21988.337437,-2516.700203,-9178.553681,-5362.668486
21988.337770,-3034.844362,-10214.842000,-5286.058936
21988.338103,-1184.329507,-10732.986159,-3370.820191
21988.338437,-1924.535449,-9844.739029,0.000000
21988.338770,-3256.906145,-7179.997637,-1225.752797
21988.339103,1702.473667,-11103.089130,4213.525239
21988.339436,1702.473667,-5847.626942,1838.629195
21988.339770,3552.988522,-7624.121203,6052.154434
21988.340103,2294.638420,-10658.965565,4519.963438
21988.340436,888.247130,-5847.626942,1838.629195
21988.340769,-962.267725,-7772.162391,-919.314598
21988.341103,666.185348,-10214.842000,76.609550
21988.341436,-3849.070898,-11621.233289,-2451.505594
21988.341769,-5921.647536,-7179.997637,612.876398
21988.342102,-4811.338623,-10510.924376,-7048.078582
21988.342436,-1702.473667,-3330.926739,-2068.457845
21988.342769,-4145.153275,-9696.697840,2604.724693
21988.343102,740.205942,-2738.761985,1838.629195
21988.343435,1332.370696,-9474.636058,2681.334243
21988.343768,2886.803174,-7105.977043,1762.019645
21988.344102,2516.700203,-11621.233289,5515.887586
21988.344435,3478.967927,-7994.224174,1762.019645
21988.344768,4145.153275,-10658.965565,3294.210641
21988.345101,-2442.679609,-12287.418637,-4290.134789
21988.345435,1332.370696,-7328.038826,-459.657299
21988.345768,-2960.823768,-11473.192101,-2068.457845
21988.346101,4589.276840,-10955.047942,1455.581446
21988.346434,-2220.617826,-6143.709319,-1532.190996
21988.346768,-1480.411884,-12509.480420,-76.609550
21988.347101,3330.926739,-6217.729913,4060.306139
21988.347434,518.144159,-8882.471304,1685.410096
21988.347767,9400.615463,-7105.977043,1608.800546
21988.348101,1480.411884,-13397.727550,2451.505594
21988.348434,2368.659014,-9252.574275,2987.772442
21988.348767,-74.020594,-7698.141797,-1608.800546
21988.349100,-74.020594,-8956.491898,-2221.676944
21988.349434,-1110.308913,-10584.944971,-3524.039291
21988.349767,-1998.556043,-9474.636058,-1838.629195
21988.350100,74.020594,-8808.450710,-1532.190996
21988.350433,-4145.153275,-8660.409521,-689.485948
21988.350767,-1850.514855,-8586.388927,1225.752797
21988.351100,-2294.638420,-6957.935855,995.924147
21988.351433,1110.308913,-9400.615463,2604.724693
21988.351766,2812.782580,-4811.338623,383.047749
21988.352100,2590.720797,-13027.624579,4673.182538
21988.352433,4663.297435,-9474.636058,3600.648841
21988.352766,0.000000,-7179.997637,0.000000
21988.353099,1110.308913,-13323.706956,2068.457845
21988.353433,-1036.288319,-9696.697840,-2145.067394
21988.353766,-4071.132681,-10436.903782,-3677.258390
21988.354099,-2886.803174,-10362.883188,-1455.581446
21988.354432,-2368.659014,-7846.182985,-2068.457845
21988.354766,-2072.576638,-7328.038826,2604.724693
21988.355099,0.000000,-4811.338623,1225.752797
21988.355432,1110.308913,-6883.915261,919.314598
21988.355765,-2812.782580,-5995.668130,1838.629195
21988.356099,2738.761985,-10658.965565,4213.525239
21988.356432,-74.020594,-7698.141797,2068.457845
21988.356765,1480.411884,-7624.121203,-76.609550
21988.357098,962.267725,-10732.986159,-229.828649
21988.357432,-740.205942,-8660.409521,-3830.477490
21988.357765,666.185348,-10362.883188,-3524.039291
21988.358098,-74.020594,-14952.160028,-76.609550
21988.358431,2294.638420,-10140.821405,0.000000
21988.358764,1184.329507,-8956.491898,3677.258390
21988.359098,7920.203579,-8290.306550,4213.525239
21988.359431,3552.988522,-4811.338623,5209.449386
21988.359764,3034.844362,-7105.977043,4826.401637
21988.360097,0.000000,-8364.327145,0.000000
21988.360431,-2590.720797,-10584.944971,-2374.896044
21988.360764,-2960.823768,-8734.430116,-2451.505594
21988.361097,1702.473667,-9474.636058,-2528.115143
21988.361430,1184.329507,-4811.338623,-2451.505594
21988.361764,-4441.235652,-15396.283594,-1608.800546
21988.362097,962.267725,-8882.471304,-2834.553343
21988.362430,-4737.318029,-8364.327145,-4290.134789
21988.362763,1110.308913,-14211.954086,-1302.362347
21988.363097,4145.153275,-8068.244768,5209.449386
21988.363430,1110.308913,-9400.615463,4366.744339
21988.363763,7920.203579,-4737.318029,5439.278036
21988.364096,2294.638420,-9474.636058,3600.648841
21988.364430,5625.565159,-9992.780217,3600.648841
21988.364763,3256.906145,-8882.471304,4903.011187
21988.365096,-1332.370696,-10732.986159,-2451.505594
21988.365429,-4441.235652,-10732.986159,-4903.011187
21988.365763,-3849.070898,-11251.130318,-3140.991542
21988.366096,-2146.597232,-7476.080014,-4903.011187
21988.366429,-4737.318029,-8364.327145,1225.752797
21988.366762,-1258.350101,-9474.636058,-1915.238745
21988.367096,-4737.318029,-7179.997637,0.000000
21988.367429,370.102971,-9474.636058,4213.525239
21988.367762,296.082377,-8068.244768,4826.401637
21988.368095,518.144159,-6143.709319,4443.353888
21988.368429,4663.297435,-7698.141797,5745.716235
21988.368762,1998.556043,-8882.471304,1762.019645
21988.369095,0.000000,-9548.656652,2451.505594
21988.369428,-666.185348,-8290.306550,-2528.115143
21988.369762,-2442.679609,-11547.212695,-2834.553343
21988.370095,-3627.009116,-8364.327145,-3677.258390
21988.370428,1702.473667,-10436.903782,-3064.381992
21988.370761,-2960.823768,-12953.603985,1225.752797
21988.371095,1924.535449,-7698.141797,-689.485948
21988.371428,-1258.350101,-10066.800811,0.000000
21988.371761,5403.503377,-11843.295072,5439.278036
21988.372094,2368.659014,-9844.739029,9729.412825
21988.372427,4663.297435,-4219.173869,3064.381992
21988.372761,4737.318029,-8290.306550,2451.505594
21988.373094,1554.432478,-11843.295072,2068.457845
21988.373427,0.000000,-6291.750507,-1762.019645
21988.373760,-4293.194464,-9992.780217,-4136.915689
21988.374094,-2516.700203,-10436.903782,-5209.449386
21988.374427,-5921.647536,-13101.645173,-3064.381992
21988.374760,-1554.432478,-8882.471304,-4826.401637
21988.375093,-2368.659014,-9844.739029,0.000000
21988.375427,0.000000,-8882.471304,3907.087040
21988.375760,5847.626942,-5403.503377,4903.011187
21988.376093,4737.318029,-7179.997637,6128.763984
21988.376426,5625.565159,-9474.636058,5439.278036
21988.376760,2664.741391,-7254.018232,766.095498
21988.377093,1332.370696,-10288.862594,-1225.752797
21988.377426,2294.638420,-11843.295072,-2528.115143
21988.377759,-2072.576638,-10732.986159,-4290.134789
21988.378093,2294.638420,-12435.459826,-6205.373534
21988.378426,-2294.638420,-14211.954086,-1608.800546
21988.378759,-2368.659014,-7772.162391,1225.752797
21988.379092,0.000000,-8364.327145,1838.629195
21988.379426,1480.411884,-7920.203579,5515.887586
21988.379759,3404.947333,-6069.688724,5745.716235
21988.380092,962.267725,-7994.224174,3830.477490
21988.380425,4367.215058,-7105.977043,7277.907231
21988.380759,-1036.288319,-5995.668130,0.000000
21988.381092,1924.535449,-8808.450710,0.000000
21988.381425,-4145.153275,-10881.027347,-3294.210641
21988.381758,-2738.761985,-11251.130318,-7277.907231
21988.382092,-4219.173869,-13545.768739,-3140.991542
21988.382425,-2368.659014,-8660.409521,-3064.381992
21988.382758,0.000000,-12213.398043,4826.401637
21988.383091,4663.297435,-5625.565159,3907.087040
21988.383425,2368.659014,-5551.544565,5669.106685
21988.383758,0.000000,-7550.100608,4519.963438
21988.384091,3478.967927,-9178.553681,2068.457845
21988.384424,296.082377,-10436.903782,4060.306139
21988.384758,1036.288319,-7920.203579,1149.143247
21988.385091,-74.020594,-7994.224174,-2528.115143
21988.385424,-4737.318029,-11029.068536,-4290.134789
21988.385757,-1258.350101,-11843.295072,-6818.249932
21988.386091,-2738.761985,-11029.068536,-2298.286494
21988.386424,-2368.659014,-7772.162391,-2145.067394
21988.386757,-74.020594,-10658.965565,-689.485948
21988.387090,-1184.329507,-8660.409521,2374.896044
21988.387423,4071.132681,-6291.750507,6205.373534
21988.387757,3849.070898,-6143.709319,5822.325785
21988.388090,2072.576638,-8364.327145,2451.505594
21988.388423,-3552.988522,-8364.327145,1378.971896
21988.388756,-74.020594,-10066.800811,-2604.724693
21988.389090,0.000000,-7772.162391,-3677.258390
21988.389423,-2812.782580,-12583.501014,-3753.867940
21988.389756,-370.102971,-7254.018232,-3677.258390
21988.390089,-1036.288319,-10066.800811,-2221.676944
21988.390423,370.102971,-7772.162391,-1225.752797
21988.390756,-1258.350101,-10140.821405,0.000000
21988.391089,2442.679609,-9474.636058,2145.067394
21988.391422,2960.823768,-10881.027347,6665.030833
21988.391756,5255.462188,-7698.141797,1225.752797
21988.392089,2368.659014,-10436.903782,5822.325785
21988.392422,6217.729913,-7105.977043,6665.030833
21988.392755,0.000000,-7476.080014,1225.752797
21988.393089,1776.494261,-9326.594869,1072.533697
21988.393422,-740.205942,-10436.903782,-2145.067394
21988.393755,-1184.329507,-7624.121203,-3370.820191
21988.394088,-3034.844362,-9252.574275,-2834.553343
21988.394422,-370.102971,-11251.130318,-1302.362347
21988.394755,-1184.329507,-7179.997637,0.000000
21988.395088,-2294.638420,-10066.800811,2987.772442
21988.395421,3182.885551,-4367.215058,-2145.067394
21988.395755,0.000000,-13101.645173,4136.915689
21988.396088,4071.132681,-7846.182985,3600.648841
21988.396421,1110.308913,-9474.636058,-689.485948
21988.396754,-74.020594,-12879.583391,1838.629195
21988.397088,3478.967927,-6439.791695,-383.047749
21988.397421,-74.020594,-13027.624579,1685.410096
21988.397754,3849.070898,-5773.606348,229.828649
21988.398087,-2442.679609,-10288.862594,-1991.848295
21988.398421,-1850.514855,-9696.697840,-2528.115143
21988.398754,-74.020594,-7105.977043,-689.485948
21988.399087,-666.185348,-14063.912898,-76.609550
21988.399420,1406.391290,-6587.832884,612.876398
21988.399754,-2368.659014,-10881.027347,612.876398
21988.400087,0.000000,-7772.162391,0.000000
21988.400420,740.205942,-9548.656652,2451.505594
21988.400753,2664.741391,-5995.668130,-1532.190996
21988.401087,1036.288319,-10436.903782,2374.896044
21988.401420,-814.226536,-11917.315666,3447.429741
21988.401753,0.000000,-2442.679609,-2145.067394
21988.402086,-2442.679609,-8882.471304,-2528.115143
21988.402419,518.144159,-4811.338623,-2451.505594
21988.402753,-4145.153275,-10881.027347,-995.924147
21988.403086,-74.020594,-11251.130318,-76.609550
21988.403419,-3256.906145,-9548.656652,689.485948
21988.403752,-1702.473667,-11917.315666,995.924147
21988.404086,1702.473667,-7994.224174,2911.162892
21988.404419,-444.123565,-8882.471304,-536.266849
21988.404752,6217.729913,-7179.997637,5515.887586
21988.405085,3478.967927,-8142.265362,1455.581446
21988.405419,2368.659014,-6291.750507,-2298.286494
21988.405752,-1184.329507,-9844.739029,1149.143247
21988.406085,1110.308913,-8882.471304,-3753.867940
21988.406418,148.041188,-10955.047942,-842.705048
21988.406752,-1480.411884,-11177.109724,0.000000
21988.407085,222.061783,-7994.224174,-1762.019645
21988.407418,-1850.514855,-10807.006753,536.266849
21988.407751,5847.626942,-11251.130318,-76.609550
21988.408085,-1184.329507,-9548.656652,4903.011187
21988.408418,4885.359217,-7550.100608,4826.401637
21988.408751,2294.638420,-9474.636058,1762.019645
21988.409084,962.267725,-4811.338623,1225.752797
21988.409418,3849.070898,-9474.636058,-76.609550
21988.409751,-1184.329507,-8364.327145,-536.266849
21988.410084,-2072.576638,-8586.388927,-4213.525239
21988.410417,-2146.597232,-11029.068536,-2068.457845
21988.410751,-666.185348,-12435.459826,-76.609550
21988.411084,-3775.050304,-9474.636058,-2145.067394
21988.411417,-1480.411884,-8734.430116,1149.143247
21988.411750,0.000000,-9252.574275,2451.505594
21988.412084,3552.988522,-7179.997637,4903.011187
21988.412417,3256.906145,-9178.553681,5745.716235
21988.412750,3478.967927,-7328.038826,2528.115143
21988.413083,888.247130,-5403.503377,1225.752797
21988.413417,2146.597232,-10658.965565,-689.485948
21988.413750,0.000000,-10732.986159,-3140.991542
21988.414083,-3108.864956,-11251.130318,-4136.915689
21988.414416,-3108.864956,-12065.356855,-3907.087040
21988.414750,-2738.761985,-9548.656652,-3140.991542
21988.415083,-148.041188,-11251.130318,-76.609550
21988.415416,-74.020594,-12435.459826,6052.154434
21988.415749,2886.803174,-3923.091493,4903.011187
21988.416083,3256.906145,-7624.121203,8580.269578
21988.416416,6735.874072,-8290.306550,4826.401637
21988.416749,740.205942,-6587.832884,612.876398
21988.417082,1776.494261,-8438.347739,2221.676944
21988.417415,-1776.494261,-9178.553681,-2145.067394
21988.417749,-3775.050304,-8956.491898,-5975.544884
21988.418082,-4219.173869,-13027.624579,-8044.002729
21988.418415,-1480.411884,-11843.295072,-4366.744339
21988.418748,-4071.132681,-10140.821405,-4596.572988
21988.419082,0.000000,-9104.533087,1608.800546
21988.419415,4071.132681,-10658.965565,6665.030833
21988.419748,3478.967927,-7698.141797,6052.154434
21988.420081,4145.153275,-7031.956449,7048.078582
21988.420415,2960.823768,-7476.080014,5132.839837
21988.420748,5107.421000,-7031.956449,4136.915689
21988.421081,1184.329507,-7328.038826,1225.752797
21988.421414,4071.132681,-10658.965565,-2834.553343
21988.421747,-2368.659014,-12065.356855,-4903.011187
21988.422080,-2368.659014,-11621.233289,-1915.238745
21988.422414,-4811.338623,-13619.789333,-5132.839837
21988.422747,-3552.988522,-7179.997637,-4290.134789
21988.423080,-2368.659014,-10140.821405,-76.609550
21988.423413,3478.967927,-8290.306550,2374.896044
21988.423746,3256.906145,-6735.874072,5898.935335
21988.424080,4367.215058,-8882.471304,6665.030833
21988.424413,0.000000,-7772.162391,4903.011187
21988.424746,2294.638420,-9474.636058,1762.019645
21988.425079,0.000000,-7179.997637,-3064.381992
21988.425412,0.000000,-9548.656652,1455.581446
21988.425745,-74.020594,-10288.862594,-1302.362347
21988.426079,-814.226536,-5477.523971,-1915.238745
21988.426412,-2368.659014,-10214.842000,-2757.943793
21988.426745,-222.061783,-9178.553681,-3064.381992
21988.427078,-1998.556043,-12435.459826,-76.609550
21988.427411,-1776.494261,-10732.986159,612.876398
21988.427744,2590.720797,-9844.739029,4596.572988
21988.428078,592.164754,-9474.636058,3524.039291
21988.428411,4737.318029,-7476.080014,3064.381992
21988.428744,2886.803174,-11843.295072,4213.525239
21988.429077,592.164754,-8364.327145,2451.505594
21988.429410,4071.132681,-10658.965565,4213.525239
21988.429743,-2368.659014,-9548.656652,0.000000
21988.430077,-1850.514855,-9474.636058,-1455.581446
21988.430410,-4145.153275,-8808.450710,-3447.429741
21988.430743,-2220.617826,-8068.244768,-3677.258390
21988.431076,-2516.700203,-10214.842000,-306.438199
21988.431409,-2368.659014,-8808.450710,0.000000
21988.431743,814.226536,-7402.059420,-76.609550
21988.432076,0.000000,-8512.368333,0.000000
21988.432409,3478.967927,-9474.636058,1762.019645
21988.432742,3182.885551,-8068.244768,1225.752797
21988.433075,3552.988522,-9548.656652,3140.991542
21988.433408,4663.297435,-10658.965565,995.924147
21988.433742,1036.288319,-9178.553681,-689.485948
21988.434075,74.020594,-9252.574275,-1149.143247
21988.434408,1258.350101,-6513.812290,-1915.238745
21988.434741,0.000000,-8956.491898,-3677.258390
21988.435074,0.000000,-10732.986159,306.438199
21988.435407,1110.308913,-13027.624579,0.000000
21988.435741,-1184.329507,-9548.656652,0.000000
21988.436074,1184.329507,-9474.636058,4826.401637
21988.436407,-370.102971,-6291.750507,612.876398
21988.436740,2294.638420,-7402.059420,2987.772442
21988.437073,888.247130,-5403.503377,2298.286494
21988.437406,74.020594,-7550.100608,536.266849
21988.437740,2146.597232,-7698.141797,-76.609550
21988.438073,-3552.988522,-11621.233289,-76.609550
21988.438406,-74.020594,-7994.224174,-4060.306139
21988.438739,-4441.235652,-11325.150913,-3370.820191
21988.439072,0.000000,-9844.739029,842.705048
21988.439406,-1776.494261,-10732.986159,1225.752797
21988.439739,1998.556043,-9400.615463,3983.696590
21988.440072,2516.700203,-9548.656652,4443.353888
21988.440405,2960.823768,-7698.141797,1762.019645
21988.440738,2294.638420,-11251.130318,4213.525239
21988.441071,4663.297435,-8290.306550,995.924147
21988.441405,1184.329507,-8364.327145,0.000000
21988.441738,-1776.494261,-9770.718434,-76.609550
21988.442071,1110.308913,-7698.141797,-3753.867940
21988.442404,-4441.235652,-10140.821405,-1378.971896
21988.442737,-814.226536,-8882.471304,-1302.362347
21988.443070,-3478.967927,-8512.368333,0.000000
21988.443404,-296.082377,-7920.203579,229.828649
21988.443737,-666.185348,-8586.388927,2681.334243
21988.444070,222.061783,-8438.347739,2911.162892
21988.444403,2368.659014,-7031.956449,2374.896044
21988.444736,-666.185348,-11843.295072,2757.943793
21988.445069,2738.761985,-7105.977043,2068.457845
21988.445403,-1258.350101,-8882.471304,1149.143247
21988.445736,2294.638420,-11251.130318,-1915.238745
21988.446069,-1702.473667,-7179.997637,-6128.763984
21988.446402,-1258.350101,-14211.954086,-2145.067394
21988.446735,2368.659014,-7179.997637,-1225.752797
21988.447069,-1036.288319,-10140.821405,612.876398
21988.447402,2516.700203,-8660.409521,-383.047749
21988.447735,2146.597232,-10066.800811,5362.668486
21988.448068,3552.988522,-8438.347739,3600.648841
21988.448401,2960.823768,-6587.832884,1225.752797
21988.448734,2294.638420,-11843.295072,842.705048
21988.449068,2294.638420,-5995.668130,0.000000
21988.449401,-1776.494261,-12139.377449,1149.143247
21988.449734,1702.473667,-9474.636058,-76.609550
21988.450067,-4737.318029,-7624.121203,-2451.505594
21988.450400,-2294.638420,-7402.059420,-2528.115143
21988.450733,-2738.761985,-7772.162391,-3217.601092
21988.451067,-2886.803174,-9104.533087,-2451.505594
21988.451400,-1480.411884,-9844.739029,2145.067394
21988.451733,-74.020594,-7698.141797,-842.705048
21988.452066,1776.494261,-8364.327145,1225.752797
21988.452399,3552.988522,-9474.636058,7277.907231
21988.452732,2294.638420,-9178.553681,1915.238745
21988.453066,5773.606348,-8882.471304,3600.648841
21988.453399,2442.679609,-9844.739029,3370.820191
21988.453732,3478.967927,-8586.388927,919.314598
21988.454065,-2146.597232,-9178.553681,-2451.505594
21988.454398,-666.185348,-10658.965565,-4366.744339
21988.454731,-1850.514855,-8364.327145,-5515.887586
21988.455065,-1776.494261,-10140.821405,1072.533697
21988.455398,-74.020594,-11251.130318,-76.609550
21988.455731,-1258.350101,-5995.668130,0.000000
21988.456064,3701.029710,-10658.965565,4213.525239
21988.456397,-1332.370696,-8808.450710,3983.696590
21988.456731,1480.411884,-7698.141797,5515.887586
21988.457064,1258.350101,-5477.523971,4366.744339
21988.457397,5847.626942,-8290.306550,3600.648841
21988.457730,0.000000,-8734.430116,0.000000
21988.458063,-370.102971,-9178.553681,-3140.991542
21988.458396,-4145.153275,-9696.697840,-5439.278036
21988.458730,-5921.647536,-11029.068536,-5515.887586
21988.459063,-3552.988522,-14804.118840,-2528.115143
21988.459396,-4737.318029,-10732.986159,-2451.505594
21988.459729,-74.020594,-7179.997637,-1838.629195
21988.460062,3552.988522,-6957.935855,8503.660028
21988.460395,5773.606348,-5107.421000,6052.154434
21988.460729,7402.059420,-6217.729913,9193.145976
21988.461062,518.144159,-8142.265362,3370.820191
21988.461395,3627.009116,-7920.203579,1225.752797
21988.461728,-370.102971,-11695.253884,2298.286494
21988.462061,1184.329507,-8660.409521,-1608.800546
21988.462394,-2442.679609,-7772.162391,-4903.011187
21988.462728,-370.102971,-10658.965565,-4979.620737
21988.463061,-666.185348,-11399.171507,-6971.469032
21988.463394,-4737.318029,-13101.645173,-3677.258390
21988.463727,2220.617826,-9844.739029,-995.924147
21988.464060,518.144159,-14137.933492,7124.688131
21988.464394,7031.956449,-4663.297435,5975.544884
21988.464727,3182.885551,-7105.977043,4826.401637
21988.465060,5329.482782,-8290.306550,6665.030833
21988.465393,1258.350101,-2442.679609,1225.752797
21988.465726,1776.494261,-12435.459826,1149.143247
21988.466059,-962.267725,-9474.636058,-4979.620737
21988.466393,-6587.832884,-13619.789333,-6205.373534
21988.466726,-1702.473667,-9178.553681,-4903.011187
21988.467059,-1332.370696,-9770.718434,-1455.581446
21988.467392,2220.617826,-8586.388927,1532.190996
21988.467725,-2072.576638,-8364.327145,612.876398
21988.468058,2294.638420,-8882.471304,1762.019645
21988.468392,2072.576638,-10214.842000,2451.505594
21988.468725,5255.462188,-11843.295072,4826.401637
21988.469058,1480.411884,-8660.409521,4290.134789
21988.469391,1480.411884,-7328.038826,1378.971896
21988.469724,444.123565,-10288.862594,0.000000
21988.470057,-1702.473667,-11399.171507,-842.705048
21988.470391,-592.164754,-8068.244768,-383.047749
21988.470724,-2442.679609,-10436.903782,-76.609550
21988.471057,-3627.009116,-2738.761985,-3064.381992
21988.471390,-3997.112087,-9474.636058,-2834.553343
21988.471723,-666.185348,-9548.656652,0.000000
21988.472057,0.000000,-7476.080014,4443.353888
21988.472390,592.164754,-8660.409521,2604.724693
21988.472723,-1184.329507,-12509.480420,4903.011187
21988.473056,0.000000,-9400.615463,-689.485948
21988.473389,1184.329507,-11769.274478,766.095498
21988.473722,3330.926739,-8290.306550,1762.019645
21988.474056,0.000000,-9844.739029,-1225.752797
21988.474389,-740.205942,-6809.894666,-1149.143247
21988.474722,-962.267725,-8364.327145,-842.705048
21988.475055,-1036.288319,-6809.894666,-1378.971896
21988.475388,814.226536,-8882.471304,2987.772442
21988.475721,-1332.370696,-8660.409521,153.219100
21988.476055,2368.659014,-7772.162391,6435.202183
21988.476388,5255.462188,-9474.636058,4826.401637
21988.476721,3034.844362,-7772.162391,0.000000
21988.477054,-2368.659014,-13397.727550,2374.896044
21988.477387,-1110.308913,-9252.574275,-3983.696590
21988.477720,-962.267725,-12213.398043,-2451.505594
21988.478054,296.082377,-11177.109724,995.924147
21988.478387,1110.308913,-7105.977043,-1608.800546
21988.478720,-74.020594,-3627.009116,0.000000
21988.479053,-74.020594,-9474.636058,-383.047749
21988.479386,3775.050304,-8882.471304,-76.609550
21988.479720,296.082377,-8956.491898,766.095498
21988.480053,5255.462188,-10658.965565,-76.609550
21988.480386,1924.535449,-14508.036463,3140.991542
21988.480719,2368.659014,-7772.162391,995.924147
21988.481052,1776.494261,-12583.501014,2068.457845
21988.481385,1480.411884,-5403.503377,459.657299
21988.481719,1406.391290,-8364.327145,0.000000
21988.482052,2294.638420,-8290.306550,-383.047749
21988.482385,-2590.720797,-8290.306550,-3753.867940
21988.482718,-4145.153275,-7772.162391,-1915.238745
21988.483051,-74.020594,-5477.523971,-3217.601092
21988.483384,-1924.535449,-8216.285956,-459.657299
21988.483718,-1776.494261,-11029.068536,-306.438199
21988.484051,-2294.638420,-10362.883188,0.000000
21988.484384,740.205942,-12139.377449,919.314598
21988.484717,1998.556043,-10066.800811,4213.525239
21988.485050,2294.638420,-11843.295072,5745.716235
21988.485383,3256.906145,-1258.350101,1838.629195
21988.485717,1184.329507,-14137.933492,8503.660028
21988.486050,2294.638420,-3330.926739,-1532.190996
21988.486383,-5847.626942,-11843.295072,-2528.115143
21988.486716,-3034.844362,-6957.935855,-3524.039291
21988.487049,-6217.729913,-12065.356855,-3217.601092
21988.487383,-4737.318029,-9252.574275,-1225.752797
21988.487716,-296.082377,-6069.688724,-536.266849
21988.488049,-5181.441594,-11029.068536,-1378.971896
21988.488382,5551.544565,-5921.647536,3294.210641
21988.488715,814.226536,-10658.965565,3600.648841
21988.489048,6069.688724,-7179.997637,4903.011187
21988.489382,-2220.617826,-8660.409521,3830.477490
21988.489715,6439.791695,-9474.636058,3600.648841
21988.490048,3478.967927,-6069.688724,995.924147
21988.490381,4663.297435,-7105.977043,-2528.115143
21988.490714,2590.720797,-11843.295072,-3753.867940
21988.491047,-592.164754,-11621.233289,-229.828649
21988.491381,370.102971,-9918.759623,-3677.258390
21988.491714,-1554.432478,-13249.686362,689.485948
21988.492047,2886.803174,-10658.965565,1149.143247
21988.492380,1184.329507,-8956.491898,4519.963438
21988.492713,4071.132681,-7920.203579,4290.134789
21988.493046,1184.329507,-5403.503377,0.000000
21988.493380,2664.741391,-8956.491898,3370.820191
21988.493713,1110.308913,-6143.709319,0.000000
21988.494046,-814.226536,-9622.677246,-2221.676944
21988.494379,-148.041188,-9326.594869,-1378.971896
21988.494712,444.123565,-11103.089130,-1532.190996
21988.495046,-1480.411884,-4811.338623,-4519.963438
21988.495379,-666.185348,-13619.789333,-1302.362347
21988.495712,2886.803174,-8882.471304,-2068.457845
21988.496045,-2960.823768,-10140.821405,2145.067394
21988.496378,5477.523971,-9474.636058,4826.401637
21988.496711,1776.494261,-9548.656652,6281.983084
21988.497045,2294.638420,-7920.203579,2911.162892
21988.497378,3330.926739,-8290.306550,2757.943793
21988.497711,-962.267725,-9178.553681,1378.971896
21988.498044,2960.823768,-7772.162391,1225.752797
21988.498377,-5403.503377,-11547.212695,-2911.162892
21988.498710,-4441.235652,-9548.656652,-4903.011187
21988.499044,-6217.729913,-10362.883188,-3140.991542
21988.499377,-3330.926739,-7402.059420,-3753.867940
21988.499710,-4663.297435,-10658.965565,-76.609550
21988.500043,1554.432478,-5329.482782,-383.047749
21988.500376,-222.061783,-11917.315666,5439.278036
21988.500709,0.000000,-7772.162391,7201.297681
21988.501043,2886.803174,-9474.636058,2987.772442
21988.501376,0.000000,-7772.162391,3677.258390
21988.501709,3923.091493,-7105.977043,2068.457845
21988.502042,-1850.514855,-7698.141797,-1455.581446
21988.502375,0.000000,-8364.327145,-2451.505594
21988.502709,-3997.112087,-12435.459826,-4060.306139
21988.503042,-3552.988522,-10658.965565,-4060.306139
21988.503375,-4589.276840,-9548.656652,-995.924147
21988.503708,-1480.411884,-7105.977043,-459.657299
21988.504041,4367.215058,-7105.977043,3600.648841
21988.504374,2072.576638,-11621.233289,5132.839837
21988.504708,5699.585753,-2442.679609,2451.505594
21988.505041,1332.370696,-12509.480420,2068.457845
21988.505374,9474.636058,-5699.585753,1838.629195
21988.505707,2960.823768,-15618.345376,3677.258390
21988.506040,7105.977043,-8216.285956,4519.963438
21988.506373,518.144159,-10732.986159,-5515.887586
21988.506707,-2368.659014,-15026.180623,-3677.258390
21988.507040,3849.070898,-5551.544565,-2374.896044
21988.507373,-3108.864956,-8808.450710,-1915.238745
21988.507706,3627.009116,-7105.977043,-153.219100
21988.508039,-5551.544565,-12139.377449,-2528.115143
21988.508372,4663.297435,-9178.553681,5745.716235
21988.508706,2590.720797,-8290.306550,3600.648841
21988.509039,5847.626942,-4811.338623,3677.258390
21988.509372,3478.967927,-10658.965565,4060.306139
21988.509705,3478.967927,-10658.965565,-689.485948
21988.510038,-74.020594,-14211.954086,-2834.553343
21988.510372,-1184.329507,-9178.553681,-3600.648841
21988.510705,-370.102971,-11177.109724,-2604.724693
21988.511038,-3182.885551,-11917.315666,1455.581446
21988.511371,0.000000,2886.803174,-2451.505594
21988.511704,-4811.338623,-16580.613101,1149.143247
21988.512037,-2368.659014,-20799.786970,6358.592633
21988.512371,6439.791695,592.164754,4826.401637
21988.512704,4737.318029,4663.297435,1072.533697
21988.513037,0.000000,-6291.750507,1225.752797
21988.513370,-7550.100608,-19911.539840,2987.772442
21988.513703,-5921.647536,-12657.521608,0.000000
21988.514036,-4219.173869,-11769.274478,-3064.381992
21988.514370,-1258.350101,-11251.130318,-6818.249932
21988.514703,-1924.535449,-6587.832884,-7354.516781
21988.515036,2886.803174,-5773.606348,-3140.991542
21988.515369,-74.020594,-7105.977043,383.047749
21988.515702,-2368.659014,-7772.162391,3907.087040
21988.516035,3182.885551,-9474.636058,8503.660028
21988.516369,-1258.350101,-6217.729913,5439.278036
21988.516702,3775.050304,-4071.132681,6588.421283
21988.517035,-1184.329507,-9178.553681,5439.278036
21988.517368,2516.700203,-5403.503377,5209.449386
21988.517701,-1924.535449,-8734.430116,2374.896044
21988.518034,-4441.235652,-11325.150913,-2451.505594
21988.518368,-1036.288319,-12583.501014,0.000000
21988.518701,-3997.112087,-15396.283594,-4979.620737
21988.519034,-1258.350101,-14211.954086,-5286.058936
21988.519367,-4441.235652,-13027.624579,-4979.620737
21988.519700,2812.782580,-8956.491898,-1685.410096
21988.520034,1184.329507,-8660.409521,2681.334243
21988.520367,7846.182985,-9178.553681,2987.772442
21988.520700,7624.121203,-11251.130318,4213.525239
21988.521033,7550.100608,-10436.903782,2374.896044
21988.521366,4737.318029,-10955.047942,-383.047749
21988.521699,4515.256246,-11843.295072,-1302.362347
21988.522032,222.061783,-8512.368333,-4903.011187
21988.522365,2590.720797,-8586.388927,-3907.087040
21988.522698,3478.967927,-8882.471304,-3753.867940
21988.523031,148.041188,-8364.327145,-3983.696590
21988.523365,0.000000,-8364.327145,-76.609550
21988.523698,-4737.318029,-7179.997637,-3370.820191
21988.524031,-740.205942,-5921.647536,-3064.381992
21988.524364,-2294.638420,-9622.677246,3370.820191
21988.524697,2368.659014,-6143.709319,3140.991542
21988.525030,3478.967927,-9178.553681,4826.401637
21988.525363,4663.297435,-9474.636058,3600.648841
21988.525696,2368.659014,-7328.038826,8044.002729
21988.526029,0.000000,-9548.656652,6971.469032
21988.526362,4515.256246,-7550.100608,2221.676944
21988.526695,-2960.823768,-9844.739029,-2834.553343
21988.527029,888.247130,-11325.150913,0.000000
21988.527362,1110.308913,-7105.977043,995.924147
21988.527695,-74.020594,-8586.388927,0.000000
21988.528028,-2072.576638,-5921.647536,1455.581446
21988.528361,-1258.350101,-8882.471304,-842.705048
21988.528694,1184.329507,-8438.347739,7277.907231
21988.529027,-74.020594,-7105.977043,1608.800546
21988.529360,-2368.659014,-8364.327145,2451.505594
21988.529693,1110.308913,-8882.471304,3600.648841
21988.530026,0.000000,-8734.430116,2374.896044
21988.530360,-3034.844362,-12139.377449,153.219100
21988.530693,-3552.988522,-7476.080014,-1149.143247
21988.531026,-3849.070898,-10732.986159,612.876398
21988.531359,-3627.009116,-5403.503377,0.000000
21988.531692,-74.020594,-8882.471304,-3753.867940
21988.532025,-6069.688724,-9844.739029,-4903.011187
21988.532358,1184.329507,-11843.295072,1225.752797
21988.532691,-592.164754,-12509.480420,-1838.629195
21988.533024,2368.659014,-11251.130318,2068.457845
21988.533357,2072.576638,-13545.768739,2145.067394
21988.533690,1998.556043,-9030.512492,1838.629195
21988.534024,4663.297435,-8290.306550,2374.896044
21988.534357,2368.659014,-9548.656652,4443.353888
21988.534690,2294.638420,-7105.977043,-1302.362347
21988.535023,-1258.350101,-9030.512492,-3600.648841
21988.535356,-2368.659014,-9252.574275,-1915.238745
21988.535689,-5329.482782,-9548.656652,-5822.325785
21988.536022,-2294.638420,-7550.100608,-2987.772442
21988.536355,0.000000,-9400.615463,-383.047749
21988.536688,3478.967927,-8364.327145,3140.991542
21988.537021,5847.626942,-9474.636058,4060.306139
21988.537355,2960.823768,-9400.615463,4673.182538
21988.537688,3849.070898,-8290.306550,2451.505594
21988.538021,-74.020594,-10584.944971,919.314598
21988.538354,2590.720797,-7920.203579,536.266849
21988.538687,2294.638420,-10658.965565,919.314598
21988.539020,1184.329507,-7179.997637,0.000000
21988.539353,3478.967927,-9474.636058,2374.896044
21988.539686,296.082377,-3627.009116,0.000000
21988.540019,-3256.906145,-9548.656652,0.000000
21988.540352,814.226536,-9178.553681,1762.019645
21988.540686,740.205942,-10436.903782,689.485948
21988.541019,2294.638420,-12139.377449,3600.648841
21988.541352,5033.400406,-8068.244768,3830.477490
21988.541685,74.020594,-9548.656652,2528.115143
21988.542018,2960.823768,-7772.162391,2145.067394
21988.542351,-370.102971,-7105.977043,-4366.744339
21988.542684,-4441.235652,-8364.327145,-3294.210641
21988.543017,-370.102971,-12731.542202,-1302.362347
21988.543350,-1924.535449,-7179.997637,-1838.629195
21988.543683,0.000000,-7772.162391,-919.314598
21988.544016,-740.205942,-10066.800811,1838.629195
21988.544350,1184.329507,-8734.430116,1149.143247
21988.544683,0.000000,-11103.089130,4903.011187
21988.545016,3478.967927,-13619.789333,4519.963438
21988.545349,0.000000,-6291.750507,612.876398
21988.545682,0.000000,-9548.656652,1225.752797
21988.546015,2886.803174,-10658.965565,1149.143247
21988.546348,1702.473667,-8882.471304,-1915.238745
21988.546681,-2664.741391,-9252.574275,-2298.286494
21988.547014,-1850.514855,-13249.686362,-5515.887586
21988.547347,-3256.906145,-10214.842000,1378.971896
21988.547681,-1998.556043,-5921.647536,-842.705048
21988.548014,-1480.411884,-5995.668130,0.000000
21988.548347,-1184.329507,-8290.306550,2374.896044
21988.548680,370.102971,-5995.668130,1225.752797
21988.549013,-2368.659014,-8364.327145,3677.258390
21988.549346,-1406.391290,-11843.295072,-76.609550
21988.549679,-2960.823768,-9918.759623,0.000000
21988.550012,2738.761985,-9474.636058,1072.533697
21988.550345,3256.906145,-7179.997637,1838.629195
21988.550678,-518.144159,-7994.224174,-1608.800546
21988.551011,-962.267725,-8364.327145,-3753.867940
21988.551345,-296.082377,-9326.594869,-2834.553343
21988.551678,-3108.864956,-11251.130318,-1608.800546
21988.552011,-1184.329507,-9548.656652,0.000000
21988.552344,1480.411884,-10436.903782,2374.896044
21988.552677,5255.462188,-8586.388927,1685.410096
21988.553010,5625.565159,-5995.668130,4903.011187
21988.553343,6513.812290,-7105.977043,6052.154434
21988.553676,2072.576638,-11325.150913,2757.943793
21988.554009,-2368.659014,-11399.171507,-766.095498
21988.554342,-3330.926739,-7994.224174,-5209.449386
21988.554676,-1628.453072,-9474.636058,-4366.744339
21988.555009,-666.185348,-13027.624579,-2528.115143
21988.555342,-2368.659014,-5995.668130,-1225.752797
21988.555675,-3627.009116,-6587.832884,-4903.011187
21988.556008,-1776.494261,-8808.450710,-995.924147
21988.556341,-74.020594,-10362.883188,2987.772442
21988.556674,-74.020594,-11103.089130,3600.648841
21988.557007,5995.668130,-8808.450710,7124.688131
21988.557340,2960.823768,-6587.832884,4290.134789
21988.557673,7328.038826,-9474.636058,7354.516781
21988.558007,2664.741391,-9104.533087,4826.401637
21988.558340,4663.297435,-9844.739029,2374.896044
21988.558673,-5329.482782,-10140.821405,-4903.011187
21988.559006,0.000000,-6735.874072,-2374.896044
21988.559339,-666.185348,-7550.100608,-7124.688131
21988.559672,-1776.494261,-8364.327145,-4060.306139
21988.560005,-1258.350101,-7698.141797,-6128.763984
21988.560338,-1554.432478,-11769.274478,-2528.115143
21988.560671,3478.967927,-13545.768739,2221.676944
21988.561004,2886.803174,-11695.253884,7354.516781
21988.561337,8216.285956,-7105.977043,6665.030833
21988.561671,3552.988522,-9844.739029,9729.412825
21988.562004,8216.285956,-7105.977043,4826.401637
21988.562337,0.000000,-3923.091493,1838.629195
21988.562670,1184.329507,-9400.615463,306.438199
21988.563003,-5551.544565,-8364.327145,-7354.516781
21988.563336,-8956.491898,-14730.098246,-6818.249932
21988.563669,-3775.050304,-8586.388927,-6205.373534
21988.564002,-5847.626942,-12065.356855,-2987.772442
21988.564335,-2368.659014,-5995.668130,0.000000
21988.564668,148.041188,-10362.883188,4826.401637
21988.565002,4515.256246,-5477.523971,3524.039291
21988.565335,592.164754,-5995.668130,4903.011187
21988.565668,592.164754,-11029.068536,5056.230287
21988.566001,2368.659014,-7772.162391,2451.505594
21988.566334,888.247130,-12139.377449,383.047749
21988.566667,5107.421000,-9548.656652,766.095498
21988.567000,-3108.864956,-11621.233289,-229.828649
21988.567333,814.226536,-5107.421000,-4903.011187
21988.567666,-6513.812290,-12657.521608,-2757.943793
21988.567999,-2590.720797,-5847.626942,-4903.011187
21988.568332,-1850.514855,-8142.265362,-689.485948
21988.568666,-74.020594,-10584.944971,4826.401637
21988.568999,0.000000,-5551.544565,3064.381992
