#time,accel_x,accel_y,accel_z
20261.884683,3108.864956,-9474.636058,-3294.210641
20261.885017,5699.585753,-10955.047942,1149.143247
20261.885350,8734.430116,-9400.615463,3447.429741
20261.885684,10584.944971,-9622.677246,4673.182538
20261.886018,11843.295072,-9326.594869,5515.887586
20261.886351,10658.965565,-7179.997637,2451.505594
20261.886685,13841.851115,-9474.636058,2374.896044
20261.887018,10436.903782,-7624.121203,-1225.752797
20261.887352,7698.141797,-8660.409521,-1225.752797
20261.887685,8142.265362,-9844.739029,-3983.696590
20261.888019,8512.368333,-9400.615463,-3753.867940
20261.888352,6883.915261,-10140.821405,-3753.867940
20261.888686,7031.956449,-10955.047942,-2298.286494
20261.889019,7031.956449,-12139.377449,1149.143247
20261.889353,5921.647536,-10140.821405,4673.182538
20261.889686,8216.285956,-10658.965565,3600.648841
20261.890020,7105.977043,-7179.997637,6435.202183
20261.890353,11029.068536,-7105.977043,8503.660028
20261.890687,10584.944971,-6513.812290,5745.716235
20261.891020,7624.121203,-6809.894666,1149.143247
20261.891354,4959.379811,-7994.224174,-2528.115143
20261.891687,3256.906145,-8882.471304,-4826.401637
20261.892021,2960.823768,-7476.080014,-6741.640382
20261.892355,5551.544565,-11843.295072,-6205.373534
20261.892688,3034.844362,-11103.089130,-6588.421283
20261.893022,3552.988522,-11917.315666,-1838.629195
20261.893355,6809.894666,-13027.624579,2987.772442
20261.893689,7624.121203,-11843.295072,4213.525239
20261.894022,5477.523971,-10807.006753,4903.011187
20261.894356,4293.194464,-8290.306550,5745.716235
20261.894689,3330.926739,-6883.915261,5286.058936
20261.895023,2738.761985,-3775.050304,2834.553343
20261.895356,4071.132681,-6513.812290,2374.896044
20261.895690,1850.514855,-6291.750507,76.609550
20261.896023,222.061783,-7031.956449,-3447.429741
20261.896357,-2442.679609,-9474.636058,-5745.716235
20261.896690,-3182.885551,-10658.965565,-7737.564530
20261.897024,-4145.153275,-13841.851115,-1915.238745
20261.897357,-3478.967927,-13619.789333,-2528.115143
20261.897691,-4441.235652,-11473.192101,-1838.629195
20261.898025,0.000000,-10732.986159,4903.011187
20261.898358,3182.885551,-6143.709319,6281.983084
20261.898692,6587.832884,-3849.070898,9116.536426
20261.899025,7920.203579,-2738.761985,7354.516781
20261.899359,7402.059420,-3108.864956,3524.039291
20261.899692,6513.812290,-3034.844362,0.000000
20261.900026,7105.977043,-8438.347739,-2528.115143
20261.900359,4071.132681,-11843.295072,-8044.002729
20261.900693,0.000000,-13101.645173,-9193.145976
20261.901026,1702.473667,-18949.272115,-6205.373534
20261.901360,0.000000,-14582.057057,-3677.258390
20261.901693,1702.473667,-14211.954086,229.828649
20261.902027,3997.112087,-11177.109724,5975.544884
20261.902360,5255.462188,-8660.409521,9039.926876
20261.902694,7698.141797,-3627.009116,12104.308868
20261.903027,10066.800811,-4737.318029,11568.042020
20261.903361,7476.080014,-74.020594,4903.011187
20261.903694,4737.318029,-1850.514855,1838.629195
20261.904028,7031.956449,-5921.647536,-4060.306139
20261.904362,2960.823768,-7476.080014,-8120.612279
20261.904695,2368.659014,-11621.233289,-10801.946522
20261.905029,2294.638420,-15100.201217,-10035.851024
20261.905362,1332.370696,-16802.674883,-8120.612279
20261.905696,2886.803174,-18949.272115,-2834.553343
20261.906029,1998.556043,-18949.272115,1762.019645
20261.906363,0.000000,-13693.809927,6128.763984
20261.906696,1480.411884,-8660.409521,9806.022374
20261.907030,5255.462188,-5329.482782,10342.289223
20261.907363,5329.482782,1406.391290,12257.527968
20261.907697,6957.935855,2146.597232,9576.193725
20261.908030,6735.874072,518.144159,3830.477490
20261.908364,3256.906145,-3256.906145,-2528.115143
20261.908697,-74.020594,-9474.636058,-6818.249932
20261.909031,-2590.720797,-12287.418637,-11644.651570
20261.909364,-6365.771101,-17542.880825,-12487.356617
20261.909698,-6957.935855,-19097.313304,-9959.241474
20261.910031,-7994.224174,-16950.716072,-5822.325785
20261.910365,-6365.771101,-15026.180623,1225.752797
20261.910699,-1258.350101,-13323.706956,9729.412825
20261.911032,1110.308913,-8290.306550,13100.233016
20261.911366,1258.350101,-74.020594,14709.033562
20261.911699,3404.947333,2960.823768,11108.384721
20261.912033,2368.659014,2294.638420,6128.763984
20261.912366,962.267725,-1184.329507,229.828649
20261.912700,-666.185348,-5255.462188,-4979.620737
20261.913033,-3552.988522,-8808.450710,-9193.145976
20261.913367,-5995.668130,-14582.057057,-14709.033562
20261.913700,-7179.997637,-21021.848753,-12334.137518
20261.914034,-8438.347739,-19171.333898,-7967.393179
20261.914367,-7772.162391,-16654.633695,-2451.505594
20261.914701,-2664.741391,-13989.892304,4903.011187
20261.915034,814.226536,-8364.327145,10801.946522
20261.915368,4367.215058,-5329.482782,12870.404366
20261.915701,5773.606348,-1036.288319,12027.699319
20261.916035,5847.626942,0.000000,6052.154434
20261.916369,1480.411884,-666.185348,1225.752797
20261.916702,2886.803174,-4737.318029,-4979.620737
20261.917036,-2072.576638,-5107.421000,-6741.640382
20261.917369,-1850.514855,-12879.583391,-6818.249932
20261.917703,-1258.350101,-15100.201217,-8044.002729
20261.918036,-1480.411884,-17616.901420,-3753.867940
20261.918370,0.000000,-16136.489536,689.485948
20261.918703,2146.597232,-14508.036463,3217.601092
20261.919037,3108.864956,-11177.109724,4826.401637
20261.919370,5329.482782,-8660.409521,9499.584175
20261.919704,4663.297435,-3849.070898,4673.182538
20261.920037,4663.297435,-962.267725,2451.505594
20261.920371,4441.235652,-4737.318029,1149.143247
20261.920704,3182.885551,-3404.947333,-2834.553343
20261.921038,2294.638420,-7402.059420,-3447.429741
20261.921371,0.000000,-10510.924376,-3447.429741
20261.921705,-2072.576638,-11621.233289,-4673.182538
20261.922038,-148.041188,-13027.624579,-1685.410096
20261.922372,3478.967927,-15396.283594,2374.896044
20261.922706,2368.659014,-10732.986159,4290.134789
20261.923039,5477.523971,-13323.706956,7048.078582
20261.923373,5551.544565,-11251.130318,2374.896044
20261.923706,592.164754,-8216.285956,612.876398
20261.924040,2886.803174,-7105.977043,-76.609550
20261.924373,-592.164754,-6587.832884,-2221.676944
20261.924707,-1850.514855,-5921.647536,-3600.648841
20261.925040,-2960.823768,-8808.450710,-1915.238745
20261.925374,-666.185348,-9178.553681,-76.609550
20261.925707,-592.164754,-9030.512492,3600.648841
20261.926041,1776.494261,-10288.862594,6205.373534
20261.926374,3775.050304,-8364.327145,6665.030833
20261.926708,1184.329507,-8364.327145,3677.258390
20261.927041,1924.535449,-9844.739029,3600.648841
20261.927375,-74.020594,-13027.624579,-1302.362347
20261.927708,-3034.844362,-10955.047942,-5898.935335
20261.928042,-5625.565159,-11325.150913,-4213.525239
20261.928375,-5995.668130,-9622.677246,-7814.174080
20261.928709,-7179.997637,-9770.718434,-4290.134789
20261.929043,-5847.626942,-7920.203579,-1149.143247
20261.929376,-3552.988522,-6809.894666,3753.867940
20261.929710,592.164754,-5699.585753,9193.145976
20261.930043,4737.318029,-8290.306550,12180.918418
20261.930377,4145.153275,-3627.009116,9193.145976
20261.930710,1776.494261,-5995.668130,7354.516781
20261.931044,4663.297435,-8882.471304,842.705048
20261.931377,-1776.494261,-9548.656652,-5515.887586
20261.931711,-3330.926739,-11695.253884,-10418.898773
20261.932044,-6809.894666,-14508.036463,-11797.870669
20261.932378,-8734.430116,-14730.098246,-10878.556072
20261.932711,-6143.709319,-14211.954086,-4979.620737
20261.933045,-2442.679609,-14211.954086,-76.609550
20261.933378,0.000000,-5995.668130,9193.145976
20261.933712,7698.141797,-4737.318029,16471.053207
20261.934045,12953.603985,-2368.659014,14019.547613
20261.934379,12805.562797,-4515.256246,14632.424012
20261.934713,8290.306550,-5107.421000,5822.325785
20261.935046,4737.318029,-6587.832884,-1685.410096
20261.935380,814.226536,-11473.192101,-7814.174080
20261.935713,-4145.153275,-12361.439231,-13176.842566
20261.936047,-5995.668130,-15988.448347,-14785.643111
20261.936380,-7179.997637,-14878.139434,-12870.404366
20261.936714,-7105.977043,-13841.851115,-4366.744339
20261.937048,-4737.318029,-9844.739029,3370.820191
20261.937381,3182.885551,-6143.709319,8044.002729
20261.937715,8734.430116,-1258.350101,12870.404366
20261.938048,10658.965565,-2442.679609,17160.539155
20261.938382,11991.336260,-2664.741391,12563.966167
20261.938715,11251.130318,-4737.318029,7048.078582
20261.939049,4145.153275,-5403.503377,0.000000
20261.939383,518.144159,-12435.459826,-7814.174080
20261.939716,-5403.503377,-14211.954086,-15398.519510
20261.940050,-10584.944971,-15470.304188,-15934.786358
20261.940383,-10658.965565,-14878.139434,-10955.165621
20261.940717,-6217.729913,-15026.180623,-2451.505594
20261.941050,-1850.514855,-11843.295072,4979.620737
20261.941384,3108.864956,-7772.162391,12487.356617
20261.941718,8290.306550,-4737.318029,16854.100956
20261.942051,7698.141797,-2812.782580,14709.033562
20261.942385,6143.709319,-2590.720797,8273.831378
20261.942718,5181.441594,-4441.235652,3370.820191
20261.943052,1332.370696,-7402.059420,-2834.553343
20261.943385,-4737.318029,-10881.027347,-9806.022374
20261.943719,-8956.491898,-11843.295072,-14785.643111
20261.944053,-14211.954086,-16062.468941,-11644.651570
20261.944386,-10140.821405,-15396.283594,-7431.126331
20261.944720,-7179.997637,-13323.706956,-2528.115143
20261.945053,-1924.535449,-10955.047942,6971.469032
20261.945387,3034.844362,-6809.894666,11874.480219
20261.945720,6513.812290,-4515.256246,14402.595362
20261.946054,6957.935855,-3775.050304,10572.117872
20261.946388,6439.791695,-5921.647536,6665.030833
20261.946721,1184.329507,-3627.009116,0.000000
20261.947055,-1776.494261,-6291.750507,-4903.011187
20261.947388,-3034.844362,-11547.212695,-11108.384721
20261.947722,-9474.636058,-10732.986159,-12257.527968
20261.948055,-7772.162391,-15988.448347,-8963.317327
20261.948389,-5033.400406,-12731.542202,-3447.429741
20261.948723,-1480.411884,-12805.562797,3294.210641
20261.949056,3182.885551,-8956.491898,6818.249932
20261.949390,7031.956449,-7105.977043,10955.165621
20261.949723,7105.977043,-4811.338623,11338.213370
20261.950057,9252.574275,-6809.894666,6128.763984
20261.950390,8216.285956,-9474.636058,1762.019645
20261.950724,2368.659014,-8364.327145,0.000000
20261.951058,-370.102971,-9400.615463,-7354.516781
20261.951391,-5107.421000,-10881.027347,-9193.145976
20261.951725,-6365.771101,-11547.212695,-9116.536426
20261.952058,-6217.729913,-11769.274478,-4903.011187
20261.952392,-2368.659014,-8364.327145,0.000000
20261.952725,0.000000,-8364.327145,6741.640382
20261.953059,6439.791695,-8586.388927,8503.660028
20261.953393,6587.832884,-7105.977043,8810.098227
20261.953726,7105.977043,-7179.997637,9806.022374
20261.954060,7031.956449,-6883.915261,1991.848295
20261.954393,4589.276840,-8660.409521,-383.047749
20261.954727,1702.473667,-8882.471304,-4673.182538
20261.955060,-2664.741391,-11547.212695,-7354.516781
20261.955394,-5773.606348,-10140.821405,-9806.022374
20261.955728,-5107.421000,-13175.665768,-5975.544884
20261.956061,-2738.761985,-10955.047942,0.000000
20261.956395,296.082377,-9326.594869,4366.744339
20261.956728,4663.297435,-9474.636058,7277.907231
20261.957062,6439.791695,-5921.647536,6741.640382
20261.957396,3552.988522,-6587.832884,8350.440928
20261.957729,7031.956449,-8882.471304,6052.154434
20261.958063,2442.679609,-7179.997637,0.000000
20261.958396,1184.329507,-10436.903782,-2145.067394
20261.958730,-2738.761985,-11843.295072,-5898.935335
20261.959063,-7624.121203,-12065.356855,-8197.221829
20261.959397,-9252.574275,-13619.789333,-7890.783629
20261.959731,-7772.162391,-10658.965565,-4903.011187
20261.960064,-3627.009116,-9474.636058,2374.896044
20261.960398,0.000000,-5403.503377,7431.126331
20261.960731,3256.906145,-6513.812290,11568.042020
20261.961065,5551.544565,-4737.318029,6128.763984
20261.961398,4367.215058,-7698.141797,5439.278036
20261.961732,2294.638420,-7105.977043,459.657299
20261.962066,-888.247130,-10140.821405,-3753.867940
20261.962399,-3108.864956,-10436.903782,-6665.030833
20261.962733,-5921.647536,-13397.727550,-7354.516781
20261.963066,-4811.338623,-11843.295072,-6818.249932
20261.963400,-7105.977043,-14285.974681,-229.828649
20261.963733,-1850.514855,-10658.965565,1149.143247
20261.964067,-1924.535449,-5995.668130,3064.381992
20261.964401,2368.659014,-4367.215058,6818.249932
20261.964734,4441.235652,-4811.338623,7814.174080
20261.965068,3552.988522,-5329.482782,4979.620737
20261.965401,3997.112087,-5773.606348,1532.190996
20261.965735,3478.967927,-9474.636058,-76.609550
20261.966068,962.267725,-8956.491898,-6128.763984
20261.966402,-74.020594,-14211.954086,-6205.373534
20261.966736,-4811.338623,-14211.954086,-7890.783629
20261.967069,-5921.647536,-11917.315666,-4213.525239
20261.967403,-444.123565,-12435.459826,1991.848295
20261.967736,4589.276840,-8290.306550,6665.030833
20261.968070,5847.626942,-5699.585753,8580.269578
20261.968403,7402.059420,-5477.523971,8427.050478
20261.968737,5995.668130,-4737.318029,4213.525239
20261.969071,3552.988522,-5107.421000,2757.943793
20261.969404,5847.626942,-8290.306550,-2528.115143
20261.969738,0.000000,-8364.327145,-7354.516781
20261.970071,-1036.288319,-13619.789333,-5592.497135
20261.970405,-2442.679609,-15396.283594,-6281.983084
20261.970738,-4737.318029,-14063.912898,-2528.115143
20261.971072,-1776.494261,-11029.068536,1378.971896
20261.971406,1998.556043,-9178.553681,5822.325785
20261.971739,4145.153275,-6291.750507,7584.345430
20261.972073,3701.029710,-4811.338623,8886.707777
20261.972406,4737.318029,-4663.297435,4596.572988
20261.972740,2220.617826,-6883.915261,383.047749
20261.973073,2072.576638,-7624.121203,-2757.943793
20261.973407,814.226536,-10362.883188,-4979.620737
20261.973741,-2960.823768,-11621.233289,-6128.763984
20261.974074,-2072.576638,-14211.954086,-4979.620737
20261.974408,-4515.256246,-11029.068536,-6128.763984
20261.974741,-3256.906145,-12657.521608,842.705048
20261.975075,1554.432478,-10658.965565,4826.401637
20261.975408,2072.576638,-7772.162391,8120.612279
20261.975742,3552.988522,-5625.565159,7890.783629
20261.976076,3997.112087,-5033.400406,6971.469032
20261.976409,1702.473667,-4811.338623,612.876398
20261.976743,-2368.659014,-6587.832884,-1225.752797
20261.977076,-1850.514855,-7994.224174,-7431.126331
20261.977410,-5995.668130,-8364.327145,-9806.022374
20261.977743,-7105.977043,-13841.851115,-7431.126331
20261.978077,-5995.668130,-13619.789333,-7277.907231
20261.978411,-3108.864956,-12435.459826,1072.533697
20261.978744,444.123565,-9548.656652,7277.907231
20261.979078,3552.988522,-6439.791695,10418.898773
20261.979411,4737.318029,-4811.338623,10418.898773
20261.979745,0.000000,-5403.503377,10572.117872
20261.980079,1702.473667,-4589.276840,153.219100
20261.980412,-1184.329507,-7476.080014,-4290.134789
20261.980746,-1998.556043,-10362.883188,-6818.249932
20261.981079,-4737.318029,-8364.327145,-9193.145976
20261.981413,-4145.153275,-12657.521608,-6511.811733
20261.981746,-4737.318029,-11547.212695,-4903.011187
20261.982080,-4145.153275,-12509.480420,-2374.896044
20261.982414,1702.473667,-11251.130318,4826.401637
20261.982747,3552.988522,-9474.636058,10955.165621
20261.983081,7624.121203,-3330.926739,7967.393179
20261.983414,7105.977043,-6957.935855,11568.042020
20261.983748,6439.791695,-7105.977043,4826.401637
20261.984081,2812.782580,-7179.997637,459.657299
20261.984415,518.144159,-8290.306550,-6281.983084
20261.984749,-2516.700203,-9918.759623,-9576.193725
20261.985082,-4441.235652,-11917.315666,-10189.070123
20261.985416,-4071.132681,-11843.295072,-8503.660028
20261.985749,-2442.679609,-12583.501014,-4673.182538
20261.986083,0.000000,-11917.315666,2451.505594
20261.986416,6217.729913,-10658.965565,11568.042020
20261.986750,7031.956449,-5995.668130,11031.775171
20261.987084,9400.615463,-5921.647536,11874.480219
20261.987417,6809.894666,-5847.626942,7048.078582
20261.987751,3108.864956,-6143.709319,995.924147
20261.988084,740.205942,-6735.874072,-4136.915689
20261.988418,-1776.494261,-8364.327145,-7660.954980
20261.988751,-4367.215058,-10436.903782,-10725.336972
20261.989085,-5551.544565,-13101.645173,-10265.679673
20261.989419,-5995.668130,-13915.871710,-6358.592633
20261.989752,-4071.132681,-13027.624579,-919.314598
20261.990086,0.000000,-8364.327145,4979.620737
20261.990419,7920.203579,-9474.636058,12180.918418
20261.990753,5477.523971,-3923.091493,12563.966167
20261.991086,7105.977043,-5107.421000,9806.022374
20261.991420,7031.956449,-7105.977043,6052.154434
20261.991754,1628.453072,-6957.935855,-1072.533697
20261.992087,-1850.514855,-8142.265362,-6818.249932
20261.992421,-5181.441594,-10288.862594,-10112.460574
20261.992754,-7698.141797,-12953.603985,-11108.384721
20261.993088,-9326.594869,-12509.480420,-8580.269578
20261.993421,-5403.503377,-15396.283594,-1608.800546
20261.993755,-666.185348,-10807.006753,3830.477490
20261.994089,2294.638420,-7179.997637,8580.269578
20261.994422,6439.791695,-7105.977043,12180.918418
20261.994756,7402.059420,-5107.421000,12027.699319
20261.995089,6291.750507,-4737.318029,7201.297681
20261.995423,4367.215058,-5181.441594,995.924147
20261.995756,74.020594,-7994.224174,-4596.572988
20261.996090,-2442.679609,-12361.439231,-7431.126331
20261.996424,-7179.997637,-10732.986159,-12257.527968
20261.996757,-9474.636058,-13101.645173,-11951.089769
20261.997091,-8882.471304,-14656.077652,-4979.620737
20261.997424,-5921.647536,-11621.233289,-1225.752797
20261.997758,1110.308913,-8290.306550,6894.859482
20261.998091,5625.565159,-5773.606348,13176.842566
20261.998425,7846.182985,-5181.441594,14019.547613
20261.998759,8808.450710,-4293.194464,10342.289223
20261.999092,5329.482782,-4219.173869,3447.429741
20261.999426,1184.329507,-3627.009116,0.000000
20261.999759,-962.267725,-10362.883188,-7737.564530
20262.000093,-6439.791695,-9548.656652,-14249.376263
20262.000426,-9474.636058,-12509.480420,-11031.775171
20262.000760,-7179.997637,-15396.283594,-9422.974625
20262.001094,-4737.318029,-13545.768739,-2528.115143
20262.001427,74.020594,-11695.253884,4749.792088
20262.001761,5329.482782,-8290.306550,11261.603821
20262.002094,6957.935855,-3997.112087,12180.918418
20262.002428,8882.471304,-4367.215058,12257.527968
20262.002761,9104.533087,-5921.647536,7890.783629
20262.003095,4737.318029,-5255.462188,2528.115143
20262.003429,4663.297435,-8882.471304,-1915.238745
20262.003762,-1258.350101,-11843.295072,-9882.631924
20262.004096,-7105.977043,-11325.150913,-12257.527968
20262.004429,-9474.636058,-14285.974681,-8733.488677
20262.004763,-6587.832884,-14656.077652,-7431.126331
20262.005097,-4737.318029,-12509.480420,0.000000
20262.005430,1110.308913,-8882.471304,4903.011187
20262.005764,6217.729913,-6809.894666,12180.918418
20262.006097,9400.615463,-5403.503377,13942.938064
20262.006431,8808.450710,-4737.318029,10035.851024
20262.006764,6661.853478,-6513.812290,4826.401637
20262.007098,2368.659014,-5995.668130,919.314598
20262.007432,1702.473667,-8882.471304,-4979.620737
20262.007765,-3923.091493,-10658.965565,-11951.089769
20262.008099,-7179.997637,-12879.583391,-11874.480219
20262.008432,-8142.265362,-13767.830521,-8350.440928
20262.008766,-4737.318029,-13249.686362,-2604.724693
20262.009099,-1924.535449,-11103.089130,3447.429741
20262.009433,1184.329507,-7179.997637,7354.516781
20262.009767,7624.121203,-5921.647536,10955.165621
20262.010100,7105.977043,-4811.338623,14479.204912
20262.010434,7031.956449,-4737.318029,5286.058936
20262.010767,3552.988522,-4811.338623,612.876398
20262.011101,296.082377,-7476.080014,-3140.991542
20262.011434,-2368.659014,-8660.409521,-7201.297681
20262.011768,-7476.080014,-12953.603985,-10265.679673
20262.012102,-9030.512492,-12953.603985,-11108.384721
20262.012435,-7254.018232,-15692.365970,-4060.306139
20262.012769,-3034.844362,-8956.491898,-1838.629195
20262.013102,2738.761985,-9474.636058,8503.660028
20262.013436,7031.956449,-6513.812290,9729.412825
20262.013769,7105.977043,-5107.421000,12870.404366
20262.014103,8586.388927,-7254.018232,10648.727422
20262.014437,7031.956449,-7105.977043,3370.820191
20262.014770,4071.132681,-7476.080014,-459.657299
20262.015104,0.000000,-9844.739029,-5209.449386
20262.015437,-3627.009116,-10658.965565,-9882.631924
20262.015771,-9474.636058,-11917.315666,-9193.145976
20262.016104,-5995.668130,-14211.954086,-7584.345430
20262.016438,-5699.585753,-11843.295072,-2221.676944
20262.016772,-2960.823768,-9548.656652,4290.134789
20262.017105,2368.659014,-9104.533087,9346.365076
20262.017439,5847.626942,-5329.482782,9116.536426
20262.017772,6513.812290,-4811.338623,9959.241474
20262.018106,5255.462188,-5329.482782,4749.792088
20262.018439,4811.338623,-6365.771101,-76.609550
20262.018773,592.164754,-9548.656652,-1685.410096
20262.019107,-1406.391290,-10955.047942,-6588.421283
20262.019440,-4959.379811,-11843.295072,-9193.145976
20262.019774,-7846.182985,-14211.954086,-8044.002729
20262.020107,-4811.338623,-14211.954086,-3753.867940
20262.020441,-4737.318029,-9696.697840,1838.629195
20262.020774,3701.029710,-9030.512492,7890.783629
20262.021108,4071.132681,-6365.771101,7354.516781
20262.021442,7698.141797,-3923.091493,10418.898773
20262.021775,9104.533087,-7105.977043,9729.412825
20262.022109,5551.544565,-6661.853478,3907.087040
20262.022442,2368.659014,-7846.182985,-2528.115143
20262.022776,-1924.535449,-10214.842000,-7354.516781
20262.023109,-5107.421000,-11621.233289,-9652.803275
20262.023443,-8290.306550,-11917.315666,-7967.393179
20262.023777,-5403.503377,-14211.954086,-4979.620737
20262.024110,-2442.679609,-11547.212695,-229.828649
20262.024444,-1628.453072,-8364.327145,6205.373534
20262.024777,4071.132681,-6513.812290,6971.469032
20262.025111,4071.132681,-6587.832884,8656.879127
20262.025444,4589.276840,-4737.318029,5209.449386
20262.025778,3552.988522,-6069.688724,3600.648841
20262.026112,1776.494261,-7179.997637,-2451.505594
20262.026445,0.000000,-8364.327145,-2145.067394
20262.026779,-74.020594,-12435.459826,-6205.373534
20262.027112,-5921.647536,-11029.068536,-8273.831378
20262.027446,-5329.482782,-12509.480420,-4673.182538
20262.027779,-4737.318029,-12213.398043,-1225.752797
20262.028113,888.247130,-9474.636058,4443.353888
20262.028447,3775.050304,-7105.977043,7431.126331
20262.028780,5255.462188,-5995.668130,7660.954980
20262.029114,6439.791695,-6957.935855,7277.907231
20262.029447,4663.297435,-7105.977043,3600.648841
20262.029781,3182.885551,-4811.338623,-1838.629195
20262.030115,1480.411884,-9474.636058,-2528.115143
20262.030448,-1258.350101,-11843.295072,-7737.564530
20262.030782,-2738.761985,-13989.892304,-5286.058936
20262.031115,-4589.276840,-12509.480420,-4213.525239
20262.031449,-2072.576638,-13101.645173,612.876398
20262.031782,962.267725,-9548.656652,3370.820191
20262.032116,1480.411884,-6587.832884,5515.887586
20262.032450,3775.050304,-4959.379811,4443.353888
20262.032783,5255.462188,-5921.647536,2451.505594
20262.033117,4367.215058,-9474.636058,2374.896044
20262.033450,1480.411884,-6587.832884,-1225.752797
20262.033784,1554.432478,-8882.471304,-2528.115143
20262.034117,-888.247130,-11029.068536,-3140.991542
20262.034451,-3701.029710,-13027.624579,-5669.106685
20262.034785,-3627.009116,-11991.336260,-4443.353888
20262.035118,-4737.318029,-11917.315666,-1225.752797
20262.035452,-370.102971,-9844.739029,3217.601092
20262.035785,1406.391290,-7994.224174,5898.935335
20262.036119,2886.803174,-7105.977043,6971.469032
20262.036452,3701.029710,-5921.647536,6588.421283
20262.036786,592.164754,-4811.338623,919.314598
20262.037119,1924.535449,-7476.080014,-1225.752797
20262.037453,-74.020594,-7994.224174,-6818.249932
20262.037786,-2072.576638,-8660.409521,-4903.011187
20262.038120,-2886.803174,-13471.748144,-3447.429741
20262.038453,-4441.235652,-14211.954086,-2528.115143
20262.038787,-3775.050304,-10732.986159,-2145.067394
20262.039120,-666.185348,-12139.377449,4060.306139
20262.039454,2738.761985,-8586.388927,6665.030833
20262.039787,3552.988522,-7179.997637,8580.269578
20262.040121,3775.050304,-3627.009116,4903.011187
20262.040454,296.082377,-3923.091493,2757.943793
20262.040788,2886.803174,-8882.471304,-1302.362347
20262.041121,-370.102971,-7550.100608,-6358.592633
20262.041455,-1184.329507,-11843.295072,-5286.058936
20262.041788,-3330.926739,-12139.377449,-6052.154434
20262.042122,-4811.338623,-12953.603985,-5592.497135
20262.042455,-5625.565159,-13249.686362,-3447.429741
20262.042789,-74.020594,-11843.295072,3294.210641
20262.043122,1110.308913,-6291.750507,6128.763984
20262.043456,5329.482782,-7031.956449,8580.269578
20262.043789,8216.285956,-7105.977043,9116.536426
20262.044123,2664.741391,-4811.338623,3677.258390
20262.044456,4071.132681,-5921.647536,536.266849
20262.044790,1110.308913,-7550.100608,-3830.477490
20262.045123,-1850.514855,-9474.636058,-8044.002729
20262.045457,-3849.070898,-11325.150913,-9806.022374
20262.045790,-4737.318029,-12731.542202,-8350.440928
20262.046124,-5921.647536,-11917.315666,-2451.505594
20262.046457,-74.020594,-15100.201217,2068.457845
20262.046791,4959.379811,-11251.130318,7277.907231
20262.047124,4145.153275,-5995.668130,9806.022374
20262.047458,9104.533087,-5625.565159,9729.412825
20262.047792,5773.606348,-4515.256246,7354.516781
20262.048125,3404.947333,-5625.565159,1762.019645
20262.048459,666.185348,-6883.915261,-2221.676944
20262.048792,-1850.514855,-8882.471304,-7124.688131
20262.049126,-5329.482782,-10732.986159,-10265.679673
20262.049459,-6513.812290,-13471.748144,-9959.241474
20262.049793,-5921.647536,-13693.809927,-6281.983084
20262.050126,-4441.235652,-13397.727550,-306.438199
20262.050460,1110.308913,-11843.295072,3600.648841
20262.050793,3256.906145,-6883.915261,9806.022374
20262.051127,4737.318029,-5403.503377,13483.280765
20262.051460,8512.368333,-6217.729913,10342.289223
20262.051794,3256.906145,-5403.503377,3677.258390
20262.052127,2220.617826,-5033.400406,-2145.067394
20262.052461,-1480.411884,-8586.388927,-5669.106685
20262.052794,-2664.741391,-8882.471304,-9193.145976
20262.053128,-5403.503377,-13471.748144,-9882.631924
20262.053461,-6809.894666,-15396.283594,-7431.126331
20262.053795,-6957.935855,-12509.480420,-3677.258390
20262.054128,-3849.070898,-12509.480420,1225.752797
20262.054462,2368.659014,-9918.759623,9422.974625
20262.054795,6439.791695,-7105.977043,11874.480219
20262.055129,6883.915261,-4737.318029,10878.556072
20262.055462,6883.915261,-3997.112087,8656.879127
20262.055796,4071.132681,-4737.318029,2987.772442
20262.056129,0.000000,-4811.338623,-3677.258390
20262.056463,-2442.679609,-11251.130318,-8044.002729
20262.056796,-8882.471304,-10732.986159,-10418.898773
20262.057130,-8660.409521,-14804.118840,-11108.384721
20262.057463,-8512.368333,-14211.954086,-8656.879127
20262.057797,-6883.915261,-12435.459826,-2145.067394
20262.058130,148.041188,-9548.656652,7354.516781
20262.058464,5921.647536,-6587.832884,12717.185267
20262.058797,8808.450710,-4885.359217,14096.157163
20262.059131,9474.636058,-3923.091493,12410.747068
20262.059464,6439.791695,-4145.153275,3830.477490
20262.059798,5847.626942,-7105.977043,1532.190996
20262.060131,2294.638420,-8290.306550,-8350.440928
20262.060465,-4737.318029,-11917.315666,-10112.460574
20262.060799,-7105.977043,-11917.315666,-12257.527968
20262.061132,-8142.265362,-16580.613101,-10495.508323
20262.061466,-6883.915261,-14582.057057,-4826.401637
20262.061799,-1036.288319,-11843.295072,3294.210641
20262.062133,4071.132681,-9474.636058,10955.165621
20262.062466,5329.482782,-3034.844362,14709.033562
20262.062800,10584.944971,-4589.276840,11568.042020
20262.063133,6809.894666,-2072.576638,7584.345430
20262.063467,3552.988522,-4811.338623,4903.011187
20262.063800,2960.823768,-6587.832884,-2068.457845
20262.064134,-1628.453072,-9178.553681,-8120.612279
20262.064467,-6217.729913,-11991.336260,-12947.013916
20262.064801,-8142.265362,-13397.727550,-12640.575717
20262.065134,-7772.162391,-16580.613101,-8044.002729
20262.065468,-7105.977043,-13397.727550,-2757.943793
20262.065801,518.144159,-11399.171507,4519.963438
20262.066135,6217.729913,-6957.935855,11414.822920
20262.066468,8882.471304,-5107.421000,14096.157163
20262.066802,10584.944971,-5329.482782,13253.452115
20262.067135,5625.565159,-3923.091493,5822.325785
20262.067469,1184.329507,-4811.338623,2451.505594
20262.067802,1702.473667,-8882.471304,-4979.620737
20262.068136,-5107.421000,-10140.821405,-10725.336972
20262.068469,-8290.306550,-13101.645173,-11261.603821
20262.068803,-8512.368333,-14508.036463,-9729.412825
20262.069136,-4663.297435,-13101.645173,-3600.648841
20262.069470,-2072.576638,-10732.986159,3064.381992
20262.069803,4663.297435,-8882.471304,8503.660028
20262.070137,5773.606348,-4811.338623,11031.775171
20262.070470,7624.121203,-6809.894666,11414.822920
20262.070804,8216.285956,-4737.318029,4519.963438
20262.071137,4367.215058,-6143.709319,1532.190996
20262.071471,4663.297435,-7994.224174,-689.485948
20262.071804,814.226536,-9178.553681,-5286.058936
20262.072138,-6513.812290,-12139.377449,-10418.898773
20262.072471,-7476.080014,-13027.624579,-10648.727422
20262.072805,-9400.615463,-13101.645173,-7354.516781
20262.073138,-6809.894666,-9548.656652,1225.752797
20262.073472,-74.020594,-10658.965565,5439.278036
20262.073805,4663.297435,-7105.977043,9116.536426
20262.074139,7254.018232,-4811.338623,13789.718964
20262.074473,7920.203579,-3404.947333,8580.269578
20262.074806,6735.874072,-5181.441594,4366.744339
20262.075140,3775.050304,-6661.853478,-995.924147
20262.075473,-1554.432478,-8068.244768,-6052.154434
20262.075807,-5181.441594,-11103.089130,-11031.775171
20262.076140,-7402.059420,-14211.954086,-10495.508323
20262.076474,-5403.503377,-15988.448347,-8963.317327
20262.076807,-5921.647536,-12213.398043,-2145.067394
20262.077141,-2368.659014,-10732.986159,5132.839837
20262.077474,2294.638420,-6661.853478,6128.763984
20262.077808,7179.997637,-5551.544565,11108.384721
20262.078141,9474.636058,-4663.297435,12717.185267
20262.078475,7772.162391,-5551.544565,7201.297681
20262.078808,6809.894666,-5921.647536,2834.553343
20262.079142,3404.947333,-8734.430116,-1378.971896
20262.079475,-592.164754,-10955.047942,-6205.373534
20262.079809,-4737.318029,-11547.212695,-9576.193725
20262.080142,-8364.327145,-15100.201217,-11108.384721
20262.080476,-9178.553681,-12509.480420,-7354.516781
20262.080809,-7105.977043,-10732.986159,306.438199
20262.081143,814.226536,-9474.636058,7124.688131
20262.081476,3923.091493,-7994.224174,8503.660028
20262.081810,7624.121203,-5329.482782,10955.165621
20262.082143,7031.956449,-4737.318029,9422.974625
20262.082477,4219.173869,-4811.338623,3600.648841
20262.082810,2960.823768,-6069.688724,-1915.238745
20262.083144,0.000000,-8660.409521,-4903.011187
20262.083477,-2442.679609,-13915.871710,-6818.249932
20262.083811,-8290.306550,-12805.562797,-6971.469032
20262.084144,-6587.832884,-15988.448347,-7737.564530
20262.084478,-5625.565159,-11917.315666,-2681.334243
20262.084811,-2368.659014,-9548.656652,3677.258390
20262.085145,2590.720797,-6957.935855,6435.202183
20262.085478,4959.379811,-5107.421000,8886.707777
20262.085812,5699.585753,-4885.359217,7890.783629
20262.086145,4885.359217,-4071.132681,5669.106685
20262.086479,2220.617826,-5033.400406,383.047749
20262.086812,2294.638420,-9474.636058,-1302.362347
20262.087146,-370.102971,-10658.965565,-6588.421283
20262.087480,-7105.977043,-12213.398043,-6281.983084
20262.087813,-5477.523971,-13323.706956,-6894.859482
20262.088147,-7105.977043,-12805.562797,-2911.162892
20262.088480,-1776.494261,-10732.986159,2451.505594
20262.088814,1332.370696,-7476.080014,6128.763984
20262.089147,5403.503377,-6513.812290,7584.345430
20262.089481,3552.988522,-5403.503377,4903.011187
20262.089814,7624.121203,-7105.977043,3294.210641
20262.090148,5107.421000,-4737.318029,-76.609550
20262.090481,1776.494261,-7772.162391,-536.266849
20262.090815,2294.638420,-11251.130318,-4060.306139
20262.091148,-3256.906145,-14137.933492,-4060.306139
20262.091482,-4367.215058,-11621.233289,-5132.839837
20262.091815,-3034.844362,-12657.521608,-2374.896044
20262.092149,-370.102971,-10658.965565,2374.896044
20262.092482,2368.659014,-9474.636058,7584.345430
20262.092816,3478.967927,-4737.318029,4136.915689
20262.093149,2664.741391,-5107.421000,6435.202183
20262.093483,2368.659014,-7179.997637,5898.935335
20262.093816,3478.967927,-8290.306550,-76.609550
20262.094150,888.247130,-7698.141797,-1915.238745
20262.094483,-518.144159,-9030.512492,-4826.401637
20262.094817,-2960.823768,-13249.686362,-4903.011187
20262.095150,-4145.153275,-11917.315666,-4826.401637
20262.095484,-4145.153275,-12805.562797,-459.657299
20262.095817,-1628.453072,-12139.377449,1762.019645
20262.096151,1406.391290,-9474.636058,5439.278036
20262.096484,2294.638420,-7031.956449,6511.811733
20262.096818,3034.844362,-4589.276840,4673.182538
20262.097151,2368.659014,-4811.338623,3983.696590
20262.097485,3478.967927,-7105.977043,2374.896044
20262.097818,2294.638420,-6809.894666,-3140.991542
20262.098152,0.000000,-7772.162391,-4136.915689
20262.098485,-1258.350101,-11843.295072,-4979.620737
20262.098819,-3256.906145,-13767.830521,-3753.867940
20262.099152,-2960.823768,-12731.542202,-2374.896044
20262.099486,-1702.473667,-13323.706956,1838.629195
20262.099819,0.000000,-9548.656652,4903.011187
20262.100153,0.000000,-6587.832884,7354.516781
20262.100486,4663.297435,-5921.647536,5439.278036
20262.100820,2664.741391,-2442.679609,2451.505594
20262.101154,592.164754,-5995.668130,1225.752797
20262.101487,-888.247130,-5107.421000,-3294.210641
20262.101821,-2220.617826,-9104.533087,-4826.401637
20262.102154,-3256.906145,-10807.006753,-5975.544884
20262.102488,-4811.338623,-11547.212695,-5592.497135
20262.102821,-3034.844362,-14211.954086,-1608.800546
20262.103155,-2368.659014,-11917.315666,4519.963438
20262.103488,1702.473667,-8586.388927,3983.696590
20262.103822,2960.823768,-7179.997637,8733.488677
20262.104155,8216.285956,-8734.430116,10955.165621
20262.104489,5921.647536,-4959.379811,7354.516781
20262.104822,3775.050304,-5921.647536,1149.143247
20262.105156,1850.514855,-7402.059420,-2757.943793
20262.105489,-1184.329507,-7994.224174,-6894.859482
20262.105823,-2368.659014,-11547.212695,-8503.660028
20262.106156,-2072.576638,-13915.871710,-4979.620737
20262.106490,-5329.482782,-11325.150913,-6741.640382
20262.106823,-4145.153275,-13693.809927,766.095498
20262.107157,3478.967927,-11547.212695,5439.278036
20262.107490,4663.297435,-7994.224174,8503.660028
20262.107824,7179.997637,-6217.729913,10265.679673
20262.108157,5329.482782,-5699.585753,7584.345430
20262.108491,2812.782580,-5699.585753,2374.896044
20262.108824,0.000000,-5403.503377,-2451.505594
20262.109158,-74.020594,-8882.471304,-7584.345430
20262.109491,-4737.318029,-9696.697840,-7507.735880
20262.109825,-4737.318029,-13841.851115,-6818.249932
20262.110158,-4219.173869,-13027.624579,-7507.735880
20262.110492,-4219.173869,-13619.789333,-3140.991542
20262.110825,-2516.700203,-12361.439231,3677.258390
20262.111159,2368.659014,-8882.471304,9269.755526
20262.111492,5107.421000,-6661.853478,11644.651570
20262.111826,5329.482782,-4811.338623,10112.460574
20262.112159,5255.462188,-4145.153275,4903.011187
20262.112493,2442.679609,-5921.647536,0.000000
20262.112826,-814.226536,-6735.874072,-4979.620737
20262.113160,-4441.235652,-10288.862594,-9039.926876
20262.113493,-8142.265362,-10732.986159,-11644.651570
20262.113827,-6735.874072,-15396.283594,-8656.879127
20262.114161,-5403.503377,-11917.315666,-6128.763984
20262.114494,-2960.823768,-12731.542202,4443.353888
20262.114828,4663.297435,-11843.295072,10955.165621
20262.115161,5551.544565,-5403.503377,12257.527968
20262.115495,7031.956449,-5625.565159,11184.994271
20262.115828,5329.482782,-4959.379811,7584.345430
20262.116162,2886.803174,-4959.379811,1608.800546
20262.116495,1924.535449,-6883.915261,-2145.067394
20262.116829,-74.020594,-8882.471304,-6818.249932
20262.117162,-3552.988522,-11029.068536,-9806.022374
20262.117496,-5773.606348,-14211.954086,-10189.070123
20262.117829,-5773.606348,-15100.201217,-8580.269578
20262.118163,-4145.153275,-14285.974681,-383.047749
20262.118496,1554.432478,-10881.027347,6128.763984
20262.118830,5847.626942,-9252.574275,11261.603821
20262.119163,9696.697840,-4589.276840,13330.061665
20262.119497,9400.615463,-5329.482782,13406.671215
20262.119830,9400.615463,-3552.988522,5132.839837
20262.120164,2960.823768,-4959.379811,1225.752797
20262.120497,-74.020594,-9474.636058,-4979.620737
20262.120831,-4219.173869,-8808.450710,-12563.966167
20262.121164,-5107.421000,-12731.542202,-12334.137518
20262.121498,-5403.503377,-13471.748144,-10342.289223
20262.121831,-4219.173869,-15396.283594,-5209.449386
20262.122165,592.164754,-13027.624579,2451.505594
20262.122498,4515.256246,-9622.677246,8810.098227
20262.122832,7698.141797,-4811.338623,9806.022374
20262.123165,9474.636058,-6291.750507,14019.547613
20262.123499,10584.944971,-4145.153275,7584.345430
20262.123832,4737.318029,-2442.679609,2451.505594
20262.124166,5551.544565,-8882.471304,-1915.238745
20262.124499,-888.247130,-9030.512492,-7967.393179
20262.124833,-5181.441594,-12657.521608,-11491.432470
20262.125166,-6735.874072,-12731.542202,-11721.261119
20262.125500,-8808.450710,-14656.077652,-8656.879127
20262.125833,-6957.935855,-13989.892304,-2068.457845
20262.126167,-1850.514855,-11769.274478,5515.887586
20262.126500,3330.926739,-7402.059420,10955.165621
20262.126834,7105.977043,-4959.379811,14709.033562
20262.127167,7402.059420,-5847.626942,13406.671215
20262.127501,4367.215058,-2442.679609,3983.696590
20262.127835,740.205942,-5107.421000,0.000000
20262.128168,-962.267725,-8142.265362,-4979.620737
20262.128502,-6513.812290,-9844.739029,-9806.022374
20262.128835,-9474.636058,-11917.315666,-11874.480219
20262.129169,-10066.800811,-14952.160028,-9422.974625
20262.129502,-7476.080014,-14211.954086,-4903.011187
20262.129836,-3627.009116,-13619.789333,2987.772442
20262.130169,-2072.576638,-9548.656652,9116.536426
20262.130503,4663.297435,-3108.864956,9806.022374
20262.130836,4145.153275,-4811.338623,13176.842566
20262.131170,4737.318029,-3923.091493,9422.974625
20262.131503,4663.297435,-4589.276840,3294.210641
20262.131837,1776.494261,-6661.853478,-76.609550
20262.132170,-962.267725,-7994.224174,-6052.154434
20262.132504,-6661.853478,-11769.274478,-10801.946522
20262.132837,-9104.533087,-13693.809927,-11951.089769
20262.133171,-8142.265362,-16506.592507,-7431.126331
20262.133504,-7105.977043,-12509.480420,-4290.134789
20262.133838,-1184.329507,-12731.542202,5439.278036
20262.134171,5847.626942,-7254.018232,8963.317327
20262.134505,7698.141797,-4219.173869,12257.527968
20262.134838,9992.780217,-4737.318029,10342.289223
20262.135172,8068.244768,-6069.688724,5745.716235
20262.135505,6217.729913,-4663.297435,0.000000
20262.135838,3997.112087,-7846.182985,-3600.648841
20262.136171,814.226536,-11843.295072,-8656.879127
20262.136505,-5921.647536,-12805.562797,-9269.755526
20262.136838,-7698.141797,-16062.468941,-7660.954980
20262.137171,-2442.679609,-13619.789333,-4366.744339
20262.137504,-2368.659014,-12213.398043,1838.629195
20262.137838,1332.370696,-6587.832884,6128.763984
20262.138171,4737.318029,-5403.503377,10418.898773
20262.138504,10214.842000,-4441.235652,10801.946522
20262.138837,7846.182985,-4219.173869,7967.393179
20262.139171,5477.523971,-3627.009116,1532.190996
20262.139504,5329.482782,-7179.997637,2374.896044
20262.139837,-74.020594,-9622.677246,-7354.516781
20262.140170,-3552.988522,-10732.986159,-12257.527968
20262.140504,-7105.977043,-14582.057057,-9116.536426
20262.140837,-5995.668130,-14804.118840,-8580.269578
20262.141170,-3552.988522,-12287.418637,536.266849
20262.141504,296.082377,-10214.842000,4979.620737
20262.141837,2590.720797,-7179.997637,7890.783629
20262.142170,5329.482782,-4811.338623,9422.974625
20262.142503,8068.244768,-3923.091493,9422.974625
20262.142837,5477.523971,-5329.482782,5745.716235
20262.143170,4293.194464,-5625.565159,995.924147
20262.143503,3478.967927,-9474.636058,-1915.238745
20262.143836,-2738.761985,-11251.130318,-7737.564530
20262.144170,-8290.306550,-11917.315666,-8580.269578
20262.144503,-7179.997637,-18283.086767,-4979.620737
20262.144836,-6883.915261,-13101.645173,-3370.820191
20262.145169,-3108.864956,-10510.924376,3064.381992
20262.145503,518.144159,-7105.977043,6052.154434
20262.145836,2664.741391,-5699.585753,9039.926876
20262.146169,3627.009116,-4811.338623,8810.098227
20262.146502,4071.132681,-2960.823768,4366.744339
20262.146836,2368.659014,-4737.318029,-76.609550
20262.147169,0.000000,-8364.327145,-383.047749
20262.147502,-2442.679609,-10658.965565,-5592.497135
20262.147835,-7476.080014,-12139.377449,-9422.974625
20262.148169,-8660.409521,-13915.871710,-8656.879127
20262.148502,-8808.450710,-13841.851115,-3983.696590
20262.148835,-4589.276840,-10807.006753,1685.410096
20262.149169,-74.020594,-8068.244768,6511.811733
20262.149502,2368.659014,-4811.338623,7507.735880
20262.149835,6735.874072,-4737.318029,7890.783629
20262.150168,4737.318029,-5699.585753,9116.536426
20262.150502,6439.791695,-4737.318029,536.266849
20262.150835,2368.659014,-6587.832884,-3677.258390
20262.151168,0.000000,-11029.068536,-6128.763984
20262.151501,-2812.782580,-13767.830521,-7354.516781
20262.151835,-4737.318029,-13767.830521,-7967.393179
20262.152168,-3330.926739,-14730.098246,-4519.963438
20262.152501,-74.020594,-13619.789333,2987.772442
20262.152834,2294.638420,-7772.162391,4903.011187
20262.153168,7031.956449,-7105.977043,9729.412825
20262.153501,8808.450710,-5921.647536,7277.907231
20262.153834,4737.318029,-4515.256246,6435.202183
20262.154167,5921.647536,-7105.977043,3524.039291
20262.154501,4145.153275,-6661.853478,-1072.533697
20262.154834,740.205942,-8734.430116,-4673.182538
20262.155167,-1850.514855,-11917.315666,-6741.640382
20262.155500,-3330.926739,-14211.954086,-6511.811733
20262.155834,-5921.647536,-13101.645173,-2145.067394
20262.156167,-666.185348,-11843.295072,-1225.752797
20262.156500,0.000000,-7772.162391,2451.505594
20262.156834,5329.482782,-9474.636058,9729.412825
20262.157167,7031.956449,-5625.565159,9193.145976
20262.157500,4737.318029,-6143.709319,6818.249932
20262.157833,3478.967927,-5107.421000,1455.581446
20262.158167,888.247130,-7772.162391,-1302.362347
20262.158500,-666.185348,-8438.347739,-5132.839837
20262.158833,-3552.988522,-10732.986159,-5592.497135
20262.159166,-5107.421000,-13693.809927,-6511.811733
20262.159500,-3923.091493,-13027.624579,-3524.039291
20262.159833,-2072.576638,-12509.480420,2911.162892
20262.160166,2294.638420,-10658.965565,6052.154434
20262.160499,1776.494261,-7179.997637,8580.269578
20262.160833,0.000000,-6587.832884,8273.831378
20262.161166,2294.638420,-4885.359217,2068.457845
20262.161499,0.000000,-7550.100608,1915.238745
20262.161832,2294.638420,-6809.894666,-1915.238745
20262.162166,-740.205942,-9252.574275,-2528.115143
20262.162499,-1036.288319,-8364.327145,-4673.182538
20262.162832,-1702.473667,-11843.295072,-4979.620737
20262.163166,-4737.318029,-12805.562797,-5362.668486
20262.163499,-4145.153275,-12805.562797,459.657299
20262.163832,-74.020594,-11251.130318,2987.772442
20262.164165,4663.297435,-8882.471304,6665.030833
20262.164499,3552.988522,-5551.544565,9346.365076
20262.164832,7031.956449,-5329.482782,5669.106685
20262.165165,4737.318029,-5773.606348,3447.429741
20262.165498,1036.288319,-6587.832884,-1838.629195
20262.165832,-518.144159,-6661.853478,-6588.421283
20262.166165,-3256.906145,-9548.656652,-8580.269578
20262.166498,-4737.318029,-11917.315666,-4366.744339
20262.166831,-4219.173869,-11029.068536,-7354.516781
20262.167165,-2072.576638,-13693.809927,0.000000
20262.167498,3627.009116,-11843.295072,5745.716235
20262.167831,5033.400406,-8364.327145,9806.022374
20262.168164,7624.121203,-6883.915261,10418.898773
20262.168498,6883.915261,-5847.626942,7507.735880
20262.168831,5033.400406,-6439.791695,3600.648841
20262.169164,5847.626942,-5921.647536,-689.485948
20262.169497,2072.576638,-10362.883188,-3753.867940
20262.169831,518.144159,-7179.997637,-9806.022374
20262.170164,-4737.318029,-13989.892304,-7507.735880
20262.170497,-2072.576638,-13915.871710,-5286.058936
20262.170831,-2368.659014,-13841.851115,-1302.362347
20262.171164,-1628.453072,-13101.645173,2604.724693
20262.171497,3034.844362,-8808.450710,8427.050478
20262.171830,4367.215058,-7402.059420,11108.384721
20262.172164,5847.626942,-3404.947333,9346.365076
20262.172497,5847.626942,-5921.647536,5745.716235
20262.172830,592.164754,-4811.338623,0.000000
20262.173163,-2960.823768,-6291.750507,-3524.039291
20262.173497,-4811.338623,-9326.594869,-8963.317327
20262.173830,-6809.894666,-9992.780217,-9652.803275
20262.174163,-7550.100608,-13175.665768,-8963.317327
20262.174496,-5255.462188,-14656.077652,-3753.867940
20262.174830,-4293.194464,-13323.706956,2068.457845
20262.175163,-2146.597232,-11547.212695,5669.106685
20262.175496,2886.803174,-7994.224174,10035.851024
20262.175829,4071.132681,-6217.729913,11184.994271
20262.176163,4293.194464,-3108.864956,8350.440928
20262.176496,1628.453072,-5033.400406,3983.696590
20262.176829,-1258.350101,-5773.606348,-1915.238745
20262.177162,-1184.329507,-8734.430116,-2834.553343
20262.177496,-5699.585753,-9844.739029,-11031.775171
20262.177829,-7698.141797,-13249.686362,-9806.022374
20262.178162,-8882.471304,-14878.139434,-8273.831378
20262.178496,-6661.853478,-13693.809927,-3370.820191
20262.178829,-1110.308913,-10732.986159,4366.744339
20262.179162,2960.823768,-9696.697840,10648.727422
20262.179495,8364.327145,-5699.585753,12640.575717
20262.179829,5921.647536,-3034.844362,9806.022374
20262.180162,8808.450710,-5329.482782,6052.154434
20262.180495,4663.297435,-4737.318029,-1915.238745
20262.180828,0.000000,-6587.832884,-3907.087040
20262.181162,-74.020594,-10658.965565,-7431.126331
20262.181495,-3849.070898,-12361.439231,-10112.460574
20262.181828,-5551.544565,-13841.851115,-9576.193725
20262.182161,-4737.318029,-14730.098246,-5975.544884
20262.182495,-1702.473667,-13841.851115,1838.629195
20262.182828,3997.112087,-10288.862594,9499.584175
20262.183161,8808.450710,-7698.141797,10801.946522
20262.183494,8734.430116,-4737.318029,11568.042020
20262.183828,6513.812290,-3627.009116,9806.022374
20262.184161,4959.379811,-3552.988522,3217.601092
20262.184494,5181.441594,-6513.812290,-2068.457845
20262.184827,-592.164754,-9548.656652,-7124.688131
20262.185161,-3849.070898,-11991.336260,-10725.336972
20262.185494,-6069.688724,-13545.768739,-11568.042020
20262.185827,-5403.503377,-16580.613101,-8044.002729
20262.186161,-2442.679609,-13249.686362,-4903.011187
20262.186494,0.000000,-12583.501014,7277.907231
20262.186827,8216.285956,-10658.965565,14632.424012
20262.187160,8512.368333,-3552.988522,12027.699319
20262.187494,9844.739029,-5181.441594,12640.575717
20262.187827,6513.812290,-4811.338623,7814.174080
20262.188160,3627.009116,-4811.338623,153.219100
20262.188493,666.185348,-7105.977043,-5515.887586
20262.188827,-3923.091493,-11843.295072,-8963.317327
20262.189160,-8808.450710,-11991.336260,-13023.623466
20262.189493,-8956.491898,-15470.304188,-10572.117872
20262.189826,-8956.491898,-15544.324782,-5439.278036
20262.190160,-6513.812290,-11917.315666,1225.752797
20262.190493,0.000000,-11103.089130,9729.412825
20262.190826,4663.297435,-5625.565159,11414.822920
20262.191159,4959.379811,-1258.350101,11031.775171
20262.191493,4885.359217,-4219.173869,9193.145976
20262.191826,4811.338623,-2664.741391,3600.648841
20262.192159,1036.288319,-6661.853478,-383.047749
20262.192493,-2220.617826,-9326.594869,-7431.126331
20262.192826,-7698.141797,-11547.212695,-11721.261119
20262.193159,-9918.759623,-14952.160028,-11644.651570
20262.193492,-9992.780217,-16654.633695,-6205.373534
20262.193826,-7772.162391,-11917.315666,-4903.011187
20262.194159,-3256.906145,-10732.986159,2451.505594
20262.194492,3849.070898,-7476.080014,13559.890315
20262.194825,7846.182985,-3627.009116,14709.033562
20262.195159,7772.162391,-3552.988522,12334.137518
20262.195492,6143.709319,-3849.070898,6358.592633
20262.195825,4145.153275,-4219.173869,383.047749
20262.196158,1554.432478,-7698.141797,-4366.744339
20262.196492,-3849.070898,-11547.212695,-9269.755526
20262.196825,-7179.997637,-11917.315666,-15321.909960
20262.197158,-8290.306550,-17246.798449,-9806.022374
20262.197491,-5921.647536,-14878.139434,-4136.915689
20262.197825,-74.020594,-13915.871710,2374.896044
20262.198158,2664.741391,-8956.491898,6588.421283
20262.198491,8216.285956,-6957.935855,11568.042020
20262.198824,10658.965565,-3701.029710,13636.499864
20262.199158,7698.141797,-2442.679609,9193.145976
20262.199491,8808.450710,-6513.812290,3600.648841
20262.199824,5329.482782,-4811.338623,-2451.505594
20262.200158,2368.659014,-10066.800811,-2834.553343
20262.200491,-1850.514855,-11029.068536,-11338.213370
20262.200824,-7698.141797,-11917.315666,-12257.527968
20262.201157,-8142.265362,-16802.674883,-8120.612279
20262.201491,-3775.050304,-13249.686362,-2604.724693
20262.201824,0.000000,-11917.315666,4060.306139
20262.202157,3849.070898,-9400.615463,10112.460574
20262.202490,8216.285956,-3701.029710,8886.707777
20262.202824,8586.388927,-4219.173869,12180.918418
20262.203157,9400.615463,-7105.977043,7277.907231
20262.203490,3627.009116,-4219.173869,0.000000
20262.203823,0.000000,-6735.874072,-3370.820191
20262.204157,-5033.400406,-11695.253884,-7814.174080
20262.204490,-6661.853478,-12509.480420,-10265.679673
20262.204823,-7698.141797,-14878.139434,-7507.735880
20262.205156,-5477.523971,-14508.036463,-1685.410096
20262.205490,-2442.679609,-9548.656652,2451.505594
20262.205823,1554.432478,-7402.059420,6971.469032
20262.206156,3701.029710,-6143.709319,9269.755526
20262.206489,3775.050304,-4959.379811,8580.269578
20262.206823,2960.823768,-4811.338623,4903.011187
20262.207156,3478.967927,-4737.318029,-1302.362347
20262.207489,222.061783,-5995.668130,-3370.820191
20262.207823,1110.308913,-11251.130318,-5286.058936
20262.208156,-3923.091493,-11843.295072,-8044.002729
20262.208489,-7105.977043,-13397.727550,-8580.269578
20262.208822,-5995.668130,-14952.160028,-5286.058936
20262.209156,-3404.947333,-13397.727550,842.705048
20262.209489,1184.329507,-8808.450710,5898.935335
20262.209822,5551.544565,-8290.306550,10648.727422
20262.210155,7624.121203,-4145.153275,7737.564530
20262.210489,5625.565159,-4811.338623,6128.763984
20262.210822,5921.647536,-5255.462188,4826.401637
20262.211155,3923.091493,-4293.194464,-1532.190996
20262.211488,888.247130,-9400.615463,-2834.553343
20262.211822,-2146.597232,-10881.027347,-7201.297681
20262.212155,-6069.688724,-13619.789333,-8656.879127
20262.212488,-5773.606348,-14656.077652,-6128.763984
20262.212821,-3330.926739,-14211.954086,-1915.238745
20262.213155,-74.020594,-8956.491898,1225.752797
20262.213488,2664.741391,-9474.636058,8503.660028
20262.213821,7031.956449,-7698.141797,9729.412825
20262.214154,5551.544565,-3775.050304,5209.449386
20262.214488,5847.626942,-4737.318029,3600.648841
20262.214821,4885.359217,-5255.462188,1455.581446
20262.215154,2886.803174,-6365.771101,-2145.067394
20262.215488,-740.205942,-11177.109724,-5132.839837
20262.215821,-4441.235652,-10732.986159,-7354.516781
20262.216154,-5921.647536,-14285.974681,-6128.763984
20262.216487,-2590.720797,-16580.613101,-1608.800546
20262.216821,-666.185348,-11177.109724,612.876398
20262.217154,0.000000,-7772.162391,6128.763984
20262.217487,6439.791695,-7105.977043,6511.811733
20262.217820,3849.070898,-6291.750507,7048.078582
20262.218154,4663.297435,-5329.482782,3983.696590
20262.218487,3775.050304,-5921.647536,2374.896044
20262.218820,1184.329507,-4959.379811,-1838.629195
20262.219153,-1184.329507,-7846.182985,-3983.696590
20262.219487,-4071.132681,-13027.624579,-5439.278036
20262.219820,-4441.235652,-12287.418637,-5822.325785
20262.220153,-3627.009116,-16580.613101,-76.609550
20262.220486,-74.020594,-13619.789333,4213.525239
20262.220820,-1258.350101,-9548.656652,3983.696590
20262.221153,0.000000,-7328.038826,6128.763984
20262.221486,1332.370696,-6069.688724,6052.154434
20262.221820,1480.411884,-5329.482782,3524.039291
20262.222153,592.164754,-5107.421000,1455.581446
20262.222486,-740.205942,-6365.771101,-2145.067394
20262.222819,-1776.494261,-8734.430116,-4673.182538
20262.223153,-4293.194464,-11473.192101,-5669.106685
20262.223486,-6513.812290,-13693.809927,-4596.572988
20262.223819,-7105.977043,-11917.315666,-2451.505594
20262.224152,-74.020594,-13027.624579,3294.210641
20262.224486,2886.803174,-9474.636058,6052.154434
20262.224819,2886.803174,-7105.977043,7277.907231
20262.225152,4663.297435,-5921.647536,6358.592633
20262.225485,3256.906145,-6809.894666,4213.525239
20262.225819,2072.576638,-5699.585753,0.000000
20262.226152,592.164754,-6365.771101,-3370.820191
20262.226485,2294.638420,-9474.636058,-3753.867940
20262.226818,-2368.659014,-11621.233289,-6128.763984
20262.227152,-2368.659014,-14211.954086,-4979.620737
20262.227485,-2442.679609,-13989.892304,-3753.867940
20262.227818,-2368.659014,-11029.068536,1225.752797
20262.228151,2590.720797,-10658.965565,5745.716235
20262.228485,4737.318029,-7772.162391,8503.660028
20262.228818,5403.503377,-6365.771101,7890.783629
20262.229151,4885.359217,-4811.338623,5362.668486
20262.229485,4885.359217,-3552.988522,76.609550
20262.229818,2516.700203,-8290.306550,-383.047749
20262.230151,814.226536,-9474.636058,-7431.126331
20262.230484,-4737.318029,-10732.986159,-6435.202183
20262.230818,-1850.514855,-16284.530724,-5592.497135
20262.231151,-4737.318029,-12509.480420,-4903.011187
20262.231484,-518.144159,-13619.789333,1149.143247
20262.231817,2368.659014,-10881.027347,7048.078582
20262.232151,7105.977043,-7328.038826,10265.679673
20262.232484,6513.812290,-5403.503377,10418.898773
20262.232817,9400.615463,-8290.306550,7277.907231
20262.233150,4071.132681,-4811.338623,1838.629195
20262.233484,0.000000,-6587.832884,-76.609550
20262.233817,-74.020594,-8290.306550,-6511.811733
20262.234150,-5329.482782,-8660.409521,-9499.584175
20262.234483,-5255.462188,-13471.748144,-9346.365076
20262.234817,-5699.585753,-14211.954086,-6052.154434
20262.235150,-4441.235652,-14285.974681,-1072.533697
20262.235483,-2072.576638,-10881.027347,5515.887586
20262.235816,2886.803174,-9104.533087,10035.851024
20262.236149,4589.276840,-4515.256246,11031.775171
20262.236482,5107.421000,-4589.276840,9499.584175
20262.236815,4663.297435,-5329.482782,4826.401637
20262.237148,0.000000,-4219.173869,0.000000
20262.237482,-2072.576638,-7550.100608,-2834.553343
20262.237815,-3034.844362,-10066.800811,-10648.727422
20262.238148,-6587.832884,-13619.789333,-10189.070123
20262.238481,-8290.306550,-15840.407159,-6511.811733
20262.238814,-6661.853478,-15544.324782,-2528.115143
20262.239147,-3034.844362,-12435.459826,2068.457845
20262.239480,444.123565,-9918.759623,8886.707777
20262.239813,4737.318029,-4885.359217,10878.556072
20262.240147,5847.626942,-1554.432478,11031.775171
20262.240480,5625.565159,-5329.482782,9729.412825
20262.240813,1110.308913,-4737.318029,-383.047749
20262.241146,-2368.659014,-4811.338623,-3983.696590
20262.241479,-3627.009116,-9474.636058,-8656.879127
20262.241812,-5921.647536,-11547.212695,-11031.775171
20262.242145,-7920.203579,-15470.304188,-10495.508323
20262.242478,-7698.141797,-15914.427753,-7507.735880
20262.242811,-4441.235652,-14285.974681,1225.752797
20262.243145,1998.556043,-9548.656652,8580.269578
20262.243478,9400.615463,-9474.636058,12180.918418
20262.243811,8438.347739,-3330.926739,12257.527968
20262.244144,7105.977043,-3627.009116,9806.022374
20262.244477,5329.482782,-3627.009116,3064.381992
20262.244810,4441.235652,-6513.812290,-766.095498
20262.245143,370.102971,-7254.018232,-6128.763984
20262.245476,-3256.906145,-10732.986159,-10265.679673
20262.245809,-5995.668130,-14063.912898,-12640.575717
20262.246143,-8882.471304,-15026.180623,-9652.803275
20262.246476,-5403.503377,-17764.942608,-4979.620737
20262.246809,-592.164754,-10288.862594,3830.477490
20262.247142,6143.709319,-10362.883188,13406.671215
20262.247475,10288.862594,-5773.606348,14402.595362
20262.247808,9400.615463,-3256.906145,12104.308868
20262.248141,7179.997637,-3923.091493,7354.516781
20262.248474,5329.482782,-4219.173869,1532.190996
20262.248807,1184.329507,-6513.812290,-5286.058936
20262.249141,-666.185348,-12435.459826,-9882.631924
20262.249474,-9474.636058,-11917.315666,-12870.404366
20262.249807,-9178.553681,-14285.974681,-9806.022374
20262.250140,-4811.338623,-16580.613101,-6205.373534
20262.250473,-74.020594,-13619.789333,2911.162892
20262.250806,2368.659014,-10214.842000,9193.145976
20262.251139,6143.709319,-6883.915261,12793.794817
20262.251472,7031.956449,-4293.194464,11951.089769
20262.251805,4663.297435,-3108.864956,7201.297681
20262.252139,6291.750507,-4737.318029,3600.648841
20262.252472,2664.741391,-4811.338623,0.000000
20262.252805,1184.329507,-7550.100608,-5515.887586
20262.253138,-3627.009116,-11103.089130,-9959.241474
20262.253471,-5995.668130,-13027.624579,-12334.137518
20262.253804,-8290.306550,-16580.613101,-7354.516781
20262.254137,-3627.009116,-15988.448347,-5286.058936
20262.254470,-2960.823768,-11917.315666,2604.724693
20262.254803,4737.318029,-10436.903782,10418.898773
20262.255137,9400.615463,-3849.070898,11338.213370
20262.255470,9992.780217,-3849.070898,13559.890315
20262.255803,8808.450710,-3478.967927,8427.050478
20262.256136,6883.915261,-3330.926739,3140.991542
20262.256469,1184.329507,-4811.338623,-3677.258390
20262.256802,-370.102971,-11251.130318,-8656.879127
20262.257135,-7031.956449,-10066.800811,-14785.643111
20262.257468,-9474.636058,-15174.221811,-10418.898773
20262.257801,-4811.338623,-17764.942608,-6205.373534
20262.258135,-4145.153275,-13101.645173,0.000000
20262.258468,-74.020594,-12139.377449,5745.716235
20262.258801,4441.235652,-7105.977043,10189.070123
20262.259134,7920.203579,-4811.338623,12640.575717
20262.259467,8290.306550,-1998.556043,10112.460574
20262.259800,9400.615463,-7105.977043,4826.401637
20262.260133,4219.173869,-1554.432478,0.000000
20262.260466,0.000000,-10732.986159,-2757.943793
20262.260800,-3627.009116,-10955.047942,-11414.822920
20262.261133,-9474.636058,-15766.386565,-11568.042020
20262.261466,-9474.636058,-16062.468941,-9806.022374
20262.261799,-5107.421000,-14508.036463,-2757.943793
20262.262132,-2812.782580,-12657.521608,4060.306139
20262.262465,3775.050304,-8290.306550,10955.165621
20262.262798,5255.462188,-4737.318029,10342.289223
20262.263131,6217.729913,-1258.350101,12257.527968
20262.263464,6365.771101,-4145.153275,7890.783629
20262.263798,4663.297435,-3256.906145,0.000000
20262.264131,0.000000,-6957.935855,-1915.238745
20262.264464,-3701.029710,-10140.821405,-7584.345430
20262.264797,-6735.874072,-13101.645173,-11108.384721
20262.265130,-10436.903782,-16210.510130,-10265.679673
20262.265463,-7772.162391,-17172.777854,-3753.867940
20262.265796,-6661.853478,-12361.439231,0.000000
20262.266129,-74.020594,-9770.718434,6052.154434
20262.266462,2590.720797,-6291.750507,10495.508323
20262.266796,4737.318029,-3034.844362,10418.898773
20262.267129,3849.070898,-1850.514855,9806.022374
20262.267462,4145.153275,-5329.482782,4826.401637
20262.267795,2886.803174,-7105.977043,-689.485948
20262.268128,-888.247130,-7179.997637,-4903.011187
20262.268461,-5329.482782,-11177.109724,-8656.879127
20262.268794,-7402.059420,-12657.521608,-10572.117872
20262.269127,-8364.327145,-16210.510130,-7814.174080
20262.269460,-5773.606348,-12805.562797,-1685.410096
20262.269794,0.000000,-10436.903782,4903.011187
20262.270127,3775.050304,-7031.956449,7354.516781
20262.270460,8660.409521,-6809.894666,9422.974625
20262.270793,6587.832884,-4219.173869,7354.516781
20262.271126,8808.450710,-1258.350101,4290.134789
20262.271459,6809.894666,-4959.379811,1532.190996
20262.271792,4885.359217,-7624.121203,-2451.505594
20262.272125,666.185348,-11547.212695,-6511.811733
20262.272458,-2960.823768,-13545.768739,-8350.440928
20262.272792,-2442.679609,-16284.530724,-7431.126331
20262.273125,-3552.988522,-13397.727550,-1685.410096
20262.273458,592.164754,-14211.954086,2374.896044
20262.273791,2812.782580,-6883.915261,4903.011187
20262.274124,5181.441594,-7698.141797,7354.516781
20262.274457,7624.121203,-5921.647536,7277.907231
20262.274790,6513.812290,-5107.421000,6052.154434
20262.275123,5181.441594,-4515.256246,2221.676944
20262.275456,3478.967927,-5403.503377,-2145.067394
20262.275790,-1628.453072,-11251.130318,-5745.716235
20262.276123,-2220.617826,-13693.809927,-5132.839837
20262.276456,-7698.141797,-12509.480420,-7967.393179
20262.276789,-6217.729913,-13397.727550,-4903.011187
20262.277122,-1998.556043,-14063.912898,1762.019645
20262.277455,-592.164754,-8586.388927,3677.258390
20262.277788,4663.297435,-5921.647536,7354.516781
20262.278121,4737.318029,-5847.626942,8733.488677
20262.278454,4811.338623,-4219.173869,4903.011187
20262.278788,1702.473667,-5699.585753,2145.067394
20262.279121,1702.473667,-5921.647536,-3140.991542
20262.279454,-4441.235652,-7772.162391,-3677.258390
20262.279787,-3627.009116,-13619.789333,-4060.306139
20262.280120,-3775.050304,-14211.954086,-5592.497135
20262.280453,-6069.688724,-13175.665768,-3140.991542
20262.280786,-2442.679609,-12435.459826,1762.019645
20262.281119,-1702.473667,-9548.656652,4979.620737
20262.281452,-814.226536,-6661.853478,5975.544884
20262.281786,2294.638420,-4737.318029,5745.716235
20262.282119,2294.638420,-5773.606348,3294.210641
20262.282452,1998.556043,-4515.256246,689.485948
20262.282785,-1184.329507,-6365.771101,-2221.676944
20262.283118,-2664.741391,-8882.471304,-4366.744339
20262.283451,-5625.565159,-10732.986159,-7354.516781
20262.283784,-4811.338623,-14211.954086,-5592.497135
20262.284117,-5773.606348,-11547.212695,-5286.058936
20262.284451,-4145.153275,-11917.315666,2451.505594
20262.284784,2738.761985,-10658.965565,6971.469032
20262.285117,3775.050304,-6883.915261,7354.516781
20262.285450,4589.276840,-5921.647536,8350.440928
20262.285783,4441.235652,-5921.647536,5745.716235
20262.286116,296.082377,-5403.503377,229.828649
20262.286449,1776.494261,-6809.894666,-2528.115143
20262.286782,-74.020594,-7994.224174,-7431.126331
20262.287115,-3552.988522,-9548.656652,-6741.640382
20262.287449,-4145.153275,-13101.645173,-4443.353888
20262.287782,-2812.782580,-13397.727550,-3907.087040
20262.288115,-2368.659014,-12509.480420,766.095498
20262.288448,2886.803174,-10955.047942,6052.154434
20262.288781,6883.915261,-8882.471304,9116.536426
20262.289114,6439.791695,-6513.812290,7737.564530
20262.289447,6439.791695,-5625.565159,4826.401637
20262.289780,6291.750507,-7105.977043,-76.609550
20262.290113,0.000000,-5995.668130,-1225.752797
20262.290447,2590.720797,-8290.306550,-4979.620737
20262.290780,-1258.350101,-7920.203579,-9193.145976
20262.291113,-1258.350101,-14804.118840,-5286.058936
20262.291446,-4145.153275,-12361.439231,-6052.154434
20262.291779,-1850.514855,-13693.809927,919.314598
20262.292112,1480.411884,-11695.253884,5975.544884
20262.292445,4737.318029,-7179.997637,8733.488677
20262.292778,7031.956449,-6883.915261,8120.612279
20262.293111,2368.659014,-3627.009116,7354.516781
20262.293445,4367.215058,-7105.977043,3600.648841
20262.293778,444.123565,-3627.009116,-3677.258390
20262.294111,-3552.988522,-7179.997637,-6741.640382
20262.294444,-3997.112087,-10362.883188,-8350.440928
20262.294777,-5921.647536,-12805.562797,-8580.269578
20262.295110,-4367.215058,-12657.521608,-4826.401637
20262.295443,-666.185348,-14804.118840,1608.800546
20262.295776,0.000000,-12213.398043,7890.783629
20262.296109,3478.967927,-8586.388927,9116.536426
20262.296443,3478.967927,-4811.338623,7354.516781
20262.296776,6883.915261,-7105.977043,8503.660028
20262.297109,888.247130,-5995.668130,2451.505594
20262.297442,0.000000,-5403.503377,-842.705048
20262.297775,-962.267725,-5625.565159,-4903.011187
20262.298108,-2590.720797,-8660.409521,-6511.811733
20262.298441,-3034.844362,-10658.965565,-7431.126331
20262.298774,-7105.977043,-13693.809927,-5669.106685
20262.299107,-4219.173869,-14063.912898,-4443.353888
20262.299441,-2590.720797,-13915.871710,1608.800546
20262.299774,3108.864956,-11843.295072,8197.221829
20262.300107,7031.956449,-8882.471304,11568.042020
20262.300440,5329.482782,-4811.338623,8580.269578
20262.300773,6513.812290,-3627.009116,9422.974625
20262.301106,4663.297435,-4441.235652,995.924147
20262.301439,1184.329507,-2442.679609,-3677.258390
20262.301772,-1036.288319,-8068.244768,-5898.935335
20262.302105,-3404.947333,-10214.842000,-10418.898773
20262.302439,-5551.544565,-13767.830521,-11031.775171
20262.302772,-5329.482782,-16210.510130,-6281.983084
20262.303105,-1850.514855,-14211.954086,-1302.362347
20262.303438,1406.391290,-10732.986159,4290.134789
20262.303771,2664.741391,-8364.327145,11031.775171
20262.304104,9178.553681,-6365.771101,13406.671215
20262.304437,8882.471304,-3330.926739,12257.527968
20262.304770,7550.100608,-1850.514855,4979.620737
20262.305104,4663.297435,-4737.318029,229.828649
20262.305437,592.164754,-7328.038826,-6205.373534
20262.305770,-1924.535449,-9770.718434,-10495.508323
20262.306103,-8290.306550,-13397.727550,-14096.157163
20262.306436,-7105.977043,-17468.860231,-9882.631924
20262.306769,-5995.668130,-16580.613101,-6205.373534
20262.307102,-1258.350101,-13101.645173,0.000000
20262.307435,3552.988522,-11547.212695,10955.165621
20262.307768,5033.400406,-6587.832884,13483.280765
20262.308102,8512.368333,-3330.926739,14019.547613
20262.308435,7031.956449,-3034.844362,9499.584175
20262.308768,6217.729913,-2960.823768,4673.182538
20262.309101,2516.700203,-5551.544565,-919.314598
20262.309434,-2442.679609,-11843.295072,-8656.879127
20262.309767,-9474.636058,-10140.821405,-12870.404366
20262.310100,-9326.594869,-17172.777854,-10495.508323
20262.310433,-7624.121203,-18357.107362,-7431.126331
20262.310766,-8734.430116,-15174.221811,-1225.752797
20262.311100,-1998.556043,-11473.192101,5669.106685
20262.311433,2516.700203,-7179.997637,11951.089769
20262.311766,6439.791695,-4145.153275,13559.890315
20262.312099,7698.141797,-2664.741391,12870.404366
20262.312432,4071.132681,-3256.906145,6205.373534
20262.312765,2368.659014,-4145.153275,612.876398
20262.313098,-1628.453072,-7179.997637,-4443.353888
20262.313431,-5403.503377,-9474.636058,-11108.384721
20262.313764,-9326.594869,-10732.986159,-13483.280765
20262.314098,-7772.162391,-17468.860231,-10495.508323
20262.314431,-8142.265362,-15988.448347,-6511.811733
20262.314764,-4737.318029,-12509.480420,1991.848295
20262.315097,2294.638420,-9474.636058,8503.660028
20262.315430,6143.709319,-5477.523971,12410.747068
20262.315763,8290.306550,-3182.885551,12257.527968
20262.316096,7920.203579,-4737.318029,8044.002729
20262.316429,6217.729913,-2442.679609,2604.724693
20262.316762,5255.462188,-5329.482782,-3677.258390
20262.317096,2368.659014,-10362.883188,-5592.497135
20262.317429,-5847.626942,-12065.356855,-13330.061665
20262.317762,-8734.430116,-14285.974681,-11644.651570
20262.318095,-6957.935855,-17246.798449,-8273.831378
20262.318428,-2072.576638,-13323.706956,-842.705048
20262.318761,1702.473667,-12287.418637,5975.544884
20262.319094,7328.038826,-6661.853478,11414.822920
20262.319427,11769.274478,-7105.977043,15551.738609
20262.319760,8808.450710,-1554.432478,8733.488677
20262.320094,9400.615463,-7105.977043,4826.401637
20262.320427,3849.070898,-3034.844362,0.000000
20262.320760,3478.967927,-9474.636058,-4136.915689
20262.321093,-2664.741391,-12731.542202,-9116.536426
20262.321426,-5699.585753,-13027.624579,-12334.137518
20262.321759,-8068.244768,-16580.613101,-9729.412825
20262.322092,-5625.565159,-14878.139434,-4596.572988
20262.322425,-2146.597232,-12731.542202,842.705048
20262.322758,0.000000,-8364.327145,9193.145976
20262.323092,7624.121203,-3997.112087,11108.384721
20262.323425,9104.533087,-814.226536,11031.775171
20262.323758,7402.059420,-3478.967927,9116.536426
20262.324091,5847.626942,-4737.318029,1762.019645
20262.324424,1702.473667,-7031.956449,-3907.087040
20262.324757,-3404.947333,-11177.109724,-8197.221829
20262.325090,-6735.874072,-13471.748144,-11874.480219
20262.325423,-9178.553681,-15840.407159,-10112.460574
20262.325756,-7179.997637,-18949.272115,-4979.620737
20262.326090,-5403.503377,-11917.315666,0.000000
20262.326423,-1036.288319,-11251.130318,7354.516781
20262.326756,4071.132681,-7105.977043,9729.412825
20262.327089,5551.544565,-3552.988522,11568.042020
20262.327422,6143.709319,-2368.659014,9576.193725
20262.327755,2664.741391,-1998.556043,4903.011187
20262.328088,1850.514855,-5625.565159,-612.876398
20262.328421,-148.041188,-8142.265362,-4979.620737
20262.328755,-4811.338623,-13027.624579,-8197.221829
20262.329088,-8068.244768,-14137.933492,-12027.699319
20262.329421,-9992.780217,-16802.674883,-9422.974625
20262.329754,-6587.832884,-15396.283594,-3447.429741
20262.330087,-2960.823768,-10732.986159,2451.505594
20262.330420,4663.297435,-7994.224174,8503.660028
20262.330753,4145.153275,-1258.350101,7354.516781
20262.331086,5329.482782,-4367.215058,11491.432470
20262.331419,6143.709319,-3997.112087,5439.278036
20262.331753,2738.761985,-1258.350101,0.000000
20262.332086,1554.432478,-7698.141797,-3753.867940
20262.332419,-1480.411884,-9548.656652,-7354.516781
20262.332752,-5329.482782,-13027.624579,-9346.365076
20262.333085,-3627.009116,-17172.777854,-6818.249932
20262.333418,-3552.988522,-17172.777854,-1302.362347
20262.333751,-2664.741391,-10732.986159,1532.190996
20262.334084,3701.029710,-10658.965565,7124.688131
20262.334417,7031.956449,-8142.265362,9729.412825
20262.334751,5921.647536,-4219.173869,8886.707777
20262.335084,6291.750507,-4811.338623,6588.421283
20262.335417,6735.874072,-3701.029710,2987.772442
20262.335750,3849.070898,-5033.400406,-1225.752797
20262.336083,1110.308913,-9474.636058,-4060.306139
20262.336416,-1850.514855,-14211.954086,-7431.126331
20262.336749,-8290.306550,-12509.480420,-8273.831378
20262.337082,-4071.132681,-16284.530724,-3753.867940
20262.337415,-2146.597232,-14211.954086,842.705048
20262.337749,1110.308913,-11029.068536,6511.811733
20262.338082,3256.906145,-7624.121203,7354.516781
20262.338415,4663.297435,-5847.626942,6358.592633
20262.338748,4589.276840,-4515.256246,5669.106685
20262.339081,1776.494261,-3923.091493,1838.629195
20262.339415,3478.967927,-4589.276840,-2145.067394
20262.339748,-1776.494261,-6587.832884,-3370.820191
20262.340081,-962.267725,-13619.789333,-4979.620737
20262.340414,-4811.338623,-13027.624579,-6358.592633
20262.340748,-4737.318029,-16210.510130,-1302.362347
20262.341081,-370.102971,-16580.613101,2374.896044
20262.341414,-1850.514855,-9548.656652,3064.381992
20262.341747,1406.391290,-6735.874072,4290.134789
20262.342081,296.082377,-3627.009116,6128.763984
20262.342414,3552.988522,-7105.977043,8503.660028
20262.342747,3478.967927,-5329.482782,1455.581446
20262.343080,592.164754,-2442.679609,-2451.505594
20262.343414,0.000000,-8364.327145,-1608.800546
20262.343747,-74.020594,-11251.130318,-4979.620737
20262.344080,-4589.276840,-12805.562797,-6128.763984
20262.344413,-4811.338623,-13545.768739,-5669.106685
20262.344747,-2146.597232,-14211.954086,-536.266849
20262.345080,0.000000,-10732.986159,3677.258390
20262.345413,3775.050304,-9474.636058,7277.907231
20262.345746,4441.235652,-5625.565159,7967.393179
20262.346080,5625.565159,-4145.153275,6588.421283
20262.346413,3701.029710,-4811.338623,3217.601092
20262.346746,2590.720797,-3256.906145,-2298.286494
20262.347079,814.226536,-8142.265362,-1302.362347
20262.347413,-74.020594,-8142.265362,-8120.612279
20262.347746,-3552.988522,-12509.480420,-5975.544884
20262.348079,-2960.823768,-15618.345376,-4290.134789
20262.348412,-1554.432478,-13471.748144,-2145.067394
20262.348746,1480.411884,-13101.645173,3600.648841
20262.349079,4589.276840,-9400.615463,8427.050478
20262.349412,6143.709319,-7402.059420,8350.440928
20262.349745,5329.482782,-3034.844362,7354.516781
20262.350079,7031.956449,-7105.977043,2374.896044
20262.350412,1480.411884,-3034.844362,-3064.381992
20262.350745,0.000000,-7476.080014,-3294.210641
20262.351078,518.144159,-10658.965565,-5592.497135
20262.351412,-3997.112087,-11621.233289,-7660.954980
20262.351745,-4071.132681,-14211.954086,-6818.249932
20262.352078,-2516.700203,-14804.118840,-1762.019645
20262.352411,-296.082377,-13323.706956,4213.525239
20262.352745,5625.565159,-9992.780217,10265.679673
20262.353078,8216.285956,-9474.636058,9729.412825
20262.353411,3849.070898,-4811.338623,7660.954980
20262.353744,0.000000,-4811.338623,5669.106685
20262.354078,2294.638420,-5921.647536,-1302.362347
20262.354411,-2960.823768,-6291.750507,-4366.744339
20262.354744,-3034.844362,-7772.162391,-7507.735880
20262.355077,-5773.606348,-11991.336260,-7890.783629
20262.355411,-6587.832884,-13471.748144,-6741.640382
20262.355744,-5995.668130,-15100.201217,-2528.115143
20262.356077,-3701.029710,-10732.986159,306.438199
20262.356410,0.000000,-10732.986159,9959.241474
20262.356744,4663.297435,-7105.977043,11568.042020
20262.357077,4663.297435,-2442.679609,7354.516781
20262.357410,1184.329507,-6069.688724,7277.907231
20262.357743,296.082377,-4293.194464,459.657299
20262.358077,-1850.514855,-5699.585753,-3983.696590
20262.358410,-3997.112087,-7846.182985,-7354.516781
20262.358743,-5403.503377,-10955.047942,-9269.755526
20262.359076,-8068.244768,-13915.871710,-9116.536426
20262.359410,-5995.668130,-14211.954086,-5745.716235
20262.359743,-3552.988522,-14063.912898,842.705048
20262.360076,592.164754,-10140.821405,7354.516781
20262.360409,4737.318029,-7772.162391,14249.376263
20262.360743,9400.615463,-4737.318029,10955.165621
20262.361076,5181.441594,-3034.844362,7277.907231
20262.361409,3552.988522,-4219.173869,4749.792088
20262.361742,1110.308913,-4811.338623,-2681.334243
20262.362076,-814.226536,-7179.997637,-6205.373534
20262.362409,-2960.823768,-10658.965565,-9346.365076
20262.362742,-6069.688724,-14137.933492,-11874.480219
20262.363075,-4515.256246,-16580.613101,-6511.811733
20262.363409,-3923.091493,-13841.851115,-1915.238745
20262.363742,2294.638420,-10658.965565,2911.162892
20262.364075,4737.318029,-8660.409521,11414.822920
20262.364408,9474.636058,-5551.544565,15781.567259
20262.364742,9548.656652,-4737.318029,12257.527968
20262.365075,9326.594869,-4663.297435,7584.345430
20262.365408,3775.050304,-4811.338623,0.000000
20262.365741,1554.432478,-7254.018232,-5286.058936
20262.366075,-666.185348,-9474.636058,-9882.631924
20262.366408,-5921.647536,-13101.645173,-11031.775171
20262.366741,-6957.935855,-12213.398043,-13406.671215
20262.367074,-7105.977043,-16950.716072,-6128.763984
20262.367407,-74.020594,-14804.118840,2987.772442
20262.367741,4071.132681,-9474.636058,8810.098227
20262.368074,8734.430116,-7105.977043,13253.452115
20262.368407,9696.697840,-3108.864956,13942.938064
20262.368740,8734.430116,-3034.844362,10648.727422
20262.369074,6439.791695,-3552.988522,4903.011187
20262.369407,4071.132681,-7994.224174,-383.047749
20262.369740,-3552.988522,-8364.327145,-7048.078582
20262.370073,-4811.338623,-14211.954086,-11108.384721
20262.370407,-9104.533087,-13693.809927,-14709.033562
20262.370740,-10658.965565,-15470.304188,-9806.022374
20262.371073,-5995.668130,-15248.242405,-3753.867940
20262.371406,-1110.308913,-12287.418637,6052.154434
20262.371740,3256.906145,-7254.018232,12257.527968
20262.372073,7031.956449,-4367.215058,14325.985813
20262.372406,6883.915261,-2072.576638,9729.412825
20262.372739,4737.318029,-4515.256246,9116.536426
20262.373073,3330.926739,-4441.235652,1762.019645
20262.373406,-74.020594,-6513.812290,-5898.935335
20262.373739,-5921.647536,-9548.656652,-9806.022374
20262.374072,-8660.409521,-13471.748144,-14019.547613
20262.374406,-10658.965565,-16876.695478,-11644.651570
20262.374739,-10807.006753,-17987.004391,-7201.297681
20262.375072,-6069.688724,-13397.727550,0.000000
20262.375405,-74.020594,-10214.842000,7584.345430
20262.375739,6143.709319,-4515.256246,14632.424012
20262.376072,7846.182985,-2368.659014,15245.300410
20262.376405,6069.688724,-2220.617826,11261.603821
20262.376738,5921.647536,-1998.556043,6128.763984
20262.377072,1998.556043,-5329.482782,-2604.724693
20262.377405,-2368.659014,-8068.244768,-9806.022374
20262.377738,-7179.997637,-14804.118840,-12947.013916
20262.378071,-9252.574275,-16062.468941,-14555.814462
20262.378405,-9474.636058,-16062.468941,-8580.269578
20262.378738,-3849.070898,-15914.427753,-1915.238745
20262.379071,1110.308913,-11917.315666,5669.106685
20262.379404,6365.771101,-7920.203579,12180.918418
20262.379738,11177.109724,-4737.318029,15781.567259
20262.380071,9400.615463,-2960.823768,10955.165621
20262.380404,5921.647536,-3182.885551,7201.297681
20262.380737,5329.482782,-4219.173869,2987.772442
20262.381071,3478.967927,-6513.812290,-4826.401637
20262.381404,-1480.411884,-11029.068536,-8120.612279
20262.381737,-7031.956449,-12287.418637,-14402.595362
20262.382070,-7179.997637,-18283.086767,-11721.261119
20262.382404,-5773.606348,-16062.468941,-5515.887586
20262.382737,-1924.535449,-13323.706956,229.828649
20262.383070,4071.132681,-9548.656652,4903.011187
20262.383403,7698.141797,-6365.771101,15245.300410
20262.383737,11621.233289,-2960.823768,13406.671215
20262.384070,9400.615463,-2072.576638,7660.954980
20262.384403,6291.750507,-4737.318029,2987.772442
20262.384736,4145.153275,-5773.606348,-1302.362347
20262.385070,-1110.308913,-9548.656652,-7124.688131
20262.385403,-5107.421000,-11917.315666,-11338.213370
20262.385736,-8586.388927,-15470.304188,-11338.213370
20262.386069,-7920.203579,-16654.633695,-7354.516781
20262.386403,-2368.659014,-15322.262999,2374.896044
20262.386736,1110.308913,-11843.295072,5439.278036
20262.387069,2664.741391,-4885.359217,9422.974625
20262.387402,5329.482782,-3627.009116,11721.261119
20262.387736,7920.203579,-2812.782580,10648.727422
20262.388069,4959.379811,-3552.988522,5362.668486
20262.388402,4589.276840,-4441.235652,612.876398
20262.388735,2294.638420,-8290.306550,-3140.991542
20262.389069,-4737.318029,-10140.821405,-7048.078582
20262.389402,-7179.997637,-13027.624579,-13406.671215
20262.389735,-8364.327145,-17024.736666,-11568.042020
20262.390068,-7105.977043,-16358.551318,-2757.943793
20262.390402,-2072.576638,-12805.562797,2068.457845
20262.390735,2812.782580,-9104.533087,8810.098227
20262.391068,5107.421000,-5107.421000,10418.898773
20262.391401,7624.121203,-3849.070898,11108.384721
20262.391735,9400.615463,-2960.823768,9116.536426
20262.392068,4737.318029,-2146.597232,3217.601092
20262.392401,1258.350101,-6587.832884,-2298.286494
20262.392734,-1850.514855,-8956.491898,-7584.345430
20262.393068,-6513.812290,-12731.542202,-9269.755526
20262.393401,-5995.668130,-16284.530724,-9499.584175
20262.393734,-7105.977043,-15470.304188,-7354.516781
20262.394067,-3404.947333,-16580.613101,-76.609550
20262.394401,1702.473667,-9918.759623,4826.401637
20262.394734,2590.720797,-5921.647536,6741.640382
20262.395067,6957.935855,-5329.482782,9729.412825
20262.395400,5107.421000,-4663.297435,7890.783629
20262.395734,5181.441594,-2072.576638,3447.429741
20262.396067,4367.215058,-4219.173869,-459.657299
20262.396400,1702.473667,-8882.471304,-3753.867940
20262.396733,-3552.988522,-11029.068536,-5898.935335
20262.397067,-4811.338623,-14952.160028,-7431.126331
20262.397400,-5403.503377,-15914.427753,-9193.145976
20262.397733,-4737.318029,-14285.974681,0.000000
20262.398066,-74.020594,-11843.295072,2834.553343
20262.398400,3552.988522,-8734.430116,7890.783629
20262.398733,4367.215058,-6291.750507,8427.050478
20262.399066,5033.400406,-3108.864956,7354.516781
20262.399399,4145.153275,-3701.029710,3983.696590
20262.399733,3552.988522,-3330.926739,3600.648841
20262.400066,1998.556043,-6587.832884,-3907.087040
20262.400399,-1554.432478,-9696.697840,-7814.174080
20262.400732,-4071.132681,-14804.118840,-5592.497135
20262.401066,-6513.812290,-14582.057057,-6435.202183
20262.401399,-2590.720797,-14878.139434,-1608.800546
20262.401732,-1480.411884,-12731.542202,2987.772442
20262.402065,74.020594,-9474.636058,5975.544884
20262.402399,1776.494261,-5403.503377,7354.516781
20262.402732,4663.297435,-7698.141797,8503.660028
20262.403065,2590.720797,-1998.556043,2451.505594
20262.403398,1776.494261,-4885.359217,1225.752797
20262.403732,2886.803174,-7698.141797,-76.609550
20262.404065,-2368.659014,-7179.997637,-4903.011187
20262.404398,-4515.256246,-12435.459826,-6665.030833
20262.404731,-6365.771101,-13693.809927,-6741.640382
20262.405065,-4367.215058,-14285.974681,-2068.457845
20262.405398,0.000000,-12509.480420,1838.629195
20262.405731,2738.761985,-9252.574275,6128.763984
20262.406064,2664.741391,-6661.853478,7201.297681
20262.406398,4811.338623,-4737.318029,5898.935335
20262.406731,3478.967927,-6513.812290,3600.648841
20262.407064,3330.926739,-2442.679609,-1838.629195
20262.407397,1184.329507,-7254.018232,-842.705048
20262.407730,-1258.350101,-9474.636058,-6205.373534
20262.408064,-3552.988522,-9548.656652,-6741.640382
20262.408397,-3627.009116,-16580.613101,-4366.744339
20262.408730,-1924.535449,-13101.645173,-1991.848295
20262.409063,-370.102971,-14211.954086,3064.381992
20262.409397,4145.153275,-9104.533087,6894.859482
20262.409730,2368.659014,-5995.668130,6741.640382
20262.410063,6143.709319,-3923.091493,4290.134789
20262.410396,4737.318029,-7105.977043,4826.401637
20262.410730,814.226536,-4367.215058,-2451.505594
20262.411063,0.000000,-4219.173869,-4596.572988
20262.411396,-1998.556043,-8882.471304,-5592.497135
20262.411729,-2368.659014,-10436.903782,-5898.935335
20262.412063,-4441.235652,-13027.624579,-6511.811733
20262.412396,-2294.638420,-14952.160028,-2221.676944
20262.412729,296.082377,-13397.727550,3830.477490
20262.413062,4663.297435,-9104.533087,7354.516781
20262.413396,7624.121203,-9178.553681,12180.918418
20262.413729,5255.462188,-5033.400406,6435.202183
20262.414062,4145.153275,-4959.379811,4903.011187
20262.414395,3552.988522,-5773.606348,612.876398
20262.414729,0.000000,-6291.750507,-3983.696590
20262.415062,-2960.823768,-8512.368333,-7584.345430
20262.415395,-4589.276840,-11473.192101,-8273.831378
20262.415728,-4663.297435,-14211.954086,-6511.811733
20262.416062,-6513.812290,-11917.315666,-3677.258390
20262.416395,-1258.350101,-13471.748144,536.266849
20262.416728,2294.638420,-10066.800811,5515.887586
20262.417061,4737.318029,-8068.244768,12410.747068
20262.417395,7031.956449,-6513.812290,10955.165621
20262.417728,3627.009116,-4811.338623,7201.297681
20262.418061,666.185348,-4811.338623,306.438199
20262.418394,74.020594,-5403.503377,-3447.429741
20262.418728,-3108.864956,-9104.533087,-7201.297681
20262.419061,-4441.235652,-11621.233289,-5898.935335
20262.419394,-6587.832884,-11917.315666,-9806.022374
20262.419727,-7105.977043,-14285.974681,-7354.516781
20262.420061,-4441.235652,-15396.283594,1149.143247
20262.420394,-74.020594,-13027.624579,5439.278036
20262.420727,4589.276840,-9400.615463,11261.603821
20262.421060,5403.503377,-5181.441594,12257.527968
20262.421394,6439.791695,-3627.009116,9346.365076
20262.421727,4219.173869,-4145.153275,4596.572988
20262.422060,2812.782580,-5329.482782,-76.609550
20262.422393,0.000000,-5995.668130,-5286.058936
20262.422727,-2590.720797,-10214.842000,-8656.879127
20262.423060,-4589.276840,-12361.439231,-10955.165621
20262.423393,-5551.544565,-15396.283594,-9422.974625
20262.423726,-2960.823768,-16876.695478,-1915.238745
20262.424060,1702.473667,-15100.201217,5439.278036
20262.424393,2442.679609,-8364.327145,6741.640382
20262.424726,7105.977043,-7031.956449,12180.918418
20262.425059,8512.368333,-4737.318029,9729.412825
20262.425393,7105.977043,-3627.009116,7967.393179
20262.425726,4219.173869,-4737.318029,1915.238745
20262.426059,2516.700203,-5773.606348,-2987.772442
20262.426392,-1776.494261,-8068.244768,-7354.516781
20262.426726,-4737.318029,-11917.315666,-8197.221829
20262.427059,-6143.709319,-14285.974681,-12257.527968
20262.427392,-7476.080014,-15470.304188,-9193.145976
20262.427725,-2368.659014,-15988.448347,1149.143247
20262.428059,2294.638420,-10066.800811,5669.106685
20262.428392,6735.874072,-7698.141797,12180.918418
20262.428725,8364.327145,-4367.215058,13406.671215
20262.429058,8068.244768,-2368.659014,10801.946522
20262.429392,6809.894666,-3330.926739,7354.516781
20262.429725,4145.153275,-6587.832884,2374.896044
20262.430058,-1998.556043,-5995.668130,-8580.269578
20262.430391,-6513.812290,-12805.562797,-11644.651570
20262.430725,-8512.368333,-15988.448347,-12947.013916
20262.431058,-11843.295072,-15470.304188,-9806.022374
20262.431391,-7179.997637,-16580.613101,-3830.477490
20262.431724,-1702.473667,-11769.274478,4979.620737
20262.432058,4219.173869,-7920.203579,12717.185267
20262.432391,7624.121203,-3552.988522,14632.424012
20262.432724,8808.450710,-3552.988522,12793.794817
20262.433057,3478.967927,-666.185348,4903.011187
20262.433391,3256.906145,-4515.256246,1608.800546
20262.433724,1110.308913,-8734.430116,-4979.620737
20262.434057,-2442.679609,-12435.459826,-9269.755526
20262.434390,-8068.244768,-13323.706956,-13866.328514
20262.434724,-9474.636058,-16950.716072,-12257.527968
20262.435057,-8142.265362,-17024.736666,-6588.421283
20262.435390,-4441.235652,-13693.809927,919.314598
20262.435723,2886.803174,-8808.450710,7354.516781
20262.436057,7105.977043,-5773.606348,14709.033562
20262.436390,10584.944971,-4737.318029,14632.424012
20262.436723,7772.162391,-1258.350101,9806.022374
20262.437056,8216.285956,-3997.112087,6665.030833
20262.437390,4737.318029,-4515.256246,-306.438199
20262.437723,296.082377,-9252.574275,-7431.126331
20262.438056,-5329.482782,-12065.356855,-13253.452115
20262.438391,-8586.388927,-15470.304188,-14402.595362
20262.438725,-7254.018232,-16950.716072,-9422.974625
20262.439058,-4811.338623,-15396.283594,-3753.867940
20262.439391,-1184.329507,-13175.665768,3830.477490
20262.439724,5329.482782,-8216.285956,11031.775171
20262.440057,7772.162391,-1850.514855,14325.985813
20262.440390,12953.603985,-4737.318029,14632.424012
20262.440724,7031.956449,-370.102971,5515.887586
20262.441057,6809.894666,-1850.514855,1225.752797
20262.441390,1184.329507,-4811.338623,-1838.629195
20262.441723,-1184.329507,-9548.656652,-8810.098227
20262.442056,-5995.668130,-13545.768739,-15781.567259
20262.442389,-7772.162391,-18357.107362,-13100.233016
20262.442723,-7328.038826,-18875.251521,-7967.393179
20262.443056,-3552.988522,-13101.645173,0.000000
20262.443389,2294.638420,-11843.295072,6358.592633
20262.443722,7031.956449,-5181.441594,10418.898773
20262.444055,8586.388927,-2516.700203,16777.491406
20262.444389,8808.450710,-2368.659014,12180.918418
20262.444722,5329.482782,-1406.391290,5898.935335
20262.445055,3997.112087,-3701.029710,842.705048
20262.445388,-1184.329507,-8512.368333,-5209.449386
20262.445721,-7105.977043,-11325.150913,-11874.480219
20262.446054,-9400.615463,-15914.427753,-12334.137518
20262.446388,-9548.656652,-18061.024985,-11644.651570
20262.446721,-6217.729913,-13397.727550,-4903.011187
20262.447054,-2368.659014,-13841.851115,6052.154434
20262.447387,1110.308913,-7105.977043,7584.345430
20262.447720,5699.585753,-4737.318029,12640.575717
20262.448054,5847.626942,-2368.659014,11951.089769
20262.448387,4737.318029,-592.164754,7201.297681
20262.448720,3182.885551,-3552.988522,1608.800546
20262.449053,-74.020594,-6809.894666,-2528.115143
20262.449386,-4811.338623,-7772.162391,-9806.022374
20262.449719,-8142.265362,-14063.912898,-11108.384721
20262.450053,-8364.327145,-18949.272115,-9882.631924
20262.450386,-8660.409521,-16062.468941,-7431.126331
20262.450719,-2590.720797,-15396.283594,-76.609550
20262.451052,1702.473667,-9918.759623,6971.469032
20262.451385,4441.235652,-5995.668130,11108.384721
20262.451719,7402.059420,-3701.029710,12180.918418
20262.452052,8216.285956,-3552.988522,9729.412825
20262.452385,5329.482782,-1998.556043,3983.696590
20262.452718,4071.132681,-5033.400406,-1072.533697
20262.453051,148.041188,-8068.244768,-6052.154434
20262.453384,-5921.647536,-11917.315666,-9806.022374
20262.453718,-5181.441594,-16580.613101,-9882.631924
20262.454051,-6291.750507,-17320.819043,-7354.516781
20262.454384,-3849.070898,-12509.480420,-1838.629195
20262.454717,1184.329507,-13027.624579,5745.716235
20262.455050,3997.112087,-4811.338623,7584.345430
20262.455384,6143.709319,-5033.400406,10955.165621
20262.455717,7476.080014,-2146.597232,8427.050478
20262.456050,7402.059420,-2886.803174,5132.839837
20262.456383,6365.771101,-4145.153275,1149.143247
20262.456716,2072.576638,-9548.656652,-842.705048
20262.457049,-2442.679609,-9548.656652,-9806.022374
20262.457383,-5921.647536,-14878.139434,-11031.775171
20262.457716,-4811.338623,-18061.024985,-7737.564530
20262.458049,-4737.318029,-15766.386565,-3677.258390
20262.458382,-74.020594,-12139.377449,3140.991542
20262.458715,4737.318029,-8808.450710,8733.488677
20262.459049,6735.874072,-4811.338623,9806.022374
20262.459382,8216.285956,-4145.153275,8503.660028
20262.459715,5921.647536,-5033.400406,7584.345430
20262.460048,4367.215058,-666.185348,0.000000
20262.460381,1184.329507,-6365.771101,-2068.457845
20262.460714,-74.020594,-13027.624579,-5592.497135
20262.461048,-3627.009116,-13323.706956,-7431.126331
20262.461381,-5995.668130,-15692.365970,-7890.783629
20262.461714,-3775.050304,-15914.427753,-2757.943793
20262.462047,-2368.659014,-13175.665768,2451.505594
20262.462380,0.000000,-8364.327145,6128.763984
20262.462713,5847.626942,-5921.647536,7890.783629
20262.463047,2960.823768,-4219.173869,6435.202183
20262.463380,4441.235652,-4737.318029,6665.030833
20262.463713,1406.391290,-4219.173869,0.000000
20262.464046,0.000000,-4219.173869,-2681.334243
20262.464379,-2220.617826,-8364.327145,-5056.230287
20262.464713,-5107.421000,-12361.439231,-7201.297681
20262.465046,-7105.977043,-14804.118840,-7431.126331
20262.465379,-6809.894666,-16358.551318,-2451.505594
20262.465712,-1258.350101,-12213.398043,0.000000
20262.466045,296.082377,-11843.295072,8503.660028
20262.466378,4071.132681,-8290.306550,9116.536426
20262.466712,2368.659014,-2442.679609,7967.393179
20262.467045,1184.329507,-2738.761985,4903.011187
20262.467378,1480.411884,-3404.947333,306.438199
20262.467711,0.000000,-5847.626942,-1838.629195
20262.468044,-296.082377,-7698.141797,-4443.353888
20262.468378,-1480.411884,-11843.295072,-5745.716235
20262.468711,-3627.009116,-14285.974681,-7354.516781
20262.469044,-4663.297435,-15470.304188,-4290.134789
20262.469377,-1850.514855,-13101.645173,766.095498
20262.469710,3478.967927,-11695.253884,6511.811733
20262.470043,4145.153275,-7476.080014,8886.707777
20262.470377,6439.791695,-4737.318029,6818.249932
20262.470710,3997.112087,-1850.514855,4903.011187
20262.471043,3923.091493,-5921.647536,2374.896044
20262.471376,2072.576638,-4737.318029,-3294.210641
20262.471709,-2072.576638,-7179.997637,-4290.134789
20262.472043,-3108.864956,-10584.944971,-8350.440928
20262.472376,-5181.441594,-13619.789333,-8580.269578
20262.472709,-4589.276840,-15100.201217,-5439.278036
20262.473042,-74.020594,-14804.118840,3294.210641
20262.473375,4663.297435,-10658.965565,5975.544884
20262.473708,6217.729913,-7772.162391,8580.269578
20262.474042,5329.482782,-6587.832884,11568.042020
20262.474375,5699.585753,-5329.482782,5286.058936
20262.474708,3849.070898,-5255.462188,2681.334243
20262.475041,1332.370696,-5995.668130,-2911.162892
20262.475374,-370.102971,-7698.141797,-6358.592633
20262.475708,-3256.906145,-11029.068536,-7737.564530
20262.476041,-4219.173869,-14211.954086,-8044.002729
20262.476374,-5551.544565,-11917.315666,-6128.763984
20262.476707,-666.185348,-16284.530724,2374.896044
20262.477040,2294.638420,-12435.459826,7277.907231
20262.477373,4515.256246,-5995.668130,11031.775171
20262.477707,7328.038826,-6513.812290,10955.165621
20262.478040,5773.606348,-2960.823768,7584.345430
20262.478373,1702.473667,-6217.729913,2298.286494
20262.478706,148.041188,-4811.338623,-3524.039291
20262.479039,-4737.318029,-7920.203579,-7967.393179
20262.479372,-5921.647536,-10140.821405,-8580.269578
20262.479706,-5107.421000,-15396.283594,-9882.631924
20262.480039,-6587.832884,-13693.809927,-7967.393179
20262.480372,-3849.070898,-12509.480420,0.000000
20262.480705,1702.473667,-14211.954086,6052.154434
20262.481038,6069.688724,-6957.935855,11951.089769
20262.481372,6365.771101,-5773.606348,13100.233016
20262.481705,7328.038826,-3849.070898,9882.631924
20262.482038,3256.906145,-3627.009116,4290.134789
20262.482371,1554.432478,-5625.565159,-919.314598
20262.482704,-740.205942,-6661.853478,-5669.106685
20262.483037,-5181.441594,-10140.821405,-9959.241474
20262.483371,-4219.173869,-13027.624579,-9882.631924
20262.483704,-5403.503377,-16580.613101,-7737.564530
20262.484037,-5921.647536,-12509.480420,-3064.381992
20262.484370,1036.288319,-13915.871710,4826.401637
20262.484703,5847.626942,-10658.965565,9116.536426
20262.485037,9178.553681,-6661.853478,14096.157163
20262.485370,7846.182985,-4959.379811,11491.432470
20262.485703,6217.729913,-4145.153275,6052.154434
20262.486036,2886.803174,-5921.647536,306.438199
20262.486369,1998.556043,-6513.812290,-4979.620737
20262.486702,-2368.659014,-8956.491898,-6741.640382
20262.487036,-4515.256246,-9548.656652,-9806.022374
20262.487369,-5551.544565,-15100.201217,-9422.974625
20262.487702,-4811.338623,-18357.107362,-6511.811733
20262.488035,-3034.844362,-15100.201217,-76.609550
20262.488368,2146.597232,-12435.459826,7277.907231
20262.488702,4589.276840,-8290.306550,12027.699319
20262.489035,6217.729913,-3182.885551,12870.404366
20262.489368,6069.688724,-2590.720797,10878.556072
20262.489701,5847.626942,-4145.153275,6052.154434
20262.490034,2368.659014,-4737.318029,612.876398
20262.490367,-74.020594,-9178.553681,-6971.469032
20262.490701,-6217.729913,-9548.656652,-11031.775171
20262.491034,-8586.388927,-13397.727550,-13176.842566
20262.491367,-8364.327145,-16506.592507,-12257.527968
20262.491700,-6587.832884,-17616.901420,-4596.572988
20262.492033,-1776.494261,-13989.892304,3830.477490
20262.492367,3404.947333,-9030.512492,11874.480219
20262.492700,5625.565159,-3256.906145,12487.356617
20262.493033,7994.224174,-4293.194464,14632.424012
20262.493366,5847.626942,-3552.988522,8503.660028
20262.493699,3404.947333,-814.226536,2451.505594
20262.494032,2220.617826,-7105.977043,-995.924147
20262.494366,-4145.153275,-8068.244768,-9499.584175
20262.494699,-7476.080014,-12879.583391,-13330.061665
20262.495032,-9104.533087,-16210.510130,-12947.013916
20262.495365,-8882.471304,-18357.107362,-7890.783629
20262.495698,-7105.977043,-15174.221811,-2451.505594
20262.496032,2886.803174,-13619.789333,6665.030833
20262.496365,4367.215058,-5699.585753,12257.527968
20262.496698,7105.977043,-74.020594,14709.033562
20262.497031,8586.388927,-3404.947333,13789.718964
20262.497364,6365.771101,-1554.432478,5898.935335
20262.497697,4441.235652,-3627.009116,919.314598
20262.498031,740.205942,-6883.915261,-6052.154434
20262.498364,-4219.173869,-11177.109724,-12257.527968
20262.498697,-9030.512492,-14285.974681,-14709.033562
20262.499030,-6883.915261,-18505.148550,-11491.432470
20262.499363,-4885.359217,-17246.798449,-4366.744339
20262.499696,-222.061783,-13323.706956,3217.601092
20262.500030,7031.956449,-10658.965565,10955.165621
20262.500363,7846.182985,-2590.720797,15015.471761
20262.500696,10510.924376,-2960.823768,15934.786358
20262.501029,9400.615463,-4145.153275,8503.660028
20262.501362,6439.791695,-962.267725,1378.971896
20262.501696,2960.823768,-6587.832884,-76.609550
20262.502029,-666.185348,-8808.450710,-9193.145976
20262.502362,-6809.894666,-13175.665768,-13559.890315
20262.502695,-9252.574275,-17394.839637,-13942.938064
20262.503028,-8808.450710,-17764.942608,-9422.974625
20262.503361,-4811.338623,-12657.521608,-3677.258390
20262.503695,1702.473667,-13027.624579,5745.716235
20262.504028,4959.379811,-5625.565159,10955.165621
20262.504361,8290.306550,-1850.514855,14709.033562
20262.504694,8512.368333,-2368.659014,12180.918418
20262.505027,6365.771101,-2442.679609,6435.202183
20262.505361,4663.297435,-2886.803174,689.485948
20262.505694,518.144159,-8290.306550,-5132.839837
20262.506027,-5329.482782,-10732.986159,-11031.775171
20262.506360,-9326.594869,-14878.139434,-14709.033562
20262.506693,-8068.244768,-21317.931130,-9882.631924
20262.507026,-5995.668130,-16432.571912,-4596.572988
20262.507360,-3108.864956,-11917.315666,2757.943793
20262.507693,1776.494261,-7179.997637,8197.221829
20262.508026,6439.791695,-4589.276840,13253.452115
20262.508359,7698.141797,-1406.391290,13100.233016
20262.508692,4737.318029,-1702.473667,7660.954980
20262.509026,5847.626942,-3404.947333,2374.896044
20262.509359,0.000000,-5995.668130,-1838.629195
20262.509692,-2442.679609,-11843.295072,-9882.631924
20262.510025,-9326.594869,-12213.398043,-13789.718964
20262.510358,-9696.697840,-18949.272115,-11108.384721
20262.510691,-7179.997637,-18949.272115,-6741.640382
20262.511025,-3330.926739,-14359.995275,919.314598
20262.511358,1184.329507,-9252.574275,8427.050478
20262.511691,5107.421000,-5033.400406,12104.308868
20262.512024,6735.874072,-1628.453072,11338.213370
20262.512357,9178.553681,-2960.823768,11568.042020
20262.512691,3627.009116,-74.020594,4290.134789
20262.513024,1184.329507,-4811.338623,689.485948
20262.513357,1110.308913,-7698.141797,-7277.907231
20262.513690,-4811.338623,-12435.459826,-10418.898773
20262.514023,-5699.585753,-15692.365970,-12334.137518
20262.514356,-7402.059420,-18579.169144,-7967.393179
20262.514690,-3923.091493,-15840.407159,-3370.820191
20262.515023,-740.205942,-11103.089130,2911.162892
20262.515356,5033.400406,-8290.306550,9422.974625
20262.515689,6365.771101,-3330.926739,11721.261119
20262.516022,8660.409521,-2146.597232,11491.432470
20262.516356,8290.306550,-1184.329507,6971.469032
20262.516689,7031.956449,-2368.659014,1149.143247
20262.517022,2960.823768,-8882.471304,-689.485948
20262.517355,-74.020594,-9770.718434,-10112.460574
20262.517688,-6809.894666,-15766.386565,-9269.755526
20262.518021,-7105.977043,-16654.633695,-10725.336972
20262.518355,-5403.503377,-16876.695478,-5975.544884
20262.518688,-1628.453072,-13767.830521,2068.457845
20262.519021,3108.864956,-7994.224174,7507.735880
20262.519354,5625.565159,-5329.482782,10955.165621
20262.519687,5329.482782,-1258.350101,9806.022374
20262.520020,7402.059420,-5921.647536,8503.660028
20262.520354,4663.297435,-3552.988522,2374.896044
20262.520687,296.082377,-4219.173869,-1685.410096
20262.521020,-74.020594,-11843.295072,-3753.867940
20262.521353,-5403.503377,-11325.150913,-9039.926876
20262.521686,-6365.771101,-15544.324782,-8197.221829
20262.522020,-4071.132681,-16654.633695,-4213.525239
20262.522353,-2146.597232,-13915.871710,1532.190996
20262.522686,0.000000,-10732.986159,6741.640382
20262.523019,5847.626942,-8290.306550,8503.660028
20262.523352,3552.988522,-3627.009116,8120.612279
20262.523685,1184.329507,-666.185348,6128.763984
20262.524019,2886.803174,-5625.565159,2221.676944
20262.524352,0.000000,-3775.050304,-1991.848295
20262.524685,-1628.453072,-8512.368333,-5132.839837
20262.525018,-4811.338623,-12805.562797,-6971.469032
20262.525351,-6143.709319,-13841.851115,-7660.954980
20262.525685,-4811.338623,-17098.757260,-4366.744339
20262.526018,-666.185348,-13027.624579,-229.828649
20262.526351,-1776.494261,-10732.986159,7660.954980
20262.526684,3478.967927,-7550.100608,9729.412825
20262.527017,5255.462188,-3552.988522,5439.278036
20262.527350,1776.494261,-4811.338623,7277.907231
20262.527684,2590.720797,-3182.885551,1838.629195
20262.528017,518.144159,-5921.647536,-1608.800546
20262.528350,-1258.350101,-6883.915261,-5515.887586
20262.528683,-3775.050304,-11547.212695,-6511.811733
20262.529016,-4885.359217,-13767.830521,-7201.297681
20262.529350,-4737.318029,-15322.262999,-3983.696590
20262.529683,-1036.288319,-13397.727550,766.095498
20262.530016,296.082377,-9548.656652,4903.011187
20262.530349,2368.659014,-6587.832884,8580.269578
20262.530682,5847.626942,-7105.977043,8810.098227
20262.531015,4071.132681,-5625.565159,4826.401637
20262.531349,2442.679609,-3182.885551,0.000000
20262.531682,1036.288319,-4589.276840,-2528.115143
20262.532015,0.000000,-7476.080014,-5209.449386
20262.532348,-1776.494261,-10288.862594,-7124.688131
20262.532681,-3404.947333,-13249.686362,-7584.345430
20262.533015,-2960.823768,-16136.489536,-4596.572988
20262.533348,-666.185348,-15322.262999,612.876398
20262.533681,4071.132681,-14211.954086,6665.030833
20262.534014,4959.379811,-8068.244768,8656.879127
20262.534347,4737.318029,-3923.091493,8580.269578
20262.534680,5921.647536,-3775.050304,8886.707777
20262.535014,5033.400406,-3330.926739,4826.401637
20262.535347,1776.494261,-4589.276840,-766.095498
20262.535680,-592.164754,-5699.585753,-5669.106685
20262.536013,-2590.720797,-10362.883188,-8044.002729
20262.536346,-5921.647536,-11917.315666,-8273.831378
20262.536679,-4515.256246,-15396.283594,-7737.564530
20262.537013,-3849.070898,-15470.304188,-2451.505594
20262.537346,1628.453072,-13397.727550,4903.011187
20262.537679,5847.626942,-11251.130318,9729.412825
20262.538012,6957.935855,-6809.894666,10955.165621
20262.538345,5329.482782,-4589.276840,9116.536426
20262.538679,3478.967927,-4145.153275,4596.572988
20262.539012,2368.659014,-4441.235652,229.828649
20262.539345,1332.370696,-7179.997637,-1915.238745
20262.539678,-4737.318029,-7179.997637,-7967.393179
20262.540011,-7698.141797,-11917.315666,-8503.660028
20262.540345,-5403.503377,-15988.448347,-8963.317327
20262.540678,-6809.894666,-14285.974681,-5822.325785
20262.541011,-1258.350101,-14730.098246,2374.896044
20262.541344,2960.823768,-10510.924376,9346.365076
20262.541677,5255.462188,-4811.338623,10112.460574
20262.542011,6735.874072,-5033.400406,11261.603821
20262.542344,4663.297435,-4145.153275,6052.154434
20262.542677,0.000000,-3627.009116,1838.629195
20262.543010,-74.020594,-6809.894666,-3753.867940
20262.543343,-4219.173869,-8512.368333,-11031.775171
20262.543676,-9474.636058,-10732.986159,-12104.308868
20262.544010,-7476.080014,-15248.242405,-11108.384721
20262.544343,-5773.606348,-15618.345376,-5056.230287
20262.544676,-1332.370696,-13989.892304,3140.991542
20262.545009,2664.741391,-10584.944971,9116.536426
20262.545342,7031.956449,-8290.306550,12180.918418
20262.545676,6365.771101,-3478.967927,13100.233016
20262.546009,5033.400406,-3997.112087,8810.098227
20262.546342,2368.659014,-2738.761985,1991.848295
20262.546675,0.000000,-4811.338623,-4290.134789
20262.547008,-962.267725,-8882.471304,-7737.564530
20262.547342,-5477.523971,-9548.656652,-12334.137518
20262.547675,-8290.306550,-14582.057057,-9882.631924
20262.548008,-5773.606348,-16284.530724,-8427.050478
20262.548341,-3627.009116,-14878.139434,-1838.629195
20262.548674,1776.494261,-11473.192101,6435.202183
20262.549008,5625.565159,-8808.450710,12104.308868
20262.549341,9400.615463,-4145.153275,13636.499864
20262.549674,9770.718434,-4145.153275,13866.328514
20262.550007,10436.903782,-4737.318029,7277.907231
20262.550340,3552.988522,-3627.009116,153.219100
20262.550674,0.000000,-5995.668130,-5515.887586
20262.551007,-2738.761985,-11547.212695,-12334.137518
20262.551340,-9474.636058,-13101.645173,-13483.280765
20262.551673,-7179.997637,-16728.654289,-11721.261119
20262.552006,-5773.606348,-17246.798449,-4749.792088
20262.552339,-1110.308913,-14211.954086,3447.429741
20262.552673,3478.967927,-9474.636058,9729.412825
20262.553006,9104.533087,-4737.318029,13406.671215
20262.553339,6513.812290,-666.185348,15321.909960
20262.553672,9326.594869,-2368.659014,12180.918418
20262.554005,7031.956449,-3256.906145,2374.896044
20262.554339,4071.132681,-6809.894666,-1915.238745
20262.554672,-1628.453072,-9474.636058,-9422.974625
20262.555005,-5773.606348,-13767.830521,-14325.985813
20262.555338,-7920.203579,-16580.613101,-14709.033562
20262.555671,-9474.636058,-18431.127956,-11031.775171
20262.556005,-5403.503377,-16876.695478,-4749.792088
20262.556338,0.000000,-12805.562797,8273.831378
20262.556671,7624.121203,-7105.977043,13406.671215
20262.557004,8290.306550,-74.020594,16164.615008
20262.557337,7920.203579,-74.020594,13713.109414
20262.557671,6587.832884,-1480.411884,7890.783629
20262.558004,3256.906145,-3478.967927,995.924147
20262.558337,-1332.370696,-7476.080014,-6358.592633
20262.558670,-5181.441594,-11103.089130,-12180.918418
20262.559003,-10658.965565,-14285.974681,-14709.033562
20262.559337,-7476.080014,-18949.272115,-11108.384721
20262.559670,-6587.832884,-18209.066173,-7660.954980
20262.560003,-4737.318029,-14878.139434,2451.505594
20262.560336,1480.411884,-9474.636058,9576.193725
20262.560669,5921.647536,-4663.297435,14402.595362
20262.561003,8512.368333,-814.226536,15321.909960
20262.561336,7179.997637,-1480.411884,10189.070123
20262.561669,7179.997637,-1110.308913,5822.325785
20262.562002,2368.659014,-3923.091493,0.000000
20262.562335,-888.247130,-8660.409521,-7431.126331
20262.562668,-7550.100608,-12509.480420,-12947.013916
20262.563002,-10140.821405,-17172.777854,-15321.909960
20262.563335,-10362.883188,-19023.292709,-11031.775171
20262.563668,-5995.668130,-14804.118840,-4673.182538
20262.564001,0.000000,-12509.480420,7354.516781
20262.564334,7031.956449,-7105.977043,14019.547613
20262.564668,9400.615463,-1184.329507,14632.424012
20262.565001,8438.347739,-1406.391290,13406.671215
20262.565334,6069.688724,-1924.535449,5362.668486
20262.565667,4959.379811,-2812.782580,-919.314598
20262.566000,222.061783,-7920.203579,-6358.592633
20262.566334,-1554.432478,-13619.789333,-9882.631924
20262.566667,-9474.636058,-14285.974681,-13483.280765
20262.567000,-8882.471304,-19023.292709,-9269.755526
20262.567333,-3034.844362,-18357.107362,-4979.620737
20262.567666,-2368.659014,-12509.480420,2451.505594
20262.568000,4663.297435,-10362.883188,10189.070123
20262.568333,7105.977043,-5329.482782,14938.862211
20262.568666,8660.409521,-1332.370696,14019.547613
20262.568999,6365.771101,-1110.308913,8580.269578
20262.569332,5255.462188,-2220.617826,1149.143247
20262.569666,0.000000,-5107.421000,-383.047749
20262.569999,-2442.679609,-10658.965565,-7431.126331
20262.570332,-5995.668130,-12435.459826,-14785.643111
20262.570665,-9474.636058,-17024.736666,-11108.384721
20262.570998,-8660.409521,-17912.983796,-8580.269578
20262.571331,-2886.803174,-14656.077652,0.000000
20262.571665,1258.350101,-11029.068536,6818.249932
20262.571998,4885.359217,-6439.791695,11568.042020
20262.572331,6513.812290,-3330.926739,12870.404366
20262.572664,10362.883188,-3552.988522,14632.424012
20262.572997,7031.956449,-2812.782580,4826.401637
20262.573331,2368.659014,-2442.679609,-2451.505594
20262.573664,2368.659014,-8290.306550,-2528.115143
20262.573997,-4515.256246,-10436.903782,-9806.022374
20262.574330,-4885.359217,-14508.036463,-11261.603821
20262.574663,-7846.182985,-18653.189738,-8197.221829
20262.574997,-5477.523971,-16432.571912,-2604.724693
20262.575330,-2960.823768,-11325.150913,1838.629195
20262.575663,3108.864956,-7920.203579,8580.269578
20262.575996,4737.318029,-4219.173869,11797.870669
20262.576329,5181.441594,-1998.556043,9882.631924
20262.576663,7031.956449,-3552.988522,6971.469032
20262.576996,4663.297435,-1776.494261,536.266849
20262.577329,1184.329507,-6291.750507,-2757.943793
20262.577662,0.000000,-10214.842000,-4979.620737
20262.577995,-5403.503377,-14508.036463,-11031.775171
20262.578329,-5033.400406,-17542.880825,-9269.755526
20262.578662,-5107.421000,-18357.107362,-4213.525239
20262.578995,-1776.494261,-14285.974681,1838.629195
20262.579328,2516.700203,-10066.800811,7814.174080
20262.579661,2960.823768,-3923.091493,8886.707777
20262.579994,6513.812290,-2368.659014,8503.660028
20262.580328,3552.988522,-2442.679609,9806.022374
20262.580661,7031.956449,-1110.308913,3600.648841
20262.580994,2294.638420,-2516.700203,-3064.381992
20262.581327,-1110.308913,-8290.306550,-6894.859482
20262.581660,-5921.647536,-13323.706956,-9806.022374
20262.581994,-8586.388927,-16062.468941,-11031.775171
20262.582327,-5551.544565,-18357.107362,-6281.983084
20262.582660,-4441.235652,-15470.304188,0.000000
20262.582993,1702.473667,-10955.047942,4213.525239
20262.583326,4737.318029,-7772.162391,12180.918418
20262.583660,7031.956449,-4441.235652,9116.536426
20262.583993,4145.153275,-74.020594,4903.011187
20262.584326,4145.153275,-4219.173869,4290.134789
20262.584659,3627.009116,-3478.967927,0.000000
20262.584992,666.185348,-7254.018232,-4443.353888
20262.585326,-3552.988522,-12213.398043,-7584.345430
20262.585659,-5995.668130,-15100.201217,-9882.631924
20262.585992,-7031.956449,-15470.304188,-7048.078582
20262.586325,-1258.350101,-16580.613101,-689.485948
20262.586658,-74.020594,-11917.315666,3983.696590
20262.586992,1776.494261,-7476.080014,9193.145976
20262.587325,7031.956449,-5921.647536,10955.165621
20262.587658,6735.874072,-3552.988522,9422.974625
20262.587991,3849.070898,-3034.844362,4826.401637
20262.588324,1850.514855,-4663.297435,-383.047749
20262.588657,-1480.411884,-5921.647536,-6741.640382
20262.588991,-4737.318029,-10732.986159,-6358.592633
20262.589324,-4811.338623,-14211.954086,-10648.727422
20262.589657,-5329.482782,-14285.974681,-7660.954980
20262.589990,-2368.659014,-15470.304188,1532.190996
20262.590323,4663.297435,-14211.954086,7890.783629
20262.590657,3552.988522,-8808.450710,9729.412825
20262.590990,3775.050304,-5625.565159,8656.879127
20262.591323,4293.194464,-4219.173869,6128.763984
20262.591656,2368.659014,-4811.338623,3600.648841
20262.591989,2072.576638,-4737.318029,-536.266849
20262.592323,0.000000,-6809.894666,-3447.429741
20262.592656,-962.267725,-8216.285956,-5209.449386
20262.592989,-3552.988522,-12361.439231,-6205.373534
20262.593322,-5995.668130,-13101.645173,-7737.564530
20262.593655,-4145.153275,-16580.613101,-1608.800546
20262.593989,-74.020594,-16580.613101,4213.525239
20262.594322,2294.638420,-7772.162391,6128.763984
20262.594655,5033.400406,-6587.832884,10189.070123
20262.594988,8216.285956,-4737.318029,8503.660028
20262.595321,5477.523971,-3775.050304,5439.278036
20262.595655,1332.370696,-4811.338623,-1225.752797
20262.595988,296.082377,-6439.791695,-4903.011187
20262.596321,-2368.659014,-9548.656652,-7354.516781
20262.596654,-4145.153275,-13989.892304,-4979.620737
20262.596987,-4219.173869,-12213.398043,-7354.516781
20262.597321,-3701.029710,-13693.809927,-2451.505594
20262.597654,2294.638420,-14211.954086,4826.401637
20262.597987,4663.297435,-8660.409521,7354.516781
20262.598320,4737.318029,-7179.997637,9652.803275
20262.598653,3404.947333,-3627.009116,4903.011187
20262.598986,2146.597232,-4515.256246,3600.648841
20262.599320,2368.659014,-4663.297435,766.095498
20262.599653,1184.329507,-7698.141797,-689.485948
20262.599986,-1850.514855,-6069.688724,-7967.393179
20262.600319,-4737.318029,-12583.501014,-7967.393179
20262.600652,-5625.565159,-16580.613101,-7431.126331
20262.600986,-7698.141797,-14285.974681,-5515.887586
20262.601319,-1924.535449,-15544.324782,1532.190996
20262.601652,3182.885551,-11103.089130,8503.660028
20262.601985,6661.853478,-6735.874072,11874.480219
20262.602318,7920.203579,-3404.947333,12180.918418
20262.602652,6735.874072,-4737.318029,7277.907231
20262.602985,0.000000,-2738.761985,1838.629195
20262.603318,1110.308913,-7105.977043,-3140.991542
20262.603651,-3923.091493,-9474.636058,-8963.317327
20262.603984,-6957.935855,-10658.965565,-11261.603821
20262.604318,-6809.894666,-15840.407159,-8656.879127
20262.604651,-4737.318029,-14878.139434,-4213.525239
20262.604984,-2368.659014,-14285.974681,1685.410096
20262.605317,1184.329507,-12509.480420,8120.612279
20262.605650,2886.803174,-5995.668130,10418.898773
20262.605984,6291.750507,-6069.688724,12257.527968
20262.606317,7920.203579,-5625.565159,9729.412825
20262.606650,2368.659014,-2442.679609,4290.134789
20262.606983,1850.514855,-5773.606348,-689.485948
20262.607316,-518.144159,-6587.832884,-5669.106685
20262.607649,-3775.050304,-11843.295072,-9882.631924
20262.607983,-7179.997637,-13915.871710,-12104.308868
20262.608316,-8142.265362,-17394.839637,-9499.584175
20262.608649,-6513.812290,-15766.386565,-3983.696590
20262.608982,-296.082377,-12953.603985,4979.620737
20262.609315,4441.235652,-9252.574275,11568.042020
20262.609649,8956.491898,-3849.070898,14938.862211
20262.609982,7105.977043,-1258.350101,12257.527968
20262.610315,7624.121203,-2368.659014,6052.154434
20262.610648,2368.659014,-2738.761985,153.219100
20262.610981,1702.473667,-7105.977043,-4060.306139
20262.611315,-1258.350101,-10658.965565,-8963.317327
20262.611648,-5921.647536,-13101.645173,-12027.699319
20262.611981,-7031.956449,-16580.613101,-11108.384721
20262.612314,-5773.606348,-16950.716072,-7048.078582
20262.612647,-1554.432478,-15692.365970,689.485948
20262.612981,4663.297435,-11695.253884,10955.165621
20262.613314,5033.400406,-5995.668130,12870.404366
20262.613647,7698.141797,-1850.514855,15628.348159
20262.613980,9400.615463,-2960.823768,10648.727422
20262.614313,5625.565159,-74.020594,3677.258390
20262.614647,5847.626942,-5921.647536,-689.485948
20262.614980,-1110.308913,-8956.491898,-8197.221829
20262.615313,-5403.503377,-12213.398043,-13330.061665
20262.615646,-9252.574275,-16210.510130,-14709.033562
20262.615979,-8364.327145,-18949.272115,-11108.384721
20262.616312,-9474.636058,-16062.468941,-3064.381992
20262.616646,1110.308913,-13841.851115,6128.763984
20262.616979,7031.956449,-9178.553681,14632.424012
20262.617312,7698.141797,-2146.597232,15934.786358
20262.617645,8068.244768,-148.041188,12563.966167
20262.617978,6587.832884,-1776.494261,7890.783629
20262.618312,4885.359217,-3034.844362,1915.238745
20262.618645,518.144159,-5921.647536,-5669.106685
20262.618978,-5773.606348,-8660.409521,-13713.109414
20262.619311,-11843.295072,-14285.974681,-13483.280765
20262.619644,-7846.182985,-18949.272115,-12334.137518
20262.619978,-8882.471304,-17024.736666,-7431.126331
20262.620311,-4737.318029,-14878.139434,2451.505594
20262.620644,2294.638420,-9770.718434,8044.002729
20262.620977,6587.832884,-4441.235652,15704.957709
20262.621310,8364.327145,-592.164754,15704.957709
20262.621644,6809.894666,-1480.411884,10342.289223
20262.621977,5033.400406,-370.102971,3600.648841
20262.622310,2368.659014,-5329.482782,-995.924147
20262.622643,-2072.576638,-7920.203579,-8886.707777
20262.622976,-8142.265362,-12213.398043,-14479.204912
20262.623310,-9030.512492,-18653.189738,-13866.328514
20262.623643,-8956.491898,-20133.601622,-11108.384721
20262.623976,-8290.306550,-17246.798449,-2451.505594
20262.624309,-2368.659014,-13397.727550,7890.783629
20262.624642,5255.462188,-7105.977043,11261.603821
20262.624975,8586.388927,-2146.597232,15934.786358
20262.625309,9178.553681,-740.205942,14555.814462
20262.625642,6069.688724,-74.020594,7660.954980
20262.625975,6587.832884,-1702.473667,1685.410096
20262.626308,1702.473667,-7105.977043,-5898.935335
20262.626641,-4145.153275,-10658.965565,-11414.822920
20262.626975,-10658.965565,-13101.645173,-15321.909960
20262.627308,-8142.265362,-21317.931130,-11108.384721
20262.627641,-3923.091493,-18949.272115,-8044.002729
20262.627974,-666.185348,-16136.489536,3294.210641
20262.628307,2220.617826,-9992.780217,9269.755526
20262.628641,6957.935855,-4811.338623,13713.109414
20262.628974,9400.615463,-74.020594,14249.376263
20262.629307,7105.977043,-74.020594,10725.336972
20262.629640,8216.285956,-2072.576638,4826.401637
20262.629973,2368.659014,-3034.844362,612.876398
20262.630307,1702.473667,-9474.636058,-7124.688131
20262.630640,-6365.771101,-10955.047942,-14172.766713
20262.630973,-10510.924376,-16654.633695,-14709.033562
20262.631306,-9918.759623,-20503.704593,-11261.603821
20262.631639,-4737.318029,-17468.860231,-2757.943793
20262.631973,1406.391290,-12731.542202,5439.278036
20262.632306,6513.812290,-7105.977043,14862.252661
20262.632639,9400.615463,-1258.350101,13176.842566
20262.632972,10584.944971,0.000000,13789.718964
20262.633305,8808.450710,-2368.659014,4826.401637
20262.633639,3552.988522,-3182.885551,1072.533697
20262.633972,1554.432478,-7846.182985,-3753.867940
20262.634305,-3330.926739,-13027.624579,-10189.070123
20262.634638,-7624.121203,-14582.057057,-13176.842566
20262.634971,-9178.553681,-18579.169144,-10725.336972
20262.635304,-5329.482782,-18357.107362,-3983.696590
20262.635638,-2368.659014,-13693.809927,5898.935335
20262.635971,2294.638420,-8290.306550,6435.202183
20262.636304,2960.823768,-3627.009116,8580.269578
20262.636637,7105.977043,-4737.318029,13406.671215
20262.636970,7920.203579,-2368.659014,8503.660028
20262.637304,3849.070898,-2146.597232,3447.429741
20262.637637,2072.576638,-5107.421000,-1762.019645
20262.637970,-2146.597232,-9770.718434,-6511.811733
20262.638303,-7328.038826,-12731.542202,-10495.508323
20262.638636,-10362.883188,-16654.633695,-11338.213370
20262.638970,-9474.636058,-18579.169144,-7354.516781
20262.639303,-4811.338623,-15914.427753,383.047749
20262.639636,-74.020594,-10436.903782,6052.154434
20262.639969,4071.132681,-5921.647536,9729.412825
20262.640303,4145.153275,-2294.638420,11797.870669
20262.640636,7624.121203,-4145.153275,11568.042020
20262.640969,5551.544565,-1036.288319,3064.381992
20262.641302,3552.988522,-2442.679609,-76.609550
20262.641635,1110.308913,-9474.636058,-5592.497135
20262.641969,-3552.988522,-12361.439231,-9116.536426
20262.642302,-6883.915261,-14285.974681,-12257.527968
20262.642635,-4515.256246,-18949.272115,-7431.126331
20262.642968,-4145.153275,-14285.974681,-2451.505594
20262.643302,0.000000,-11917.315666,4903.011187
20262.643635,5551.544565,-7698.141797,8503.660028
20262.643968,6439.791695,-2812.782580,8886.707777
20262.644301,5625.565159,-1998.556043,9193.145976
20262.644635,6735.874072,-2368.659014,4443.353888
20262.644968,4441.235652,-4145.153275,1991.848295
20262.645301,1554.432478,-5625.565159,-4060.306139
20262.645634,-2516.700203,-10955.047942,-7890.783629
20262.645967,-6513.812290,-13545.768739,-10725.336972
20262.646301,-8290.306550,-16062.468941,-5286.058936
20262.646634,-3034.844362,-16136.489536,-4290.134789
20262.646967,-888.247130,-13397.727550,2451.505594
20262.647300,2960.823768,-9474.636058,8503.660028
20262.647634,4737.318029,-3627.009116,9806.022374
20262.647967,6291.750507,-2960.823768,8503.660028
20262.648300,5699.585753,-2960.823768,4979.620737
20262.648633,3627.009116,-4293.194464,1149.143247
20262.648966,3182.885551,-7105.977043,-3140.991542
20262.649300,-666.185348,-10955.047942,-6205.373534
20262.649633,-3034.844362,-13101.645173,-9499.584175
20262.649966,-4737.318029,-14656.077652,-5669.106685
20262.650299,-3256.906145,-16654.633695,-1149.143247
20262.650633,2886.803174,-14508.036463,5439.278036
20262.650966,1480.411884,-10214.842000,6741.640382
20262.651299,3404.947333,-5699.585753,8580.269578
20262.651632,4441.235652,-3701.029710,8503.660028
20262.651965,2146.597232,-1850.514855,4290.134789
20262.652299,3478.967927,-3256.906145,-842.705048
20262.652632,0.000000,-5403.503377,-2451.505594
20262.652965,-74.020594,-10658.965565,-4979.620737
20262.653298,-4071.132681,-10140.821405,-8886.707777
20262.653632,-4811.338623,-15766.386565,-5362.668486
20262.653965,-5329.482782,-15470.304188,-3907.087040
20262.654298,-2072.576638,-14285.974681,2528.115143
20262.654631,1628.453072,-10732.986159,7048.078582
20262.654965,2960.823768,-4293.194464,8197.221829
20262.655298,5551.544565,-3552.988522,8503.660028
20262.655631,4737.318029,-3182.885551,5515.887586
20262.655964,1702.473667,-4737.318029,995.924147
20262.656297,74.020594,-4885.359217,-4366.744339
20262.656631,-2442.679609,-7698.141797,-6205.373534
20262.656964,-1776.494261,-12435.459826,-4979.620737
20262.657297,-3627.009116,-13323.706956,-8120.612279
20262.657630,-4441.235652,-14285.974681,-4903.011187
20262.657964,-1184.329507,-15026.180623,1838.629195
20262.658297,1480.411884,-10288.862594,6205.373534
20262.658630,4145.153275,-8216.285956,8810.098227
20262.658963,5625.565159,-4737.318029,9116.536426
20262.659296,3997.112087,-4145.153275,6052.154434
20262.659630,2368.659014,-2442.679609,0.000000
20262.659963,1110.308913,-5921.647536,-4060.306139
20262.660296,-3849.070898,-5995.668130,-7354.516781
20262.660629,-2442.679609,-12435.459826,-8044.002729
20262.660963,-5403.503377,-15396.283594,-8656.879127
20262.661296,-5625.565159,-14582.057057,-4979.620737
20262.661629,-3552.988522,-16136.489536,995.924147
20262.661962,2812.782580,-10881.027347,7814.174080
20262.662295,5773.606348,-6143.709319,12410.747068
20262.662629,7698.141797,-4737.318029,14632.424012
20262.662962,7031.956449,-592.164754,5515.887586
20262.663295,1332.370696,-3034.844362,0.000000
20262.663628,2886.803174,-8290.306550,-3140.991542
20262.663962,-4515.256246,-5995.668130,-9806.022374
20262.664295,-4367.215058,-12287.418637,-11108.384721
20262.664628,-6513.812290,-14285.974681,-9652.803275
