#time,accel_x,accel_y,accel_z
20974.178342,7105.977043,-7179.997637,1838.629195
20974.178676,6143.709319,-10066.800811,-1838.629195
20974.179010,5107.421000,-10066.800811,-3753.867940
20974.179343,4293.194464,-9548.656652,-3753.867940
20974.179677,5847.626942,-10658.965565,-3753.867940
20974.180011,8216.285956,-13027.624579,-1915.238745
20974.180344,7402.059420,-7476.080014,1838.629195
20974.180678,12657.521608,-9474.636058,6128.763984
20974.181012,14137.933492,-8290.306550,4826.401637
20974.181345,14730.098246,-10214.842000,6052.154434
20974.181679,12583.501014,-8512.368333,3677.258390
20974.182013,11695.253884,-9918.759623,2068.457845
20974.182346,8290.306550,-10955.047942,-995.924147
20974.182680,592.164754,-11917.315666,-4903.011187
20974.183014,-74.020594,-12435.459826,-7584.345430
20974.183348,-1258.350101,-8956.491898,-4903.011187
20974.183681,1776.494261,-9622.677246,-76.609550
20974.184015,7031.956449,-8882.471304,2987.772442
20974.184349,7624.121203,-3404.947333,5439.278036
20974.184682,11399.171507,-5255.462188,8963.317327
20974.185016,13175.665768,-4737.318029,7431.126331
20974.185350,13249.686362,-6365.771101,3983.696590
20974.185683,13175.665768,-8808.450710,2145.067394
20974.186017,7846.182985,-7772.162391,-3064.381992
20974.186351,9918.759623,-11843.295072,-4979.620737
20974.186684,7624.121203,-14211.954086,-8963.317327
20974.187018,2664.741391,-13397.727550,-7354.516781
20974.187352,3034.844362,-13027.624579,-4366.744339
20974.187685,4811.338623,-11843.295072,-1991.848295
20974.188019,7476.080014,-9474.636058,2221.676944
20974.188353,11325.150913,-6069.688724,7124.688131
20974.188686,16136.489536,-5329.482782,12717.185267
20974.189020,15100.201217,-3627.009116,11644.651570
20974.189354,13397.727550,-6439.791695,7277.907231
20974.189688,9104.533087,-8956.491898,2221.676944
20974.190021,5403.503377,-10140.821405,-2451.505594
20974.190355,2368.659014,-10436.903782,-6588.421283
20974.190689,-74.020594,-11843.295072,-9882.631924
20974.191022,0.000000,-9548.656652,-6741.640382
20974.191356,4071.132681,-10955.047942,-1685.410096
20974.191690,7031.956449,-7698.141797,-383.047749
20974.192023,8290.306550,-8142.265362,2987.772442
20974.192357,9178.553681,-8216.285956,2681.334243
20974.192691,11399.171507,-9474.636058,4826.401637
20974.193024,10955.047942,-7550.100608,3830.477490
20974.193358,10584.944971,-9474.636058,3600.648841
20974.193692,7031.956449,-9548.656652,0.000000
20974.194025,2738.761985,-10140.821405,612.876398
20974.194359,4959.379811,-11547.212695,1149.143247
20974.194693,2368.659014,-7179.997637,0.000000
20974.195026,5699.585753,-6809.894666,383.047749
20974.195360,6143.709319,-5551.544565,1225.752797
20974.195694,7994.224174,-6365.771101,1149.143247
20974.196028,6513.812290,-8364.327145,-995.924147
20974.196361,6735.874072,-10214.842000,-3830.477490
20974.196695,2368.659014,-12509.480420,-2451.505594
20974.197029,-74.020594,-14063.912898,-5286.058936
20974.197362,0.000000,-10140.821405,-4903.011187
20974.197696,5847.626942,-12879.583391,2987.772442
20974.198030,8808.450710,-7105.977043,4826.401637
20974.198363,10066.800811,-4145.153275,8350.440928
20974.198697,6735.874072,-6735.874072,5515.887586
20974.199031,7254.018232,-5995.668130,3524.039291
20974.199364,5033.400406,-7179.997637,766.095498
20974.199698,4737.318029,-6587.832884,-4596.572988
20974.200032,4145.153275,-11843.295072,-2528.115143
20974.200365,2886.803174,-10955.047942,-7201.297681
20974.200699,2590.720797,-10732.986159,-4903.011187
20974.201033,6069.688724,-10658.965565,-1302.362347
20974.201367,6587.832884,-11029.068536,0.000000
20974.201700,4737.318029,-12953.603985,3447.429741
20974.202034,3478.967927,-11325.150913,3600.648841
20974.202368,1184.329507,-8512.368333,2987.772442
20974.202701,4367.215058,-7550.100608,5439.278036
20974.203035,5329.482782,-4589.276840,4903.011187
20974.203369,5773.606348,-5847.626942,4290.134789
20974.203702,1924.535449,-7846.182985,1685.410096
20974.204036,-1184.329507,-9844.739029,-1915.238745
20974.204370,-1850.514855,-9548.656652,-5975.544884
20974.204703,-1184.329507,-8364.327145,-2451.505594
20974.205037,1184.329507,-7772.162391,-2528.115143
20974.205371,1776.494261,-11547.212695,-1225.752797
20974.205704,4367.215058,-10658.965565,2068.457845
20974.206038,1184.329507,-11695.253884,2145.067394
20974.206372,2664.741391,-11769.274478,2834.553343
20974.206705,-1850.514855,-12139.377449,536.266849
20974.207039,-4145.153275,-9104.533087,76.609550
20974.207373,-2886.803174,-4811.338623,0.000000
20974.207707,1776.494261,-5773.606348,2374.896044
20974.208040,4663.297435,-7105.977043,4213.525239
20974.208374,4367.215058,-5921.647536,2987.772442
20974.208708,2886.803174,-9252.574275,306.438199
20974.209041,-962.267725,-11547.212695,-1991.848295
20974.209375,-666.185348,-11991.336260,-4060.306139
20974.209709,1184.329507,-8364.327145,-2757.943793
20974.210042,2294.638420,-11843.295072,-1302.362347
20974.210376,592.164754,-9548.656652,0.000000
20974.210710,-1776.494261,-13989.892304,1608.800546
20974.211043,-2442.679609,-11695.253884,-1149.143247
20974.211377,-7105.977043,-10732.986159,1225.752797
20974.211711,-4367.215058,-6957.935855,0.000000
20974.212044,-962.267725,-4441.235652,2528.115143
20974.212378,4367.215058,-2146.597232,6358.592633
20974.212712,6513.812290,-1998.556043,7507.735880
20974.213045,4219.173869,-3627.009116,3217.601092
20974.213379,4737.318029,-13915.871710,2374.896044
20974.213713,-74.020594,-15396.283594,-2528.115143
20974.214047,-4145.153275,-11325.150913,-7354.516781
20974.214380,-74.020594,-12435.459826,-4979.620737
20974.214714,-2960.823768,-11621.233289,-4903.011187
20974.215048,-2146.597232,-9252.574275,-3294.210641
20974.215381,-3182.885551,-12731.542202,-383.047749
20974.215715,-2368.659014,-12879.583391,1455.581446
20974.216049,-4737.318029,-9548.656652,5515.887586
20974.216382,2886.803174,-6513.812290,6052.154434
20974.216716,5551.544565,-3182.885551,8886.707777
20974.217050,5921.647536,-74.020594,9806.022374
20974.217383,11177.109724,-4737.318029,7277.907231
20974.217717,6069.688724,-8660.409521,3370.820191
20974.218051,2368.659014,-12213.398043,-2451.505594
20974.218384,-3108.864956,-15988.448347,-6511.811733
20974.218718,-4589.276840,-13323.706956,-10801.946522
20974.219052,-7105.977043,-13101.645173,-9193.145976
20974.219385,-2738.761985,-12065.356855,-5439.278036
20974.219719,-518.144159,-9030.512492,-919.314598
20974.220053,-740.205942,-11621.233289,3907.087040
20974.220387,-1258.350101,-10362.883188,4826.401637
20974.220720,-666.185348,-6661.853478,4903.011187
20974.221054,3849.070898,-3627.009116,8580.269578
20974.221388,8512.368333,-4737.318029,9729.412825
20974.221721,5625.565159,-1258.350101,5209.449386
20974.222055,5551.544565,-6439.791695,3600.648841
20974.222389,-592.164754,-10584.944971,-2068.457845
20974.222722,-3775.050304,-14211.954086,-7507.735880
20974.223056,-6365.771101,-14582.057057,-9959.241474
20974.223390,-6513.812290,-14285.974681,-11031.775171
20974.223723,-4811.338623,-10732.986159,-7354.516781
20974.224057,-74.020594,-12435.459826,-76.609550
20974.224391,-74.020594,-13619.789333,4826.401637
20974.224724,1406.391290,-7772.162391,7048.078582
20974.225058,740.205942,-4145.153275,8197.221829
20974.225392,3997.112087,-3997.112087,8963.317327
20974.225725,5403.503377,-2812.782580,7737.564530
20974.226059,6439.791695,-2368.659014,4749.792088
20974.226393,4145.153275,-4737.318029,612.876398
20974.226727,592.164754,-8364.327145,-4903.011187
20974.227060,-1258.350101,-16284.530724,-5592.497135
20974.227394,-5995.668130,-14285.974681,-11031.775171
20974.227728,-7624.121203,-12213.398043,-9806.022374
20974.228061,-5921.647536,-14137.933492,-7967.393179
20974.228395,-444.123565,-11473.192101,-2528.115143
20974.228729,3404.947333,-10066.800811,4519.963438
20974.229062,4367.215058,-8364.327145,8886.707777
20974.229396,2886.803174,-7105.977043,8197.221829
20974.229730,2368.659014,-5403.503377,7890.783629
20974.230063,6439.791695,-5921.647536,6052.154434
20974.230397,4145.153275,-2442.679609,6435.202183
20974.230731,5033.400406,-4219.173869,3677.258390
20974.231064,1110.308913,-9474.636058,-3140.991542
20974.231398,-4811.338623,-14508.036463,-7890.783629
20974.231732,-6587.832884,-15988.448347,-8044.002729
20974.232065,-6735.874072,-14359.995275,-8656.879127
20974.232398,-6217.729913,-13101.645173,-5669.106685
20974.232732,-74.020594,-13027.624579,-76.609550
20974.233065,1110.308913,-6291.750507,3677.258390
20974.233398,1406.391290,-5403.503377,7354.516781
20974.233731,3182.885551,-7550.100608,8656.879127
20974.234065,2294.638420,-6809.894666,7277.907231
20974.234398,666.185348,-4515.256246,3600.648841
20974.234731,4145.153275,-4441.235652,3294.210641
20974.235065,2886.803174,-5847.626942,459.657299
20974.235398,888.247130,-5995.668130,-3677.258390
20974.235731,-1332.370696,-14211.954086,-4979.620737
20974.236064,-6513.812290,-14582.057057,-8580.269578
20974.236398,-2442.679609,-14952.160028,-7124.688131
20974.236731,-1776.494261,-14582.057057,-2145.067394
20974.237064,4071.132681,-10658.965565,-76.609550
20974.237398,4071.132681,-8142.265362,2528.115143
20974.237731,4737.318029,-7772.162391,8886.707777
20974.238064,5921.647536,-7920.203579,10955.165621
20974.238397,1628.453072,-6143.709319,3830.477490
20974.238731,222.061783,-3627.009116,0.000000
20974.239064,-74.020594,-6809.894666,-229.828649
20974.239397,1628.453072,-4811.338623,-1608.800546
20974.239731,2294.638420,-6809.894666,-1532.190996
20974.240064,0.000000,-9548.656652,-3677.258390
20974.240397,-2072.576638,-17468.860231,-3753.867940
20974.240730,-5329.482782,-16580.613101,-6358.592633
20974.241064,-4441.235652,-11325.150913,-3677.258390
20974.241397,1776.494261,-10658.965565,-76.609550
20974.241730,4145.153275,-6735.874072,6128.763984
20974.242063,4589.276840,-7105.977043,8197.221829
20974.242397,3182.885551,-5625.565159,6511.811733
20974.242730,-2220.617826,-9252.574275,3064.381992
20974.243063,-3775.050304,-8808.450710,-76.609550
20974.243397,-3034.844362,-9474.636058,-2528.115143
20974.243730,-3552.988522,-4219.173869,-2298.286494
20974.244063,-296.082377,-7920.203579,-76.609550
20974.244396,-74.020594,-7994.224174,-2451.505594
20974.244730,148.041188,-13619.789333,2374.896044
20974.245063,-2072.576638,-13841.851115,-689.485948
20974.245396,-2812.782580,-12953.603985,-1072.533697
20974.245730,-592.164754,-11103.089130,-1455.581446
20974.246063,2294.638420,-9770.718434,1762.019645
20974.246396,3034.844362,-4589.276840,1608.800546
20974.246729,3552.988522,-7772.162391,6205.373534
20974.247063,518.144159,-8882.471304,2374.896044
20974.247396,-2442.679609,-8364.327145,-3064.381992
20974.247729,-3404.947333,-8512.368333,-1608.800546
20974.248063,-1998.556043,-7476.080014,-2451.505594
20974.248396,1998.556043,-6143.709319,0.000000
20974.248729,1554.432478,-7550.100608,1532.190996
20974.249062,2294.638420,-10955.047942,3600.648841
20974.249396,0.000000,-10732.986159,1838.629195
20974.249729,222.061783,-12953.603985,0.000000
20974.250062,444.123565,-11103.089130,229.828649
20974.250396,0.000000,-8364.327145,0.000000
20974.250729,592.164754,-8364.327145,1608.800546
20974.251062,2590.720797,-8290.306550,-76.609550
20974.251395,-1480.411884,-6587.832884,0.000000
20974.251729,-888.247130,-11251.130318,2374.896044
20974.252062,-3404.947333,-7179.997637,-1225.752797
20974.252395,-2072.576638,-8364.327145,-1532.190996
20974.252728,4293.194464,-5995.668130,3217.601092
20974.253062,5625.565159,-5403.503377,5056.230287
20974.253395,7476.080014,-9474.636058,5745.716235
20974.253728,2738.761985,-11325.150913,4213.525239
20974.254062,-74.020594,-12435.459826,-3217.601092
20974.254395,-4145.153275,-12805.562797,-1608.800546
20974.254728,-1258.350101,-12435.459826,-3753.867940
20974.255061,-2072.576638,-8068.244768,-4136.915689
20974.255395,-1184.329507,-8364.327145,-995.924147
20974.255728,0.000000,-7624.121203,1225.752797
20974.256061,-1924.535449,-9918.759623,2374.896044
20974.256395,-2368.659014,-8660.409521,1532.190996
20974.256728,0.000000,-7476.080014,3830.477490
20974.257061,3256.906145,-4219.173869,3064.381992
20974.257394,3552.988522,-4959.379811,5669.106685
20974.257728,4663.297435,-7698.141797,2987.772442
20974.258061,2886.803174,-11843.295072,842.705048
20974.258394,-1258.350101,-13323.706956,-1915.238745
20974.258728,-2590.720797,-13323.706956,-3983.696590
20974.259061,-4367.215058,-11843.295072,-4673.182538
20974.259394,-3849.070898,-11177.109724,-3294.210641
20974.259727,-666.185348,-7698.141797,-689.485948
20974.260061,-2072.576638,-6587.832884,2068.457845
20974.260394,-74.020594,-10066.800811,4826.401637
20974.260727,-1258.350101,-5995.668130,3064.381992
20974.261060,0.000000,-5107.421000,4903.011187
20974.261394,1998.556043,-4219.173869,2757.943793
20974.261727,3034.844362,-7105.977043,2221.676944
20974.262060,3404.947333,-6883.915261,2145.067394
20974.262394,1184.329507,-10214.842000,-153.219100
20974.262727,-1850.514855,-11177.109724,-5669.106685
20974.263060,-5329.482782,-14730.098246,-3140.991542
20974.263393,-3627.009116,-12435.459826,-4979.620737
20974.263727,-1850.514855,-10658.965565,-4979.620737
20974.264060,-2368.659014,-7772.162391,-2451.505594
20974.264393,1110.308913,-6661.853478,995.924147
20974.264727,1406.391290,-8660.409521,4596.572988
20974.265060,3775.050304,-6957.935855,7507.735880
20974.265393,1998.556043,-6809.894666,6052.154434
20974.265726,4663.297435,-5847.626942,2451.505594
20974.266060,6883.915261,-6291.750507,4519.963438
20974.266393,4145.153275,-7476.080014,1991.848295
20974.266726,4145.153275,-8364.327145,-842.705048
20974.267060,-2368.659014,-14211.954086,-3140.991542
20974.267393,-5107.421000,-15248.242405,-8503.660028
20974.267726,-7105.977043,-10732.986159,-9499.584175
20974.268059,-4737.318029,-13101.645173,-3140.991542
20974.268393,1110.308913,-8586.388927,-995.924147
20974.268726,888.247130,-5403.503377,4903.011187
20974.269059,5477.523971,-5847.626942,7584.345430
20974.269393,4071.132681,-7550.100608,8197.221829
20974.269726,3552.988522,-7105.977043,6052.154434
20974.270059,4663.297435,-7105.977043,3600.648841
20974.270392,4663.297435,-8882.471304,536.266849
20974.270726,3552.988522,-7328.038826,1762.019645
20974.271059,-74.020594,-13027.624579,-689.485948
20974.271392,-1850.514855,-11325.150913,-4903.011187
20974.271725,-4811.338623,-14211.954086,-3753.867940
20974.272059,-6365.771101,-14137.933492,-5898.935335
20974.272392,-3849.070898,-9474.636058,-4060.306139
20974.272725,-2812.782580,-9622.677246,-1532.190996
20974.273059,1480.411884,-4811.338623,3677.258390
20974.273392,4663.297435,-3034.844362,3677.258390
20974.273725,5625.565159,-8290.306550,9116.536426
20974.274058,3478.967927,-7846.182985,5209.449386
20974.274392,-3552.988522,-7179.997637,2451.505594
20974.274725,1702.473667,-7105.977043,-689.485948
20974.275058,0.000000,-8660.409521,-1991.848295
20974.275392,1332.370696,-9252.574275,-1915.238745
20974.275725,-1110.308913,-11103.089130,-3217.601092
20974.276058,-3256.906145,-14285.974681,-3677.258390
20974.276391,-8586.388927,-12509.480420,-6128.763984
20974.276725,-3627.009116,-16284.530724,-2528.115143
20974.277058,-962.267725,-8438.347739,-1072.533697
20974.277391,0.000000,-8364.327145,4903.011187
20974.277725,3701.029710,-3182.885551,5515.887586
20974.278058,4515.256246,-5921.647536,9116.536426
20974.278391,2664.741391,-6735.874072,8044.002729
20974.278724,-1184.329507,-6883.915261,2221.676944
20974.279058,-2442.679609,-9474.636058,-2528.115143
20974.279391,-2368.659014,-9844.739029,-2528.115143
20974.279724,-1850.514855,-8364.327145,-5822.325785
20974.280057,0.000000,-7179.997637,-4290.134789
20974.280391,-444.123565,-15100.201217,-1915.238745
20974.280724,-444.123565,-13175.665768,-2451.505594
20974.281057,518.144159,-11547.212695,-76.609550
20974.281391,2590.720797,-9474.636058,1991.848295
20974.281724,4219.173869,-7550.100608,4519.963438
20974.282057,7031.956449,-5921.647536,4826.401637
20974.282390,7105.977043,-5551.544565,6511.811733
20974.282724,6587.832884,-7846.182985,5898.935335
20974.283057,2812.782580,-8586.388927,2604.724693
20974.283390,296.082377,-9622.677246,-1838.629195
20974.283724,4663.297435,-9474.636058,-2528.115143
20974.284057,2960.823768,-11029.068536,-2451.505594
20974.284390,5107.421000,-11843.295072,-1608.800546
20974.284723,2368.659014,-10436.903782,-1838.629195
20974.285057,0.000000,-13101.645173,1225.752797
20974.285390,1702.473667,-10658.965565,842.705048
20974.285723,888.247130,-8956.491898,306.438199
20974.286057,2220.617826,-8512.368333,1762.019645
20974.286390,1998.556043,-6957.935855,2068.457845
20974.286723,518.144159,-4441.235652,229.828649
20974.287056,0.000000,-8956.491898,3294.210641
20974.287390,-1850.514855,-11843.295072,-76.609550
20974.287723,-8290.306550,-7772.162391,-1225.752797
20974.288056,-2368.659014,-8808.450710,-1532.190996
20974.288389,-1850.514855,-8660.409521,-2911.162892
20974.288723,2886.803174,-8808.450710,1149.143247
20974.289056,3701.029710,-8586.388927,3140.991542
20974.289389,-888.247130,-11991.336260,1378.971896
20974.289723,-2368.659014,-10732.986159,0.000000
20974.290056,-3256.906145,-15988.448347,-76.609550
20974.290389,-1850.514855,-7254.018232,-2451.505594
20974.290722,-4737.318029,-7772.162391,612.876398
20974.291056,-74.020594,-8290.306550,-76.609550
20974.291389,-2960.823768,-5107.421000,2451.505594
20974.291722,-3775.050304,-8882.471304,2068.457845
20974.292056,-3627.009116,-6957.935855,536.266849
20974.292389,-4885.359217,-9548.656652,0.000000
20974.292722,2294.638420,-6365.771101,2987.772442
20974.293055,4663.297435,-9474.636058,3600.648841
20974.293389,1850.514855,-4811.338623,1532.190996
20974.293722,3701.029710,-11399.171507,3064.381992
20974.294055,1702.473667,-15988.448347,-76.609550
20974.294389,-2960.823768,-11917.315666,-3064.381992
20974.294722,-4071.132681,-12731.542202,-5132.839837
20974.295055,-2886.803174,-10140.821405,-4290.134789
20974.295388,-592.164754,-7920.203579,-919.314598
20974.295722,2590.720797,-7994.224174,4826.401637
20974.296055,2146.597232,-7550.100608,4213.525239
20974.296388,-740.205942,-8142.265362,4213.525239
20974.296722,740.205942,-6513.812290,2298.286494
20974.297055,3182.885551,-5403.503377,2451.505594
20974.297388,5329.482782,-4811.338623,3983.696590
20974.297721,7031.956449,-10658.965565,2374.896044
20974.298055,2664.741391,-7179.997637,-1685.410096
20974.298388,0.000000,-13397.727550,-1685.410096
20974.298721,-666.185348,-13619.789333,-3907.087040
20974.299054,-4589.276840,-13101.645173,-6894.859482
20974.299388,-3182.885551,-10955.047942,-6435.202183
20974.299721,-1850.514855,-10288.862594,-3524.039291
20974.300054,1480.411884,-6587.832884,1225.752797
20974.300388,3478.967927,-7105.977043,3677.258390
20974.300721,4663.297435,-9474.636058,5439.278036
20974.301054,592.164754,-6883.915261,6128.763984
20974.301387,2368.659014,-5995.668130,6128.763984
20974.301721,6069.688724,-5995.668130,4596.572988
20974.302054,4219.173869,-7550.100608,3294.210641
20974.302387,4959.379811,-8290.306550,0.000000
20974.302721,888.247130,-11843.295072,-2528.115143
20974.303054,-2442.679609,-16580.613101,-4366.744339
20974.303387,-8290.306550,-11325.150913,-8580.269578
20974.303720,-7179.997637,-15396.283594,-7431.126331
20974.304054,-6587.832884,-9178.553681,-7048.078582
20974.304387,-4145.153275,-7920.203579,0.000000
20974.304720,1702.473667,-7105.977043,5745.716235
20974.305054,1036.288319,-6809.894666,8810.098227
20974.305387,814.226536,-5107.421000,9193.145976
20974.305720,148.041188,-6513.812290,6971.469032
20974.306053,2960.823768,-5995.668130,4290.134789
20974.306387,6513.812290,-6291.750507,6052.154434
20974.306720,2368.659014,-7179.997637,0.000000
20974.307053,0.000000,-8364.327145,-2451.505594
20974.307386,-1850.514855,-15988.448347,-7737.564530
20974.307720,-8068.244768,-15026.180623,-9806.022374
20974.308053,-3923.091493,-14211.954086,-7431.126331
20974.308386,-4219.173869,-12213.398043,-3907.087040
20974.308720,-2072.576638,-8364.327145,0.000000
20974.309053,3701.029710,-4959.379811,5286.058936
20974.309386,8216.285956,-4737.318029,11568.042020
20974.309719,5033.400406,-3923.091493,13483.280765
20974.310053,7624.121203,-7105.977043,8810.098227
20974.310386,4145.153275,-3627.009116,3677.258390
20974.310719,5329.482782,-7550.100608,1149.143247
20974.311053,5847.626942,-8290.306550,-4060.306139
20974.311386,1850.514855,-10807.006753,-7507.735880
20974.311719,-1998.556043,-16506.592507,-8503.660028
20974.312052,-4219.173869,-16358.551318,-9422.974625
20974.312386,-2442.679609,-15692.365970,-7431.126331
20974.312719,-2368.659014,-12879.583391,-3830.477490
20974.313052,3108.864956,-10214.842000,2681.334243
20974.313386,6365.771101,-5995.668130,8886.707777
20974.313719,5329.482782,-3627.009116,11644.651570
20974.314052,7031.956449,-5329.482782,10648.727422
20974.314385,1184.329507,-4441.235652,6971.469032
20974.314719,-2368.659014,-5403.503377,3140.991542
20974.315052,-148.041188,-7105.977043,-2068.457845
20974.315385,-1406.391290,-6735.874072,-5822.325785
20974.315719,-2442.679609,-10288.862594,-5822.325785
20974.316052,-4219.173869,-12731.542202,-6818.249932
20974.316385,-7994.224174,-15470.304188,-7354.516781
20974.316718,-5921.647536,-15988.448347,-4673.182538
20974.317052,-2442.679609,-14211.954086,-1915.238745
20974.317385,-1776.494261,-7476.080014,2911.162892
20974.317718,0.000000,-8956.491898,8273.831378
20974.318051,5551.544565,-3404.947333,7277.907231
20974.318385,0.000000,-6587.832884,8886.707777
20974.318718,1406.391290,-3552.988522,6665.030833
20974.319051,-3478.967927,-8808.450710,2221.676944
20974.319385,-2960.823768,-6217.729913,-1532.190996
20974.319718,-2442.679609,-7402.059420,-2834.553343
20974.320051,-370.102971,-11843.295072,-4979.620737
20974.320384,-1776.494261,-7179.997637,-2451.505594
20974.320718,-2664.741391,-14656.077652,-1378.971896
20974.321051,1110.308913,-15100.201217,-2528.115143
20974.321384,-1850.514855,-13915.871710,-689.485948
20974.321718,-370.102971,-10807.006753,-1915.238745
20974.322051,2220.617826,-8438.347739,1455.581446
20974.322384,3701.029710,-7031.956449,4213.525239
20974.322717,3552.988522,-4811.338623,5209.449386
20974.323051,814.226536,-7031.956449,3677.258390
20974.323384,-3552.988522,-7179.997637,3064.381992
20974.323717,-1258.350101,-7994.224174,-689.485948
20974.324051,1184.329507,-4737.318029,-2068.457845
20974.324384,1480.411884,-6587.832884,-995.924147
20974.324717,2664.741391,-9104.533087,-76.609550
20974.325050,2812.782580,-11843.295072,-383.047749
20974.325384,-666.185348,-14952.160028,-1225.752797
20974.325717,-74.020594,-13027.624579,-689.485948
20974.326050,0.000000,-9548.656652,-1685.410096
20974.326383,3923.091493,-10658.965565,-76.609550
20974.326717,4663.297435,-6513.812290,0.000000
20974.327050,2960.823768,-8364.327145,4213.525239
20974.327383,2368.659014,-6069.688724,2987.772442
20974.327717,-1850.514855,-9770.718434,1149.143247
20974.328050,-740.205942,-8068.244768,76.609550
20974.328383,-814.226536,-7476.080014,-459.657299
20974.328716,4959.379811,-7105.977043,-76.609550
20974.329050,3552.988522,-9844.739029,3217.601092
20974.329383,4589.276840,-7772.162391,1685.410096
20974.329716,2442.679609,-13989.892304,1991.848295
20974.330050,888.247130,-11843.295072,306.438199
20974.330383,-2072.576638,-13693.809927,-2451.505594
20974.330716,-4589.276840,-7179.997637,-6741.640382
20974.331049,-3256.906145,-9992.780217,-1915.238745
20974.331383,-3627.009116,-7179.997637,-3830.477490
20974.331716,-2146.597232,-7105.977043,1149.143247
20974.332049,-2442.679609,-9474.636058,3600.648841
20974.332383,-5181.441594,-7846.182985,1991.848295
20974.332716,-4219.173869,-4441.235652,689.485948
20974.333049,888.247130,-7402.059420,4979.620737
20974.333382,7031.956449,-6513.812290,6971.469032
20974.333716,3552.988522,-5995.668130,6128.763984
20974.334049,3478.967927,-12953.603985,3600.648841
20974.334382,-370.102971,-10140.821405,-3064.381992
20974.334716,-5921.647536,-11917.315666,-5515.887586
20974.335049,-1258.350101,-13619.789333,-5592.497135
20974.335382,-4663.297435,-11399.171507,-5056.230287
20974.335715,-4219.173869,-8956.491898,-3217.601092
20974.336048,-1184.329507,-6735.874072,0.000000
20974.336382,0.000000,-5107.421000,2911.162892
20974.336715,0.000000,-7772.162391,7660.954980
20974.337048,4663.297435,-3552.988522,4826.401637
20974.337381,6439.791695,-5403.503377,3064.381992
20974.337714,7994.224174,-6291.750507,6665.030833
20974.338047,5625.565159,-6587.832884,1225.752797
20974.338381,7031.956449,-11251.130318,-919.314598
20974.338714,1924.535449,-14211.954086,-3064.381992
20974.339047,-1628.453072,-14211.954086,-7048.078582
20974.339380,-2072.576638,-14804.118840,-7354.516781
20974.339713,-1036.288319,-13027.624579,-3753.867940
20974.340047,-74.020594,-10066.800811,-3140.991542
20974.340380,1776.494261,-7772.162391,2221.676944
20974.340713,4663.297435,-10955.047942,7277.907231
20974.341046,3182.885551,-4811.338623,4903.011187
20974.341379,2220.617826,-5921.647536,8197.221829
20974.341713,2294.638420,-3997.112087,4749.792088
20974.342046,3997.112087,-6809.894666,4519.963438
20974.342379,4441.235652,-5699.585753,3217.601092
20974.342712,2294.638420,-8586.388927,-383.047749
20974.343045,-1406.391290,-13619.789333,-4060.306139
20974.343378,-7476.080014,-14878.139434,-8580.269578
20974.343712,-7254.018232,-14804.118840,-9882.631924
20974.344045,-7994.224174,-10732.986159,-7967.393179
20974.344378,-2368.659014,-10140.821405,-689.485948
20974.344711,-1850.514855,-10362.883188,1762.019645
20974.345044,1702.473667,-3701.029710,3064.381992
20974.345378,2294.638420,-8882.471304,9729.412825
20974.345711,2294.638420,-4737.318029,6971.469032
20974.346044,2590.720797,-5181.441594,6894.859482
20974.346377,444.123565,-5699.585753,4366.744339
20974.346710,3552.988522,-5403.503377,2298.286494
20974.347044,1702.473667,-8734.430116,-76.609550
20974.347377,0.000000,-11325.150913,-2604.724693
20974.347710,-3627.009116,-15988.448347,-7431.126331
20974.348043,-8290.306550,-13397.727550,-8886.707777
20974.348376,-7105.977043,-12213.398043,-7890.783629
20974.348709,-4811.338623,-11547.212695,-4443.353888
20974.349043,1924.535449,-7031.956449,2298.286494
20974.349376,3849.070898,-6365.771101,7507.735880
20974.349709,5255.462188,-4515.256246,9116.536426
20974.350042,1702.473667,-5329.482782,6971.469032
20974.350375,4071.132681,-7698.141797,7277.907231
20974.350709,2886.803174,-4811.338623,1838.629195
20974.351042,4737.318029,-6439.791695,2911.162892
20974.351375,2516.700203,-9474.636058,-1838.629195
20974.351708,-2368.659014,-10732.986159,-5209.449386
20974.352041,-4959.379811,-14285.974681,-7354.516781
20974.352375,-5403.503377,-15248.242405,-6818.249932
20974.352708,-4071.132681,-13027.624579,-3907.087040
20974.353041,-3552.988522,-9548.656652,-3370.820191
20974.353374,4663.297435,-8882.471304,3447.429741
20974.353707,4663.297435,-4737.318029,4826.401637
20974.354040,4737.318029,-5403.503377,8886.707777
20974.354374,5847.626942,-7105.977043,8503.660028
20974.354707,888.247130,-8512.368333,3753.867940
20974.355040,-962.267725,-8364.327145,-919.314598
20974.355373,-1110.308913,-8142.265362,-2374.896044
20974.355706,370.102971,-9104.533087,-4213.525239
20974.356040,2812.782580,-8660.409521,-1302.362347
20974.356373,-74.020594,-13915.871710,-5515.887586
20974.356706,-3552.988522,-14285.974681,-1302.362347
20974.357039,-2442.679609,-16580.613101,-1302.362347
20974.357372,-2442.679609,-8512.368333,-3753.867940
20974.357706,1480.411884,-9474.636058,3600.648841
20974.358039,3108.864956,-5699.585753,4903.011187
20974.358372,5255.462188,-5255.462188,6971.469032
20974.358705,2072.576638,-6883.915261,7124.688131
20974.359038,1184.329507,-6883.915261,5669.106685
20974.359371,-3923.091493,-8660.409521,-766.095498
20974.359705,-518.144159,-9178.553681,-2298.286494
20974.360038,148.041188,-7476.080014,-2298.286494
20974.360371,370.102971,-8364.327145,-2757.943793
20974.360704,1184.329507,-8364.327145,-612.876398
20974.361037,-74.020594,-15100.201217,-76.609550
20974.361371,1702.473667,-13027.624579,-1915.238745
20974.361704,0.000000,-8364.327145,383.047749
20974.362037,2294.638420,-11251.130318,1149.143247
20974.362370,3849.070898,-5847.626942,3064.381992
20974.362703,4663.297435,-4515.256246,2528.115143
20974.363037,6365.771101,-7031.956449,2987.772442
20974.363370,1184.329507,-9548.656652,2451.505594
20974.363703,0.000000,-8956.491898,1455.581446
20974.364036,-74.020594,-8734.430116,-4136.915689
20974.364369,3256.906145,-7179.997637,-3677.258390
20974.364703,4737.318029,-10140.821405,1532.190996
20974.365036,6587.832884,-6587.832884,76.609550
20974.365369,4959.379811,-12879.583391,1455.581446
20974.365702,370.102971,-12953.603985,-612.876398
20974.366035,1258.350101,-11843.295072,-76.609550
20974.366368,1702.473667,-11843.295072,-76.609550
20974.366702,1184.329507,-8660.409521,3600.648841
20974.367035,1110.308913,-5033.400406,0.000000
20974.367368,0.000000,-7624.121203,2604.724693
20974.367701,-666.185348,-9474.636058,2987.772442
20974.368034,-4811.338623,-8882.471304,0.000000
20974.368368,-6365.771101,-8734.430116,-2528.115143
20974.368701,-5477.523971,-7402.059420,-2834.553343
20974.369034,-888.247130,-7698.141797,229.828649
20974.369367,2220.617826,-6661.853478,2987.772442
20974.369700,3627.009116,-10658.965565,3600.648841
20974.370034,-4737.318029,-11917.315666,0.000000
20974.370367,-4737.318029,-11621.233289,-1072.533697
20974.370700,-3034.844362,-11251.130318,-2451.505594
20974.371033,-1998.556043,-8290.306550,-2068.457845
20974.371366,-2146.597232,-10510.924376,0.000000
20974.371699,-518.144159,-5329.482782,842.705048
20974.372033,-2368.659014,-11103.089130,2374.896044
20974.372366,-3552.988522,-5995.668130,2451.505594
20974.372699,-3627.009116,-10066.800811,-1302.362347
20974.373032,-1776.494261,-8216.285956,2681.334243
20974.373365,5847.626942,-9178.553681,6052.154434
20974.373699,962.267725,-5995.668130,3370.820191
20974.374032,5403.503377,-5921.647536,3447.429741
20974.374365,2146.597232,-10510.924376,1225.752797
20974.374698,-962.267725,-12583.501014,-1532.190996
20974.375031,-2442.679609,-11621.233289,-3600.648841
20974.375365,-5921.647536,-11917.315666,-5975.544884
20974.375698,-2146.597232,-8882.471304,-5898.935335
20974.376031,-296.082377,-7920.203579,229.828649
20974.376364,2886.803174,-7476.080014,2604.724693
20974.376697,888.247130,-8734.430116,4826.401637
20974.377030,0.000000,-5995.668130,2451.505594
20974.377364,3478.967927,-7105.977043,3600.648841
20974.377697,4737.318029,-4811.338623,4903.011187
20974.378030,9918.759623,-7105.977043,4826.401637
20974.378363,7031.956449,-10658.965565,2374.896044
20974.378696,1480.411884,-9696.697840,-1685.410096
20974.379030,-74.020594,-14137.933492,-3983.696590
20974.379363,-4219.173869,-15248.242405,-5975.544884
20974.379696,-2960.823768,-10732.986159,-6818.249932
20974.380029,-3108.864956,-12879.583391,-2681.334243
20974.380362,2886.803174,-8290.306550,-2068.457845
20974.380696,1776.494261,-6291.750507,2451.505594
20974.381029,5847.626942,-9474.636058,6971.469032
20974.381362,2590.720797,-5995.668130,6128.763984
20974.381695,1184.329507,-9992.780217,6588.421283
20974.382028,3108.864956,-6143.709319,1991.848295
20974.382361,4663.297435,-8586.388927,2681.334243
20974.382695,2294.638420,-8882.471304,-229.828649
20974.383028,1702.473667,-10362.883188,-1302.362347
20974.383361,-1850.514855,-13619.789333,-6741.640382
20974.383694,-4737.318029,-13915.871710,-2528.115143
20974.384027,-9474.636058,-12805.562797,-3830.477490
20974.384361,-4811.338623,-10658.965565,-4979.620737
20974.384694,-3775.050304,-8882.471304,-1302.362347
20974.385027,-814.226536,-4367.215058,3370.820191
20974.385360,4071.132681,-4589.276840,10189.070123
20974.385693,0.000000,-7624.121203,9652.803275
20974.386027,0.000000,-4811.338623,4290.134789
20974.386360,-2072.576638,-7179.997637,1225.752797
20974.386693,2960.823768,-8142.265362,2374.896044
20974.387026,2886.803174,-6217.729913,-1685.410096
20974.387359,1110.308913,-8956.491898,-4903.011187
20974.387692,-74.020594,-13323.706956,-5592.497135
20974.388026,-4441.235652,-13545.768739,-4903.011187
20974.388359,-4367.215058,-13027.624579,-6128.763984
20974.388692,-2072.576638,-11251.130318,-3677.258390
20974.389025,-1184.329507,-8660.409521,-842.705048
20974.389358,4293.194464,-6143.709319,5515.887586
20974.389692,7846.182985,-3478.967927,8197.221829
20974.390025,6291.750507,-6513.812290,9422.974625
20974.390358,7328.038826,-8882.471304,10648.727422
20974.390691,4663.297435,-8290.306550,6052.154434
20974.391024,5551.544565,-4811.338623,0.000000
20974.391358,4367.215058,-11547.212695,-1302.362347
20974.391691,2886.803174,-10362.883188,-6435.202183
20974.392024,444.123565,-12805.562797,-5822.325785
20974.392357,-2516.700203,-16358.551318,-6971.469032
20974.392690,-2442.679609,-12361.439231,-6128.763984
20974.393023,-4367.215058,-14211.954086,-3983.696590
20974.393357,2294.638420,-9474.636058,842.705048
20974.393690,3108.864956,-5403.503377,7431.126331
20974.394023,5551.544565,-3034.844362,5515.887586
20974.394356,7105.977043,-5033.400406,11874.480219
20974.394689,2294.638420,-10658.965565,8810.098227
20974.395023,-74.020594,-5329.482782,1149.143247
20974.395356,-3775.050304,-10066.800811,-2221.676944
20974.395689,-1702.473667,-8956.491898,-5056.230287
20974.396022,-666.185348,-9992.780217,-2834.553343
20974.396355,-2368.659014,-11399.171507,-4519.963438
20974.396689,-2442.679609,-14804.118840,-3753.867940
20974.397022,-8882.471304,-14285.974681,-4903.011187
20974.397355,-4441.235652,-13619.789333,-383.047749
20974.397688,-2146.597232,-6291.750507,0.000000
20974.398021,0.000000,-6587.832884,3983.696590
20974.398354,2294.638420,-5551.544565,6435.202183
20974.398688,2368.659014,-4589.276840,8120.612279
20974.399021,666.185348,-8068.244768,5975.544884
20974.399354,-2442.679609,-8216.285956,3294.210641
20974.399687,-4811.338623,-6809.894666,-3753.867940
20974.400020,-4145.153275,-10955.047942,-2528.115143
20974.400354,1998.556043,-9474.636058,-1302.362347
20974.400687,-666.185348,-8660.409521,-3677.258390
20974.401020,3552.988522,-11621.233289,1225.752797
20974.401353,-1036.288319,-13323.706956,0.000000
20974.401686,-2368.659014,-12435.459826,-1532.190996
20974.402020,-1110.308913,-10584.944971,-459.657299
20974.402353,2294.638420,-8660.409521,995.924147
20974.402686,3552.988522,-5995.668130,4903.011187
20974.403019,5847.626942,-9474.636058,6052.154434
20974.403352,2442.679609,-6587.832884,4290.134789
20974.403685,-3997.112087,-7179.997637,2451.505594
20974.404019,-592.164754,-8882.471304,1072.533697
20974.404352,-1776.494261,-6883.915261,-2298.286494
20974.404685,2886.803174,-7402.059420,-612.876398
20974.405018,4071.132681,-8586.388927,-612.876398
20974.405351,2812.782580,-9326.594869,76.609550
20974.405685,148.041188,-10140.821405,0.000000
20974.406018,0.000000,-13989.892304,-1532.190996
20974.406351,222.061783,-10066.800811,-1149.143247
20974.406684,0.000000,-11251.130318,-2221.676944
20974.407017,3478.967927,-10658.965565,-76.609550
20974.407351,2590.720797,-5995.668130,0.000000
20974.407684,3849.070898,-9474.636058,5822.325785
20974.408017,3478.967927,-9178.553681,2987.772442
20974.408350,-2294.638420,-9252.574275,0.000000
20974.408683,-2368.659014,-9252.574275,1149.143247
20974.409016,1480.411884,-7772.162391,459.657299
20974.409350,3775.050304,-7698.141797,2451.505594
20974.409683,4219.173869,-6883.915261,2681.334243
20974.410016,1850.514855,-9548.656652,-1225.752797
20974.410349,-1554.432478,-11325.150913,0.000000
20974.410682,-962.267725,-12435.459826,-3140.991542
20974.411016,-5699.585753,-15988.448347,-3753.867940
20974.411349,-5921.647536,-7772.162391,-4903.011187
20974.411682,-3923.091493,-10658.965565,-1302.362347
20974.412015,-2812.782580,-6439.791695,1762.019645
20974.412348,518.144159,-6513.812290,5592.497135
20974.412682,-5625.565159,-8882.471304,3600.648841
20974.413015,-1776.494261,-5107.421000,3677.258390
20974.413348,-962.267725,-5699.585753,2451.505594
20974.413681,7031.956449,-7105.977043,3600.648841
20974.414014,3701.029710,-5995.668130,2451.505594
20974.414347,2368.659014,-7179.997637,919.314598
20974.414681,740.205942,-11917.315666,-3524.039291
20974.415014,-1258.350101,-14656.077652,-3140.991542
20974.415347,-814.226536,-13027.624579,-6052.154434
20974.415680,-4959.379811,-13027.624579,-6741.640382
20974.416013,-370.102971,-11251.130318,-1915.238745
20974.416347,-1776.494261,-7476.080014,1762.019645
20974.416680,4367.215058,-7698.141797,4826.401637
20974.417013,2590.720797,-3923.091493,6128.763984
20974.417346,4293.194464,-6957.935855,8886.707777
20974.417679,7624.121203,-7105.977043,7890.783629
20974.418013,7772.162391,-5921.647536,4519.963438
20974.418346,6143.709319,-10214.842000,1762.019645
20974.418679,5329.482782,-7698.141797,-2068.457845
20974.419012,592.164754,-11325.150913,-5822.325785
20974.419345,-1554.432478,-17764.942608,-7431.126331
20974.419678,-5625.565159,-14285.974681,-9193.145976
20974.420012,-6809.894666,-14285.974681,-5822.325785
20974.420345,-666.185348,-12731.542202,-2834.553343
20974.420678,2294.638420,-8290.306550,2987.772442
20974.421011,2590.720797,-5773.606348,6588.421283
20974.421344,4367.215058,-4145.153275,9116.536426
20974.421678,2886.803174,-4145.153275,9729.412825
20974.422011,0.000000,-3775.050304,4443.353888
20974.422344,3182.885551,-7105.977043,3294.210641
20974.422677,1776.494261,-8364.327145,995.924147
20974.423010,1184.329507,-8956.491898,-919.314598
20974.423344,-1702.473667,-11695.253884,-5362.668486
20974.423677,-7772.162391,-15026.180623,-9882.631924
20974.424010,-7698.141797,-15100.201217,-6205.373534
20974.424343,-6587.832884,-14211.954086,-7431.126331
20974.424676,-4737.318029,-9548.656652,-2451.505594
20974.425009,-2960.823768,-10732.986159,2911.162892
20974.425343,2886.803174,-2738.761985,5515.887586
20974.425676,2516.700203,-5847.626942,10648.727422
20974.426009,3997.112087,-1702.473667,9422.974625
20974.426342,0.000000,-8290.306550,6741.640382
20974.426675,1480.411884,-2442.679609,2451.505594
20974.427009,4663.297435,-9474.636058,1149.143247
20974.427342,0.000000,-7476.080014,-4903.011187
20974.427675,0.000000,-10140.821405,-3907.087040
20974.428008,-3627.009116,-17172.777854,-6205.373534
20974.428341,-5921.647536,-14285.974681,-7354.516781
20974.428675,-5625.565159,-13101.645173,-7048.078582
20974.429008,-2146.597232,-11917.315666,-3600.648841
20974.429341,1480.411884,-8808.450710,1838.629195
20974.429674,7476.080014,-6291.750507,9729.412825
20974.430007,9400.615463,-7105.977043,9729.412825
20974.430341,3849.070898,-4811.338623,9806.022374
20974.430674,5033.400406,-7402.059420,8503.660028
20974.431007,-370.102971,-6587.832884,1225.752797
20974.431340,2368.659014,-7772.162391,-76.609550
20974.431673,296.082377,-8808.450710,-3294.210641
20974.432006,-962.267725,-11843.295072,-5209.449386
20974.432340,-2368.659014,-11917.315666,-5898.935335
20974.432673,-4219.173869,-15396.283594,-6205.373534
20974.433006,-5477.523971,-11917.315666,-7814.174080
20974.433339,-3552.988522,-9548.656652,-1225.752797
20974.433672,2294.638420,-9474.636058,1149.143247
20974.434006,5255.462188,-3627.009116,1838.629195
20974.434339,5921.647536,-7179.997637,9729.412825
20974.434672,5625.565159,-5551.544565,7660.954980
20974.435005,2294.638420,-7698.141797,5592.497135
20974.435338,-1036.288319,-8734.430116,689.485948
20974.435671,-666.185348,-9474.636058,-1302.362347
20974.436005,-1184.329507,-8512.368333,-3524.039291
20974.436338,0.000000,-8808.450710,-4443.353888
20974.436671,-1258.350101,-10066.800811,-3753.867940
20974.437004,-4441.235652,-14285.974681,-4290.134789
20974.437337,-3552.988522,-10140.821405,-919.314598
20974.437671,-2442.679609,-13027.624579,-1915.238745
20974.438004,-1480.411884,-5995.668130,-3370.820191
20974.438337,1184.329507,-9992.780217,6052.154434
20974.438670,1776.494261,-2738.761985,3064.381992
20974.439003,3478.967927,-7105.977043,5439.278036
20974.439336,-2960.823768,-7179.997637,3217.601092
20974.439670,-2886.803174,-8142.265362,536.266849
20974.440003,-3849.070898,-9030.512492,-612.876398
20974.440336,1406.391290,-6439.791695,-1838.629195
20974.440669,2294.638420,-9474.636058,-2528.115143
20974.441002,2960.823768,-7772.162391,306.438199
20974.441335,2368.659014,-10807.006753,2374.896044
20974.441669,1480.411884,-11917.315666,0.000000
20974.442002,1776.494261,-11325.150913,-689.485948
20974.442335,1924.535449,-11621.233289,0.000000
20974.442668,2368.659014,-9400.615463,0.000000
20974.443001,2146.597232,-8734.430116,-76.609550
20974.443334,2368.659014,-7772.162391,1225.752797
20974.443668,518.144159,-7698.141797,1149.143247
20974.444001,-1776.494261,-7772.162391,3983.696590
20974.444334,1110.308913,-7105.977043,536.266849
20974.444667,2886.803174,-6809.894666,1762.019645
20974.445000,6291.750507,-6513.812290,842.705048
20974.445334,5921.647536,-8512.368333,3447.429741
20974.445667,4441.235652,-7624.121203,-229.828649
20974.446000,222.061783,-14952.160028,-2068.457845
20974.446333,-74.020594,-13323.706956,-2528.115143
20974.446666,-4145.153275,-11917.315666,-3983.696590
20974.446999,-2368.659014,-11917.315666,-76.609550
20974.447333,1110.308913,-8808.450710,-3064.381992
20974.447666,0.000000,-7179.997637,612.876398
20974.447999,2294.638420,-5921.647536,2451.505594
20974.448332,-666.185348,-8882.471304,3600.648841
20974.448665,-4145.153275,-6143.709319,1838.629195
20974.448998,-2294.638420,-6143.709319,0.000000
20974.449332,-74.020594,-7105.977043,1149.143247
20974.449665,2368.659014,-6291.750507,5898.935335
20974.449998,1998.556043,-7994.224174,1149.143247
20974.450331,814.226536,-10732.986159,-1762.019645
20974.450664,-7105.977043,-11325.150913,-3677.258390
20974.450998,-3330.926739,-11843.295072,-4903.011187
20974.451331,-4589.276840,-12213.398043,-3140.991542
20974.451664,-3627.009116,-9474.636058,-4290.134789
20974.451997,-2738.761985,-10362.883188,-842.705048
20974.452330,-74.020594,-5921.647536,1149.143247
20974.452663,-2220.617826,-9770.718434,4213.525239
20974.452997,-3775.050304,-3849.070898,2221.676944
20974.453330,-1628.453072,-6365.771101,3064.381992
20974.453663,0.000000,-6291.750507,4290.134789
20974.453996,7031.956449,-4145.153275,4213.525239
20974.454329,1776.494261,-7179.997637,0.000000
20974.454662,6513.812290,-9918.759623,3600.648841
20974.454996,-74.020594,-12435.459826,-2145.067394
20974.455329,-4737.318029,-14285.974681,-5822.325785
20974.455662,-3182.885551,-12065.356855,-7660.954980
20974.455995,-3849.070898,-13915.871710,-5745.716235
20974.456328,1184.329507,-8364.327145,-1532.190996
20974.456661,4663.297435,-9178.553681,3600.648841
20974.456995,4663.297435,-9474.636058,3600.648841
20974.457328,0.000000,-7179.997637,8580.269578
20974.457661,2368.659014,-4811.338623,7584.345430
20974.457994,3478.967927,-4589.276840,2911.162892
20974.458327,5329.482782,-7179.997637,6052.154434
20974.458661,5773.606348,-5995.668130,1838.629195
20974.458994,2812.782580,-10955.047942,229.828649
20974.459327,-666.185348,-12805.562797,-4673.182538
20974.459660,-5625.565159,-13027.624579,-6894.859482
20974.459993,-4811.338623,-11991.336260,-10342.289223
20974.460326,-4145.153275,-12065.356855,-4366.744339
20974.460660,-74.020594,-9474.636058,-1915.238745
20974.460993,814.226536,-5403.503377,0.000000
20974.461326,7031.956449,-7105.977043,6665.030833
20974.461659,4737.318029,-7179.997637,9193.145976
20974.461992,3997.112087,-7179.997637,6511.811733
20974.462325,3182.885551,-7846.182985,3294.210641
20974.462659,3552.988522,-8068.244768,3983.696590
20974.462992,3034.844362,-7179.997637,0.000000
20974.463325,1776.494261,-9548.656652,-76.609550
20974.463658,-962.267725,-13027.624579,-4979.620737
20974.463991,-7772.162391,-14211.954086,-7124.688131
20974.464324,-8290.306550,-11917.315666,-7354.516781
20974.464658,-5403.503377,-10510.924376,-4903.011187
20974.464991,-4071.132681,-11103.089130,-1532.190996
20974.465324,592.164754,-4885.359217,3524.039291
20974.465657,2294.638420,-5921.647536,7277.907231
20974.465990,592.164754,-3775.050304,9576.193725
20974.466324,2294.638420,-7105.977043,6052.154434
20974.466657,-1850.514855,-4811.338623,612.876398
20974.466990,1998.556043,-9474.636058,1149.143247
20974.467323,296.082377,-8068.244768,-2681.334243
20974.467656,666.185348,-10807.006753,-2604.724693
20974.467989,-518.144159,-10288.862594,-3830.477490
20974.468323,-4219.173869,-13471.748144,-5362.668486
20974.468656,-3330.926739,-13619.789333,-4366.744339
20974.468989,-4441.235652,-11917.315666,-2221.676944
20974.469322,1628.453072,-8586.388927,1532.190996
20974.469655,4367.215058,-5329.482782,5592.497135
20974.469988,5551.544565,-2738.761985,5515.887586
20974.470322,9104.533087,-8882.471304,7277.907231
20974.470655,1776.494261,-6587.832884,2451.505594
20974.470988,4071.132681,-10658.965565,1149.143247
20974.471321,1258.350101,-7179.997637,-1838.629195
20974.471654,3108.864956,-11399.171507,-1302.362347
20974.471988,4071.132681,-9474.636058,-2834.553343
20974.472321,2368.659014,-11917.315666,-1838.629195
20974.472654,814.226536,-11843.295072,-2604.724693
20974.472987,-2368.659014,-13693.809927,-2757.943793
20974.473320,-962.267725,-11547.212695,-1915.238745
20974.473653,592.164754,-8068.244768,2757.943793
20974.473987,4145.153275,-7920.203579,5439.278036
20974.474320,6439.791695,-4441.235652,4443.353888
20974.474653,5329.482782,-6883.915261,7967.393179
20974.474986,4663.297435,-7698.141797,4596.572988
20974.475319,-1924.535449,-9474.636058,383.047749
20974.475652,-5033.400406,-10140.821405,-4060.306139
20974.475986,-4885.359217,-11029.068536,-4903.011187
20974.476319,-1184.329507,-7179.997637,-4903.011187
20974.476652,0.000000,-10140.821405,-76.609550
20974.476985,-74.020594,-10510.924376,-1302.362347
20974.477318,-1258.350101,-9844.739029,0.000000
20974.477651,-3330.926739,-12435.459826,1762.019645
20974.477985,-1850.514855,-7476.080014,76.609550
20974.478318,-370.102971,-9178.553681,2374.896044
20974.478651,2590.720797,-6069.688724,3370.820191
20974.478984,1850.514855,-6439.791695,3753.867940
20974.479317,0.000000,-8660.409521,3064.381992
20974.479651,-1554.432478,-14211.954086,2374.896044
20974.479984,-6291.750507,-7179.997637,-4596.572988
20974.480317,-5033.400406,-10510.924376,-2451.505594
20974.480650,-2442.679609,-11843.295072,-689.485948
20974.480983,0.000000,-5403.503377,-1838.629195
20974.481316,1702.473667,-8290.306550,842.705048
20974.481650,2368.659014,-11177.109724,3140.991542
20974.481983,370.102971,-9474.636058,1838.629195
20974.482316,0.000000,-12509.480420,612.876398
20974.482649,1702.473667,-9178.553681,-229.828649
20974.482982,2072.576638,-8512.368333,689.485948
20974.483315,4071.132681,-8290.306550,1378.971896
20974.483649,3478.967927,-8290.306550,1915.238745
20974.483982,518.144159,-8734.430116,0.000000
20974.484315,-2960.823768,-9548.656652,536.266849
20974.484648,-1258.350101,-9474.636058,-2528.115143
20974.484981,-518.144159,-8068.244768,-2451.505594
20974.485314,4071.132681,-7105.977043,2374.896044
20974.485648,4293.194464,-6143.709319,2757.943793
20974.485981,2886.803174,-8808.450710,2221.676944
20974.486314,222.061783,-11251.130318,689.485948
20974.486647,-2072.576638,-9844.739029,0.000000
20974.486980,-74.020594,-9992.780217,-3064.381992
20974.487314,3923.091493,-11843.295072,-383.047749
20974.487647,518.144159,-7920.203579,-2145.067394
20974.487980,1184.329507,-8364.327145,1838.629195
20974.488313,1702.473667,-8660.409521,995.924147
20974.488646,-1628.453072,-10732.986159,1225.752797
20974.488979,-1850.514855,-8364.327145,-1532.190996
20974.489313,222.061783,-9918.759623,612.876398
20974.489646,6957.935855,-8290.306550,6052.154434
20974.489979,4663.297435,-5403.503377,2451.505594
20974.490312,4663.297435,-11843.295072,2374.896044
20974.490645,-2220.617826,-10140.821405,1072.533697
20974.490978,-1480.411884,-10658.965565,0.000000
20974.491312,-1554.432478,-13027.624579,-1378.971896
20974.491645,-3552.988522,-10658.965565,-3217.601092
20974.491978,-4219.173869,-11251.130318,-3140.991542
20974.492311,-2442.679609,-7105.977043,-1915.238745
20974.492644,222.061783,-7994.224174,1762.019645
20974.492978,-2368.659014,-7179.997637,4596.572988
20974.493311,-74.020594,-6587.832884,2451.505594
20974.493644,-2368.659014,-4811.338623,2451.505594
20974.493977,4663.297435,-8290.306550,2987.772442
20974.494310,4959.379811,-7994.224174,2681.334243
20974.494643,6587.832884,-8290.306550,2221.676944
20974.494977,1628.453072,-10436.903782,-229.828649
20974.495310,-2294.638420,-14508.036463,-3907.087040
20974.495643,-3182.885551,-11843.295072,-5592.497135
20974.495976,-2442.679609,-13619.789333,-3753.867940
20974.496309,-2812.782580,-7772.162391,-1225.752797
20974.496642,1036.288319,-7105.977043,2374.896044
20974.496976,-74.020594,-5181.441594,0.000000
20974.497309,0.000000,-5995.668130,1532.190996
20974.497642,1702.473667,-7994.224174,4136.915689
20974.497975,3775.050304,-7105.977043,3294.210641
20974.498308,5625.565159,-8364.327145,5362.668486
20974.498641,7772.162391,-8068.244768,3983.696590
20974.498975,7031.956449,-8882.471304,-76.609550
20974.499308,4441.235652,-11325.150913,-1455.581446
20974.499641,-2146.597232,-14952.160028,-6358.592633
20974.499974,-4737.318029,-14656.077652,-6741.640382
20974.500307,-6513.812290,-12509.480420,-6128.763984
20974.500641,-1406.391290,-11843.295072,-2528.115143
20974.500974,-1776.494261,-8290.306550,-76.609550
20974.501307,0.000000,-5107.421000,7048.078582
20974.501640,5847.626942,-4737.318029,9422.974625
20974.501973,2294.638420,-4811.338623,6894.859482
20974.502306,888.247130,-5477.523971,3677.258390
20974.502640,0.000000,-8068.244768,2528.115143
20974.502973,1998.556043,-7402.059420,0.000000
20974.503306,2960.823768,-9548.656652,-306.438199
20974.503639,1406.391290,-13027.624579,-4366.744339
20974.503972,-4737.318029,-13101.645173,-4903.011187
20974.504305,-10658.965565,-14285.974681,-6128.763984
20974.504639,-4811.338623,-13471.748144,-5898.935335
20974.504972,-5329.482782,-10732.986159,-2451.505594
20974.505305,-222.061783,-8364.327145,2145.067394
20974.505638,6143.709319,-2368.659014,7431.126331
20974.505971,4663.297435,-6809.894666,9422.974625
20974.506304,4071.132681,-2664.741391,8350.440928
20974.506638,-1258.350101,-10066.800811,4213.525239
20974.506971,0.000000,-4219.173869,2451.505594
20974.507304,2886.803174,-8290.306550,0.000000
20974.507637,-1480.411884,-8364.327145,-3524.039291
20974.507970,1776.494261,-9844.739029,-1608.800546
20974.508304,-6291.750507,-13101.645173,-8427.050478
20974.508637,-1258.350101,-13471.748144,-5439.278036
20974.508970,-6513.812290,-14359.995275,-4136.915689
20974.509303,-3256.906145,-9548.656652,-2757.943793
20974.509636,1998.556043,-9474.636058,1762.019645
20974.509969,2368.659014,-5995.668130,4903.011187
20974.510303,9918.759623,-5329.482782,9729.412825
20974.510636,5847.626942,-7179.997637,8733.488677
20974.510969,2368.659014,-6587.832884,5975.544884
20974.511302,-1924.535449,-6735.874072,1225.752797
20974.511635,-666.185348,-9696.697840,-3447.429741
20974.511968,0.000000,-9252.574275,-3064.381992
20974.512302,0.000000,-9104.533087,-4290.134789
20974.512635,-74.020594,-9696.697840,-6741.640382
20974.512968,-4737.318029,-14137.933492,-2834.553343
20974.513301,-3701.029710,-14878.139434,-1608.800546
20974.513634,-3923.091493,-8364.327145,-2451.505594
20974.513967,-2072.576638,-7698.141797,306.438199
20974.514301,2812.782580,-6513.812290,5209.449386
20974.514634,6143.709319,-4737.318029,7814.174080
20974.514967,6365.771101,-5033.400406,9116.536426
20974.515300,3701.029710,-7179.997637,6128.763984
20974.515633,-1850.514855,-8956.491898,-1532.190996
20974.515967,-1924.535449,-10066.800811,-4290.134789
20974.516300,444.123565,-10288.862594,-3677.258390
20974.516633,1110.308913,-11843.295072,-2451.505594
20974.516966,0.000000,-9548.656652,-2451.505594
20974.517299,-74.020594,-12435.459826,-2834.553343
20974.517632,-2960.823768,-10140.821405,0.000000
20974.517966,444.123565,-12435.459826,2374.896044
20974.518299,-666.185348,-10658.965565,-76.609550
20974.518632,0.000000,-7476.080014,3064.381992
20974.518965,1258.350101,-5921.647536,3983.696590
20974.519298,2516.700203,-4737.318029,4903.011187
20974.519631,0.000000,-7254.018232,4673.182538
20974.519965,-1258.350101,-9474.636058,1149.143247
20974.520298,-3627.009116,-9474.636058,-3907.087040
20974.520631,-2368.659014,-9252.574275,-3677.258390
20974.520964,2072.576638,-10658.965565,-76.609550
20974.521297,2738.761985,-8512.368333,306.438199
20974.521631,3849.070898,-9844.739029,2374.896044
20974.521964,1850.514855,-11325.150913,-229.828649
20974.522297,-962.267725,-13545.768739,-919.314598
20974.522630,444.123565,-10584.944971,-1072.533697
20974.522963,-74.020594,-11251.130318,-383.047749
20974.523296,1702.473667,-5107.421000,0.000000
20974.523630,2664.741391,-7698.141797,3600.648841
20974.523963,1110.308913,-5329.482782,1455.581446
20974.524296,-1776.494261,-7179.997637,3064.381992
20974.524629,-2442.679609,-8290.306550,-2528.115143
20974.524962,-1480.411884,-8438.347739,-459.657299
20974.525295,2812.782580,-8734.430116,842.705048
20974.525629,5329.482782,-9696.697840,2374.896044
20974.525962,3701.029710,-7179.997637,1225.752797
20974.526295,3552.988522,-11917.315666,0.000000
20974.526628,3552.988522,-14137.933492,2221.676944
20974.526961,1110.308913,-11843.295072,-1532.190996
20974.527294,-814.226536,-9696.697840,-2451.505594
20974.527628,-1554.432478,-12435.459826,-3140.991542
20974.527961,-2072.576638,-9252.574275,-1302.362347
20974.528294,296.082377,-7179.997637,3217.601092
20974.528627,-666.185348,-5107.421000,3140.991542
20974.528960,-4145.153275,-5255.462188,766.095498
20974.529294,-3552.988522,-6957.935855,2451.505594
20974.529627,1776.494261,-6883.915261,3830.477490
20974.529960,4219.173869,-7105.977043,5132.839837
20974.530293,5847.626942,-8290.306550,3600.648841
20974.530626,4663.297435,-12435.459826,-76.609550
20974.530959,-2072.576638,-11917.315666,-2451.505594
20974.531293,-814.226536,-14804.118840,-3140.991542
20974.531626,-4811.338623,-14211.954086,-7431.126331
20974.531959,-2812.782580,-13619.789333,-4060.306139
20974.532292,-2960.823768,-10066.800811,-919.314598
20974.532625,148.041188,-7328.038826,2834.553343
20974.532958,222.061783,-4885.359217,5362.668486
20974.533292,0.000000,-4737.318029,6435.202183
20974.533625,0.000000,-3923.091493,5669.106685
20974.533958,1110.308913,-4219.173869,3677.258390
20974.534291,5329.482782,-8882.471304,5745.716235
20974.534624,3923.091493,-8290.306550,995.924147
20974.534957,1702.473667,-9178.553681,-2834.553343
20974.535291,-296.082377,-14804.118840,-4060.306139
20974.535624,-4219.173869,-15544.324782,-6894.859482
20974.535957,-6513.812290,-14285.974681,-7660.954980
20974.536290,-5699.585753,-13915.871710,-6052.154434
20974.536624,-666.185348,-11769.274478,-1302.362347
20974.536957,0.000000,-7179.997637,2451.505594
20974.537290,4145.153275,-5625.565159,9116.536426
20974.537623,3478.967927,-3330.926739,8273.831378
20974.537957,1184.329507,-3627.009116,9806.022374
20974.538290,4145.153275,-6217.729913,6052.154434
20974.538623,4737.318029,-8660.409521,4060.306139
20974.538956,5403.503377,-8290.306550,229.828649
20974.539290,1480.411884,-9548.656652,-2451.505594
20974.539623,444.123565,-13101.645173,-6205.373534
20974.539956,-2442.679609,-15396.283594,-10725.336972
20974.540289,-4737.318029,-16210.510130,-7048.078582
20974.540623,-4737.318029,-13693.809927,-3217.601092
20974.540956,-74.020594,-12731.542202,-76.609550
20974.541289,1184.329507,-6735.874072,4979.620737
20974.541622,5625.565159,-3108.864956,9346.365076
20974.541955,5625.565159,-2220.617826,11568.042020
20974.542289,3775.050304,-3701.029710,9346.365076
20974.542622,888.247130,-6587.832884,5822.325785
20974.542955,3182.885551,-5921.647536,-1608.800546
20974.543288,2368.659014,-8364.327145,153.219100
20974.543622,1776.494261,-12361.439231,-2528.115143
20974.543955,-74.020594,-14211.954086,-7431.126331
20974.544288,-4737.318029,-16728.654289,-7737.564530
20974.544621,-3923.091493,-15840.407159,-6818.249932
20974.544955,-4145.153275,-12953.603985,-4366.744339
20974.545288,-2220.617826,-11917.315666,-689.485948
20974.545621,1184.329507,-7772.162391,6435.202183
20974.545954,4515.256246,-3330.926739,9422.974625
20974.546288,5699.585753,-2738.761985,9806.022374
20974.546621,2590.720797,-5477.523971,9422.974625
20974.546954,-370.102971,-4589.276840,2528.115143
20974.547287,-2368.659014,-6587.832884,919.314598
20974.547621,-666.185348,-10658.965565,-76.609550
20974.547954,-666.185348,-10362.883188,-5669.106685
20974.548287,-4589.276840,-10732.986159,-6128.763984
20974.548620,-1258.350101,-15396.283594,-4979.620737
20974.548953,-4737.318029,-14285.974681,-4366.744339
20974.549287,-3330.926739,-13027.624579,-3140.991542
20974.549620,-2072.576638,-10436.903782,-459.657299
20974.549953,0.000000,-6587.832884,1225.752797
20974.550286,2368.659014,-4811.338623,7354.516781
20974.550620,7031.956449,-5921.647536,8503.660028
20974.550953,3552.988522,-2738.761985,6205.373534
20974.551286,-1184.329507,-6291.750507,4290.134789
20974.551619,-1850.514855,-7846.182985,-766.095498
20974.551953,666.185348,-9474.636058,-1072.533697
20974.552286,666.185348,-9844.739029,-2451.505594
20974.552619,444.123565,-9992.780217,-3447.429741
20974.552952,1110.308913,-11843.295072,-2834.553343
20974.553286,-2368.659014,-14285.974681,-689.485948
20974.553619,-74.020594,-10362.883188,-3830.477490
20974.553952,-2812.782580,-12509.480420,-1225.752797
20974.554285,0.000000,-10140.821405,-76.609550
20974.554619,3404.947333,-8808.450710,3677.258390
20974.554952,3182.885551,-6957.935855,5898.935335
20974.555285,5551.544565,-4663.297435,7737.564530
20974.555618,-1702.473667,-6957.935855,2757.943793
20974.555951,-1258.350101,-6809.894666,-842.705048
20974.556285,-1480.411884,-9918.759623,1762.019645
20974.556618,888.247130,-5995.668130,-2757.943793
20974.556951,0.000000,-9548.656652,766.095498
20974.557284,2738.761985,-10955.047942,-689.485948
20974.557618,2294.638420,-11843.295072,-3140.991542
20974.557951,-888.247130,-12065.356855,-2145.067394
20974.558284,222.061783,-13915.871710,-2145.067394
20974.558617,888.247130,-11547.212695,-153.219100
20974.558951,0.000000,-9548.656652,1225.752797
20974.559284,4663.297435,-7105.977043,2681.334243
20974.559617,1776.494261,-7179.997637,7048.078582
20974.559950,2368.659014,-5995.668130,6052.154434
20974.560284,-1258.350101,-7105.977043,0.000000
20974.560617,-3923.091493,-6513.812290,-3140.991542
20974.560950,-3256.906145,-8808.450710,-1608.800546
20974.561283,814.226536,-7105.977043,-1455.581446
20974.561617,2516.700203,-8142.265362,689.485948
20974.561950,740.205942,-8956.491898,0.000000
20974.562283,-74.020594,-13619.789333,-2068.457845
20974.562616,0.000000,-12435.459826,-383.047749
20974.562949,0.000000,-13323.706956,-306.438199
20974.563283,1110.308913,-10658.965565,459.657299
20974.563616,148.041188,-7772.162391,612.876398
20974.563949,1998.556043,-8290.306550,2374.896044
20974.564282,-74.020594,-5403.503377,1225.752797
20974.564616,-1776.494261,-7105.977043,2374.896044
20974.564949,-2442.679609,-8290.306550,-76.609550
20974.565282,-2590.720797,-6587.832884,-1225.752797
20974.565615,2294.638420,-8142.265362,2681.334243
20974.565949,2812.782580,-6069.688724,2451.505594
20974.566282,3182.885551,-9104.533087,919.314598
20974.566615,2960.823768,-12213.398043,1532.190996
20974.566948,-74.020594,-13471.748144,-3294.210641
20974.567282,0.000000,-13397.727550,-3677.258390
20974.567615,-3256.906145,-15248.242405,-2528.115143
20974.567948,-1554.432478,-10362.883188,-3830.477490
20974.568281,-2072.576638,-7772.162391,2145.067394
20974.568615,1554.432478,-6513.812290,2681.334243
20974.568948,-1628.453072,-6217.729913,3140.991542
20974.569281,-2146.597232,-5921.647536,1915.238745
20974.569614,1702.473667,-6809.894666,4519.963438
20974.569947,4367.215058,-5921.647536,2298.286494
20974.570281,5921.647536,-7994.224174,6971.469032
20974.570614,4663.297435,-9474.636058,2374.896044
20974.570947,1628.453072,-8660.409521,-3677.258390
20974.571280,-370.102971,-15396.283594,-4366.744339
20974.571614,-4219.173869,-14285.974681,-7354.516781
20974.571947,-3478.967927,-13915.871710,-7201.297681
20974.572280,-3627.009116,-14508.036463,-3753.867940
20974.572613,1036.288319,-6513.812290,-1608.800546
20974.572947,592.164754,-5995.668130,2451.505594
20974.573280,5477.523971,-7698.141797,9116.536426
20974.573613,3478.967927,-5329.482782,6588.421283
20974.573946,0.000000,-3627.009116,7354.516781
20974.574280,5403.503377,-7105.977043,6665.030833
20974.574613,2664.741391,-8660.409521,4136.915689
20974.574946,3849.070898,-6883.915261,229.828649
20974.575279,222.061783,-10955.047942,-2451.505594
20974.575613,-2664.741391,-12509.480420,-6435.202183
20974.575946,-6661.853478,-14285.974681,-8350.440928
20974.576279,-6587.832884,-14285.974681,-7814.174080
20974.576612,-5625.565159,-11769.274478,-4979.620737
20974.576945,-2664.741391,-9844.739029,306.438199
20974.577279,4441.235652,-5995.668130,6358.592633
20974.577612,7031.956449,-4737.318029,9422.974625
20974.577945,3849.070898,-74.020594,7660.954980
20974.578278,1480.411884,-5699.585753,8044.002729
20974.578612,1628.453072,-6883.915261,1225.752797
20974.578945,4293.194464,-10066.800811,1762.019645
20974.579278,1998.556043,-9696.697840,-1915.238745
20974.579611,1036.288319,-11695.253884,-4826.401637
20974.579945,-3627.009116,-15396.283594,-7431.126331
20974.580278,-6809.894666,-14285.974681,-6741.640382
20974.580611,-3627.009116,-11473.192101,-7048.078582
20974.580944,-3552.988522,-10881.027347,-1608.800546
20974.581278,0.000000,-9696.697840,2987.772442
20974.581611,3478.967927,-5773.606348,6511.811733
20974.581944,6735.874072,-4145.153275,9116.536426
20974.582277,4663.297435,-3701.029710,8810.098227
20974.582610,1184.329507,-5921.647536,4366.744339
20974.582944,1036.288319,-6661.853478,842.705048
20974.583277,2146.597232,-12065.356855,1762.019645
20974.583610,592.164754,-9548.656652,-3677.258390
20974.583943,0.000000,-11029.068536,-3447.429741
20974.584277,-1850.514855,-13619.789333,-5439.278036
20974.584610,-5329.482782,-11325.150913,-6128.763984
20974.584943,-4811.338623,-12953.603985,-4903.011187
20974.585276,-1998.556043,-9770.718434,-2604.724693
20974.585610,296.082377,-9104.533087,2987.772442
20974.585943,4145.153275,-4219.173869,5822.325785
20974.586276,7031.956449,-4737.318029,7277.907231
20974.586609,3552.988522,-5995.668130,8810.098227
20974.586943,4663.297435,-8882.471304,6052.154434
20974.587276,-814.226536,-7772.162391,0.000000
20974.587609,0.000000,-10140.821405,-2145.067394
20974.587942,-962.267725,-11695.253884,-3830.477490
20974.588276,-74.020594,-11547.212695,-4903.011187
20974.588609,1036.288319,-10510.924376,-3294.210641
20974.588942,-2220.617826,-12805.562797,-2911.162892
20974.589275,-4071.132681,-9548.656652,-4290.134789
20974.589608,-1776.494261,-12731.542202,-76.609550
20974.589942,-74.020594,-7550.100608,0.000000
20974.590275,0.000000,-5403.503377,4290.134789
20974.590608,4737.318029,-7031.956449,6894.859482
20974.590941,3552.988522,-5107.421000,7354.516781
20974.591275,2294.638420,-6809.894666,4826.401637
20974.591608,-1998.556043,-9400.615463,-459.657299
20974.591941,-3182.885551,-9548.656652,-3064.381992
20974.592274,-1554.432478,-9844.739029,-3677.258390
20974.592608,1628.453072,-9696.697840,-1991.848295
20974.592941,962.267725,-9030.512492,-1685.410096
20974.593274,-740.205942,-11917.315666,-1608.800546
20974.593607,-74.020594,-11251.130318,-76.609550
20974.593941,-2146.597232,-9770.718434,-2145.067394
20974.594274,0.000000,-7772.162391,-3064.381992
20974.594607,2368.659014,-11103.089130,4213.525239
20974.594940,2812.782580,-6587.832884,3370.820191
20974.595274,4737.318029,-5403.503377,7431.126331
20974.595607,1998.556043,-8216.285956,3524.039291
20974.595940,-1258.350101,-8586.388927,153.219100
20974.596273,-4293.194464,-9770.718434,-2911.162892
20974.596606,-1998.556043,-10362.883188,-3907.087040
20974.596940,-666.185348,-8660.409521,-3677.258390
20974.597273,3330.926739,-9474.636058,-76.609550
20974.597606,2886.803174,-9474.636058,-76.609550
20974.597939,666.185348,-8512.368333,1225.752797
20974.598273,1554.432478,-11251.130318,-76.609550
20974.598606,-1480.411884,-10288.862594,842.705048
20974.598939,-370.102971,-9104.533087,-306.438199
20974.599272,0.000000,-8808.450710,306.438199
20974.599606,592.164754,-6587.832884,0.000000
20974.599939,1554.432478,-6735.874072,0.000000
20974.600272,-74.020594,-11251.130318,1762.019645
20974.600605,-2812.782580,-8364.327145,-1838.629195
20974.600939,-4737.318029,-9548.656652,0.000000
20974.601272,1628.453072,-8216.285956,-995.924147
20974.601605,2812.782580,-8586.388927,2451.505594
20974.601938,4293.194464,-5995.668130,1991.848295
20974.602272,2590.720797,-10436.903782,1608.800546
20974.602605,1702.473667,-11843.295072,1608.800546
20974.602938,-3552.988522,-9844.739029,0.000000
20974.603271,-666.185348,-14211.954086,-1302.362347
20974.603604,-2220.617826,-8660.409521,-2451.505594
20974.603938,-74.020594,-8882.471304,-1302.362347
20974.604271,-592.164754,-7772.162391,1225.752797
20974.604604,-518.144159,-7105.977043,1608.800546
20974.604937,-3182.885551,-7624.121203,842.705048
20974.605271,-1702.473667,-6439.791695,0.000000
20974.605604,1702.473667,-7994.224174,1608.800546
20974.605937,5477.523971,-11251.130318,4826.401637
20974.606270,1850.514855,-7179.997637,1225.752797
20974.606604,1184.329507,-6291.750507,0.000000
20974.606937,3478.967927,-13027.624579,-76.609550
20974.607270,1258.350101,-12435.459826,-1838.629195
20974.607603,-2146.597232,-13915.871710,-3140.991542
20974.607937,-3701.029710,-10658.965565,-4366.744339
20974.608270,-2368.659014,-10881.027347,-2451.505594
20974.608603,1702.473667,-5329.482782,1608.800546
20974.608936,3034.844362,-7105.977043,5898.935335
20974.609270,-888.247130,-5699.585753,3753.867940
20974.609603,-222.061783,-6513.812290,3064.381992
20974.609936,1184.329507,-6735.874072,2834.553343
20974.610269,5847.626942,-7105.977043,3600.648841
20974.610602,3552.988522,-10362.883188,4290.134789
20974.610936,5551.544565,-11843.295072,-1915.238745
20974.611269,-2368.659014,-11917.315666,-2451.505594
20974.611602,-3552.988522,-12509.480420,-7354.516781
20974.611935,-2442.679609,-13027.624579,-6052.154434
20974.612269,-2220.617826,-12361.439231,-2681.334243
20974.612602,-962.267725,-9992.780217,-383.047749
20974.612935,370.102971,-6883.915261,3140.991542
20974.613268,296.082377,-3923.091493,3677.258390
20974.613602,1628.453072,-8290.306550,8503.660028
20974.613935,-1110.308913,-7105.977043,4826.401637
20974.614268,-2960.823768,-3923.091493,2451.505594
20974.614601,3478.967927,-10066.800811,4213.525239
20974.614935,4071.132681,-6439.791695,766.095498
20974.615268,2886.803174,-9992.780217,0.000000
20974.615601,1110.308913,-12435.459826,-3983.696590
20974.615934,-3997.112087,-14211.954086,-6818.249932
20974.616268,-5921.647536,-14285.974681,-6741.640382
20974.616601,-1332.370696,-14211.954086,-3140.991542
20974.616934,-2738.761985,-8956.491898,-3064.381992
20974.617267,-2368.659014,-7179.997637,2757.943793
20974.617600,4663.297435,-6217.729913,7277.907231
20974.617934,4737.318029,-3627.009116,10418.898773
20974.618267,2886.803174,-5033.400406,7124.688131
20974.618600,814.226536,-7031.956449,2757.943793
20974.618933,2516.700203,-7550.100608,1455.581446
20974.619267,2886.803174,-10658.965565,1149.143247
20974.619600,3330.926739,-10658.965565,-3140.991542
20974.619933,-3552.988522,-11325.150913,-3983.696590
20974.620266,-1406.391290,-14804.118840,-4979.620737
20974.620600,-3330.926739,-13619.789333,-6971.469032
20974.620933,-5921.647536,-12509.480420,-3830.477490
20974.621266,-3701.029710,-10436.903782,-2451.505594
20974.621599,444.123565,-7994.224174,3907.087040
20974.621933,5847.626942,-3478.967927,8503.660028
20974.622266,7624.121203,-3997.112087,12180.918418
20974.622599,3849.070898,-4441.235652,8120.612279
20974.622932,222.061783,-7254.018232,3677.258390
20974.623266,814.226536,-8142.265362,459.657299
20974.623599,592.164754,-7772.162391,-2145.067394
20974.623932,0.000000,-10436.903782,-2757.943793
20974.624265,1406.391290,-13027.624579,-5286.058936
20974.624598,-3627.009116,-14211.954086,-7431.126331
20974.624932,-4441.235652,-11325.150913,-6741.640382
20974.625265,-5329.482782,-11991.336260,-4136.915689
20974.625598,-2220.617826,-9992.780217,-1149.143247
20974.625931,2146.597232,-8512.368333,3830.477490
20974.626265,3552.988522,-4737.318029,6818.249932
20974.626598,5329.482782,-3775.050304,9806.022374
20974.626931,5551.544565,-3849.070898,9499.584175
20974.627264,3478.967927,-8290.306550,4213.525239
20974.627598,-1184.329507,-6143.709319,0.000000
20974.627931,0.000000,-11325.150913,-1838.629195
20974.628264,-592.164754,-11325.150913,-4903.011187
20974.628597,592.164754,-10658.965565,-4366.744339
20974.628931,-1554.432478,-13101.645173,-5362.668486
20974.629264,-1776.494261,-12879.583391,-4979.620737
20974.629597,-3849.070898,-13323.706956,-2681.334243
20974.629930,-4145.153275,-10140.821405,0.000000
20974.630264,-74.020594,-8882.471304,1149.143247
20974.630597,592.164754,-5995.668130,6741.640382
20974.630930,7031.956449,-4737.318029,11568.042020
20974.631263,6439.791695,-4737.318029,9729.412825
20974.631596,2294.638420,-6513.812290,4673.182538
20974.631930,-4589.276840,-8216.285956,-1225.752797
20974.632263,-3627.009116,-9104.533087,-4443.353888
20974.632596,-1184.329507,-10807.006753,-4290.134789
20974.632929,1850.514855,-11843.295072,-689.485948
20974.633263,0.000000,-8660.409521,-3677.258390
20974.633596,-2664.741391,-11325.150913,-3064.381992
20974.633929,-296.082377,-13027.624579,-76.609550
20974.634262,-3330.926739,-9696.697840,-2374.896044
20974.634596,1110.308913,-9104.533087,2068.457845
20974.634929,3478.967927,-7328.038826,4673.182538
20974.635262,3997.112087,-5773.606348,6894.859482
20974.635595,4293.194464,-4663.297435,6205.373534
20974.635929,962.267725,-6809.894666,3294.210641
20974.636262,-4737.318029,-7179.997637,306.438199
20974.636595,-2146.597232,-9474.636058,-1915.238745
20974.636928,-1850.514855,-10955.047942,-5286.058936
20974.637261,0.000000,-7179.997637,-2451.505594
20974.637595,3182.885551,-9474.636058,-536.266849
20974.637928,3552.988522,-10140.821405,689.485948
20974.638261,2812.782580,-9400.615463,0.000000
20974.638594,-370.102971,-12287.418637,-459.657299
20974.638928,1110.308913,-11843.295072,-995.924147
20974.639261,-148.041188,-10881.027347,459.657299
20974.639594,1850.514855,-8586.388927,1225.752797
20974.639927,2516.700203,-5699.585753,3064.381992
20974.640260,1258.350101,-8438.347739,3830.477490
20974.640594,-592.164754,-7550.100608,2681.334243
20974.640927,-4219.173869,-7031.956449,-2757.943793
20974.641260,-4145.153275,-6587.832884,0.000000
20974.641593,4071.132681,-9474.636058,2068.457845
20974.641926,3478.967927,-6587.832884,0.000000
20974.642259,2368.659014,-7846.182985,919.314598
20974.642593,518.144159,-12731.542202,-383.047749
20974.642926,-1110.308913,-12731.542202,-2451.505594
20974.643259,-962.267725,-12435.459826,-689.485948
20974.643592,-1258.350101,-14211.954086,-689.485948
20974.643925,-2442.679609,-8364.327145,-3677.258390
20974.644259,0.000000,-8956.491898,2451.505594
20974.644592,3108.864956,-6365.771101,4826.401637
20974.644925,1406.391290,-7402.059420,4903.011187
20974.645258,-1258.350101,-6069.688724,1608.800546
20974.645591,-1184.329507,-8290.306550,1685.410096
20974.645925,3552.988522,-8734.430116,4366.744339
20974.646258,3330.926739,-8882.471304,995.924147
20974.646591,2516.700203,-10584.944971,1762.019645
20974.646924,-2368.659014,-9548.656652,-2451.505594
20974.647257,-74.020594,-13027.624579,-1302.362347
20974.647590,-1554.432478,-12435.459826,-3294.210641
20974.647924,-4367.215058,-10955.047942,-4366.744339
20974.648257,-3478.967927,-10584.944971,-3524.039291
20974.648590,-2220.617826,-8290.306550,-229.828649
20974.648923,0.000000,-6143.709319,2987.772442
20974.649256,-2368.659014,-6587.832884,3677.258390
20974.649590,-74.020594,-6513.812290,2987.772442
20974.649923,0.000000,-5403.503377,3677.258390
20974.650256,5255.462188,-8290.306550,3600.648841
20974.650589,3627.009116,-8660.409521,3677.258390
20974.650922,5033.400406,-6291.750507,1532.190996
20974.651256,2960.823768,-13175.665768,-76.609550
20974.651589,1702.473667,-12065.356855,-3370.820191
20974.651922,-3701.029710,-13471.748144,-7048.078582
20974.652255,-3108.864956,-15396.283594,-5132.839837
20974.652588,-3182.885551,-9548.656652,-4903.011187
20974.652921,-1258.350101,-11843.295072,-76.609550
20974.653255,1554.432478,-3552.988522,2681.334243
20974.653588,1184.329507,-3182.885551,8886.707777
20974.653921,2368.659014,-3034.844362,7354.516781
20974.654254,2072.576638,-3923.091493,5209.449386
20974.654587,2368.659014,-7624.121203,2298.286494
20974.654921,4663.297435,-9548.656652,2451.505594
20974.655254,5255.462188,-11843.295072,1762.019645
20974.655587,2146.597232,-10140.821405,-4596.572988
20974.655920,-1554.432478,-14730.098246,-7124.688131
20974.656253,-3034.844362,-15026.180623,-7737.564530
20974.656587,-3701.029710,-13989.892304,-5286.058936
20974.656920,-1184.329507,-13841.851115,-1072.533697
20974.657253,-1554.432478,-9326.594869,-919.314598
20974.657586,148.041188,-3627.009116,5515.887586
20974.657919,7328.038826,-5329.482782,10955.165621
20974.658252,5255.462188,-2886.803174,9959.241474
20974.658586,888.247130,-5403.503377,8810.098227
20974.658919,-740.205942,-5995.668130,2451.505594
20974.659252,-74.020594,-8290.306550,229.828649
20974.659585,296.082377,-9844.739029,-842.705048
20974.659918,814.226536,-9474.636058,-3753.867940
20974.660252,-3034.844362,-11325.150913,-8580.269578
20974.660585,-5033.400406,-14730.098246,-8580.269578
20974.660918,-6513.812290,-14211.954086,-4979.620737
20974.661251,-5699.585753,-12213.398043,-5669.106685
20974.661584,-1332.370696,-9474.636058,-995.924147
20974.661917,1628.453072,-7328.038826,5286.058936
20974.662251,5699.585753,-4293.194464,10035.851024
20974.662584,6439.791695,-3108.864956,10801.946522
20974.662917,2220.617826,-4811.338623,6205.373534
20974.663250,-1702.473667,-4811.338623,2451.505594
20974.663583,-74.020594,-10066.800811,-76.609550
20974.663917,0.000000,-11843.295072,-3140.991542
20974.664250,0.000000,-9548.656652,-3370.820191
20974.664583,-1258.350101,-11251.130318,-6052.154434
20974.664916,-1850.514855,-12361.439231,-5439.278036
20974.665249,-4959.379811,-13027.624579,-4673.182538
20974.665583,-2442.679609,-10807.006753,-2374.896044
20974.665916,0.000000,-8956.491898,1378.971896
20974.666249,2960.823768,-7105.977043,6588.421283
20974.666582,6439.791695,-5921.647536,6052.154434
20974.666915,3775.050304,-3034.844362,7967.393179
20974.667248,3552.988522,-6291.750507,9729.412825
20974.667582,-74.020594,-7105.977043,229.828649
20974.667915,-2516.700203,-9326.594869,-3140.991542
20974.668248,-2294.638420,-11177.109724,-4136.915689
20974.668581,1110.308913,-9770.718434,-3753.867940
20974.668914,1184.329507,-10140.821405,-2451.505594
20974.669248,-74.020594,-13027.624579,-1608.800546
20974.669581,-3108.864956,-10436.903782,-2451.505594
20974.669914,-2442.679609,-11843.295072,-1532.190996
20974.670247,1332.370696,-8290.306550,-76.609550
20974.670580,740.205942,-10362.883188,3907.087040
20974.670914,1332.370696,-4811.338623,4903.011187
20974.671247,5847.626942,-6513.812290,6052.154434
20974.671580,4663.297435,-6735.874072,4290.134789
20974.671913,962.267725,-8882.471304,1455.581446
20974.672246,-3330.926739,-11843.295072,-3140.991542
20974.672579,-2368.659014,-9770.718434,-5362.668486
20974.672913,-888.247130,-12509.480420,-2298.286494
20974.673246,2368.659014,-8660.409521,-612.876398
20974.673579,3256.906145,-10584.944971,3294.210641
20974.673912,0.000000,-10140.821405,2911.162892
20974.674245,1702.473667,-10066.800811,536.266849
20974.674579,-2368.659014,-9548.656652,919.314598
20974.674912,1184.329507,-7179.997637,1838.629195
20974.675245,-74.020594,-8290.306550,1072.533697
20974.675578,-518.144159,-7402.059420,1762.019645
20974.675911,-1628.453072,-7179.997637,2145.067394
20974.676245,-4071.132681,-8216.285956,612.876398
20974.676578,-4219.173869,-7105.977043,-2528.115143
20974.676911,-4811.338623,-11843.295072,-689.485948
20974.677244,-1258.350101,-8882.471304,-2528.115143
20974.677577,296.082377,-7772.162391,3677.258390
20974.677910,3849.070898,-7772.162391,4903.011187
20974.678244,3256.906145,-8364.327145,3217.601092
20974.678577,814.226536,-10584.944971,306.438199
20974.678910,518.144159,-10066.800811,-2374.896044
20974.679243,-296.082377,-12361.439231,-842.705048
20974.679576,0.000000,-9548.656652,-3677.258390
20974.679910,-74.020594,-11843.295072,-1302.362347
20974.680243,0.000000,-5995.668130,0.000000
20974.680576,1184.329507,-7772.162391,4826.401637
20974.680909,-74.020594,-9178.553681,-76.609550
20974.681242,-1776.494261,-7772.162391,919.314598
20974.681576,1850.514855,-8438.347739,1532.190996
20974.681909,7624.121203,-8290.306550,5439.278036
20974.682242,7476.080014,-7402.059420,5822.325785
20974.682575,7254.018232,-10214.842000,2987.772442
20974.682908,6735.874072,-10658.965565,-1915.238745
20974.683241,-1776.494261,-12213.398043,-2451.505594
20974.683575,1184.329507,-12509.480420,-689.485948
20974.683908,-1258.350101,-13027.624579,-4979.620737
20974.684241,296.082377,-11177.109724,-995.924147
20974.684574,1406.391290,-9252.574275,612.876398
20974.684907,3552.988522,-7105.977043,3907.087040
20974.685241,1036.288319,-7254.018232,4060.306139
20974.685574,-1776.494261,-5995.668130,4060.306139
20974.685907,370.102971,-7105.977043,3524.039291
20974.686240,1702.473667,-6143.709319,2604.724693
20974.686573,2960.823768,-7772.162391,2298.286494
20974.686907,1702.473667,-7920.203579,0.000000
20974.687240,0.000000,-10288.862594,-1838.629195
20974.687573,-3627.009116,-14211.954086,-3753.867940
20974.687906,-4811.338623,-13915.871710,-7124.688131
20974.688239,-6809.894666,-11917.315666,-5822.325785
20974.688572,-2738.761985,-13027.624579,-1302.362347
20974.688906,-592.164754,-7920.203579,1762.019645
20974.689239,1850.514855,-5255.462188,5745.716235
20974.689572,814.226536,-6883.915261,6358.592633
20974.689905,-1776.494261,-2442.679609,3677.258390
20974.690238,-4145.153275,-5995.668130,3677.258390
20974.690572,2294.638420,-8290.306550,536.266849
20974.690905,1776.494261,-7179.997637,612.876398
20974.691238,-888.247130,-11029.068536,1149.143247
20974.691571,296.082377,-8364.327145,-3983.696590
20974.691904,-5403.503377,-13915.871710,-4979.620737
20974.692238,-4441.235652,-13101.645173,-5592.497135
20974.692571,-4811.338623,-11547.212695,-4060.306139
20974.692904,-2442.679609,-12287.418637,-1302.362347
20974.693237,-2072.576638,-6587.832884,2987.772442
20974.693570,3478.967927,-6513.812290,4213.525239
20974.693903,3849.070898,-2442.679609,7967.393179
20974.694237,1184.329507,-5995.668130,7814.174080
20974.694570,2368.659014,-6809.894666,2451.505594
20974.694903,1850.514855,-9178.553681,919.314598
20974.695236,3478.967927,-9918.759623,1149.143247
20974.695569,4219.173869,-9252.574275,-1302.362347
20974.695903,222.061783,-11695.253884,-3907.087040
20974.696236,-1036.288319,-14211.954086,-4366.744339
20974.696569,-5329.482782,-11325.150913,-7048.078582
20974.696902,-4737.318029,-11917.315666,-3677.258390
20974.697235,-370.102971,-10066.800811,-919.314598
20974.697569,2294.638420,-8882.471304,1762.019645
20974.697902,2812.782580,-4811.338623,6281.983084
20974.698235,7846.182985,-2368.659014,8503.660028
20974.698568,3849.070898,-6143.709319,6588.421283
20974.698901,2368.659014,-7179.997637,3064.381992
20974.699234,2294.638420,-9474.636058,-1915.238745
20974.699568,1184.329507,-11917.315666,76.609550
20974.699901,2664.741391,-12805.562797,-1302.362347
20974.700234,1110.308913,-13027.624579,-4673.182538
20974.700567,-1554.432478,-11843.295072,-5592.497135
20974.700900,-3330.926739,-12361.439231,-4290.134789
20974.701234,-3997.112087,-10732.986159,-3677.258390
20974.701567,-1554.432478,-9992.780217,842.705048
20974.701900,0.000000,-7179.997637,3677.258390
20974.702233,2886.803174,-5625.565159,6128.763984
20974.702566,2072.576638,-5181.441594,6971.469032
20974.702900,2516.700203,-4959.379811,6741.640382
20974.703233,-2738.761985,-7254.018232,2528.115143
20974.703566,-3552.988522,-5403.503377,-2451.505594
20974.703899,-3034.844362,-11843.295072,-3140.991542
20974.704232,-3849.070898,-10140.821405,-4903.011187
20974.704565,0.000000,-10140.821405,-1455.581446
20974.704899,-74.020594,-13027.624579,-2528.115143
20974.705232,-2368.659014,-10732.986159,-2911.162892
20974.705565,-3330.926739,-10881.027347,-1378.971896
20974.705898,518.144159,-9918.759623,1302.362347
20974.706231,3330.926739,-7105.977043,5286.058936
20974.706565,3552.988522,-7179.997637,7048.078582
20974.706898,7920.203579,-4737.318029,6358.592633
20974.707231,4737.318029,-4811.338623,6128.763984
20974.707564,4441.235652,-8290.306550,2987.772442
20974.707897,-1850.514855,-9400.615463,-4060.306139
20974.708231,-2220.617826,-10881.027347,-4903.011187
20974.708564,1258.350101,-11621.233289,-4443.353888
20974.708897,5033.400406,-11177.109724,-919.314598
20974.709230,6291.750507,-8734.430116,-689.485948
20974.709563,5847.626942,-12435.459826,-76.609550
20974.709896,5847.626942,-10362.883188,-2221.676944
20974.710230,592.164754,-11473.192101,1149.143247
20974.710563,5625.565159,-10807.006753,4213.525239
20974.710896,5699.585753,-9178.553681,3140.991542
20974.711229,7624.121203,-8142.265362,6971.469032
20974.711562,5181.441594,-4589.276840,4903.011187
20974.711896,1998.556043,-7994.224174,2221.676944
20974.712229,-3034.844362,-9030.512492,-2298.286494
20974.712562,-5403.503377,-9400.615463,-4136.915689
20974.712895,-5329.482782,-10732.986159,-4903.011187
20974.713228,-4737.318029,-11473.192101,-995.924147
20974.713562,-74.020594,-9474.636058,-76.609550
20974.713895,1998.556043,-8882.471304,3064.381992
20974.714228,-74.020594,-9474.636058,1762.019645
20974.714561,-2590.720797,-9918.759623,1149.143247
20974.714894,-4811.338623,-10955.047942,0.000000
20974.715227,-2664.741391,-8956.491898,-612.876398
20974.715561,-3404.947333,-9548.656652,842.705048
20974.715894,74.020594,-5847.626942,3753.867940
20974.716227,-1406.391290,-8364.327145,4443.353888
20974.716560,-4737.318029,-5699.585753,0.000000
20974.716893,-6513.812290,-9326.594869,-1225.752797
20974.717227,-4441.235652,-7846.182985,-2528.115143
20974.717560,-666.185348,-8660.409521,0.000000
20974.717893,-1184.329507,-8660.409521,0.000000
20974.718226,1332.370696,-9178.553681,2987.772442
20974.718559,-1480.411884,-8956.491898,0.000000
20974.718893,592.164754,-10214.842000,229.828649
20974.719226,-148.041188,-10288.862594,-76.609550
20974.719559,222.061783,-12435.459826,-76.609550
20974.719892,-2220.617826,-9474.636058,-1915.238745
20974.720225,0.000000,-9548.656652,919.314598
20974.720558,4367.215058,-4811.338623,1838.629195
20974.720892,1776.494261,-7624.121203,5286.058936
20974.721225,-74.020594,-9474.636058,-76.609550
20974.721558,-74.020594,-8808.450710,-76.609550
20974.721891,4219.173869,-9474.636058,2068.457845
20974.722224,6365.771101,-7994.224174,5132.839837
20974.722558,5403.503377,-9178.553681,1762.019645
20974.722891,5329.482782,-9548.656652,0.000000
20974.723224,2294.638420,-13249.686362,-76.609550
20974.723557,-1184.329507,-11325.150913,-3677.258390
20974.723890,-1258.350101,-13619.789333,-4060.306139
20974.724223,-1924.535449,-10732.986159,-3677.258390
20974.724557,592.164754,-7179.997637,1225.752797
20974.724890,4071.132681,-5551.544565,2757.943793
20974.725223,3923.091493,-5255.462188,5362.668486
20974.725556,2294.638420,-7105.977043,3907.087040
20974.725889,1776.494261,-7920.203579,2068.457845
20974.726223,4071.132681,-9474.636058,1762.019645
20974.726556,3552.988522,-11473.192101,2374.896044
20974.726889,8216.285956,-11843.295072,2374.896044
20974.727222,592.164754,-9548.656652,-1838.629195
20974.727555,592.164754,-12213.398043,-4290.134789
20974.727889,-4811.338623,-12509.480420,-6128.763984
20974.728222,-4515.256246,-13693.809927,-4903.011187
20974.728555,-3256.906145,-11177.109724,-1762.019645
20974.728888,-2738.761985,-9104.533087,-229.828649
20974.729221,-2812.782580,-5699.585753,612.876398
20974.729554,2886.803174,-7105.977043,7277.907231
20974.729888,370.102971,-3034.844362,7354.516781
20974.730221,0.000000,-6883.915261,8503.660028
20974.730554,-74.020594,-8290.306550,1072.533697
20974.730887,-1628.453072,-9548.656652,306.438199
20974.731220,1998.556043,-10510.924376,0.000000
20974.731554,1258.350101,-10658.965565,-842.705048
20974.731887,-3552.988522,-12583.501014,-4826.401637
20974.732220,-6291.750507,-10732.986159,-7354.516781
20974.732553,-6587.832884,-14211.954086,-5439.278036
20974.732886,-2220.617826,-9474.636058,-1149.143247
20974.733220,-2664.741391,-10214.842000,1762.019645
20974.733553,2294.638420,-6513.812290,6971.469032
20974.733886,2886.803174,-2442.679609,6435.202183
20974.734219,4145.153275,-4219.173869,7354.516781
20974.734552,5847.626942,-4737.318029,4826.401637
20974.734885,0.000000,-7179.997637,2451.505594
20974.735219,4737.318029,-8364.327145,2298.286494
20974.735552,3108.864956,-12065.356855,536.266849
20974.735885,4145.153275,-11843.295072,-2757.943793
20974.736218,444.123565,-11991.336260,-5898.935335
20974.736551,-2886.803174,-14211.954086,-8656.879127
20974.736885,-3627.009116,-12213.398043,-9806.022374
20974.737218,-2960.823768,-14137.933492,-3753.867940
20974.737551,2294.638420,-12139.377449,2374.896044
20974.737884,4663.297435,-5477.523971,5515.887586
20974.738217,8808.450710,-4145.153275,10955.165621
20974.738551,6513.812290,-4367.215058,12027.699319
20974.738884,4441.235652,-3330.926739,7201.297681
20974.739217,2072.576638,-5551.544565,2681.334243
20974.739550,592.164754,-10732.986159,0.000000
20974.739883,1554.432478,-9548.656652,-4903.011187
20974.740216,-74.020594,-16580.613101,-6205.373534
20974.740549,-1110.308913,-10436.903782,-7967.393179
20974.740883,-4737.318029,-13101.645173,-5515.887586
20974.741216,-3997.112087,-11917.315666,-6435.202183
20974.741549,-1258.350101,-15396.283594,-1302.362347
20974.741882,-1776.494261,-9548.656652,1302.362347
20974.742215,4071.132681,-5699.585753,7354.516781
20974.742548,4663.297435,-6513.812290,11874.480219
20974.742881,5995.668130,-74.020594,10418.898773
20974.743215,2294.638420,-5921.647536,7277.907231
20974.743548,-74.020594,-6513.812290,-1302.362347
20974.743881,-7105.977043,-11325.150913,-3370.820191
20974.744214,-2664.741391,-11695.253884,-4979.620737
20974.744547,-666.185348,-12731.542202,-4060.306139
20974.744880,-2368.659014,-11769.274478,-3677.258390
20974.745213,518.144159,-10807.006753,-1915.238745
20974.745547,-3552.988522,-12139.377449,-1762.019645
20974.745880,0.000000,-10140.821405,2911.162892
20974.746213,-74.020594,-8734.430116,766.095498
20974.746546,0.000000,-8364.327145,3677.258390
20974.746879,4367.215058,-7698.141797,6665.030833
20974.747212,3182.885551,-5625.565159,6894.859482
20974.747545,2368.659014,-5847.626942,6665.030833
20974.747879,-3701.029710,-6809.894666,306.438199
20974.748212,-5033.400406,-8068.244768,-4136.915689
20974.748545,-3923.091493,-10288.862594,-5286.058936
20974.748878,-1480.411884,-11621.233289,-1532.190996
20974.749211,1332.370696,-9030.512492,-383.047749
20974.749544,2368.659014,-9474.636058,459.657299
20974.749877,1332.370696,-10436.903782,0.000000
20974.750211,-666.185348,-11843.295072,-995.924147
20974.750544,0.000000,-10584.944971,0.000000
20974.750877,1480.411884,-13101.645173,3600.648841
20974.751210,1110.308913,-5995.668130,612.876398
20974.751543,2072.576638,-7179.997637,4290.134789
20974.751876,4663.297435,-7105.977043,4826.401637
20974.752209,1480.411884,-7105.977043,3983.696590
20974.752543,-2738.761985,-8512.368333,-1608.800546
20974.752876,-1258.350101,-8142.265362,-1838.629195
20974.753209,0.000000,-8364.327145,-1991.848295
20974.753542,2368.659014,-8364.327145,3677.258390
20974.753875,5847.626942,-8290.306550,2374.896044
20974.754208,1702.473667,-8364.327145,-4903.011187
20974.754541,148.041188,-13471.748144,-1915.238745
20974.754875,-74.020594,-12139.377449,-4060.306139
20974.755208,-740.205942,-11843.295072,-1149.143247
20974.755541,-888.247130,-8956.491898,-1532.190996
20974.755874,-592.164754,-9030.512492,842.705048
20974.756207,1036.288319,-6587.832884,3677.258390
20974.756540,3256.906145,-6587.832884,9116.536426
20974.756874,-3256.906145,-4811.338623,1225.752797
20974.757207,-1628.453072,-6143.709319,1225.752797
20974.757540,-74.020594,-10658.965565,1149.143247
20974.757873,2960.823768,-7179.997637,4290.134789
20974.758206,4367.215058,-8438.347739,2221.676944
20974.758539,3034.844362,-9252.574275,-689.485948
20974.758872,222.061783,-13323.706956,-2757.943793
20974.759206,-1258.350101,-13619.789333,-3140.991542
20974.759539,-1258.350101,-14211.954086,-3753.867940
20974.759872,-3627.009116,-11547.212695,-5669.106685
20974.760205,-1184.329507,-9696.697840,306.438199
20974.760538,1332.370696,-7550.100608,5898.935335
20974.760871,2886.803174,-4737.318029,6052.154434
20974.761204,-2664.741391,-4811.338623,1225.752797
20974.761538,-1480.411884,-8660.409521,3370.820191
20974.761871,2368.659014,-4663.297435,4136.915689
20974.762204,5329.482782,-5995.668130,5056.230287
20974.762537,7031.956449,-7994.224174,2221.676944
20974.762870,5921.647536,-7476.080014,-2145.067394
20974.763203,1480.411884,-14434.015869,-842.705048
20974.763536,-74.020594,-13619.789333,-6971.469032
20974.763870,-3034.844362,-15988.448347,-6818.249932
20974.764203,-5773.606348,-15100.201217,-7431.126331
20974.764536,-2590.720797,-11695.253884,-2451.505594
20974.764869,-148.041188,-7772.162391,2374.896044
20974.765202,2072.576638,-2590.720797,6435.202183
20974.765535,3923.091493,-2368.659014,8963.317327
20974.765868,1480.411884,-4293.194464,8197.221829
20974.766202,740.205942,-4663.297435,6128.763984
20974.766535,2812.782580,-7254.018232,4060.306139
20974.766868,2294.638420,-8882.471304,1149.143247
20974.767201,4663.297435,-11251.130318,-689.485948
20974.767534,-1628.453072,-10732.986159,-4903.011187
20974.767867,-3256.906145,-14211.954086,-8580.269578
20974.768200,-5921.647536,-15840.407159,-10112.460574
20974.768534,-8290.306550,-14878.139434,-7967.393179
20974.768867,-3256.906145,-12287.418637,-2604.724693
20974.769200,-2442.679609,-9030.512492,1685.410096
20974.769533,3404.947333,-3256.906145,7967.393179
20974.769866,2664.741391,-3627.009116,11031.775171
20974.770199,4367.215058,592.164754,7354.516781
20974.770532,-666.185348,-4219.173869,3677.258390
20974.770866,2072.576638,-7105.977043,2987.772442
20974.771199,2294.638420,-10658.965565,-76.609550
20974.771532,1776.494261,-10140.821405,-842.705048
20974.771865,222.061783,-11917.315666,-6128.763984
20974.772198,-3923.091493,-15840.407159,-9422.974625
20974.772531,-3034.844362,-14730.098246,-6358.592633
20974.772865,-3627.009116,-13841.851115,-5592.497135
20974.773198,-1850.514855,-11103.089130,-4903.011187
20974.773531,-1776.494261,-8660.409521,0.000000
20974.773864,4589.276840,-8290.306550,9422.974625
20974.774197,6217.729913,-74.020594,11031.775171
20974.774530,7031.956449,-2368.659014,10342.289223
20974.774863,2146.597232,-5625.565159,6358.592633
20974.775197,222.061783,-5699.585753,1455.581446
20974.775530,1924.535449,-9474.636058,-689.485948
20974.775863,0.000000,-11325.150913,0.000000
20974.776196,1406.391290,-9030.512492,-6128.763984
20974.776529,-2368.659014,-13989.892304,-4519.963438
20974.776862,-2442.679609,-17172.777854,-5592.497135
20974.777195,-3034.844362,-13027.624579,-5592.497135
20974.777529,-3552.988522,-13101.645173,0.000000
20974.777862,1702.473667,-8290.306550,2681.334243
20974.778195,3330.926739,-5847.626942,7124.688131
20974.778528,5773.606348,-3330.926739,9269.755526
20974.778861,7031.956449,-4589.276840,10801.946522
20974.779194,2072.576638,-5699.585753,5132.839837
20974.779527,-1554.432478,-8438.347739,-689.485948
20974.779861,-1850.514855,-9622.677246,-4290.134789
20974.780194,-1776.494261,-11325.150913,-4749.792088
20974.780527,0.000000,-8512.368333,-2451.505594
20974.780860,-74.020594,-13027.624579,-2834.553343
20974.781193,-3478.967927,-10066.800811,-6818.249932
20974.781526,-4071.132681,-12509.480420,-2911.162892
20974.781859,-2590.720797,-11103.089130,-1302.362347
20974.782193,-1036.288319,-8364.327145,1685.410096
20974.782526,-74.020594,-8586.388927,3907.087040
20974.782859,2812.782580,-5921.647536,6358.592633
20974.783192,2960.823768,-4811.338623,7660.954980
20974.783525,1110.308913,-5773.606348,5056.230287
20974.783858,-1258.350101,-8290.306550,-2221.676944
20974.784191,-5329.482782,-8364.327145,-3064.381992
20974.784525,-2960.823768,-9548.656652,-1838.629195
20974.784858,0.000000,-9548.656652,-1072.533697
20974.785191,0.000000,-9844.739029,-995.924147
20974.785524,1110.308913,-10955.047942,-1302.362347
20974.785857,0.000000,-11991.336260,-536.266849
20974.786190,1110.308913,-10658.965565,-76.609550
20974.786523,592.164754,-9548.656652,1838.629195
20974.786857,1702.473667,-8290.306550,842.705048
20974.787190,1184.329507,-6587.832884,5209.449386
20974.787523,4663.297435,-5921.647536,4826.401637
20974.787856,2886.803174,-6809.894666,1762.019645
20974.788189,-1998.556043,-9844.739029,-995.924147
20974.788522,-2146.597232,-9178.553681,-1915.238745
20974.788856,814.226536,-7994.224174,-1225.752797
20974.789189,4885.359217,-8512.368333,1685.410096
20974.789522,5921.647536,-8364.327145,5132.839837
20974.789855,3849.070898,-7179.997637,1838.629195
20974.790188,1184.329507,-8364.327145,-1838.629195
20974.790521,2294.638420,-14211.954086,-1302.362347
20974.790854,-2368.659014,-11103.089130,-3294.210641
20974.791188,1998.556043,-11251.130318,-689.485948
20974.791521,740.205942,-10955.047942,383.047749
20974.791854,2220.617826,-8438.347739,842.705048
20974.792187,296.082377,-7328.038826,2757.943793
20974.792520,-74.020594,-8882.471304,2987.772442
20974.792853,-5477.523971,-6291.750507,306.438199
20974.793186,-2442.679609,-8290.306550,1608.800546
20974.793520,1998.556043,-9474.636058,842.705048
20974.793853,222.061783,-4811.338623,2451.505594
20974.794186,3923.091493,-7402.059420,2681.334243
20974.794519,-814.226536,-11917.315666,229.828649
20974.794852,-888.247130,-10584.944971,-2374.896044
20974.795185,-4663.297435,-13545.768739,-3677.258390
20974.795518,-1850.514855,-13619.789333,-3753.867940
20974.795852,-2442.679609,-10362.883188,-2911.162892
20974.796185,-1850.514855,-9696.697840,842.705048
20974.796518,1776.494261,-5403.503377,3907.087040
20974.796851,-3552.988522,-7772.162391,5515.887586
20974.797184,-1850.514855,-4293.194464,0.000000
20974.797517,-3552.988522,-8364.327145,612.876398
20974.797850,2886.803174,-8882.471304,2681.334243
20974.798184,3256.906145,-6143.709319,4903.011187
20974.798517,0.000000,-7179.997637,3677.258390
20974.798850,4293.194464,-7550.100608,-1532.190996
20974.799183,-1554.432478,-14359.995275,-2757.943793
20974.799516,296.082377,-11473.192101,-4060.306139
20974.799849,-2442.679609,-14211.954086,-4979.620737
20974.800182,-2442.679609,-13619.789333,-5669.106685
20974.800516,-1776.494261,-9252.574275,1608.800546
20974.800849,1776.494261,-9104.533087,4826.401637
20974.801182,2294.638420,-3849.070898,3677.258390
20974.801515,592.164754,-5403.503377,6818.249932
20974.801848,1110.308913,-3849.070898,1915.238745
20974.802181,1702.473667,-6291.750507,3524.039291
20974.802514,3775.050304,-9178.553681,2145.067394
20974.802848,4663.297435,-7994.224174,1838.629195
20974.803181,3404.947333,-10436.903782,-3064.381992
20974.803514,2368.659014,-14211.954086,-1302.362347
20974.803847,-3404.947333,-15322.262999,-6205.373534
20974.804180,-4737.318029,-11325.150913,-7048.078582
20974.804513,-1850.514855,-14804.118840,-1915.238745
20974.804847,-74.020594,-9474.636058,-689.485948
20974.805180,1998.556043,-7031.956449,3830.477490
20974.805513,4811.338623,-4737.318029,8350.440928
20974.805846,4145.153275,-5403.503377,8120.612279
20974.806179,518.144159,-3923.091493,3677.258390
20974.806512,4663.297435,-9178.553681,3600.648841
20974.806845,2368.659014,-7772.162391,1225.752797
20974.807179,4145.153275,-10214.842000,1225.752797
20974.807512,2960.823768,-10140.821405,-3370.820191
20974.807845,-592.164754,-13841.851115,-5592.497135
20974.808178,-4367.215058,-12879.583391,-8350.440928
20974.808511,-4219.173869,-13397.727550,-6511.811733
20974.808844,-2442.679609,-12731.542202,-2528.115143
20974.809177,-3552.988522,-9548.656652,1762.019645
20974.809511,-74.020594,-5551.544565,2451.505594
20974.809844,592.164754,-1850.514855,8580.269578
20974.810177,5847.626942,-4737.318029,7890.783629
20974.810510,592.164754,-4811.338623,4903.011187
20974.810843,-74.020594,-7105.977043,1762.019645
20974.811176,0.000000,-9400.615463,536.266849
20974.811509,1628.453072,-10658.965565,-995.924147
20974.811843,-74.020594,-10658.965565,-3753.867940
20974.812176,-1776.494261,-12065.356855,-4673.182538
20974.812509,-5477.523971,-14878.139434,-7354.516781
20974.812842,-4441.235652,-12805.562797,-5439.278036
20974.813175,-5033.400406,-11917.315666,-3140.991542
20974.813508,1702.473667,-10658.965565,2374.896044
20974.813841,2368.659014,-4811.338623,6128.763984
20974.814175,5625.565159,-5329.482782,10955.165621
20974.814508,7031.956449,-1554.432478,8120.612279
20974.814841,0.000000,-3923.091493,4903.011187
20974.815174,1998.556043,-9474.636058,-76.609550
20974.815507,370.102971,-9104.533087,-2068.457845
20974.815840,1258.350101,-12435.459826,-2834.553343
20974.816173,2664.741391,-10955.047942,-2298.286494
20974.816507,2294.638420,-10658.965565,-3753.867940
20974.816840,0.000000,-12953.603985,-2528.115143
20974.817173,-74.020594,-14211.954086,-2834.553343
20974.817506,-814.226536,-10140.821405,-3524.039291
20974.817839,2368.659014,-11843.295072,4596.572988
20974.818172,3478.967927,-5033.400406,2757.943793
20974.818505,4663.297435,-6217.729913,7277.907231
20974.818839,5625.565159,-4737.318029,7737.564530
20974.819172,3330.926739,-6217.729913,5898.935335
20974.819505,-1480.411884,-6587.832884,0.000000
20974.819838,-2368.659014,-11843.295072,-1915.238745
20974.820171,-2146.597232,-10140.821405,-5439.278036
20974.820504,-1258.350101,-10140.821405,-4596.572988
20974.820838,-74.020594,-11547.212695,-1302.362347
20974.821171,-1184.329507,-8660.409521,-2451.505594
20974.821504,-2294.638420,-12583.501014,-995.924147
20974.821837,-370.102971,-9178.553681,0.000000
20974.822170,-1258.350101,-9992.780217,766.095498
20974.822503,1628.453072,-9474.636058,5209.449386
20974.822836,3478.967927,-9474.636058,4826.401637
20974.823170,1184.329507,-4811.338623,6128.763984
20974.823503,3552.988522,-5921.647536,6971.469032
20974.823836,-3034.844362,-11843.295072,-76.609550
20974.824169,-7105.977043,-8364.327145,-4290.134789
20974.824502,-5255.462188,-10436.903782,-4290.134789
20974.824835,-3108.864956,-11399.171507,-2911.162892
20974.825168,888.247130,-7920.203579,153.219100
20974.825502,-74.020594,-9918.759623,1225.752797
20974.825835,3182.885551,-8290.306550,0.000000
20974.826168,296.082377,-10140.821405,459.657299
20974.826501,0.000000,-12731.542202,995.924147
20974.826834,370.102971,-8290.306550,1072.533697
20974.827167,-2960.823768,-8364.327145,2451.505594
20974.827500,3552.988522,-6809.894666,3294.210641
20974.827834,0.000000,-3627.009116,0.000000
20974.828167,-1184.329507,-7846.182985,2757.943793
20974.828500,-3330.926739,-7105.977043,-1608.800546
20974.828833,-4589.276840,-8660.409521,-3064.381992
20974.829166,1110.308913,-8142.265362,-1378.971896
20974.829499,2220.617826,-8364.327145,2145.067394
20974.829832,2664.741391,-7920.203579,1838.629195
20974.830166,2886.803174,-8882.471304,0.000000
20974.830499,4071.132681,-11843.295072,-1608.800546
20974.830832,-740.205942,-10732.986159,-3217.601092
20974.831165,0.000000,-12509.480420,536.266849
20974.831498,-888.247130,-11029.068536,-995.924147
20974.831831,814.226536,-7476.080014,766.095498
20974.832164,2442.679609,-7105.977043,3217.601092
20974.832498,4367.215058,-5181.441594,3677.258390
20974.832831,-74.020594,-8734.430116,3600.648841
20974.833164,-2146.597232,-7179.997637,-2145.067394
20974.833497,-74.020594,-11251.130318,-689.485948
20974.833830,1406.391290,-9178.553681,919.314598
20974.834163,7031.956449,-9178.553681,4213.525239
20974.834496,4589.276840,-10881.027347,2374.896044
20974.834830,1110.308913,-9548.656652,-1838.629195
20974.835163,-888.247130,-11103.089130,-2911.162892
20974.835496,-2368.659014,-13915.871710,-4213.525239
20974.835829,-2960.823768,-11917.315666,-2451.505594
20974.836162,-4441.235652,-12213.398043,459.657299
20974.836495,518.144159,-4293.194464,459.657299
20974.836829,-2960.823768,-6143.709319,5056.230287
20974.837162,814.226536,-5329.482782,3600.648841
20974.837495,-74.020594,-5033.400406,4213.525239
20974.837828,1406.391290,-5921.647536,4826.401637
20974.838161,3849.070898,-6883.915261,5286.058936
20974.838494,1184.329507,-10066.800811,1532.190996
20974.838827,4071.132681,-8290.306550,-1302.362347
20974.839160,-74.020594,-14211.954086,-2528.115143
20974.839493,-2960.823768,-11917.315666,-6128.763984
20974.839827,-4145.153275,-13619.789333,-6128.763984
20974.840160,-2442.679609,-15396.283594,-5592.497135
20974.840493,-1850.514855,-9474.636058,-1455.581446
20974.840826,814.226536,-7994.224174,3294.210641
20974.841159,2960.823768,-4219.173869,6741.640382
20974.841492,2738.761985,-5329.482782,7660.954980
20974.841825,1628.453072,-1258.350101,4903.011187
20974.842158,4367.215058,-7994.224174,4826.401637
20974.842491,4737.318029,-8660.409521,3983.696590
20974.842824,6217.729913,-8142.265362,1302.362347
20974.843158,4071.132681,-11843.295072,-383.047749
20974.843491,1480.411884,-10140.821405,-6128.763984
20974.843824,-2516.700203,-15988.448347,-8963.317327
20974.844157,-3034.844362,-15988.448347,-9882.631924
20974.844490,-4737.318029,-13101.645173,-4596.572988
20974.844823,-2294.638420,-12879.583391,-1302.362347
20974.845156,1702.473667,-6513.812290,1532.190996
20974.845489,4589.276840,-4737.318029,9039.926876
20974.845822,6143.709319,-1850.514855,11644.651570
20974.846155,5181.441594,-2664.741391,10035.851024
20974.846489,1776.494261,-5995.668130,5822.325785
20974.846822,3404.947333,-10066.800811,3294.210641
20974.847155,-370.102971,-10140.821405,-1838.629195
20974.847488,0.000000,-11473.192101,-383.047749
20974.847821,-3034.844362,-13027.624579,-7507.735880
20974.848154,-4737.318029,-11325.150913,-9499.584175
20974.848487,-5403.503377,-14952.160028,-7124.688131
20974.848820,-4811.338623,-12435.459826,-4903.011187
20974.849153,-3775.050304,-10658.965565,-1302.362347
20974.849486,-666.185348,-9474.636058,4826.401637
20974.849820,5255.462188,-7105.977043,9729.412825
20974.850153,2368.659014,-1258.350101,13483.280765
20974.850486,4367.215058,-4145.153275,9729.412825
20974.850819,1110.308913,-5921.647536,3600.648841
20974.851152,-1406.391290,-9844.739029,1149.143247
20974.851485,1332.370696,-8364.327145,-1838.629195
20974.851818,-2442.679609,-13767.830521,-5209.449386
20974.852151,-1332.370696,-11399.171507,-7660.954980
20974.852484,-4737.318029,-12509.480420,-8273.831378
20974.852817,-2442.679609,-14211.954086,-7507.735880
20974.853151,-3256.906145,-9844.739029,-3064.381992
20974.853484,-962.267725,-14804.118840,2068.457845
20974.853817,2294.638420,-7105.977043,4519.963438
20974.854150,666.185348,-4737.318029,6971.469032
20974.854483,5773.606348,-2738.761985,9576.193725
20974.854816,4071.132681,-3849.070898,9499.584175
20974.855149,1924.535449,-5329.482782,4519.963438
20974.855482,-1184.329507,-9030.512492,0.000000
20974.855815,-4589.276840,-9548.656652,-4903.011187
20974.856148,1702.473667,-12435.459826,-3140.991542
20974.856482,1702.473667,-11843.295072,-5132.839837
20974.856815,-1184.329507,-10732.986159,-4903.011187
20974.857148,-3404.947333,-12731.542202,-4519.963438
20974.857481,-1924.535449,-11769.274478,-2298.286494
20974.857814,-814.226536,-10066.800811,-459.657299
20974.858147,2368.659014,-8364.327145,3907.087040
20974.858480,3849.070898,-8438.347739,7967.393179
20974.858813,5033.400406,-1850.514855,9806.022374
20974.859146,5255.462188,-3404.947333,7431.126331
20974.859479,2368.659014,-6365.771101,3677.258390
20974.859813,-1554.432478,-8882.471304,-2221.676944
20974.860146,-3552.988522,-11917.315666,-4903.011187
20974.860479,-962.267725,-9548.656652,-7124.688131
20974.860812,-2368.659014,-12065.356855,-3524.039291
20974.861145,2294.638420,-10658.965565,-3753.867940
20974.861478,-74.020594,-11843.295072,-1302.362347
20974.861811,-1776.494261,-11473.192101,-1608.800546
20974.862144,296.082377,-9548.656652,-383.047749
20974.862477,1628.453072,-11103.089130,3983.696590
20974.862810,2368.659014,-7476.080014,5515.887586
20974.863144,4663.297435,-6513.812290,7277.907231
20974.863477,296.082377,-5403.503377,4903.011187
20974.863810,0.000000,-7179.997637,4826.401637
20974.864143,-3627.009116,-8882.471304,-2528.115143
20974.864476,-5329.482782,-7179.997637,-4903.011187
20974.864809,-1850.514855,-11547.212695,-2528.115143
20974.865142,0.000000,-10658.965565,-76.609550
20974.865475,3478.967927,-7402.059420,995.924147
20974.865808,1406.391290,-11029.068536,1225.752797
20974.866141,2294.638420,-8142.265362,-1302.362347
20974.866475,-3552.988522,-10140.821405,306.438199
20974.866808,814.226536,-11251.130318,-76.609550
20974.867141,2294.638420,-9326.594869,0.000000
20974.867474,0.000000,-10732.986159,3064.381992
20974.867807,2294.638420,-5625.565159,2221.676944
20974.868140,-666.185348,-6513.812290,2987.772442
20974.868473,592.164754,-5995.668130,229.828649
20974.868806,-4219.173869,-9030.512492,-459.657299
20974.869139,-1776.494261,-5995.668130,-2451.505594
20974.869472,2960.823768,-10732.986159,6971.469032
20974.869806,5847.626942,-6809.894666,3524.039291
20974.870139,4737.318029,-7179.997637,0.000000
20974.870472,1776.494261,-13619.789333,-76.609550
20974.870805,-814.226536,-9548.656652,-6128.763984
20974.871138,-2738.761985,-13915.871710,-5286.058936
20974.871471,-1332.370696,-12657.521608,-4136.915689
20974.871804,-2220.617826,-11695.253884,-2834.553343
20974.872137,-2220.617826,-7328.038826,76.609550
20974.872470,3182.885551,-4737.318029,4519.963438
20974.872803,148.041188,-5995.668130,4826.401637
20974.873137,-296.082377,-6069.688724,3370.820191
20974.873470,-74.020594,-9474.636058,4213.525239
20974.873803,4071.132681,-7105.977043,2298.286494
20974.874136,2960.823768,-9548.656652,5669.106685
20974.874469,5329.482782,-9400.615463,3447.429741
20974.874802,3478.967927,-10066.800811,-2374.896044
20974.875135,444.123565,-13619.789333,-3677.258390
20974.875468,-2294.638420,-12583.501014,-6128.763984
20974.875801,-5033.400406,-14137.933492,-6511.811733
20974.876134,-3404.947333,-11325.150913,-3524.039291
20974.876468,-2442.679609,-8808.450710,536.266849
20974.876801,1480.411884,-6143.709319,3600.648841
20974.877134,0.000000,-3627.009116,8120.612279
20974.877467,1110.308913,-4737.318029,5132.839837
20974.877800,962.267725,-3330.926739,4290.134789
20974.878133,1702.473667,-7698.141797,4213.525239
20974.878466,1776.494261,-9252.574275,2298.286494
20974.878799,1184.329507,-8808.450710,76.609550
20974.879132,1702.473667,-9844.739029,-3064.381992
20974.879465,0.000000,-11917.315666,-4596.572988
20974.879799,-2442.679609,-13027.624579,-9269.755526
20974.880132,-4737.318029,-15026.180623,-5592.497135
20974.880465,-2738.761985,-14211.954086,-4673.182538
20974.880798,-1776.494261,-9548.656652,0.000000
20974.881131,592.164754,-5551.544565,5209.449386
20974.881464,4959.379811,-3775.050304,8350.440928
20974.881797,3552.988522,-4589.276840,9959.241474
20974.882130,1924.535449,-4219.173869,6741.640382
20974.882463,2294.638420,-8290.306550,4136.915689
20974.882796,518.144159,-6587.832884,306.438199
20974.883130,2294.638420,-9474.636058,-1915.238745
20974.883463,0.000000,-9548.656652,-3677.258390
20974.883796,-1628.453072,-12287.418637,-5132.839837
20974.884129,-2738.761985,-14211.954086,-7431.126331
20974.884462,-4737.318029,-13693.809927,-5745.716235
20974.884795,-2738.761985,-11621.233289,-4366.744339
20974.885128,-1110.308913,-10214.842000,383.047749
20974.885461,2664.741391,-6809.894666,5209.449386
20974.885794,4737.318029,-4811.338623,12180.918418
20974.886127,7031.956449,-1332.370696,8580.269578
20974.886461,3552.988522,-4811.338623,6128.763984
20974.886794,4663.297435,-8290.306550,2374.896044
20974.887127,3182.885551,-9474.636058,1225.752797
20974.887460,3849.070898,-11547.212695,842.705048
20974.887793,740.205942,-11843.295072,-3140.991542
20974.888126,-666.185348,-11547.212695,-6511.811733
20974.888459,-3701.029710,-14063.912898,-6511.811733
20974.888792,-5329.482782,-12065.356855,-5132.839837
20974.889125,-3923.091493,-11029.068536,-4979.620737
20974.889458,-2146.597232,-11251.130318,-153.219100
20974.889792,2072.576638,-7105.977043,5286.058936
20974.890125,3478.967927,-4737.318029,7890.783629
20974.890458,4737.318029,-2442.679609,10648.727422
20974.890791,4663.297435,-8290.306550,8503.660028
20974.891124,-1776.494261,-5403.503377,3677.258390
20974.891457,666.185348,-10658.965565,-383.047749
20974.891790,1110.308913,-12435.459826,-1608.800546
20974.892123,-1184.329507,-11547.212695,-3600.648841
20974.892456,-1850.514855,-10732.986159,-5822.325785
20974.892789,-1850.514855,-12139.377449,-5439.278036
20974.893123,-5625.565159,-10732.986159,-4903.011187
20974.893456,-4737.318029,-11917.315666,-612.876398
20974.893789,-74.020594,-9474.636058,2374.896044
20974.894122,2294.638420,-7994.224174,1991.848295
20974.894455,3552.988522,-5107.421000,8963.317327
20974.894788,5847.626942,-2516.700203,6741.640382
20974.895121,2812.782580,-5921.647536,6052.154434
20974.895454,0.000000,-7624.121203,1455.581446
20974.895787,-3404.947333,-10362.883188,-3907.087040
20974.896120,-888.247130,-10658.965565,-2451.505594
20974.896454,0.000000,-11917.315666,1762.019645
20974.896787,1998.556043,-9474.636058,-2528.115143
20974.897120,-666.185348,-8290.306550,-2834.553343
20974.897453,-3256.906145,-11917.315666,-1072.533697
20974.897786,-1480.411884,-9548.656652,-612.876398
20974.898119,-370.102971,-9252.574275,0.000000
20974.898452,1776.494261,-9252.574275,2757.943793
20974.898785,1332.370696,-7031.956449,5362.668486
20974.899118,3478.967927,-6809.894666,4826.401637
20974.899451,3627.009116,-6809.894666,4826.401637
20974.899784,-2442.679609,-4811.338623,0.000000
20974.900118,-2812.782580,-9178.553681,-1915.238745
20974.900451,-1258.350101,-11843.295072,-3140.991542
20974.900784,-666.185348,-11843.295072,-1302.362347
20974.901117,1258.350101,-10214.842000,-842.705048
20974.901450,2146.597232,-9992.780217,995.924147
20974.901783,3256.906145,-9548.656652,229.828649
20974.902116,0.000000,-9548.656652,-1225.752797
20974.902449,2886.803174,-10214.842000,-1915.238745
20974.902782,1184.329507,-11029.068536,1225.752797
20974.903115,4071.132681,-11843.295072,4826.401637
20974.903449,1480.411884,-5403.503377,3677.258390
20974.903782,1998.556043,-7624.121203,4826.401637
20974.904115,-962.267725,-6291.750507,919.314598
20974.904448,-3330.926739,-7402.059420,-2221.676944
20974.904781,-5329.482782,-9622.677246,-3677.258390
20974.905114,-2368.659014,-7772.162391,-2757.943793
20974.905447,-148.041188,-9548.656652,766.095498
20974.905780,3478.967927,-8290.306550,3600.648841
20974.906113,2072.576638,-8734.430116,2068.457845
20974.906446,1628.453072,-9400.615463,-306.438199
20974.906780,0.000000,-9474.636058,-1608.800546
20974.907113,2294.638420,-14211.954086,-76.609550
20974.907446,1110.308913,-9252.574275,0.000000
20974.907779,-74.020594,-10362.883188,0.000000
20974.908112,1924.535449,-7846.182985,2068.457845
20974.908445,-1184.329507,-7476.080014,1838.629195
20974.908778,-2294.638420,-7476.080014,76.609550
20974.909111,-4145.153275,-7846.182985,-536.266849
20974.909444,-1184.329507,-8734.430116,1072.533697
20974.909777,2960.823768,-7179.997637,4290.134789
20974.910111,4663.297435,-6661.853478,2911.162892
20974.910444,2590.720797,-7179.997637,1225.752797
20974.910777,2294.638420,-12731.542202,-76.609550
20974.911110,-74.020594,-10362.883188,-3140.991542
20974.911443,-1776.494261,-13249.686362,-3140.991542
20974.911776,-2886.803174,-13323.706956,-4366.744339
20974.912109,-2368.659014,-11621.233289,-1915.238745
20974.912442,0.000000,-8216.285956,1072.533697
20974.912775,2590.720797,-8808.450710,6665.030833
20974.913108,-666.185348,-3775.050304,1532.190996
20974.913442,-444.123565,-5995.668130,4903.011187
20974.913775,1998.556043,-7105.977043,2374.896044
20974.914108,1184.329507,-4811.338623,2451.505594
20974.914441,4515.256246,-10362.883188,2987.772442
20974.914774,4367.215058,-8438.347739,1915.238745
20974.915107,740.205942,-11547.212695,-1608.800546
20974.915440,-1480.411884,-12213.398043,-4136.915689
20974.915773,-3627.009116,-12435.459826,-6205.373534
20974.916106,-5033.400406,-11325.150913,-6128.763984
20974.916439,0.000000,-12287.418637,-76.609550
20974.916773,-74.020594,-11251.130318,1762.019645
20974.917106,0.000000,-2442.679609,2451.505594
20974.917439,3330.926739,-5921.647536,6052.154434
20974.917772,2146.597232,-4737.318029,4749.792088
20974.918105,1480.411884,-6513.812290,3294.210641
20974.918438,1110.308913,-9474.636058,1532.190996
20974.918771,1998.556043,-11251.130318,1149.143247
20974.919104,2146.597232,-8586.388927,842.705048
20974.919437,1850.514855,-11843.295072,-1455.581446
20974.919770,-1110.308913,-9696.697840,-4903.011187
20974.920104,-3552.988522,-13989.892304,-6741.640382
20974.920437,-3849.070898,-15100.201217,-4366.744339
20974.920770,-962.267725,-11103.089130,-2145.067394
20974.921103,-1554.432478,-7772.162391,0.000000
20974.921436,4885.359217,-4293.194464,8197.221829
20974.921769,3552.988522,-3627.009116,6588.421283
20974.922102,4663.297435,-4737.318029,6205.373534
20974.922435,1998.556043,-7031.956449,3447.429741
20974.922768,1628.453072,-9326.594869,1608.800546
20974.923101,4071.132681,-10362.883188,2374.896044
20974.923435,3182.885551,-12879.583391,-76.609550
20974.923768,-2220.617826,-9548.656652,-4903.011187
20974.924101,-2368.659014,-13767.830521,-4903.011187
20974.924434,-3108.864956,-13619.789333,-4060.306139
20974.924767,-1998.556043,-10955.047942,-3677.258390
20974.925100,-2146.597232,-11251.130318,-1225.752797
20974.925433,-740.205942,-8216.285956,3677.258390
20974.925766,2072.576638,-5551.544565,6741.640382
20974.926099,4737.318029,-1184.329507,6894.859482
20974.926432,4885.359217,-7105.977043,7277.907231
20974.926766,0.000000,-4811.338623,3677.258390
20974.927099,-74.020594,-10658.965565,-1915.238745
20974.927432,-1554.432478,-10658.965565,-4366.744339
20974.927765,-962.267725,-12583.501014,-3140.991542
20974.928098,-148.041188,-10732.986159,-4749.792088
20974.928431,-1110.308913,-11843.295072,-3447.429741
20974.928764,-3627.009116,-11991.336260,-4673.182538
20974.929097,-3552.988522,-10732.986159,-2451.505594
20974.929430,-74.020594,-10066.800811,229.828649
20974.929763,2368.659014,-8438.347739,6128.763984
20974.930097,5181.441594,-7105.977043,8503.660028
20974.930430,3256.906145,-2738.761985,6741.640382
20974.930763,2960.823768,-6587.832884,5515.887586
20974.931096,1850.514855,-7846.182985,2374.896044
20974.931429,-1406.391290,-11177.109724,-1302.362347
20974.931762,-3330.926739,-11621.233289,-5592.497135
20974.932095,-74.020594,-14211.954086,-4979.620737
20974.932428,-2812.782580,-9548.656652,-3677.258390
20974.932761,1406.391290,-10362.883188,-1302.362347
20974.933094,-1258.350101,-11843.295072,-2834.553343
20974.933428,-2812.782580,-9548.656652,0.000000
20974.933761,-2368.659014,-8364.327145,2451.505594
20974.934094,2442.679609,-6143.709319,4826.401637
20974.934427,2886.803174,-6957.935855,5439.278036
20974.934760,4293.194464,-5255.462188,6128.763984
20974.935093,4663.297435,-7994.224174,6052.154434
20974.935426,370.102971,-6661.853478,1225.752797
20974.935759,-3034.844362,-9770.718434,-4213.525239
20974.936092,-3330.926739,-11547.212695,-5592.497135
20974.936425,-814.226536,-13471.748144,-3447.429741
20974.936759,2516.700203,-10066.800811,-76.609550
20974.937092,148.041188,-9696.697840,-1072.533697
20974.937425,0.000000,-8364.327145,1225.752797
20974.937758,1406.391290,-11843.295072,-76.609550
20974.938091,0.000000,-7772.162391,612.876398
20974.938424,2960.823768,-9252.574275,3600.648841
20974.938757,3108.864956,-9548.656652,4749.792088
20974.939090,3627.009116,-8364.327145,6971.469032
20974.939424,3701.029710,-5551.544565,4213.525239
20974.939757,1110.308913,-7994.224174,842.705048
20974.940090,-4071.132681,-7772.162391,-3677.258390
20974.940423,-1258.350101,-11843.295072,-3140.991542
20974.940756,-666.185348,-12435.459826,-4366.744339
20974.941089,148.041188,-10140.821405,-2451.505594
20974.941422,3330.926739,-11251.130318,1762.019645
20974.941755,2960.823768,-8512.368333,1838.629195
20974.942089,1998.556043,-9474.636058,842.705048
20974.942422,1110.308913,-8956.491898,0.000000
20974.942755,0.000000,-7550.100608,-1149.143247
20974.943088,2960.823768,-9548.656652,5898.935335
20974.943421,2294.638420,-7550.100608,1532.190996
20974.943754,592.164754,-5403.503377,2451.505594
20974.944087,0.000000,-7846.182985,2987.772442
20974.944421,-2590.720797,-7179.997637,-2145.067394
20974.944754,-5551.544565,-8956.491898,-3677.258390
20974.945087,-4515.256246,-9844.739029,-3907.087040
20974.945420,-518.144159,-9252.574275,76.609550
20974.945753,2664.741391,-8660.409521,3983.696590
20974.946086,2590.720797,-8734.430116,4826.401637
20974.946419,-74.020594,-7994.224174,-2757.943793
20974.946753,-888.247130,-12435.459826,-76.609550
20974.947086,-74.020594,-11843.295072,1149.143247
20974.947419,-74.020594,-9548.656652,-1838.629195
20974.947752,-1554.432478,-10436.903782,-229.828649
20974.948085,-2664.741391,-9548.656652,229.828649
20974.948418,-814.226536,-7031.956449,1915.238745
20974.948751,-592.164754,-8364.327145,3677.258390
20974.949085,-2294.638420,-7846.182985,383.047749
20974.949418,-2146.597232,-8956.491898,459.657299
20974.949751,1036.288319,-8438.347739,2145.067394
20974.950084,3775.050304,-8290.306550,3600.648841
20974.950417,2516.700203,-7105.977043,1762.019645
20974.950750,1184.329507,-7772.162391,1225.752797
20974.951083,1110.308913,-11843.295072,-689.485948
20974.951417,-74.020594,-11251.130318,-5745.716235
20974.951750,-3034.844362,-12879.583391,-4979.620737
20974.952083,-222.061783,-12435.459826,-2528.115143
20974.952416,814.226536,-10362.883188,2298.286494
20974.952749,1702.473667,-6735.874072,2911.162892
20974.953082,1332.370696,-4959.379811,3677.258390
20974.953415,1110.308913,-8586.388927,4213.525239
20974.953749,0.000000,-5995.668130,5362.668486
20974.954082,3478.967927,-8290.306550,2681.334243
20974.954415,4737.318029,-7772.162391,1225.752797
20974.954748,4737.318029,-8956.491898,2451.505594
20974.955081,4071.132681,-8660.409521,-1838.629195
20974.955414,1850.514855,-11325.150913,-2451.505594
20974.955747,-1776.494261,-11547.212695,-5286.058936
20974.956081,-2442.679609,-11843.295072,-6128.763984
20974.956414,-4515.256246,-10214.842000,-3753.867940
20974.956747,-222.061783,-11251.130318,-76.609550
20974.957080,-1258.350101,-6809.894666,229.828649
20974.957413,1184.329507,-4811.338623,6741.640382
20974.957746,3775.050304,-4737.318029,8350.440928
20974.958079,0.000000,-5551.544565,5209.449386
20974.958413,518.144159,-8438.347739,2221.676944
20974.958746,2146.597232,-9992.780217,1532.190996
20974.959079,2220.617826,-10955.047942,1302.362347
20974.959412,1184.329507,-9548.656652,0.000000
20974.959745,-74.020594,-12731.542202,-6511.811733
20974.960078,-4737.318029,-11843.295072,-9882.631924
20974.960411,-6513.812290,-13693.809927,-5822.325785
20974.960744,-2442.679609,-14211.954086,-3753.867940
20974.961078,-2072.576638,-10732.986159,1455.581446
20974.961411,-148.041188,-7402.059420,4213.525239
20974.961744,4145.153275,-4663.297435,8886.707777
20974.962077,3775.050304,-3627.009116,10035.851024
20974.962410,3923.091493,-6513.812290,7890.783629
20974.962743,-74.020594,-6661.853478,459.657299
20974.963076,0.000000,-8364.327145,1685.410096
20974.963410,4071.132681,-11769.274478,-76.609550
20974.963743,-74.020594,-10658.965565,-4979.620737
20974.964076,-2368.659014,-11769.274478,-5745.716235
20974.964409,-5625.565159,-13101.645173,-7354.516781
20974.964742,-4367.215058,-13101.645173,-6588.421283
20974.965075,-3627.009116,-12139.377449,-3217.601092
20974.965408,-74.020594,-10732.986159,2987.772442
20974.965742,2516.700203,-6365.771101,7048.078582
20974.966075,4663.297435,-4515.256246,9882.631924
20974.966408,7624.121203,-1184.329507,9652.803275
20974.966741,4367.215058,-5847.626942,5822.325785
20974.967074,2516.700203,-7920.203579,3753.867940
20974.967407,2886.803174,-11251.130318,-689.485948
