#time,accel_x,accel_y,accel_z
21860.033831,5847.626942,-10288.862594,-612.876398
21860.034165,4293.194464,-10140.821405,-4136.915689
21860.034498,4367.215058,-10658.965565,-4060.306139
21860.034832,3923.091493,-11547.212695,-3524.039291
21860.035166,4737.318029,-8882.471304,-2681.334243
21860.035500,9104.533087,-11547.212695,2221.676944
21860.035834,8290.306550,-6587.832884,5515.887586
21860.036167,12657.521608,-8882.471304,6052.154434
21860.036501,11769.274478,-8882.471304,3907.087040
21860.036835,11621.233289,-7402.059420,4060.306139
21860.037169,11547.212695,-8142.265362,2374.896044
21860.037503,11029.068536,-9030.512492,229.828649
21860.037837,6513.812290,-10881.027347,-3140.991542
21860.038170,2368.659014,-12509.480420,-4903.011187
21860.038504,-74.020594,-13027.624579,-6971.469032
21860.038838,-1776.494261,-11917.315666,-6128.763984
21860.039172,296.082377,-10732.986159,-76.609550
21860.039506,5551.544565,-6661.853478,2834.553343
21860.039839,7698.141797,-3627.009116,7967.393179
21860.040173,11251.130318,-4367.215058,10112.460574
21860.040507,11399.171507,-4811.338623,7507.735880
21860.040841,12139.377449,-5847.626942,5132.839837
21860.041175,12657.521608,-8290.306550,1149.143247
21860.041508,8216.285956,-6291.750507,-4290.134789
21860.041842,6365.771101,-12731.542202,-6818.249932
21860.042176,5847.626942,-15396.283594,-9882.631924
21860.042510,2960.823768,-11917.315666,-8273.831378
21860.042844,4737.318029,-13101.645173,-4903.011187
21860.043177,6217.729913,-12583.501014,-1915.238745
21860.043511,7179.997637,-10732.986159,1838.629195
21860.043845,11843.295072,-8364.327145,7814.174080
21860.044179,17690.922014,-6217.729913,13406.671215
21860.044513,15544.324782,-3330.926739,12257.527968
21860.044846,14952.160028,-6217.729913,8810.098227
21860.045180,12065.356855,-7105.977043,3677.258390
21860.045514,6957.935855,-8586.388927,-2145.067394
21860.045848,3997.112087,-11843.295072,-5286.058936
21860.046182,-74.020594,-11621.233289,-10189.070123
21860.046516,-74.020594,-11251.130318,-9806.022374
21860.046849,3552.988522,-10362.883188,-3753.867940
21860.047183,7624.121203,-9326.594869,-536.266849
21860.047517,10066.800811,-7846.182985,4826.401637
21860.047851,12435.459826,-7772.162391,6052.154434
21860.048185,14211.954086,-8068.244768,6052.154434
21860.048518,13619.789333,-7402.059420,4060.306139
21860.048852,13841.851115,-9326.594869,2374.896044
21860.049186,13545.768739,-6217.729913,-1532.190996
21860.049520,9474.636058,-9548.656652,-2451.505594
21860.049854,7105.977043,-11917.315666,-689.485948
21860.050187,6143.709319,-11991.336260,-2757.943793
21860.050521,9400.615463,-9178.553681,-689.485948
21860.050855,10732.986159,-6957.935855,536.266849
21860.051189,13027.624579,-5921.647536,1991.848295
21860.051523,14285.974681,-7476.080014,2068.457845
21860.051856,13175.665768,-7476.080014,612.876398
21860.052190,11473.192101,-7179.997637,0.000000
21860.052524,9992.780217,-13471.748144,-1608.800546
21860.052858,9104.533087,-11843.295072,-3753.867940
21860.053192,7476.080014,-10140.821405,-1532.190996
21860.053525,12953.603985,-7402.059420,-689.485948
21860.053859,11991.336260,-8290.306550,2068.457845
21860.054193,13249.686362,-8660.409521,2681.334243
21860.054526,10807.006753,-9326.594869,2221.676944
21860.054860,10066.800811,-9548.656652,1532.190996
21860.055194,11547.212695,-8512.368333,1225.752797
21860.055527,14137.933492,-9474.636058,1149.143247
21860.055861,12953.603985,-6661.853478,919.314598
21860.056194,10214.842000,-7179.997637,536.266849
21860.056528,11769.274478,-10584.944971,-2221.676944
21860.056862,8068.244768,-11769.274478,-995.924147
21860.057195,7179.997637,-10362.883188,-689.485948
21860.057529,8068.244768,-8068.244768,-1532.190996
21860.057862,9400.615463,-9992.780217,2221.676944
21860.058196,8290.306550,-5403.503377,1838.629195
21860.058530,9104.533087,-8882.471304,2987.772442
21860.058863,9844.739029,-7920.203579,612.876398
21860.059197,7105.977043,-10436.903782,0.000000
21860.059530,9474.636058,-6291.750507,0.000000
21860.059864,10881.027347,-6957.935855,-1225.752797
21860.060198,11843.295072,-7328.038826,-2068.457845
21860.060531,10214.842000,-11029.068536,-1455.581446
21860.060865,11473.192101,-9474.636058,-76.609550
21860.061198,11843.295072,-11843.295072,2374.896044
21860.061532,12953.603985,-8956.491898,3753.867940
21860.061866,10288.862594,-10658.965565,689.485948
21860.062199,6587.832884,-10436.903782,-1302.362347
21860.062533,7920.203579,-12435.459826,1762.019645
21860.062866,7105.977043,-5995.668130,-3064.381992
21860.063200,9474.636058,-10658.965565,4213.525239
21860.063534,3182.885551,-7698.141797,-1225.752797
21860.063867,0.000000,-9548.656652,-3600.648841
21860.064201,814.226536,-13027.624579,-1608.800546
21860.064534,6587.832884,-5403.503377,0.000000
21860.064868,9474.636058,-7624.121203,6052.154434
21860.065202,7105.977043,-5181.441594,4443.353888
21860.065535,5107.421000,-6217.729913,612.876398
21860.065869,2664.741391,-11917.315666,1149.143247
21860.066202,8882.471304,-9548.656652,2374.896044
21860.066536,4663.297435,-12731.542202,-76.609550
21860.066870,2368.659014,-8364.327145,-1225.752797
21860.067203,-1258.350101,-11695.253884,-4903.011187
21860.067537,814.226536,-8660.409521,-3447.429741
21860.067870,4219.173869,-8216.285956,1838.629195
21860.068204,3552.988522,-6735.874072,4060.306139
21860.068538,3552.988522,-5403.503377,1225.752797
21860.068871,3552.988522,-11695.253884,6052.154434
21860.069205,7920.203579,-5625.565159,2911.162892
21860.069538,4737.318029,-4811.338623,1838.629195
21860.069872,7920.203579,-8882.471304,2374.896044
21860.070206,592.164754,-8364.327145,-4290.134789
21860.070539,-1554.432478,-13027.624579,-3064.381992
21860.070873,3256.906145,-6217.729913,-3830.477490
21860.071206,2294.638420,-15026.180623,0.000000
21860.071540,7254.018232,-5329.482782,1532.190996
21860.071874,6439.791695,-15396.283594,3600.648841
21860.072207,6439.791695,-6439.791695,1225.752797
21860.072541,6217.729913,-9400.615463,1225.752797
21860.072874,7772.162391,-12435.459826,2374.896044
21860.073208,5329.482782,-9548.656652,3983.696590
21860.073541,5551.544565,-7698.141797,1762.019645
21860.073875,3256.906145,-7476.080014,229.828649
21860.074209,3034.844362,-10214.842000,-1608.800546
21860.074542,2368.659014,-11325.150913,-1838.629195
21860.074876,-222.061783,-8660.409521,-1225.752797
21860.075209,222.061783,-8068.244768,-919.314598
21860.075543,518.144159,-9030.512492,-995.924147
21860.075877,0.000000,-9178.553681,1378.971896
21860.076210,2886.803174,-5625.565159,995.924147
21860.076544,2960.823768,-9474.636058,4519.963438
21860.076877,2294.638420,-13027.624579,-76.609550
21860.077211,444.123565,-5699.585753,306.438199
21860.077545,-666.185348,-9474.636058,-689.485948
21860.077878,1258.350101,-7328.038826,-919.314598
21860.078212,-2220.617826,-8512.368333,-919.314598
21860.078545,-1628.453072,-8216.285956,-3447.429741
21860.078879,1184.329507,-7772.162391,0.000000
21860.079213,1702.473667,-8660.409521,-2451.505594
21860.079546,3552.988522,-11251.130318,2374.896044
21860.079880,1998.556043,-9326.594869,919.314598
21860.080213,962.267725,-10732.986159,2757.943793
21860.080547,4737.318029,-5255.462188,1532.190996
21860.080881,2886.803174,-14804.118840,2374.896044
21860.081214,3256.906145,-8068.244768,1225.752797
21860.081548,-1036.288319,-11177.109724,-689.485948
21860.081881,2294.638420,-10658.965565,4213.525239
21860.082215,-1110.308913,-6587.832884,0.000000
21860.082549,-666.185348,-11547.212695,1762.019645
21860.082882,-74.020594,-5329.482782,-1302.362347
21860.083216,-4441.235652,-7772.162391,0.000000
21860.083549,1406.391290,-8142.265362,689.485948
21860.083883,-2368.659014,-10140.821405,2528.115143
21860.084217,1406.391290,-8512.368333,1532.190996
21860.084550,-74.020594,-11473.192101,2068.457845
21860.084884,74.020594,-9844.739029,0.000000
21860.085217,0.000000,-9548.656652,1838.629195
21860.085551,-3330.926739,-9918.759623,-1225.752797
21860.085885,2590.720797,-3034.844362,-2145.067394
21860.086218,-2368.659014,-12139.377449,4213.525239
21860.086552,3478.967927,-4737.318029,-2834.553343
21860.086885,-1554.432478,-12879.583391,842.705048
21860.087219,-2072.576638,-7105.977043,-1991.848295
21860.087553,-666.185348,-9844.739029,-1608.800546
21860.087886,148.041188,-10140.821405,1838.629195
21860.088220,5847.626942,-10658.965565,3600.648841
21860.088553,-74.020594,-7994.224174,0.000000
21860.088887,2368.659014,-9104.533087,4290.134789
21860.089221,3330.926739,-14211.954086,-76.609550
21860.089554,1110.308913,-9474.636058,3600.648841
21860.089888,1702.473667,-9474.636058,2374.896044
21860.090221,-1110.308913,-8956.491898,-383.047749
21860.090555,-2294.638420,-8734.430116,-995.924147
21860.090889,-3256.906145,-6957.935855,-3677.258390
21860.091222,-962.267725,-10658.965565,-1302.362347
21860.091556,-2072.576638,-7994.224174,-1762.019645
21860.091889,-74.020594,-10658.965565,995.924147
21860.092223,962.267725,-8512.368333,2681.334243
21860.092557,592.164754,-5403.503377,1225.752797
21860.092890,1480.411884,-9400.615463,3217.601092
21860.093224,5847.626942,-11251.130318,2987.772442
21860.093557,2368.659014,-5995.668130,3064.381992
21860.093891,2368.659014,-11843.295072,2374.896044
21860.094224,1702.473667,-9400.615463,-2834.553343
21860.094558,-4737.318029,-14211.954086,-1608.800546
21860.094892,-2294.638420,-8290.306550,-4366.744339
21860.095225,-1776.494261,-7994.224174,-1915.238745
21860.095559,-2368.659014,-10584.944971,-919.314598
21860.095892,1184.329507,-8364.327145,5439.278036
21860.096226,1110.308913,-7179.997637,1532.190996
21860.096560,4219.173869,-6291.750507,4903.011187
21860.096893,4145.153275,-7994.224174,7277.907231
21860.097227,2516.700203,-7772.162391,3217.601092
21860.097560,2516.700203,-6217.729913,612.876398
21860.097894,-1480.411884,-11917.315666,-2145.067394
21860.098228,0.000000,-8364.327145,-4213.525239
21860.098561,-3034.844362,-14211.954086,-2834.553343
21860.098895,1702.473667,-11843.295072,-2528.115143
21860.099228,-2146.597232,-10584.944971,-2451.505594
21860.099562,-1776.494261,-9104.533087,-1838.629195
21860.099896,-74.020594,-9474.636058,-689.485948
21860.100229,3478.967927,-9474.636058,4826.401637
21860.100563,4293.194464,-5181.441594,6741.640382
21860.100896,1924.535449,-6957.935855,5515.887586
21860.101230,4219.173869,-4811.338623,3217.601092
21860.101564,0.000000,-9548.656652,612.876398
21860.101897,1406.391290,-8882.471304,-1762.019645
21860.102231,0.000000,-12213.398043,2374.896044
21860.102564,-1258.350101,-11103.089130,-3907.087040
21860.102898,-4441.235652,-11251.130318,-5898.935335
21860.103232,-4737.318029,-8364.327145,-5515.887586
21860.103565,-3552.988522,-11251.130318,-2834.553343
21860.103899,-1184.329507,-9030.512492,229.828649
21860.104232,666.185348,-9474.636058,2145.067394
21860.104566,3478.967927,-7105.977043,6358.592633
21860.104900,1184.329507,-7328.038826,6281.983084
21860.105233,4663.297435,-6365.771101,6358.592633
21860.105567,1184.329507,-2442.679609,5515.887586
21860.105900,3182.885551,-11547.212695,1762.019645
21860.106234,-1776.494261,-9548.656652,-1991.848295
21860.106568,-4737.318029,-9844.739029,-6588.421283
21860.106901,-6069.688724,-13101.645173,-4366.744339
21860.107235,-4737.318029,-9548.656652,-5822.325785
21860.107568,-3034.844362,-10658.965565,-3294.210641
21860.107902,-2072.576638,-9104.533087,-383.047749
21860.108236,814.226536,-9326.594869,2374.896044
21860.108569,3256.906145,-7476.080014,6128.763984
21860.108903,4663.297435,-7105.977043,5132.839837
21860.109236,7624.121203,-10658.965565,8503.660028
21860.109570,1184.329507,-5995.668130,612.876398
21860.109904,3108.864956,-11177.109724,1149.143247
21860.110237,-1258.350101,-9548.656652,0.000000
21860.110571,-4145.153275,-9548.656652,-2451.505594
21860.110904,-3182.885551,-11103.089130,-4366.744339
21860.111238,-2220.617826,-8660.409521,-2604.724693
21860.111572,-2442.679609,-13471.748144,-3983.696590
21860.111905,1702.473667,-11621.233289,383.047749
21860.112239,-1110.308913,-8512.368333,1762.019645
21860.112572,2368.659014,-9326.594869,5439.278036
21860.112906,3478.967927,-9474.636058,4826.401637
21860.113240,1184.329507,-5995.668130,3677.258390
21860.113573,6735.874072,-8290.306550,7277.907231
21860.113907,0.000000,-7550.100608,153.219100
21860.114240,888.247130,-8364.327145,-1838.629195
21860.114574,-3478.967927,-10955.047942,-1915.238745
21860.114907,-2072.576638,-9918.759623,-3447.429741
21860.115241,-2368.659014,-9696.697840,-3677.258390
21860.115575,-1776.494261,-14211.954086,-3140.991542
21860.115908,-1554.432478,-8364.327145,-3370.820191
21860.116242,518.144159,-5107.421000,306.438199
21860.116575,4219.173869,-11843.295072,2987.772442
21860.116909,2960.823768,-7772.162391,6588.421283
21860.117243,3849.070898,-7105.977043,3830.477490
21860.117576,2368.659014,-7624.121203,2834.553343
21860.117910,2738.761985,-7105.977043,-229.828649
21860.118243,-74.020594,-12435.459826,-76.609550
21860.118577,-74.020594,-7105.977043,-2834.553343
21860.118911,-3849.070898,-11917.315666,-3064.381992
21860.119244,-296.082377,-12139.377449,-76.609550
21860.119578,-3701.029710,-12435.459826,-1608.800546
21860.119911,-2072.576638,-8068.244768,-689.485948
21860.120245,2072.576638,-9844.739029,1991.848295
21860.120579,1850.514855,-8290.306550,5439.278036
21860.120912,4293.194464,-8438.347739,6741.640382
21860.121246,4663.297435,-7994.224174,6052.154434
21860.121579,740.205942,-8364.327145,2451.505594
21860.121913,-3034.844362,-8660.409521,-995.924147
21860.122247,-1924.535449,-9104.533087,-1991.848295
21860.122580,-7994.224174,-10140.821405,-4903.011187
21860.122914,-2368.659014,-7179.997637,-2757.943793
21860.123247,-3034.844362,-11843.295072,-2834.553343
21860.123581,-2072.576638,-5107.421000,-2145.067394
21860.123915,-1776.494261,-9548.656652,0.000000
21860.124248,0.000000,-9548.656652,2528.115143
21860.124582,3256.906145,-4811.338623,2451.505594
21860.124915,1702.473667,-11695.253884,3600.648841
21860.125249,2738.761985,-7846.182985,5209.449386
21860.125583,592.164754,-8068.244768,2145.067394
21860.125916,2590.720797,-6883.915261,1991.848295
21860.126250,3478.967927,-7105.977043,-3753.867940
21860.126583,-2368.659014,-14434.015869,-1838.629195
21860.126917,-3552.988522,-12065.356855,-689.485948
21860.127251,-2368.659014,-9400.615463,-3370.820191
21860.127584,-3108.864956,-10955.047942,-1302.362347
21860.127918,1702.473667,-5921.647536,842.705048
21860.128251,1258.350101,-9252.574275,3677.258390
21860.128585,4663.297435,-6513.812290,4213.525239
21860.128919,1480.411884,-8512.368333,4903.011187
21860.129252,-888.247130,-7179.997637,0.000000
21860.129586,1776.494261,-7476.080014,2145.067394
21860.129919,2294.638420,-9474.636058,-76.609550
21860.130253,3478.967927,-9178.553681,-76.609550
21860.130587,-1258.350101,-9474.636058,-3447.429741
21860.130920,-1184.329507,-11843.295072,-2451.505594
21860.131254,-1554.432478,-9696.697840,-3294.210641
21860.131587,-2664.741391,-11029.068536,-2221.676944
21860.131921,-74.020594,-11103.089130,2987.772442
21860.132255,0.000000,-5995.668130,3064.381992
21860.132588,1184.329507,-5995.668130,6741.640382
21860.132922,4663.297435,-5329.482782,2374.896044
21860.133255,2368.659014,-7179.997637,2451.505594
21860.133589,5551.544565,-9178.553681,1225.752797
21860.133923,2738.761985,-8882.471304,842.705048
21860.134256,-666.185348,-12287.418637,-3140.991542
21860.134590,-1406.391290,-9548.656652,-4903.011187
21860.134923,-3627.009116,-11695.253884,-6205.373534
21860.135257,-2368.659014,-10140.821405,-995.924147
21860.135591,-74.020594,-10510.924376,-76.609550
21860.135924,1110.308913,-6291.750507,0.000000
21860.136258,0.000000,-10140.821405,3677.258390
21860.136591,1702.473667,-5847.626942,4903.011187
21860.136925,2442.679609,-6735.874072,4903.011187
21860.137258,2072.576638,-9104.533087,4826.401637
21860.137592,3330.926739,-6291.750507,3294.210641
21860.137926,-666.185348,-8142.265362,-1149.143247
21860.138259,1110.308913,-8142.265362,-1915.238745
21860.138593,-3997.112087,-10732.986159,-3983.696590
21860.138926,-4293.194464,-11325.150913,-4290.134789
21860.139260,-4737.318029,-10436.903782,-1838.629195
21860.139594,-3034.844362,-11547.212695,-5132.839837
21860.139927,-3552.988522,-7772.162391,-2451.505594
21860.140261,-1776.494261,-8956.491898,4519.963438
21860.140594,3330.926739,-7624.121203,5592.497135
21860.140928,2368.659014,-4811.338623,6741.640382
21860.141262,3478.967927,-10066.800811,4826.401637
21860.141595,3256.906145,-5921.647536,2757.943793
21860.141929,1036.288319,-8882.471304,1149.143247
21860.142262,2294.638420,-8882.471304,-1608.800546
21860.142596,-74.020594,-8068.244768,-4903.011187
21860.142930,-2368.659014,-14508.036463,-3140.991542
21860.143263,-2368.659014,-13693.809927,-1455.581446
21860.143597,-1258.350101,-10658.965565,-2221.676944
21860.143930,-1258.350101,-8882.471304,-2834.553343
21860.144264,-1036.288319,-10955.047942,2681.334243
21860.144598,1998.556043,-6217.729913,2068.457845
21860.144931,3108.864956,-6883.915261,5286.058936
21860.145265,0.000000,-8660.409521,3677.258390
21860.145598,4811.338623,-3923.091493,2451.505594
21860.145932,4663.297435,-8290.306550,1149.143247
21860.146266,1184.329507,-6735.874072,0.000000
21860.146599,-2072.576638,-10436.903782,-2681.334243
21860.146933,-3256.906145,-10732.986159,-4826.401637
21860.147266,1258.350101,-12139.377449,-1225.752797
21860.147600,814.226536,-8364.327145,-3294.210641
21860.147934,-2220.617826,-14656.077652,-766.095498
21860.148267,4071.132681,-7698.141797,-76.609550
21860.148601,592.164754,-9548.656652,5822.325785
21860.148934,5847.626942,-7105.977043,6052.154434
21860.149268,3478.967927,-5995.668130,4903.011187
21860.149602,3923.091493,-7994.224174,2987.772442
21860.149935,4663.297435,-9400.615463,3064.381992
21860.150269,518.144159,-8438.347739,-2221.676944
21860.150602,888.247130,-10436.903782,-1685.410096
21860.150936,-2368.659014,-12509.480420,-3064.381992
21860.151270,-962.267725,-8586.388927,-4826.401637
21860.151603,-296.082377,-13915.871710,-1915.238745
21860.151937,-1998.556043,-7179.997637,-3370.820191
21860.152270,74.020594,-8364.327145,0.000000
21860.152604,2294.638420,-11843.295072,4826.401637
21860.152938,7624.121203,-8290.306550,7660.954980
21860.153271,1480.411884,-8956.491898,3447.429741
21860.153605,3034.844362,-9326.594869,5669.106685
21860.153938,-740.205942,-4737.318029,842.705048
21860.154272,0.000000,-7254.018232,0.000000
21860.154605,-74.020594,-10066.800811,-2068.457845
21860.154938,-1776.494261,-8956.491898,-1762.019645
21860.155272,-6291.750507,-11991.336260,-5056.230287
21860.155605,-666.185348,-7105.977043,-3907.087040
21860.155938,-5995.668130,-14804.118840,-4366.744339
21860.156271,-888.247130,-10066.800811,1455.581446
21860.156605,3182.885551,-9474.636058,1762.019645
21860.156938,0.000000,-9548.656652,3983.696590
21860.157271,5329.482782,-6883.915261,7048.078582
21860.157605,1998.556043,-8290.306550,4979.620737
21860.157938,2738.761985,-6883.915261,2451.505594
21860.158271,-1406.391290,-10362.883188,842.705048
21860.158604,148.041188,-7179.997637,-3217.601092
21860.158938,-4441.235652,-9548.656652,-4903.011187
21860.159271,-666.185348,-13619.789333,-1915.238745
21860.159604,-2960.823768,-5995.668130,-4826.401637
21860.159938,-4737.318029,-13693.809927,766.095498
21860.160271,1110.308913,-9474.636058,-2528.115143
21860.160604,0.000000,-10732.986159,612.876398
21860.160938,1554.432478,-9770.718434,3907.087040
21860.161271,4071.132681,-5329.482782,2604.724693
21860.161604,2516.700203,-10955.047942,7277.907231
21860.161937,5625.565159,-4367.215058,5515.887586
21860.162271,4663.297435,-11843.295072,2987.772442
21860.162604,-1184.329507,-8364.327145,0.000000
21860.162937,-3552.988522,-7772.162391,-2374.896044
21860.163271,-3923.091493,-12139.377449,-3294.210641
21860.163604,0.000000,-5995.668130,-1915.238745
21860.163937,-5477.523971,-11177.109724,-2298.286494
21860.164270,3923.091493,-5329.482782,-689.485948
21860.164604,148.041188,-12509.480420,1838.629195
21860.164937,4663.297435,-8290.306550,2374.896044
21860.165270,2886.803174,-8882.471304,76.609550
21860.165604,1776.494261,-11029.068536,4290.134789
21860.165937,6439.791695,-9178.553681,3600.648841
21860.166270,1702.473667,-8512.368333,0.000000
21860.166604,3256.906145,-8956.491898,1455.581446
21860.166937,-2368.659014,-9918.759623,-1685.410096
21860.167270,-370.102971,-8586.388927,-2911.162892
21860.167603,-962.267725,-9992.780217,-1302.362347
21860.167937,-1258.350101,-9474.636058,-1302.362347
21860.168270,-1776.494261,-8956.491898,-1991.848295
21860.168603,444.123565,-8882.471304,1838.629195
21860.168937,888.247130,-7772.162391,1608.800546
21860.169270,0.000000,-8364.327145,2451.505594
21860.169603,2368.659014,-8956.491898,6205.373534
21860.169936,3478.967927,-7994.224174,1762.019645
21860.170270,0.000000,-7772.162391,0.000000
21860.170603,-1184.329507,-10510.924376,-383.047749
21860.170936,-3330.926739,-8660.409521,-4519.963438
21860.171270,-5329.482782,-11177.109724,-3600.648841
21860.171603,-1480.411884,-9104.533087,-1915.238745
21860.171936,-2368.659014,-9178.553681,383.047749
21860.172269,1924.535449,-7698.141797,2834.553343
21860.172603,0.000000,-7179.997637,2757.943793
21860.172936,4367.215058,-9474.636058,2068.457845
21860.173269,1332.370696,-7772.162391,3064.381992
21860.173603,4663.297435,-9474.636058,4826.401637
21860.173936,1184.329507,-8068.244768,612.876398
21860.174269,-1258.350101,-11547.212695,1149.143247
21860.174603,74.020594,-8364.327145,-1915.238745
21860.174936,-3256.906145,-11843.295072,-3217.601092
21860.175269,-2294.638420,-10658.965565,-2528.115143
21860.175602,-6513.812290,-11917.315666,0.000000
21860.175936,-4811.338623,-6513.812290,-995.924147
21860.176269,-3552.988522,-4811.338623,612.876398
21860.176602,3182.885551,-6957.935855,3600.648841
21860.176936,2294.638420,-7698.141797,3600.648841
21860.177269,4663.297435,-7105.977043,2374.896044
21860.177602,1480.411884,-11769.274478,2681.334243
21860.177935,444.123565,-9474.636058,-919.314598
21860.178269,0.000000,-11251.130318,-766.095498
21860.178602,2294.638420,-11251.130318,-1302.362347
21860.178935,-1776.494261,-11029.068536,0.000000
21860.179269,-2368.659014,-7772.162391,-1225.752797
21860.179602,3182.885551,-11251.130318,-76.609550
21860.179935,-2368.659014,-8364.327145,0.000000
21860.180269,4367.215058,-5181.441594,-76.609550
21860.180602,0.000000,-10436.903782,3524.039291
21860.180935,4663.297435,-7105.977043,4213.525239
21860.181268,370.102971,-7994.224174,3447.429741
21860.181602,2590.720797,-6513.812290,1149.143247
21860.181935,3552.988522,-7179.997637,4290.134789
21860.182268,3182.885551,-9178.553681,-1302.362347
21860.182602,3478.967927,-10658.965565,-2834.553343
21860.182935,-4737.318029,-10140.821405,-7354.516781
21860.183268,-370.102971,-13619.789333,-3830.477490
21860.183601,-1998.556043,-11843.295072,-2528.115143
21860.183935,518.144159,-10658.965565,-689.485948
21860.184268,888.247130,-7846.182985,1455.581446
21860.184601,2886.803174,-7994.224174,2068.457845
21860.184935,5255.462188,-5921.647536,5132.839837
21860.185268,888.247130,-7920.203579,4903.011187
21860.185601,2886.803174,-7846.182985,4443.353888
21860.185935,592.164754,-8364.327145,3983.696590
21860.186268,-666.185348,-7994.224174,-1225.752797
21860.186601,-1480.411884,-7179.997637,-2451.505594
21860.186934,-74.020594,-14211.954086,-1915.238745
21860.187268,-4441.235652,-10510.924376,-4903.011187
21860.187601,-5921.647536,-9548.656652,-3677.258390
21860.187934,-5107.421000,-11621.233289,-4213.525239
21860.188268,-4441.235652,-10807.006753,-2451.505594
21860.188601,-1776.494261,-8808.450710,2221.676944
21860.188934,2886.803174,-8290.306550,3294.210641
21860.189267,4663.297435,-7698.141797,6511.811733
21860.189601,2960.823768,-5403.503377,7124.688131
21860.189934,7031.956449,-9474.636058,6665.030833
21860.190267,2886.803174,-6439.791695,2604.724693
21860.190601,1924.535449,-11621.233289,-76.609550
21860.190934,-3701.029710,-12953.603985,-2681.334243
21860.191267,-3034.844362,-9844.739029,-3753.867940
21860.191601,-3182.885551,-11695.253884,-3983.696590
21860.191934,-1480.411884,-9548.656652,-3524.039291
21860.192267,-1850.514855,-10807.006753,-3140.991542
21860.192600,-3552.988522,-7772.162391,842.705048
21860.192934,-74.020594,-11251.130318,4673.182538
21860.193267,-666.185348,-3849.070898,0.000000
21860.193600,1332.370696,-10658.965565,6971.469032
21860.193934,2516.700203,-4737.318029,3524.039291
21860.194267,3404.947333,-6957.935855,5286.058936
21860.194600,296.082377,-8142.265362,612.876398
21860.194933,592.164754,-8956.491898,0.000000
21860.195267,-4219.173869,-11029.068536,-4903.011187
21860.195600,-1184.329507,-11843.295072,-3140.991542
21860.195933,-1850.514855,-10066.800811,-4979.620737
21860.196267,-1184.329507,-8586.388927,-1455.581446
21860.196600,2664.741391,-7476.080014,1838.629195
21860.196933,5255.462188,-7105.977043,4673.182538
21860.197267,4515.256246,-11103.089130,2374.896044
21860.197600,5847.626942,-6587.832884,2068.457845
21860.197933,6439.791695,-13027.624579,3447.429741
21860.198266,4737.318029,-6587.832884,4826.401637
21860.198600,1702.473667,-9696.697840,-1838.629195
21860.198933,0.000000,-8364.327145,0.000000
21860.199266,2146.597232,-13027.624579,-689.485948
21860.199600,2072.576638,-7328.038826,-3370.820191
21860.199933,1110.308913,-11843.295072,-76.609550
21860.200266,-2516.700203,-8586.388927,-3370.820191
21860.200599,814.226536,-9474.636058,612.876398
21860.200933,-1850.514855,-10658.965565,1762.019645
21860.201266,4737.318029,-8142.265362,3600.648841
21860.201599,-370.102971,-9622.677246,3140.991542
21860.201933,6957.935855,-4737.318029,5132.839837
21860.202266,1628.453072,-8364.327145,5056.230287
21860.202599,1110.308913,-9474.636058,-76.609550
21860.202933,-2960.823768,-8364.327145,-6128.763984
21860.203266,-4589.276840,-15100.201217,-1915.238745
21860.203599,-888.247130,-8956.491898,-3677.258390
21860.203932,-4737.318029,-7772.162391,0.000000
21860.204266,-2442.679609,-10658.965565,-3447.429741
21860.204599,-2812.782580,-9622.677246,-766.095498
21860.204932,2146.597232,-7920.203579,4443.353888
21860.205266,1554.432478,-7031.956449,4290.134789
21860.205599,-74.020594,-10658.965565,4519.963438
21860.205932,0.000000,-6587.832884,4673.182538
21860.206265,-74.020594,-12731.542202,3600.648841
21860.206599,222.061783,-3627.009116,0.000000
21860.206932,592.164754,-12509.480420,1532.190996
21860.207265,-370.102971,-8438.347739,-4903.011187
21860.207599,-2442.679609,-14508.036463,-2528.115143
21860.207932,-5551.544565,-11251.130318,-1762.019645
21860.208265,-3849.070898,-9178.553681,-1608.800546
21860.208599,-3552.988522,-8364.327145,0.000000
21860.208932,1776.494261,-8290.306550,4826.401637
21860.209265,-666.185348,-5995.668130,1378.971896
21860.209598,370.102971,-4811.338623,3064.381992
21860.209932,1036.288319,-9474.636058,3600.648841
21860.210265,0.000000,-7476.080014,1225.752797
21860.210598,0.000000,-5699.585753,-383.047749
21860.210932,-3404.947333,-14211.954086,-2528.115143
21860.211265,-888.247130,-6809.894666,-1685.410096
21860.211598,-2664.741391,-9992.780217,-1225.752797
21860.211931,4071.132681,-9474.636058,-4979.620737
21860.212265,-1332.370696,-7772.162391,0.000000
21860.212598,4219.173869,-10436.903782,1762.019645
21860.212931,8216.285956,-8882.471304,2374.896044
21860.213265,4737.318029,-8660.409521,4903.011187
21860.213598,7920.203579,-9622.677246,3294.210641
21860.213931,4811.338623,-7402.059420,2451.505594
21860.214265,6217.729913,-8734.430116,383.047749
21860.214598,3552.988522,-11621.233289,1838.629195
21860.214931,4367.215058,-7772.162391,-2757.943793
21860.215264,-74.020594,-11103.089130,-1915.238745
21860.215598,-2368.659014,-10807.006753,-3983.696590
21860.215931,740.205942,-6809.894666,-2298.286494
21860.216264,-3256.906145,-7179.997637,-1838.629195
21860.216598,4663.297435,-10658.965565,1149.143247
21860.216931,-666.185348,-9474.636058,1762.019645
21860.217264,4737.318029,-6143.709319,3677.258390
21860.217597,3478.967927,-9474.636058,3600.648841
21860.217931,1332.370696,-7179.997637,2145.067394
21860.218264,1924.535449,-9400.615463,1149.143247
21860.218597,592.164754,-11399.171507,0.000000
21860.218931,-1628.453072,-10732.986159,0.000000
21860.219264,-4811.338623,-10584.944971,-4903.011187
21860.219597,-74.020594,-11843.295072,-3753.867940
21860.219931,-3552.988522,-9548.656652,0.000000
21860.220264,-6513.812290,-7179.997637,-1072.533697
21860.220597,-3552.988522,-6291.750507,1225.752797
21860.220930,-4737.318029,-8364.327145,3677.258390
21860.221264,2664.741391,-2738.761985,3677.258390
21860.221597,666.185348,-8734.430116,4290.134789
21860.221930,4663.297435,-7698.141797,4826.401637
21860.222264,-1924.535449,-7772.162391,306.438199
21860.222597,-666.185348,-11843.295072,-3753.867940
21860.222930,-4737.318029,-11325.150913,-3677.258390
21860.223263,-4811.338623,-13915.871710,-1302.362347
21860.223597,-2442.679609,-11695.253884,-2528.115143
21860.223930,-4737.318029,-10214.842000,-76.609550
21860.224263,-3849.070898,-7994.224174,-1378.971896
21860.224597,-296.082377,-6513.812290,3370.820191
21860.224930,-592.164754,-7179.997637,5669.106685
21860.225263,1184.329507,-5255.462188,4826.401637
21860.225597,-1184.329507,-7179.997637,3677.258390
21860.225930,0.000000,-5699.585753,4903.011187
21860.226263,3478.967927,-5921.647536,0.000000
21860.226596,814.226536,-7402.059420,-3140.991542
21860.226930,2368.659014,-13619.789333,-3294.210641
21860.227263,0.000000,-11325.150913,-4903.011187
21860.227596,0.000000,-15026.180623,-3983.696590
21860.227930,1702.473667,-10288.862594,-1915.238745
21860.228263,2294.638420,-14211.954086,-76.609550
21860.228596,2664.741391,-7772.162391,3677.258390
21860.228929,5255.462188,-9178.553681,4519.963438
21860.229263,6439.791695,-2738.761985,3064.381992
21860.229596,5477.523971,-6587.832884,6588.421283
21860.229929,5255.462188,-6513.812290,4519.963438
21860.230263,3701.029710,-7031.956449,1532.190996
21860.230596,2442.679609,-9696.697840,536.266849
21860.230929,-444.123565,-10288.862594,-3294.210641
21860.231263,1554.432478,-10658.965565,-4979.620737
21860.231596,-888.247130,-13175.665768,-3294.210641
21860.231929,-1702.473667,-9696.697840,-5286.058936
21860.232262,-1702.473667,-14285.974681,-1915.238745
21860.232596,-2368.659014,-7179.997637,-4596.572988
21860.232929,-74.020594,-12731.542202,1455.581446
21860.233262,2368.659014,-3404.947333,2681.334243
21860.233596,5921.647536,-6735.874072,10035.851024
21860.233929,4663.297435,-7402.059420,7124.688131
21860.234262,5847.626942,-2442.679609,2451.505594
21860.234595,2072.576638,-11251.130318,3753.867940
21860.234929,1850.514855,-9400.615463,842.705048
21860.235262,-7105.977043,-13841.851115,-4060.306139
21860.235595,-5329.482782,-11621.233289,-4979.620737
21860.235929,-4811.338623,-13027.624579,-5286.058936
21860.236262,-5625.565159,-8364.327145,-3677.258390
21860.236595,-4737.318029,-11325.150913,1838.629195
21860.236929,-1406.391290,-9474.636058,4213.525239
21860.237262,0.000000,-5403.503377,4903.011187
21860.237595,-962.267725,-4811.338623,5362.668486
21860.237928,740.205942,-9030.512492,4596.572988
21860.238262,1924.535449,-4219.173869,5056.230287
21860.238595,-370.102971,-9474.636058,2987.772442
21860.238928,2738.761985,-7105.977043,-2528.115143
21860.239262,-4145.153275,-12509.480420,0.000000
21860.239595,-2442.679609,-14211.954086,-1608.800546
21860.239928,-74.020594,-6217.729913,-6052.154434
21860.240261,-7179.997637,-17172.777854,-2528.115143
21860.240595,-2146.597232,-5255.462188,-4213.525239
21860.240928,-2368.659014,-11029.068536,3217.601092
21860.241261,2664.741391,-2664.741391,3983.696590
21860.241595,2664.741391,-5995.668130,3064.381992
21860.241928,3182.885551,-8290.306550,2221.676944
21860.242261,2368.659014,-8364.327145,5669.106685
21860.242595,3478.967927,-8290.306550,-76.609550
21860.242928,2960.823768,-10510.924376,-995.924147
21860.243261,0.000000,-8956.491898,-2221.676944
21860.243594,1776.494261,-12139.377449,-1608.800546
21860.243928,2146.597232,-10066.800811,-1532.190996
21860.244261,1554.432478,-11177.109724,-1149.143247
21860.244594,2516.700203,-11029.068536,919.314598
21860.244928,0.000000,-9548.656652,1225.752797
21860.245261,3478.967927,-7105.977043,-76.609550
21860.245594,5847.626942,-8290.306550,2681.334243
21860.245927,2664.741391,-8068.244768,4979.620737
21860.246261,5921.647536,-4885.359217,2987.772442
21860.246594,1776.494261,-11251.130318,3600.648841
21860.246927,2590.720797,-7254.018232,-1532.190996
21860.247261,-148.041188,-11103.089130,-3140.991542
21860.247594,-2368.659014,-13619.789333,-4290.134789
21860.247927,592.164754,-8660.409521,-1762.019645
21860.248261,-2072.576638,-11103.089130,0.000000
21860.248594,2960.823768,-7031.956449,842.705048
21860.248927,-1480.411884,-11029.068536,2604.724693
21860.249260,2960.823768,-7476.080014,2451.505594
21860.249594,1850.514855,-8290.306550,2681.334243
21860.249927,-2368.659014,-10140.821405,3064.381992
21860.250260,4071.132681,-6217.729913,2374.896044
21860.250594,-4219.173869,-9918.759623,0.000000
21860.250927,888.247130,-8586.388927,1762.019645
21860.251260,-3849.070898,-9252.574275,-306.438199
21860.251593,-2442.679609,-10584.944971,-1532.190996
21860.251927,-1924.535449,-6957.935855,-1225.752797
21860.252260,-4811.338623,-11547.212695,-4366.744339
21860.252593,-3552.988522,-9548.656652,0.000000
21860.252927,-4145.153275,-8364.327145,3064.381992
21860.253260,2294.638420,-9474.636058,1149.143247
21860.253593,0.000000,-5995.668130,3677.258390
21860.253927,1406.391290,-11843.295072,229.828649
21860.254260,1924.535449,-9252.574275,3830.477490
21860.254593,1480.411884,-8438.347739,4826.401637
21860.254926,0.000000,-9030.512492,-76.609550
21860.255260,-3034.844362,-7846.182985,-919.314598
21860.255593,-6513.812290,-9548.656652,-1838.629195
21860.255926,-2442.679609,-9178.553681,-1302.362347
21860.256260,-1554.432478,-7994.224174,-3600.648841
21860.256593,-1184.329507,-9992.780217,459.657299
21860.256926,-1998.556043,-6883.915261,306.438199
21860.257259,0.000000,-6883.915261,-536.266849
21860.257593,814.226536,-9252.574275,1608.800546
21860.257926,2220.617826,-9548.656652,1685.410096
21860.258259,4145.153275,-8364.327145,2451.505594
21860.258592,5033.400406,-9992.780217,4826.401637
21860.258925,3775.050304,-10140.821405,0.000000
21860.259258,2516.700203,-10140.821405,0.000000
21860.259592,2294.638420,-12879.583391,-689.485948
21860.259925,0.000000,-8364.327145,1149.143247
21860.260258,-666.185348,-7772.162391,-4290.134789
21860.260591,-1628.453072,-7031.956449,-2451.505594
21860.260924,74.020594,-7550.100608,-2911.162892
21860.261257,1480.411884,-12657.521608,2451.505594
21860.261591,5921.647536,-4959.379811,2987.772442
21860.261924,2960.823768,-9844.739029,4136.915689
21860.262257,5255.462188,-7846.182985,3294.210641
21860.262590,3330.926739,-8586.388927,689.485948
21860.262923,1702.473667,-9548.656652,306.438199
21860.263256,3775.050304,-10658.965565,-689.485948
21860.263589,-1332.370696,-14211.954086,-3140.991542
21860.263923,-4441.235652,-10732.986159,-3064.381992
21860.264256,-3775.050304,-10658.965565,-1915.238745
21860.264589,-666.185348,-6439.791695,-1838.629195
21860.264922,-444.123565,-9252.574275,2221.676944
21860.265255,370.102971,-6365.771101,5056.230287
21860.265588,0.000000,-4811.338623,3064.381992
21860.265922,4071.132681,-7772.162391,4903.011187
21860.266255,4071.132681,-9474.636058,3600.648841
21860.266588,1702.473667,-9548.656652,1225.752797
21860.266921,-2146.597232,-7772.162391,-3677.258390
21860.267254,-4737.318029,-12805.562797,-4903.011187
21860.267587,-6513.812290,-10732.986159,-3983.696590
21860.267921,-4145.153275,-11917.315666,-2911.162892
21860.268254,-2960.823768,-9178.553681,-995.924147
21860.268587,-962.267725,-9474.636058,-76.609550
21860.268920,1332.370696,-7179.997637,3064.381992
21860.269253,3478.967927,-8882.471304,6971.469032
21860.269586,2886.803174,-3627.009116,3064.381992
21860.269920,-74.020594,-10658.965565,4826.401637
21860.270253,4071.132681,-7698.141797,766.095498
21860.270586,296.082377,-12509.480420,2374.896044
21860.270919,-74.020594,-10066.800811,995.924147
21860.271252,740.205942,-10881.027347,-1608.800546
21860.271585,-5255.462188,-12731.542202,-2068.457845
21860.271918,-3552.988522,-7772.162391,-2221.676944
21860.272252,-5995.668130,-8956.491898,-3677.258390
21860.272585,-4441.235652,-5403.503377,0.000000
21860.272918,-74.020594,-8882.471304,-689.485948
21860.273251,1998.556043,-7105.977043,4826.401637
21860.273584,3478.967927,-6513.812290,3294.210641
21860.273917,2590.720797,-7698.141797,4366.744339
21860.274251,2886.803174,-7698.141797,766.095498
21860.274584,1332.370696,-10066.800811,153.219100
21860.274917,2294.638420,-11547.212695,-76.609550
21860.275250,296.082377,-7772.162391,-1838.629195
21860.275583,1480.411884,-10214.842000,-2451.505594
21860.275916,1702.473667,-12435.459826,-3140.991542
21860.276250,1110.308913,-13619.789333,-1915.238745
21860.276583,-74.020594,-10066.800811,-2374.896044
21860.276916,296.082377,-9696.697840,-1302.362347
21860.277249,0.000000,-8956.491898,459.657299
21860.277582,5773.606348,-6809.894666,5515.887586
21860.277915,5255.462188,-8290.306550,4826.401637
21860.278249,5477.523971,-5995.668130,5209.449386
21860.278582,3404.947333,-9770.718434,2145.067394
21860.278915,1554.432478,-9030.512492,1302.362347
21860.279248,0.000000,-9548.656652,612.876398
21860.279581,-1702.473667,-11251.130318,-2528.115143
21860.279914,-2294.638420,-10066.800811,-3907.087040
21860.280247,-6809.894666,-9548.656652,-3524.039291
21860.280581,-2072.576638,-10436.903782,-536.266849
21860.280914,-2442.679609,-7624.121203,-2221.676944
21860.281247,-1184.329507,-9844.739029,1302.362347
21860.281580,518.144159,-5107.421000,4366.744339
21860.281913,296.082377,-6957.935855,1072.533697
21860.282246,2960.823768,-7476.080014,6281.983084
21860.282580,2516.700203,-11251.130318,4826.401637
21860.282913,0.000000,-7179.997637,2451.505594
21860.283246,-592.164754,-9548.656652,1149.143247
21860.283579,-2738.761985,-11621.233289,-4213.525239
21860.283912,-2368.659014,-9548.656652,-1838.629195
21860.284245,-1480.411884,-11547.212695,-2374.896044
21860.284579,-3108.864956,-11177.109724,-995.924147
21860.284912,-2072.576638,-8808.450710,-612.876398
21860.285245,1110.308913,-8290.306550,1149.143247
21860.285578,2294.638420,-9474.636058,2374.896044
21860.285911,0.000000,-7179.997637,7354.516781
21860.286244,1702.473667,-7698.141797,4826.401637
21860.286577,1702.473667,-7105.977043,1762.019645
21860.286911,-74.020594,-8438.347739,2068.457845
21860.287244,518.144159,-8068.244768,1072.533697
21860.287577,-2146.597232,-10881.027347,-2221.676944
21860.287910,-4071.132681,-10214.842000,-4673.182538
21860.288243,-4737.318029,-9548.656652,-4903.011187
21860.288576,-1850.514855,-9178.553681,-4673.182538
21860.288910,-2664.741391,-9548.656652,-2451.505594
21860.289243,-370.102971,-12435.459826,2374.896044
21860.289576,2368.659014,-3627.009116,1225.752797
21860.289909,4663.297435,-8882.471304,5745.716235
21860.290242,4219.173869,-8438.347739,7431.126331
21860.290575,4737.318029,-2886.803174,1532.190996
21860.290909,1924.535449,-11399.171507,383.047749
21860.291242,4145.153275,-9992.780217,612.876398
21860.291575,-3552.988522,-10732.986159,-4290.134789
21860.291908,-74.020594,-12731.542202,-2528.115143
21860.292241,-74.020594,-10658.965565,-5286.058936
21860.292574,0.000000,-11325.150913,-1225.752797
21860.292908,222.061783,-7550.100608,1149.143247
21860.293241,2368.659014,-9178.553681,2604.724693
21860.293574,4737.318029,-7476.080014,5209.449386
21860.293907,3330.926739,-7994.224174,6358.592633
21860.294240,5477.523971,-7550.100608,2757.943793
21860.294573,0.000000,-11325.150913,1838.629195
21860.294906,3478.967927,-7031.956449,2145.067394
21860.295240,2220.617826,-9030.512492,689.485948
21860.295573,0.000000,-9474.636058,919.314598
21860.295906,-1480.411884,-9104.533087,-4903.011187
21860.296239,-2886.803174,-9770.718434,-3830.477490
21860.296572,-3552.988522,-10140.821405,-612.876398
21860.296905,-3034.844362,-9326.594869,-2221.676944
21860.297239,-666.185348,-10658.965565,0.000000
21860.297572,0.000000,-9474.636058,5439.278036
21860.297905,-2146.597232,-7624.121203,3140.991542
21860.298238,2072.576638,-4515.256246,1838.629195
21860.298571,2664.741391,-8512.368333,3907.087040
21860.298904,3478.967927,-11547.212695,3600.648841
21860.299238,0.000000,-7772.162391,3677.258390
21860.299571,-4737.318029,-10732.986159,-1532.190996
21860.299904,-74.020594,-9844.739029,-3983.696590
21860.300237,-4737.318029,-7179.997637,-2451.505594
21860.300570,-74.020594,-12435.459826,-3140.991542
21860.300903,148.041188,-8068.244768,-1225.752797
21860.301236,-1776.494261,-13693.809927,306.438199
21860.301570,1776.494261,-6439.791695,3294.210641
21860.301903,-74.020594,-7179.997637,2911.162892
21860.302236,592.164754,-7772.162391,4749.792088
21860.302569,2590.720797,-7402.059420,2374.896044
21860.302902,-74.020594,-5995.668130,-1838.629195
21860.303235,888.247130,-9844.739029,1685.410096
21860.303569,-3627.009116,-9548.656652,-3677.258390
21860.303902,-666.185348,-9474.636058,-2604.724693
21860.304235,-3330.926739,-11843.295072,-2528.115143
21860.304568,-370.102971,-9548.656652,-1915.238745
21860.304901,-4145.153275,-9548.656652,-2451.505594
21860.305234,2960.823768,-10658.965565,4826.401637
21860.305568,4071.132681,-5403.503377,1378.971896
21860.305901,4737.318029,-10658.965565,8503.660028
21860.306234,7031.956449,-9474.636058,7890.783629
21860.306567,1628.453072,-2738.761985,0.000000
21860.306900,1406.391290,-12213.398043,-612.876398
21860.307233,2072.576638,-8438.347739,-1302.362347
21860.307567,222.061783,-11547.212695,-4443.353888
21860.307900,0.000000,-10732.986159,-3370.820191
21860.308233,-518.144159,-13619.789333,-2374.896044
21860.308566,0.000000,-9474.636058,-995.924147
21860.308899,-222.061783,-9474.636058,0.000000
21860.309232,-74.020594,-10658.965565,-76.609550
21860.309565,4663.297435,-6217.729913,2834.553343
21860.309899,1184.329507,-8512.368333,5745.716235
21860.310232,4663.297435,-8290.306550,4826.401637
21860.310565,1406.391290,-8956.491898,0.000000
21860.310898,4663.297435,-10510.924376,5745.716235
21860.311231,2146.597232,-8290.306550,1685.410096
21860.311564,370.102971,-10362.883188,-1302.362347
21860.311898,-2368.659014,-10881.027347,-3217.601092
21860.312231,-4145.153275,-9548.656652,-5515.887586
21860.312564,-74.020594,-11029.068536,-2834.553343
21860.312897,-5329.482782,-10732.986159,-689.485948
21860.313230,2294.638420,-6735.874072,-1225.752797
21860.313563,-1258.350101,-7179.997637,2451.505594
21860.313897,4367.215058,-4737.318029,4519.963438
21860.314230,0.000000,-7328.038826,3217.601092
21860.314563,3923.091493,-8734.430116,3600.648841
21860.314896,3256.906145,-6365.771101,1608.800546
21860.315229,1184.329507,-12509.480420,1378.971896
21860.315562,2886.803174,-8438.347739,-2757.943793
21860.315895,-3034.844362,-16580.613101,-2834.553343
21860.316229,-2294.638420,-10732.986159,-6128.763984
21860.316562,-4737.318029,-13397.727550,-4903.011187
21860.316895,-1776.494261,-9252.574275,0.000000
21860.317228,-962.267725,-8068.244768,2987.772442
21860.317561,-148.041188,-5403.503377,3600.648841
21860.317894,3478.967927,-5181.441594,6052.154434
21860.318228,3775.050304,-5921.647536,4826.401637
21860.318561,666.185348,-5403.503377,3677.258390
21860.318894,-74.020594,-6883.915261,-1532.190996
21860.319227,-1702.473667,-8364.327145,-2451.505594
21860.319560,-1776.494261,-13027.624579,-2528.115143
21860.319893,-1850.514855,-13027.624579,-4979.620737
21860.320227,-1850.514855,-12435.459826,-5132.839837
21860.320560,-740.205942,-12953.603985,-919.314598
21860.320893,-296.082377,-7105.977043,383.047749
21860.321226,-666.185348,-7402.059420,1608.800546
21860.321559,-2590.720797,-10214.842000,-76.609550
21860.321892,2886.803174,-2442.679609,1225.752797
21860.322226,4145.153275,-7772.162391,4903.011187
21860.322559,8734.430116,-6513.812290,7277.907231
21860.322892,5847.626942,-11251.130318,6052.154434
21860.323225,1332.370696,-8068.244768,-1072.533697
21860.323558,666.185348,-11547.212695,-2145.067394
21860.323891,-3627.009116,-12731.542202,-6971.469032
21860.324224,222.061783,-13249.686362,-3524.039291
21860.324558,-3775.050304,-13915.871710,-2528.115143
21860.324891,-1628.453072,-9622.677246,-2681.334243
21860.325224,148.041188,-9104.533087,995.924147
21860.325557,3849.070898,-8956.491898,7737.564530
21860.325890,4885.359217,-296.082377,6818.249932
21860.326223,3256.906145,-7105.977043,6665.030833
21860.326557,1702.473667,-8290.306550,1149.143247
21860.326890,0.000000,-6587.832884,2528.115143
21860.327223,592.164754,-10510.924376,-76.609550
21860.327556,1998.556043,-9474.636058,-4060.306139
21860.327889,-3552.988522,-13619.789333,-4596.572988
21860.328222,-2442.679609,-13545.768739,-3524.039291
21860.328556,-3108.864956,-9548.656652,-4136.915689
21860.328889,-4737.318029,-10436.903782,-3677.258390
21860.329222,1776.494261,-10955.047942,4826.401637
21860.329555,1702.473667,-7179.997637,5515.887586
21860.329888,2664.741391,-1258.350101,5515.887586
21860.330221,2294.638420,-9474.636058,6052.154434
21860.330554,1258.350101,-6587.832884,1838.629195
21860.330888,2072.576638,-7994.224174,2987.772442
21860.331221,1628.453072,-8956.491898,536.266849
21860.331554,-296.082377,-9770.718434,-1685.410096
21860.331887,-2590.720797,-12435.459826,-4060.306139
21860.332220,1406.391290,-14804.118840,-2528.115143
21860.332553,-4811.338623,-13693.809927,-2451.505594
21860.332887,-2368.659014,-8882.471304,1225.752797
21860.333220,-1998.556043,-10362.883188,-1302.362347
21860.333553,0.000000,-5403.503377,4136.915689
21860.333886,814.226536,-7179.997637,2451.505594
21860.334219,6439.791695,-5403.503377,7277.907231
21860.334552,296.082377,-9918.759623,4749.792088
21860.334886,2072.576638,-4737.318029,689.485948
21860.335219,-666.185348,-12731.542202,842.705048
21860.335552,-3552.988522,-7179.997637,0.000000
21860.335885,-740.205942,-11547.212695,-2528.115143
21860.336218,-2146.597232,-11251.130318,-5286.058936
21860.336551,1110.308913,-11547.212695,-76.609550
21860.336885,-148.041188,-8216.285956,-76.609550
21860.337218,740.205942,-10807.006753,919.314598
21860.337551,-2738.761985,-8956.491898,0.000000
21860.337884,2442.679609,-8956.491898,3064.381992
21860.338217,518.144159,-5107.421000,3064.381992
21860.338550,4663.297435,-6809.894666,4826.401637
21860.338883,7031.956449,-4737.318029,2221.676944
21860.339217,0.000000,-11917.315666,3064.381992
21860.339550,4663.297435,-7698.141797,-76.609550
21860.339883,-2960.823768,-14359.995275,-2068.457845
21860.340216,0.000000,-10140.821405,-5056.230287
21860.340549,-74.020594,-11547.212695,-1915.238745
21860.340882,-1776.494261,-11325.150913,-2451.505594
21860.341216,2812.782580,-5995.668130,-1072.533697
21860.341549,-1036.288319,-13471.748144,2834.553343
21860.341882,5699.585753,-7698.141797,5745.716235
21860.342215,1110.308913,-7402.059420,5898.935335
21860.342548,2368.659014,-5403.503377,1532.190996
21860.342881,3478.967927,-5921.647536,1149.143247
21860.343215,0.000000,-9548.656652,4903.011187
21860.343548,1702.473667,-5921.647536,-1838.629195
21860.343881,-3923.091493,-11695.253884,-2528.115143
21860.344214,-2368.659014,-11325.150913,-2221.676944
21860.344547,-5625.565159,-9622.677246,-4749.792088
21860.344880,-3034.844362,-10955.047942,-4519.963438
21860.345214,-592.164754,-7550.100608,-1302.362347
21860.345547,1480.411884,-13471.748144,5515.887586
21860.345880,3256.906145,-3627.009116,4903.011187
21860.346213,-1776.494261,-9548.656652,4290.134789
21860.346546,4959.379811,-9474.636058,3907.087040
21860.346879,2294.638420,-6069.688724,1225.752797
21860.347212,3997.112087,-10658.965565,3907.087040
21860.347546,0.000000,-10066.800811,2145.067394
21860.347879,-3701.029710,-9252.574275,-4366.744339
21860.348212,-3627.009116,-10362.883188,-4213.525239
21860.348545,-2442.679609,-10658.965565,-5286.058936
21860.348878,-2960.823768,-11325.150913,2451.505594
21860.349211,-962.267725,-8068.244768,1225.752797
21860.349545,-74.020594,-9474.636058,-76.609550
21860.349878,-2368.659014,-8956.491898,3677.258390
21860.350211,3182.885551,-3849.070898,1225.752797
21860.350544,518.144159,-11621.233289,3983.696590
21860.350877,2960.823768,-4367.215058,1838.629195
21860.351210,-3108.864956,-13323.706956,-1072.533697
21860.351544,1258.350101,-4811.338623,0.000000
21860.351877,-3552.988522,-8364.327145,-76.609550
21860.352210,-74.020594,-12435.459826,-2528.115143
21860.352543,814.226536,-7994.224174,-2528.115143
21860.352876,-7105.977043,-11917.315666,-1838.629195
21860.353209,1406.391290,-5255.462188,-1991.848295
21860.353542,-962.267725,-9252.574275,2298.286494
21860.353876,7031.956449,-6735.874072,3447.429741
21860.354209,4219.173869,-7179.997637,5362.668486
21860.354542,2368.659014,-8068.244768,229.828649
21860.354875,3182.885551,-10140.821405,1378.971896
21860.355208,2738.761985,-10881.027347,995.924147
21860.355541,2664.741391,-10732.986159,-919.314598
21860.355875,-74.020594,-11843.295072,-76.609550
21860.356208,2886.803174,-8882.471304,-3753.867940
21860.356541,-3552.988522,-11917.315666,-612.876398
21860.356874,4663.297435,-9474.636058,2987.772442
21860.357207,-666.185348,-8438.347739,-3064.381992
21860.357540,2664.741391,-10436.903782,4903.011187
21860.357873,3849.070898,-5255.462188,3524.039291
21860.358207,2368.659014,-9178.553681,4673.182538
21860.358540,3552.988522,-6735.874072,2834.553343
21860.358873,518.144159,-9474.636058,-76.609550
21860.359206,-740.205942,-13027.624579,-76.609550
21860.359539,-74.020594,-9474.636058,-1608.800546
21860.359872,-4441.235652,-12361.439231,-4903.011187
21860.360205,-888.247130,-11843.295072,-76.609550
21860.360539,-2442.679609,-10658.965565,-1915.238745
21860.360872,-4145.153275,-5995.668130,0.000000
21860.361205,-592.164754,-10362.883188,2068.457845
21860.361538,-666.185348,-9178.553681,1762.019645
21860.361871,1776.494261,-4811.338623,3064.381992
21860.362204,2294.638420,-10658.965565,3294.210641
21860.362537,3552.988522,-7179.997637,6052.154434
21860.362870,-74.020594,-8882.471304,0.000000
21860.363204,1776.494261,-8956.491898,0.000000
21860.363537,-2812.782580,-12065.356855,-612.876398
21860.363870,-2664.741391,-10732.986159,-2604.724693
21860.364203,-2368.659014,-8216.285956,-2528.115143
21860.364536,-4959.379811,-11547.212695,-5056.230287
21860.364869,3182.885551,-10658.965565,-76.609550
21860.365202,-4367.215058,-7772.162391,-1838.629195
21860.365535,2294.638420,-8290.306550,2374.896044
21860.365869,-74.020594,-5921.647536,1302.362347
21860.366202,1776.494261,-9548.656652,4979.620737
21860.366535,5181.441594,-6365.771101,4596.572988
21860.366868,2368.659014,-9104.533087,3753.867940
21860.367201,2072.576638,-10140.821405,1302.362347
21860.367534,1998.556043,-8586.388927,76.609550
21860.367867,-1628.453072,-12065.356855,-3524.039291
21860.368200,-4145.153275,-8660.409521,-1149.143247
21860.368534,-2442.679609,-9474.636058,-6818.249932
21860.368867,-2368.659014,-10732.986159,-3677.258390
21860.369200,592.164754,-8808.450710,2068.457845
21860.369533,1702.473667,-10955.047942,2757.943793
21860.369866,4737.318029,-4515.256246,5132.839837
21860.370199,3034.844362,-8142.265362,4060.306139
21860.370532,2590.720797,-7402.059420,2221.676944
21860.370866,2590.720797,-9104.533087,3907.087040
21860.371199,0.000000,-8364.327145,1838.629195
21860.371532,3404.947333,-7920.203579,-1532.190996
21860.371865,-592.164754,-11991.336260,-2451.505594
21860.372198,-888.247130,-9548.656652,-5209.449386
21860.372531,-1850.514855,-13027.624579,-3753.867940
21860.372864,-2072.576638,-11029.068536,-3064.381992
21860.373197,-666.185348,-13027.624579,-76.609550
21860.373531,-74.020594,-8512.368333,1378.971896
21860.373864,3552.988522,-3923.091493,5209.449386
21860.374197,6735.874072,-9178.553681,7890.783629
21860.374530,4885.359217,-6439.791695,4060.306139
21860.374863,2072.576638,-9104.533087,5898.935335
21860.375196,0.000000,-7698.141797,153.219100
21860.375529,0.000000,-8364.327145,0.000000
21860.375862,-4737.318029,-12213.398043,-1685.410096
21860.376196,-666.185348,-8290.306550,-5745.716235
21860.376529,-3034.844362,-11029.068536,-3677.258390
21860.376862,-1184.329507,-7624.121203,-3830.477490
21860.377195,-1258.350101,-11843.295072,-1608.800546
21860.377528,-1554.432478,-9474.636058,-383.047749
21860.377861,370.102971,-7402.059420,459.657299
21860.378194,-2368.659014,-9844.739029,2834.553343
21860.378527,4145.153275,-6143.709319,5209.449386
21860.378861,0.000000,-7772.162391,8963.317327
21860.379194,4663.297435,-4589.276840,1225.752797
21860.379527,1184.329507,-9030.512492,3524.039291
21860.379860,1850.514855,-13619.789333,995.924147
21860.380193,-2960.823768,-7772.162391,-4290.134789
21860.380526,-3182.885551,-13027.624579,-4979.620737
21860.380859,-1850.514855,-12361.439231,-4826.401637
21860.381193,-2368.659014,-11473.192101,-2757.943793
21860.381526,-74.020594,-10362.883188,2374.896044
21860.381859,2146.597232,-9178.553681,3600.648841
21860.382192,2294.638420,-4811.338623,3370.820191
21860.382525,1184.329507,-6291.750507,4673.182538
21860.382858,3478.967927,-7994.224174,3600.648841
21860.383191,-74.020594,-8068.244768,2374.896044
21860.383524,1332.370696,-8068.244768,-76.609550
21860.383858,-1850.514855,-11547.212695,-306.438199
21860.384191,-2960.823768,-9030.512492,-4596.572988
21860.384524,-4145.153275,-9548.656652,-5209.449386
21860.384857,-370.102971,-10807.006753,-5669.106685
21860.385190,-1776.494261,-10732.986159,-2451.505594
21860.385523,444.123565,-11843.295072,2374.896044
21860.385856,1258.350101,-5995.668130,2451.505594
21860.386189,2886.803174,-8586.388927,7890.783629
21860.386523,4959.379811,-2516.700203,3370.820191
21860.386856,2146.597232,-9178.553681,3600.648841
21860.387189,4885.359217,-6661.853478,2911.162892
21860.387522,0.000000,-10732.986159,766.095498
21860.387855,814.226536,-8438.347739,-2451.505594
21860.388188,-2294.638420,-12435.459826,-2604.724693
21860.388521,-1850.514855,-10436.903782,-3753.867940
21860.388854,-1480.411884,-10066.800811,-2451.505594
21860.389188,-2886.803174,-9622.677246,-2221.676944
21860.389521,3478.967927,-12435.459826,4826.401637
21860.389854,1406.391290,-7550.100608,2681.334243
21860.390187,2368.659014,-7179.997637,3677.258390
21860.390520,1110.308913,-8882.471304,3370.820191
21860.390853,296.082377,-8808.450710,1991.848295
21860.391186,222.061783,-8216.285956,-995.924147
21860.391519,2960.823768,-8290.306550,2681.334243
21860.391853,3182.885551,-8956.491898,1685.410096
21860.392186,592.164754,-8660.409521,0.000000
21860.392519,-1258.350101,-9548.656652,-4749.792088
21860.392852,-2442.679609,-11843.295072,-4596.572988
21860.393185,-1776.494261,-9844.739029,-76.609550
21860.393518,-1850.514855,-11843.295072,-2528.115143
21860.393851,592.164754,-9104.533087,3294.210641
21860.394185,-592.164754,-7105.977043,2374.896044
21860.394518,3034.844362,-6439.791695,3907.087040
21860.394851,2368.659014,-5329.482782,2374.896044
21860.395184,3478.967927,-11251.130318,4213.525239
21860.395517,1110.308913,-6587.832884,306.438199
21860.395850,-1406.391290,-12805.562797,-1838.629195
21860.396183,-74.020594,-9474.636058,-3753.867940
21860.396516,-4441.235652,-8364.327145,-3370.820191
21860.396850,3330.926739,-9252.574275,-1302.362347
21860.397183,1850.514855,-11695.253884,-689.485948
21860.397516,-3552.988522,-14952.160028,536.266849
21860.397849,518.144159,-6217.729913,2145.067394
21860.398182,-74.020594,-9178.553681,2374.896044
21860.398515,1850.514855,-3627.009116,4903.011187
21860.398848,3182.885551,-7105.977043,4213.525239
21860.399181,592.164754,-3552.988522,0.000000
21860.399515,-4145.153275,-7179.997637,0.000000
21860.399848,-2442.679609,-11251.130318,-2221.676944
21860.400181,-1628.453072,-8438.347739,-3983.696590
21860.400514,-2072.576638,-12435.459826,-2221.676944
21860.400847,-740.205942,-10732.986159,-1838.629195
21860.401180,-1554.432478,-9474.636058,-689.485948
21860.401513,-1258.350101,-8512.368333,-2451.505594
21860.401846,814.226536,-9770.718434,2528.115143
21860.402180,3552.988522,-9030.512492,5132.839837
21860.402513,1776.494261,-6587.832884,5515.887586
21860.402846,5551.544565,-10658.965565,3600.648841
21860.403179,3108.864956,-7179.997637,2757.943793
21860.403512,2368.659014,-10436.903782,4826.401637
21860.403845,2738.761985,-7846.182985,0.000000
21860.404178,-2368.659014,-9548.656652,-3677.258390
21860.404512,-1406.391290,-14211.954086,-4060.306139
21860.404845,-2664.741391,-9030.512492,-2528.115143
21860.405178,-5477.523971,-12435.459826,-4290.134789
21860.405511,-1258.350101,-9474.636058,-383.047749
21860.405844,-1258.350101,-9474.636058,-76.609550
21860.406177,1332.370696,-7772.162391,5515.887586
21860.406510,5033.400406,-4293.194464,9806.022374
21860.406843,4663.297435,-10066.800811,4519.963438
21860.407177,6587.832884,-6809.894666,6128.763984
21860.407510,-222.061783,-9326.594869,229.828649
21860.407843,2072.576638,-10214.842000,-1455.581446
21860.408176,-2738.761985,-11547.212695,-4060.306139
21860.408509,-4737.318029,-9844.739029,-6588.421283
21860.408842,-740.205942,-12435.459826,-1302.362347
21860.409175,-5921.647536,-9548.656652,-1838.629195
21860.409508,-74.020594,-9178.553681,-76.609550
21860.409842,1110.308913,-7105.977043,1149.143247
21860.410175,3182.885551,-8808.450710,3600.648841
21860.410508,5403.503377,-6883.915261,7048.078582
21860.410841,1406.391290,-8882.471304,2757.943793
21860.411174,5107.421000,-7476.080014,2298.286494
21860.411507,1184.329507,-9844.739029,612.876398
21860.411840,5847.626942,-10066.800811,-1149.143247
21860.412173,-592.164754,-11769.274478,-2451.505594
21860.412507,-2442.679609,-15988.448347,-4979.620737
21860.412840,-3034.844362,-11029.068536,-3677.258390
21860.413173,-2368.659014,-10732.986159,0.000000
21860.413506,1110.308913,-6735.874072,2374.896044
21860.413839,74.020594,-6661.853478,2145.067394
21860.414172,2368.659014,-5699.585753,4749.792088
21860.414505,2294.638420,-8290.306550,4826.401637
21860.414839,0.000000,-5995.668130,1225.752797
21860.415172,0.000000,-6587.832884,2451.505594
21860.415505,1702.473667,-9474.636058,1149.143247
21860.415838,0.000000,-7179.997637,-3753.867940
21860.416171,-2368.659014,-8512.368333,-4290.134789
21860.416504,-740.205942,-14804.118840,-4673.182538
21860.416837,-1184.329507,-10436.903782,-2451.505594
21860.417170,-814.226536,-12139.377449,-1915.238745
21860.417504,-962.267725,-11251.130318,-1302.362347
21860.417837,1776.494261,-8068.244768,3907.087040
21860.418170,2886.803174,-8660.409521,4519.963438
21860.418503,5699.585753,-5329.482782,6052.154434
21860.418836,1702.473667,-8882.471304,3907.087040
21860.419169,4663.297435,-7105.977043,2987.772442
21860.419502,-2368.659014,-9548.656652,1378.971896
21860.419835,-74.020594,-13027.624579,-3140.991542
21860.420169,-7105.977043,-11029.068536,-2451.505594
21860.420502,-4441.235652,-11843.295072,-3294.210641
21860.420835,-148.041188,-11251.130318,-1302.362347
21860.421168,-3552.988522,-8882.471304,-919.314598
21860.421501,148.041188,-8364.327145,-536.266849
21860.421834,-1554.432478,-8956.491898,4443.353888
21860.422167,1998.556043,-4959.379811,2221.676944
21860.422500,1184.329507,-7179.997637,5822.325785
21860.422834,-74.020594,-8882.471304,2068.457845
21860.423167,4071.132681,-6735.874072,612.876398
21860.423500,1776.494261,-7772.162391,4213.525239
21860.423833,2294.638420,-10658.965565,-995.924147
21860.424166,-1554.432478,-10066.800811,-229.828649
21860.424499,-2738.761985,-8956.491898,-6665.030833
21860.424832,-2664.741391,-12731.542202,-6128.763984
21860.425166,-2960.823768,-11325.150913,-3064.381992
21860.425499,-3552.988522,-10732.986159,1762.019645
21860.425832,1702.473667,-7402.059420,0.000000
21860.426165,0.000000,-7476.080014,0.000000
21860.426498,5033.400406,-8882.471304,7277.907231
21860.426831,2812.782580,-4811.338623,3064.381992
21860.427164,3849.070898,-7476.080014,3907.087040
21860.427497,666.185348,-9104.533087,2145.067394
21860.427831,2146.597232,-9474.636058,1455.581446
21860.428164,1110.308913,-10066.800811,-459.657299
21860.428497,888.247130,-11843.295072,-689.485948
21860.428830,1702.473667,-11103.089130,-2451.505594
21860.429163,-4145.153275,-8956.491898,-2298.286494
21860.429496,0.000000,-10732.986159,-1991.848295
21860.429829,-3552.988522,-11177.109724,689.485948
21860.430162,-74.020594,-8290.306550,919.314598
21860.430496,3182.885551,-8068.244768,5745.716235
21860.430829,2886.803174,-4737.318029,4826.401637
21860.431162,2886.803174,-7031.956449,536.266849
21860.431495,5551.544565,-8290.306550,2987.772442
21860.431828,0.000000,-8364.327145,-3677.258390
21860.432161,0.000000,-10807.006753,-689.485948
21860.432494,-2442.679609,-13027.624579,-4979.620737
21860.432827,-1480.411884,-11917.315666,-2987.772442
21860.433161,-1776.494261,-8808.450710,-1991.848295
21860.433494,370.102971,-9474.636058,-689.485948
21860.433827,3034.844362,-8068.244768,3447.429741
21860.434160,962.267725,-6513.812290,2987.772442
21860.434493,3775.050304,-7328.038826,3140.991542
21860.434826,-962.267725,-7994.224174,995.924147
21860.435159,2738.761985,-8882.471304,1915.238745
21860.435492,666.185348,-9400.615463,1915.238745
21860.435826,370.102971,-9474.636058,-383.047749
21860.436159,-74.020594,-14211.954086,-76.609550
21860.436492,-2294.638420,-10732.986159,-2145.067394
21860.436825,-1184.329507,-9696.697840,612.876398
21860.437158,-1628.453072,-9252.574275,-766.095498
21860.437491,-1702.473667,-8512.368333,766.095498
21860.437824,-2516.700203,-8290.306550,-383.047749
21860.438158,2738.761985,-5033.400406,3600.648841
21860.438491,0.000000,-8660.409521,3140.991542
21860.438824,592.164754,-6587.832884,612.876398
21860.439157,-74.020594,-9178.553681,-1225.752797
21860.439490,-1850.514855,-8364.327145,-2145.067394
21860.439823,1110.308913,-10658.965565,-76.609550
21860.440156,-1258.350101,-9474.636058,-2834.553343
21860.440489,1036.288319,-11251.130318,-995.924147
21860.440823,-2812.782580,-10066.800811,-1225.752797
21860.441156,-666.185348,-9104.533087,-689.485948
21860.441489,-2738.761985,-6217.729913,153.219100
21860.441822,1702.473667,-8882.471304,-76.609550
21860.442155,370.102971,-9548.656652,1225.752797
21860.442488,4737.318029,-10955.047942,6894.859482
21860.442821,3478.967927,-8290.306550,-1455.581446
21860.443154,0.000000,-9548.656652,1225.752797
21860.443488,3478.967927,-10066.800811,-995.924147
21860.443821,2516.700203,-11843.295072,2834.553343
21860.444154,518.144159,-9474.636058,-1455.581446
21860.444487,-370.102971,-11843.295072,-995.924147
21860.444820,-4071.132681,-7772.162391,-2145.067394
21860.445153,0.000000,-4811.338623,1762.019645
21860.445486,-74.020594,-9474.636058,1762.019645
21860.445819,-2368.659014,-4811.338623,-2451.505594
21860.446153,0.000000,-7179.997637,2451.505594
21860.446486,-74.020594,-8290.306550,995.924147
21860.446819,2368.659014,-6883.915261,1072.533697
21860.447152,1998.556043,-7846.182985,76.609550
21860.447485,2368.659014,-10955.047942,-689.485948
21860.447818,1480.411884,-8364.327145,-2757.943793
21860.448151,666.185348,-13915.871710,-1991.848295
21860.448485,2442.679609,-12583.501014,-76.609550
21860.448818,962.267725,-10584.944971,0.000000
21860.449151,4663.297435,-9178.553681,1762.019645
21860.449484,2294.638420,-7550.100608,0.000000
21860.449817,0.000000,-6735.874072,1685.410096
21860.450150,4367.215058,-11251.130318,4826.401637
21860.450483,0.000000,-7179.997637,1378.971896
21860.450816,370.102971,-8808.450710,1225.752797
21860.451150,962.267725,-8956.491898,612.876398
21860.451483,0.000000,-10732.986159,2145.067394
21860.451816,0.000000,-7624.121203,229.828649
21860.452149,-2442.679609,-12731.542202,-2528.115143
21860.452482,0.000000,-8586.388927,-3753.867940
21860.452815,-7698.141797,-12509.480420,-306.438199
21860.453148,-814.226536,-7624.121203,-1302.362347
21860.453481,-1258.350101,-11695.253884,-1225.752797
21860.453815,1702.473667,-6809.894666,4519.963438
21860.454148,2442.679609,-4219.173869,4290.134789
21860.454481,2220.617826,-5847.626942,4979.620737
21860.454814,962.267725,-9474.636058,229.828649
21860.455147,0.000000,-10732.986159,306.438199
21860.455480,2294.638420,-10066.800811,-1302.362347
21860.455813,-2368.659014,-11769.274478,-76.609550
21860.456146,1702.473667,-9326.594869,-4136.915689
21860.456480,-4737.318029,-10140.821405,-4290.134789
21860.456813,-4441.235652,-10436.903782,-1838.629195
21860.457146,-1036.288319,-7624.121203,-1072.533697
21860.457479,-1924.535449,-10584.944971,536.266849
21860.457812,-296.082377,-7624.121203,995.924147
21860.458145,2294.638420,-10658.965565,4826.401637
21860.458479,814.226536,-5995.668130,2451.505594
21860.458812,3478.967927,-6809.894666,2987.772442
21860.459145,4663.297435,-7624.121203,1225.752797
21860.459478,4737.318029,-7179.997637,3677.258390
21860.459811,5773.606348,-11251.130318,2757.943793
21860.460144,1184.329507,-11547.212695,-76.609550
21860.460477,-740.205942,-12657.521608,-842.705048
21860.460811,-1628.453072,-10732.986159,-2757.943793
21860.461144,-962.267725,-8142.265362,-1838.629195
21860.461477,-4737.318029,-8364.327145,-1378.971896
21860.461810,-74.020594,-8882.471304,-2604.724693
21860.462143,-1776.494261,-5995.668130,0.000000
21860.462476,5329.482782,-7846.182985,7277.907231
21860.462810,5551.544565,-5921.647536,7890.783629
21860.463143,3701.029710,-8808.450710,5132.839837
21860.463476,2368.659014,-7328.038826,1608.800546
21860.463809,-296.082377,-12287.418637,-2221.676944
21860.464142,1184.329507,-10140.821405,-2604.724693
21860.464475,-1480.411884,-11917.315666,-1762.019645
21860.464809,2886.803174,-9400.615463,-1991.848295
21860.465142,-814.226536,-12287.418637,459.657299
21860.465475,-370.102971,-9326.594869,-1072.533697
21860.465808,-74.020594,-9474.636058,-76.609550
21860.466141,-1184.329507,-8660.409521,1991.848295
21860.466474,4737.318029,-7179.997637,8350.440928
21860.466808,-74.020594,-7698.141797,1685.410096
21860.467141,2368.659014,-5995.668130,2145.067394
21860.467474,1406.391290,-11843.295072,2374.896044
21860.467807,2368.659014,-8068.244768,919.314598
21860.468140,518.144159,-11695.253884,-1532.190996
21860.468473,-3108.864956,-10584.944971,-1685.410096
21860.468806,-3997.112087,-9844.739029,-3677.258390
21860.469140,-3552.988522,-8956.491898,919.314598
21860.469473,-1850.514855,-11103.089130,-383.047749
21860.469806,-2442.679609,-5921.647536,-3294.210641
21860.470139,-2368.659014,-9548.656652,2221.676944
21860.470472,-74.020594,-6217.729913,0.000000
21860.470805,3552.988522,-6439.791695,5822.325785
21860.471139,-222.061783,-8586.388927,3447.429741
21860.471472,2590.720797,-7105.977043,1378.971896
21860.471805,0.000000,-11399.171507,1225.752797
21860.472138,2368.659014,-11621.233289,4213.525239
21860.472471,-3923.091493,-5107.421000,-4903.011187
21860.472804,-4441.235652,-10881.027347,-6741.640382
21860.473138,-1184.329507,-12213.398043,-1608.800546
21860.473471,-2368.659014,-12509.480420,612.876398
21860.473804,518.144159,-7254.018232,1149.143247
21860.474137,-518.144159,-8438.347739,1532.190996
21860.474470,2368.659014,-9326.594869,1915.238745
21860.474803,4663.297435,-9178.553681,5745.716235
21860.475137,4589.276840,-8290.306550,6665.030833
21860.475470,4071.132681,-6291.750507,306.438199
21860.475803,0.000000,-11325.150913,3294.210641
21860.476136,2294.638420,-8586.388927,-383.047749
21860.476469,-74.020594,-9474.636058,-1608.800546
21860.476802,-1924.535449,-9548.656652,-2604.724693
21860.477135,-2146.597232,-10732.986159,-3447.429741
21860.477469,-2886.803174,-12213.398043,-2068.457845
21860.477802,-1776.494261,-6587.832884,-1532.190996
21860.478135,2886.803174,-6291.750507,995.924147
21860.478468,3849.070898,-6809.894666,7660.954980
21860.478801,7031.956449,-5921.647536,2987.772442
21860.479134,1776.494261,-8956.491898,2757.943793
21860.479468,6365.771101,-11843.295072,4213.525239
21860.479801,3849.070898,-11103.089130,1608.800546
21860.480134,3775.050304,-10658.965565,383.047749
21860.480467,962.267725,-11251.130318,-1608.800546
21860.480800,0.000000,-9548.656652,-2757.943793
21860.481133,-962.267725,-9992.780217,-3064.381992
21860.481467,-2294.638420,-10955.047942,-1991.848295
21860.481800,-1998.556043,-7994.224174,-1378.971896
21860.482133,-2664.741391,-9696.697840,1608.800546
21860.482466,-1184.329507,-5107.421000,3600.648841
21860.482799,3182.885551,-11251.130318,6052.154434
21860.483132,1110.308913,-4737.318029,1915.238745
21860.483465,1776.494261,-6883.915261,1838.629195
21860.483799,3404.947333,-9474.636058,2681.334243
21860.484132,-2072.576638,-10732.986159,0.000000
21860.484465,518.144159,-9918.759623,-3294.210641
21860.484798,-2960.823768,-12287.418637,-3524.039291
21860.485131,-1184.329507,-12435.459826,-1072.533697
21860.485464,0.000000,-9548.656652,0.000000
21860.485798,-1850.514855,-8364.327145,-2987.772442
21860.486131,-74.020594,-8882.471304,-2145.067394
21860.486464,-1184.329507,-7772.162391,3677.258390
21860.486797,5255.462188,-8290.306550,6052.154434
21860.487130,1776.494261,-6587.832884,4826.401637
21860.487463,962.267725,-8438.347739,2451.505594
21860.487797,-3034.844362,-9178.553681,1762.019645
21860.488130,-518.144159,-7698.141797,-3830.477490
21860.488463,-666.185348,-14211.954086,-2528.115143
21860.488796,-3182.885551,-8512.368333,-4903.011187
21860.489129,-2812.782580,-10807.006753,-4903.011187
21860.489462,-74.020594,-13619.789333,-383.047749
21860.489796,-1776.494261,-5107.421000,-1838.629195
21860.490129,2294.638420,-9474.636058,1455.581446
21860.490462,6291.750507,-8956.491898,6128.763984
21860.490795,4959.379811,-10066.800811,6588.421283
21860.491128,4367.215058,-7402.059420,6052.154434
21860.491461,2886.803174,-4737.318029,2221.676944
21860.491794,0.000000,-7179.997637,1225.752797
21860.492128,-74.020594,-10066.800811,-3140.991542
21860.492461,-2368.659014,-9474.636058,-4366.744339
21860.492794,-7105.977043,-9548.656652,-4290.134789
21860.493127,-1258.350101,-8290.306550,-1302.362347
21860.493460,-1554.432478,-5329.482782,-766.095498
21860.493793,-740.205942,-5477.523971,-1455.581446
21860.494127,444.123565,-9252.574275,306.438199
21860.494460,2072.576638,-8364.327145,536.266849
21860.494793,2960.823768,-10732.986159,2451.505594
21860.495126,3404.947333,-10955.047942,1991.848295
21860.495459,5181.441594,-10584.944971,4213.525239
21860.495792,3478.967927,-12435.459826,3600.648841
21860.496126,8216.285956,-4737.318029,2221.676944
21860.496459,0.000000,-11917.315666,306.438199
21860.496792,4663.297435,-10658.965565,1762.019645
21860.497125,-2738.761985,-9622.677246,-2451.505594
21860.497458,-2368.659014,-9178.553681,-3370.820191
21860.497791,-74.020594,-7402.059420,-842.705048
21860.498125,-3627.009116,-11843.295072,-383.047749
21860.498458,1628.453072,-6883.915261,306.438199
21860.498791,-2442.679609,-10066.800811,612.876398
21860.499124,2442.679609,-8586.388927,-76.609550
21860.499457,1184.329507,-10881.027347,4673.182538
21860.499790,2294.638420,-10066.800811,3294.210641
21860.500123,1998.556043,-7698.141797,1225.752797
21860.500457,-74.020594,-10955.047942,1149.143247
21860.500790,0.000000,-7772.162391,-1225.752797
21860.501123,-3701.029710,-8734.430116,-1991.848295
21860.501456,-1480.411884,-7698.141797,-2528.115143
21860.501789,-5921.647536,-9548.656652,-2451.505594
21860.502122,-74.020594,-9474.636058,-995.924147
21860.502456,296.082377,-10288.862594,6052.154434
21860.502789,1702.473667,-6513.812290,-229.828649
21860.503122,0.000000,-7179.997637,-2451.505594
21860.503455,148.041188,-9548.656652,2834.553343
21860.503788,296.082377,-9696.697840,3370.820191
21860.504121,-1036.288319,-9918.759623,1532.190996
21860.504455,296.082377,-7105.977043,-2528.115143
21860.504788,1702.473667,-13027.624579,-76.609550
21860.505121,518.144159,-7179.997637,0.000000
21860.505454,2294.638420,-7105.977043,-1608.800546
21860.505787,-4219.173869,-9844.739029,-3064.381992
21860.506120,-1480.411884,-11251.130318,-2221.676944
21860.506454,2886.803174,-13915.871710,1072.533697
21860.506787,5329.482782,-8512.368333,7584.345430
21860.507120,3256.906145,-7328.038826,4903.011187
21860.507453,5551.544565,-8438.347739,5362.668486
21860.507786,2072.576638,-7402.059420,2987.772442
21860.508119,592.164754,-8364.327145,2145.067394
21860.508452,-74.020594,-8290.306550,-3447.429741
21860.508786,-5921.647536,-11917.315666,-7354.516781
21860.509119,-2072.576638,-13027.624579,-2528.115143
21860.509452,-2442.679609,-8882.471304,-2221.676944
21860.509785,0.000000,-8364.327145,-76.609550
21860.510118,1702.473667,-6217.729913,766.095498
21860.510451,888.247130,-9548.656652,1072.533697
21860.510785,1184.329507,-6513.812290,842.705048
21860.511118,2368.659014,-9400.615463,3600.648841
21860.511451,7031.956449,-11251.130318,6052.154434
21860.511784,5107.421000,-8660.409521,4979.620737
21860.512117,5107.421000,-8068.244768,1532.190996
21860.512450,1110.308913,-11547.212695,-2528.115143
21860.512784,0.000000,-10436.903782,-3370.820191
21860.513117,-74.020594,-16580.613101,-1302.362347
21860.513450,-4145.153275,-9548.656652,-4290.134789
21860.513783,-3552.988522,-10066.800811,-995.924147
21860.514116,-74.020594,-10362.883188,-995.924147
21860.514449,2368.659014,-7179.997637,4903.011187
21860.514783,2442.679609,-6365.771101,8197.221829
21860.515116,4737.318029,-3108.864956,4826.401637
21860.515449,148.041188,-8956.491898,4903.011187
21860.515782,0.000000,-7179.997637,1378.971896
21860.516115,-962.267725,-10066.800811,-2834.553343
21860.516448,-2146.597232,-7772.162391,-4903.011187
21860.516781,-3552.988522,-12435.459826,-4979.620737
21860.517115,-3627.009116,-10066.800811,-6741.640382
21860.517448,-1924.535449,-10658.965565,-2911.162892
21860.517781,-3404.947333,-9252.574275,-2528.115143
21860.518114,0.000000,-9474.636058,1225.752797
21860.518447,0.000000,-9548.656652,5669.106685
21860.518780,3552.988522,-7179.997637,9729.412825
21860.519114,2886.803174,-3182.885551,3064.381992
21860.519447,1184.329507,-10140.821405,6128.763984
21860.519780,4071.132681,-7994.224174,3600.648841
21860.520113,0.000000,-8364.327145,1225.752797
21860.520446,-1258.350101,-9252.574275,-3907.087040
21860.520779,-4589.276840,-10362.883188,-5898.935335
21860.521113,-3330.926739,-12435.459826,-5822.325785
21860.521446,1110.308913,-12287.418637,-995.924147
21860.521779,-74.020594,-9474.636058,2374.896044
21860.522112,-4959.379811,-9548.656652,1225.752797
21860.522445,1628.453072,-7698.141797,3600.648841
21860.522778,-1554.432478,-4737.318029,2221.676944
21860.523112,4515.256246,-4441.235652,3600.648841
21860.523445,3404.947333,-10436.903782,6435.202183
21860.523778,2516.700203,-7402.059420,1685.410096
21860.524111,1554.432478,-9844.739029,-306.438199
21860.524444,-3552.988522,-11325.150913,-4290.134789
21860.524777,1998.556043,-7994.224174,-7354.516781
21860.525110,-1776.494261,-13693.809927,-3677.258390
21860.525444,1184.329507,-12139.377449,-76.609550
21860.525777,-370.102971,-7476.080014,-2451.505594
21860.526110,1998.556043,-9992.780217,4519.963438
21860.526443,5033.400406,-7476.080014,6205.373534
21860.526776,4663.297435,-6661.853478,6665.030833
21860.527109,3701.029710,-5847.626942,4136.915689
21860.527443,1480.411884,-7920.203579,306.438199
21860.527776,148.041188,-9918.759623,-1685.410096
21860.528109,740.205942,-7179.997637,-689.485948
21860.528442,-1332.370696,-10214.842000,-2374.896044
21860.528775,518.144159,-7254.018232,-4903.011187
21860.529108,-4737.318029,-12435.459826,-4060.306139
21860.529442,-74.020594,-13027.624579,-3140.991542
21860.529775,1406.391290,-9992.780217,-1838.629195
21860.530108,296.082377,-11029.068536,612.876398
21860.530441,6809.894666,-8734.430116,6511.811733
21860.530774,296.082377,-7772.162391,3677.258390
21860.531107,6291.750507,-7920.203579,3447.429741
21860.531441,1850.514855,-13397.727550,3217.601092
21860.531774,4737.318029,-7031.956449,5362.668486
21860.532107,0.000000,-8512.368333,3064.381992
21860.532440,1702.473667,-5847.626942,-1225.752797
21860.532773,-5847.626942,-8364.327145,-4903.011187
21860.533106,-3552.988522,-8142.265362,-2528.115143
21860.533439,-3627.009116,-11843.295072,-4979.620737
21860.533773,-4441.235652,-8808.450710,-2221.676944
21860.534106,-3701.029710,-9104.533087,-2145.067394
21860.534439,-4811.338623,-9622.677246,-1149.143247
21860.534772,1924.535449,-5773.606348,0.000000
21860.535105,-1258.350101,-11251.130318,2374.896044
21860.535438,2886.803174,-7179.997637,2451.505594
21860.535772,1924.535449,-9474.636058,4903.011187
21860.536105,4663.297435,-11843.295072,2374.896044
21860.536438,1184.329507,-5403.503377,1378.971896
21860.536771,2146.597232,-10658.965565,536.266849
21860.537104,1702.473667,-10066.800811,-842.705048
21860.537437,-1776.494261,-11917.315666,-1838.629195
21860.537771,-4293.194464,-12731.542202,76.609550
21860.538104,-2442.679609,-5625.565159,-3753.867940
21860.538437,-3552.988522,-8364.327145,1225.752797
21860.538770,4071.132681,-7698.141797,6052.154434
21860.539103,-1036.288319,-4145.153275,76.609550
21860.539436,0.000000,-6291.750507,4903.011187
21860.539770,-2442.679609,-6661.853478,-2987.772442
21860.540103,-2220.617826,-10510.924376,-1302.362347
21860.540436,-2738.761985,-10436.903782,-1378.971896
21860.540769,-296.082377,-9252.574275,-2068.457845
21860.541102,1110.308913,-9474.636058,-689.485948
21860.541435,1702.473667,-6291.750507,229.828649
21860.541768,1110.308913,-10807.006753,-229.828649
21860.542102,0.000000,-9844.739029,1838.629195
21860.542435,2960.823768,-11917.315666,2681.334243
21860.542768,3478.967927,-11843.295072,3600.648841
21860.543101,2960.823768,-6587.832884,3677.258390
21860.543434,2368.659014,-7179.997637,4903.011187
21860.543767,5847.626942,-8586.388927,2068.457845
21860.544101,2960.823768,-7179.997637,153.219100
21860.544434,888.247130,-9918.759623,-2068.457845
21860.544767,-1480.411884,-10288.862594,-4290.134789
21860.545100,-4367.215058,-12657.521608,-4519.963438
21860.545433,-962.267725,-9474.636058,-1915.238745
21860.545766,0.000000,-10658.965565,-76.609550
21860.546100,0.000000,-5995.668130,306.438199
21860.546433,4071.132681,-7994.224174,4826.401637
21860.546766,4071.132681,-7698.141797,842.705048
21860.547099,6883.915261,-9400.615463,9039.926876
21860.547432,2220.617826,-9918.759623,4519.963438
21860.547765,4515.256246,-9178.553681,3600.648841
21860.548099,-296.082377,-11473.192101,1378.971896
21860.548432,592.164754,-7179.997637,-3524.039291
21860.548765,-1850.514855,-13619.789333,-2681.334243
21860.549098,-4737.318029,-8364.327145,-3370.820191
21860.549431,-2442.679609,-12879.583391,-2528.115143
21860.549764,-1554.432478,-7994.224174,-1302.362347
21860.550097,-3849.070898,-8216.285956,-689.485948
21860.550431,-2368.659014,-7772.162391,2834.553343
21860.550764,3775.050304,-4071.132681,4596.572988
21860.551097,1776.494261,-7402.059420,4979.620737
21860.551430,1184.329507,-9252.574275,3677.258390
21860.551763,2886.803174,-9474.636058,459.657299
21860.552096,1184.329507,-10066.800811,3983.696590
21860.552430,1702.473667,-6513.812290,-2834.553343
21860.552763,-4441.235652,-10732.986159,-4290.134789
21860.553096,-2960.823768,-13693.809927,-6128.763984
21860.553429,-2294.638420,-17542.880825,-76.609550
21860.553762,-1776.494261,-8660.409521,919.314598
21860.554095,0.000000,-8734.430116,1149.143247
21860.554429,1702.473667,-8290.306550,3600.648841
21860.554762,0.000000,-4811.338623,3677.258390
21860.555095,4071.132681,-8290.306550,4826.401637
21860.555428,-1776.494261,-6587.832884,0.000000
21860.555761,1184.329507,-9400.615463,2374.896044
21860.556094,-888.247130,-9770.718434,1762.019645
21860.556428,-592.164754,-8068.244768,-766.095498
21860.556761,-1258.350101,-10510.924376,-1378.971896
21860.557094,-2812.782580,-7476.080014,-3524.039291
21860.557427,-1850.514855,-11843.295072,-2834.553343
21860.557760,-4737.318029,-11029.068536,-1225.752797
21860.558093,-592.164754,-6587.832884,-842.705048
21860.558426,888.247130,-9548.656652,2528.115143
21860.558759,2960.823768,-8956.491898,7048.078582
21860.559092,6439.791695,-8290.306550,7277.907231
21860.559426,3849.070898,-7179.997637,3830.477490
21860.559759,7031.956449,-13027.624579,3600.648841
21860.560092,296.082377,-7179.997637,0.000000
21860.560425,2294.638420,-12879.583391,-689.485948
21860.560758,1480.411884,-11695.253884,-2221.676944
21860.561091,-2368.659014,-11991.336260,-4290.134789
21860.561424,-1036.288319,-10658.965565,-1455.581446
21860.561757,0.000000,-8438.347739,-1532.190996
21860.562090,-666.185348,-9622.677246,-689.485948
21860.562423,0.000000,-7179.997637,1838.629195
21860.562757,2294.638420,-9474.636058,4213.525239
21860.563090,5847.626942,-7105.977043,4826.401637
21860.563423,1776.494261,-5403.503377,3677.258390
21860.563756,4663.297435,-8882.471304,2987.772442
21860.564089,-1924.535449,-9252.574275,536.266849
21860.564422,148.041188,-7254.018232,-3140.991542
21860.564755,-3330.926739,-12213.398043,-3600.648841
21860.565088,-1184.329507,-7476.080014,-4596.572988
21860.565421,-4145.153275,-8364.327145,306.438199
21860.565754,-74.020594,-13619.789333,-1455.581446
21860.566088,-814.226536,-6217.729913,-2528.115143
21860.566421,-1776.494261,-10732.986159,1225.752797
21860.566754,3478.967927,-8364.327145,3064.381992
21860.567087,3108.864956,-8586.388927,4060.306139
21860.567420,1036.288319,-8882.471304,3064.381992
21860.567753,2368.659014,-6587.832884,3600.648841
21860.568086,2886.803174,-9104.533087,2987.772442
21860.568419,3552.988522,-11251.130318,4826.401637
21860.568752,-1258.350101,-9770.718434,-2374.896044
21860.569086,-3552.988522,-8364.327145,-4136.915689
21860.569419,-4737.318029,-11029.068536,-2068.457845
21860.569752,-888.247130,-7179.997637,-2528.115143
21860.570085,-4589.276840,-10510.924376,-2145.067394
21860.570418,0.000000,-9992.780217,-919.314598
21860.570751,518.144159,-10955.047942,1991.848295
21860.571084,-74.020594,-7105.977043,4519.963438
21860.571417,4367.215058,-7105.977043,3294.210641
21860.571750,0.000000,-5995.668130,2451.505594
21860.572083,2886.803174,-10658.965565,3600.648841
21860.572417,962.267725,-4811.338623,-1225.752797
21860.572750,-2368.659014,-8364.327145,-306.438199
21860.573083,-2738.761985,-10584.944971,-4596.572988
21860.573416,-4145.153275,-9770.718434,-3830.477490
21860.573749,-4293.194464,-11473.192101,-2528.115143
21860.574082,-3330.926739,-8882.471304,-3140.991542
21860.574415,-74.020594,-9030.512492,-536.266849
21860.574748,-148.041188,-9918.759623,1991.848295
21860.575081,3404.947333,-6069.688724,2987.772442
21860.575414,3330.926739,-9918.759623,4903.011187
21860.575748,5255.462188,-8290.306550,4826.401637
21860.576081,5181.441594,-12139.377449,5745.716235
21860.576414,2294.638420,-8660.409521,0.000000
21860.576747,1184.329507,-12435.459826,-612.876398
21860.577080,0.000000,-9548.656652,-3677.258390
21860.577413,0.000000,-8660.409521,-4596.572988
21860.577746,-518.144159,-12879.583391,-2911.162892
21860.578079,0.000000,-7846.182985,1838.629195
21860.578412,-296.082377,-6587.832884,-383.047749
21860.578745,1480.411884,-5995.668130,2604.724693
21860.579079,3182.885551,-8882.471304,3907.087040
21860.579412,-74.020594,-6513.812290,-766.095498
21860.579745,592.164754,-5403.503377,1838.629195
21860.580078,2294.638420,-9474.636058,1762.019645
21860.580411,1776.494261,-8364.327145,1991.848295
21860.580744,-740.205942,-9474.636058,-1378.971896
21860.581077,-3849.070898,-12509.480420,-4290.134789
21860.581410,-1850.514855,-12139.377449,-2987.772442
21860.581743,888.247130,-10510.924376,1225.752797
21860.582076,-74.020594,-6957.935855,-1225.752797
21860.582410,0.000000,-7328.038826,0.000000
21860.582743,2960.823768,-9474.636058,6052.154434
21860.583076,5847.626942,-5329.482782,3600.648841
21860.583409,3849.070898,-11547.212695,4826.401637
21860.583742,3404.947333,-7476.080014,2451.505594
21860.584075,-888.247130,-10140.821405,-1455.581446
21860.584408,0.000000,-11621.233289,-1302.362347
21860.584741,-2442.679609,-11843.295072,-3140.991542
21860.585074,-2738.761985,-5995.668130,-4903.011187
21860.585408,-2368.659014,-12139.377449,-76.609550
21860.585741,-1258.350101,-11843.295072,-1915.238745
21860.586074,-4737.318029,-7179.997637,-2451.505594
21860.586407,-74.020594,-8290.306550,2068.457845
21860.586740,296.082377,-10140.821405,3600.648841
21860.587073,2516.700203,-7179.997637,3753.867940
21860.587406,1332.370696,-11103.089130,4366.744339
21860.587739,4663.297435,-8142.265362,4519.963438
21860.588072,1628.453072,-7624.121203,2374.896044
21860.588405,-296.082377,-8956.491898,-459.657299
21860.588739,-1850.514855,-9252.574275,-4596.572988
21860.589072,-4737.318029,-9844.739029,-4290.134789
21860.589405,-3552.988522,-9992.780217,-1455.581446
21860.589738,-2442.679609,-7698.141797,-1608.800546
21860.590071,-1258.350101,-5403.503377,-4903.011187
21860.590404,-962.267725,-9844.739029,2068.457845
21860.590737,592.164754,-5995.668130,1149.143247
21860.591070,2664.741391,-7698.141797,3524.039291
21860.591403,2368.659014,-10066.800811,4366.744339
21860.591736,4219.173869,-7994.224174,1685.410096
21860.592070,3108.864956,-11177.109724,4826.401637
21860.592403,3256.906145,-9326.594869,1762.019645
21860.592736,1110.308913,-8364.327145,0.000000
21860.593069,-666.185348,-10955.047942,-1838.629195
21860.593402,-74.020594,-12879.583391,-3140.991542
21860.593735,-2368.659014,-12657.521608,-2451.505594
21860.594068,814.226536,-9178.553681,-842.705048
21860.594401,0.000000,-9400.615463,1302.362347
21860.594734,1036.288319,-7031.956449,1302.362347
21860.595067,3330.926739,-9474.636058,3600.648841
21860.595401,5477.523971,-7846.182985,7277.907231
21860.595734,0.000000,-4811.338623,4903.011187
21860.596067,4663.297435,-8586.388927,2374.896044
21860.596400,592.164754,-6217.729913,-1838.629195
21860.596733,-814.226536,-10807.006753,-1302.362347
21860.597066,-3182.885551,-10140.821405,-6741.640382
21860.597399,-3552.988522,-11769.274478,-4903.011187
21860.597732,-2294.638420,-12139.377449,-3907.087040
21860.598065,0.000000,-6291.750507,-1225.752797
21860.598398,-74.020594,-11547.212695,-76.609550
21860.598732,2368.659014,-7179.997637,4903.011187
21860.599065,4663.297435,-10362.883188,6052.154434
21860.599398,2590.720797,-4811.338623,3064.381992
21860.599731,1480.411884,-8956.491898,2298.286494
21860.600064,3552.988522,-8956.491898,3370.820191
21860.600397,3478.967927,-7476.080014,2834.553343
21860.600730,0.000000,-9696.697840,-1455.581446
21860.601063,-518.144159,-10214.842000,-1915.238745
21860.601396,-5995.668130,-10140.821405,-7354.516781
21860.601730,-1702.473667,-13027.624579,-4366.744339
21860.602063,-2738.761985,-14211.954086,-3140.991542
21860.602396,-3552.988522,-11917.315666,4903.011187
21860.602729,1184.329507,-3627.009116,5362.668486
21860.603062,888.247130,-7328.038826,6588.421283
21860.603395,4663.297435,-3108.864956,5515.887586
21860.603728,518.144159,-7994.224174,4060.306139
21860.604061,2886.803174,-10362.883188,3907.087040
21860.604394,-3849.070898,-8956.491898,306.438199
21860.604727,-2738.761985,-9326.594869,-4519.963438
21860.605061,-1628.453072,-9252.574275,-3677.258390
21860.605394,-4219.173869,-9474.636058,-4903.011187
21860.605727,-592.164754,-11325.150913,-3677.258390
21860.606060,-2442.679609,-11399.171507,-2911.162892
21860.606393,-2368.659014,-9548.656652,0.000000
21860.606726,-1628.453072,-11843.295072,2987.772442
21860.607059,5255.462188,-4441.235652,4519.963438
21860.607392,5033.400406,-7328.038826,9269.755526
21860.607725,6661.853478,-3923.091493,6128.763984
21860.608058,2812.782580,-8216.285956,3447.429741
21860.608392,-370.102971,-7994.224174,-2451.505594
21860.608725,1702.473667,-11547.212695,-3140.991542
21860.609058,-5403.503377,-13989.892304,-7354.516781
21860.609391,-1036.288319,-10362.883188,-3064.381992
21860.609724,-1258.350101,-13027.624579,-6205.373534
21860.610057,1998.556043,-8956.491898,-3064.381992
21860.610390,-74.020594,-11843.295072,2987.772442
21860.610723,3701.029710,-5107.421000,5898.935335
21860.611056,4293.194464,-6217.729913,5515.887586
21860.611389,2960.823768,-9474.636058,5439.278036
21860.611723,2368.659014,-4811.338623,1455.581446
21860.612056,0.000000,-4811.338623,1225.752797
21860.612389,3775.050304,-11843.295072,1762.019645
21860.612722,-666.185348,-9474.636058,-3753.867940
21860.613055,-962.267725,-11325.150913,-3983.696590
21860.613388,-3330.926739,-10362.883188,-5515.887586
21860.613721,-1850.514855,-10658.965565,-4826.401637
21860.614054,-3478.967927,-10288.862594,-995.924147
21860.614387,444.123565,-8290.306550,689.485948
21860.614720,1776.494261,-8660.409521,3677.258390
21860.615054,5773.606348,-8808.450710,9269.755526
21860.615387,5255.462188,-7698.141797,3294.210641
21860.615720,1184.329507,-8364.327145,5209.449386
21860.616053,3552.988522,-8660.409521,4213.525239
21860.616386,1110.308913,-10362.883188,-1149.143247
21860.616719,74.020594,-8290.306550,-1072.533697
21860.617052,-4071.132681,-13545.768739,-4290.134789
21860.617385,1776.494261,-9326.594869,-2145.067394
21860.617718,-2368.659014,-9844.739029,0.000000
21860.618052,1628.453072,-7994.224174,229.828649
21860.618385,-3552.988522,-9548.656652,612.876398
21860.618718,-1258.350101,-7994.224174,229.828649
21860.619051,-666.185348,-8290.306550,1762.019645
21860.619384,0.000000,-7105.977043,3600.648841
21860.619717,1184.329507,-4811.338623,2451.505594
21860.620050,-74.020594,-9474.636058,1608.800546
21860.620383,2294.638420,-6809.894666,-1532.190996
21860.620716,-370.102971,-10955.047942,-1302.362347
21860.621049,1554.432478,-13027.624579,-1455.581446
21860.621383,-2368.659014,-11325.150913,-3064.381992
21860.621716,222.061783,-11251.130318,-1915.238745
21860.622049,740.205942,-8808.450710,1532.190996
21860.622382,2294.638420,-9474.636058,3600.648841
21860.622715,0.000000,-8364.327145,7890.783629
21860.623048,2886.803174,-7994.224174,2987.772442
21860.623381,1776.494261,-5995.668130,306.438199
21860.623714,0.000000,-9548.656652,2298.286494
21860.624047,2294.638420,-7254.018232,0.000000
21860.624380,-1258.350101,-11029.068536,459.657299
21860.624714,74.020594,-8216.285956,-612.876398
21860.625047,-2442.679609,-8956.491898,-3753.867940
21860.625380,-3182.885551,-11251.130318,-3140.991542
21860.625713,1110.308913,-8882.471304,-3140.991542
21860.626046,-74.020594,-13027.624579,-995.924147
21860.626379,-2664.741391,-7772.162391,2451.505594
21860.626712,3256.906145,-10510.924376,4596.572988
21860.627045,2516.700203,-7179.997637,4903.011187
21860.627378,3923.091493,-9474.636058,4673.182538
21860.627711,4071.132681,-6883.915261,2451.505594
21860.628045,3182.885551,-8586.388927,1149.143247
21860.628378,0.000000,-10732.986159,-2451.505594
21860.628711,2886.803174,-9474.636058,-2528.115143
21860.629044,-4145.153275,-11029.068536,-4903.011187
21860.629377,-4145.153275,-10732.986159,-2221.676944
21860.629710,-1258.350101,-9474.636058,-1915.238745
21860.630043,-2072.576638,-8512.368333,2451.505594
21860.630376,0.000000,-4663.297435,-229.828649
21860.630709,1480.411884,-10362.883188,4213.525239
21860.631042,3256.906145,-7624.121203,5669.106685
21860.631376,3404.947333,-8586.388927,4519.963438
21860.631709,3478.967927,-10658.965565,919.314598
21860.632042,1480.411884,-9844.739029,-76.609550
21860.632375,4367.215058,-14211.954086,1762.019645
21860.632708,-74.020594,-9474.636058,-76.609550
21860.633041,1776.494261,-8660.409521,-995.924147
21860.633374,-1554.432478,-12065.356855,306.438199
21860.633707,-370.102971,-5921.647536,-2145.067394
21860.634040,-2738.761985,-10510.924376,-2604.724693
21860.634374,-1184.329507,-8660.409521,2681.334243
21860.634707,0.000000,-8660.409521,306.438199
21860.635040,814.226536,-6957.935855,2451.505594
21860.635373,1998.556043,-10214.842000,4060.306139
21860.635706,444.123565,-6587.832884,612.876398
21860.636039,1184.329507,-8956.491898,4060.306139
21860.636372,-74.020594,-8290.306550,-76.609550
21860.636705,-74.020594,-5995.668130,-3677.258390
21860.637038,-2368.659014,-11029.068536,-3524.039291
21860.637371,1110.308913,-12435.459826,-1302.362347
21860.637705,-2220.617826,-10140.821405,-153.219100
21860.638038,3330.926739,-8216.285956,536.266849
21860.638371,-1110.308913,-10807.006753,612.876398
21860.638704,1184.329507,-7920.203579,306.438199
21860.639037,1776.494261,-9104.533087,4136.915689
21860.639370,2886.803174,-8290.306550,1225.752797
21860.639703,3552.988522,-8438.347739,1838.629195
21860.640036,444.123565,-12139.377449,4826.401637
21860.640369,2368.659014,-5107.421000,612.876398
21860.640702,0.000000,-7846.182985,-1072.533697
21860.641036,-2146.597232,-10436.903782,-1685.410096
21860.641369,-3034.844362,-7698.141797,-4903.011187
21860.641702,-3627.009116,-13323.706956,-2528.115143
21860.642035,-1776.494261,-9252.574275,-76.609550
21860.642368,-3627.009116,-10658.965565,-766.095498
21860.642701,-2368.659014,-7476.080014,306.438199
21860.643034,2960.823768,-10510.924376,6971.469032
21860.643367,5847.626942,-7105.977043,3677.258390
21860.643700,4663.297435,-7179.997637,4903.011187
21860.644033,2812.782580,-10288.862594,5898.935335
21860.644367,2960.823768,-7179.997637,2221.676944
21860.644700,-814.226536,-9770.718434,-689.485948
21860.645033,-1776.494261,-12879.583391,-2528.115143
21860.645366,-4145.153275,-6291.750507,-8273.831378
21860.645699,-2960.823768,-14285.974681,-2834.553343
21860.646032,-74.020594,-9178.553681,-2528.115143
21860.646365,-2738.761985,-10288.862594,-1608.800546
21860.646698,2220.617826,-8364.327145,1991.848295
21860.647031,1036.288319,-7179.997637,3064.381992
21860.647364,4293.194464,-6513.812290,4519.963438
21860.647698,2368.659014,-7772.162391,4903.011187
21860.648031,4663.297435,-7994.224174,766.095498
21860.648364,1776.494261,-8956.491898,2987.772442
21860.648697,1998.556043,-10955.047942,1762.019645
21860.649030,1998.556043,-9030.512492,-4596.572988
21860.649363,-1184.329507,-11325.150913,-5822.325785
21860.649696,-2960.823768,-13249.686362,-1455.581446
21860.650029,-1036.288319,-7254.018232,-2298.286494
21860.650362,-2590.720797,-11473.192101,-153.219100
21860.650696,0.000000,-7772.162391,2451.505594
21860.651029,1110.308913,-4811.338623,1838.629195
21860.651362,3404.947333,-7402.059420,3294.210641
21860.651695,2960.823768,-7624.121203,4749.792088
21860.652028,370.102971,-10362.883188,3217.601092
21860.652361,2960.823768,-4219.173869,612.876398
21860.652694,-74.020594,-11843.295072,-689.485948
21860.653027,-2368.659014,-7476.080014,-3677.258390
21860.653360,-2812.782580,-13619.789333,-3753.867940
21860.653693,-3627.009116,-10658.965565,-4979.620737
21860.654027,-1184.329507,-8956.491898,-2451.505594
21860.654360,-1036.288319,-13249.686362,2987.772442
21860.654693,2368.659014,-3701.029710,2757.943793
21860.655026,-1036.288319,-9252.574275,4443.353888
21860.655359,7624.121203,-8068.244768,8503.660028
21860.655692,2294.638420,-7994.224174,3983.696590
21860.656025,3330.926739,-7031.956449,4596.572988
21860.656358,1110.308913,-11251.130318,-689.485948
21860.656691,-962.267725,-8660.409521,-2451.505594
21860.657024,-1184.329507,-11325.150913,-1915.238745
21860.657358,-3627.009116,-10732.986159,-4213.525239
21860.657691,-4959.379811,-11325.150913,-5822.325785
21860.658024,-2072.576638,-9992.780217,-4979.620737
21860.658357,-666.185348,-13027.624579,1762.019645
21860.658690,-74.020594,-4959.379811,306.438199
21860.659023,6513.812290,-7402.059420,8503.660028
21860.659356,3478.967927,-8882.471304,6665.030833
21860.659689,518.144159,-5551.544565,2451.505594
21860.660022,-74.020594,-8882.471304,995.924147
21860.660355,-518.144159,-9992.780217,612.876398
21860.660689,-370.102971,-9696.697840,-2987.772442
21860.661022,-2146.597232,-10807.006753,-2451.505594
21860.661355,-3256.906145,-9548.656652,-5132.839837
21860.661688,-2960.823768,-6291.750507,-4903.011187
21860.662021,-1258.350101,-8956.491898,-3677.258390
21860.662354,2146.597232,-11843.295072,2987.772442
21860.662687,2294.638420,-7698.141797,0.000000
21860.663020,2886.803174,-8364.327145,2451.505594
21860.663353,4663.297435,-11251.130318,6665.030833
21860.663686,4663.297435,-6291.750507,2757.943793
21860.664019,5921.647536,-10288.862594,2911.162892
21860.664352,3552.988522,-11473.192101,2451.505594
21860.664685,1776.494261,-8216.285956,1608.800546
21860.665018,-518.144159,-9992.780217,-2834.553343
21860.665351,0.000000,-8512.368333,-2528.115143
21860.665684,-4071.132681,-9474.636058,-3753.867940
21860.666017,-4737.318029,-5921.647536,-4979.620737
21860.666350,-4145.153275,-9548.656652,-1225.752797
21860.666683,-1628.453072,-11843.295072,-76.609550
21860.667016,2294.638420,-7105.977043,3600.648841
21860.667349,2294.638420,-8586.388927,6971.469032
21860.667682,4071.132681,-5921.647536,4519.963438
21860.668016,1702.473667,-10066.800811,2987.772442
21860.668349,1776.494261,-7624.121203,919.314598
21860.668682,222.061783,-9030.512492,-1608.800546
21860.669015,1702.473667,-12361.439231,-229.828649
21860.669348,-3552.988522,-8364.327145,-612.876398
21860.669681,-1850.514855,-11843.295072,-3753.867940
21860.670014,148.041188,-7994.224174,-1225.752797
21860.670347,-3552.988522,-9548.656652,-1378.971896
21860.670680,2294.638420,-6513.812290,0.000000
21860.671013,1332.370696,-9770.718434,4673.182538
21860.671346,2516.700203,-8808.450710,5209.449386
21860.671679,2220.617826,-5847.626942,1991.848295
21860.672012,-2146.597232,-11547.212695,-76.609550
21860.672345,1850.514855,-10658.965565,2374.896044
21860.672678,-3923.091493,-12435.459826,-1915.238745
21860.673011,0.000000,-5403.503377,-1838.629195
21860.673344,-4441.235652,-11251.130318,-1762.019645
21860.673677,-1554.432478,-8364.327145,-2757.943793
21860.674010,2220.617826,-9030.512492,3064.381992
21860.674343,-1480.411884,-8068.244768,1838.629195
21860.674676,3404.947333,-7624.121203,1685.410096
21860.675009,0.000000,-8364.327145,2451.505594
21860.675343,4663.297435,-9474.636058,-76.609550
21860.675676,-1480.411884,-6291.750507,689.485948
21860.676009,0.000000,-10732.986159,2068.457845
21860.676342,3478.967927,-8882.471304,-1302.362347
21860.676675,-1036.288319,-13989.892304,3447.429741
21860.677008,888.247130,-7179.997637,-3370.820191
21860.677341,-3701.029710,-11029.068536,-2911.162892
21860.677674,-740.205942,-8068.244768,-3753.867940
21860.678007,1776.494261,-9844.739029,2068.457845
21860.678340,-74.020594,-7994.224174,76.609550
21860.678673,1184.329507,-7772.162391,1762.019645
21860.679006,2294.638420,-14211.954086,4826.401637
21860.679339,4663.297435,-7105.977043,3600.648841
21860.679672,2368.659014,-8364.327145,4366.744339
21860.680005,2738.761985,-8956.491898,1915.238745
21860.680338,1702.473667,-9622.677246,-689.485948
21860.680671,-296.082377,-10807.006753,-2068.457845
21860.681004,444.123565,-12805.562797,-76.609550
21860.681337,0.000000,-8068.244768,-1302.362347
21860.681670,-592.164754,-8586.388927,-689.485948
21860.682003,0.000000,-8512.368333,-766.095498
21860.682336,-1258.350101,-7179.997637,-1072.533697
21860.682670,-1184.329507,-7179.997637,2298.286494
21860.683003,1850.514855,-8882.471304,4826.401637
21860.683336,2886.803174,-7698.141797,76.609550
21860.683669,0.000000,-11029.068536,2757.943793
21860.684002,1110.308913,-11251.130318,-76.609550
21860.684335,518.144159,-9770.718434,-383.047749
21860.684668,814.226536,-10140.821405,919.314598
21860.685001,1110.308913,-9992.780217,-383.047749
21860.685334,0.000000,-9548.656652,1838.629195
21860.685667,-888.247130,-8364.327145,-76.609550
21860.686000,-370.102971,-8364.327145,-1838.629195
21860.686333,-1184.329507,-9548.656652,1225.752797
21860.686666,-444.123565,-10510.924376,2374.896044
21860.686999,-1184.329507,-8364.327145,0.000000
21860.687332,1998.556043,-6809.894666,842.705048
21860.687665,666.185348,-9770.718434,2987.772442
21860.687998,888.247130,-7105.977043,-229.828649
21860.688331,2886.803174,-13027.624579,1149.143247
21860.688664,296.082377,-10881.027347,1149.143247
21860.688997,1110.308913,-9548.656652,-1838.629195
21860.689330,-1776.494261,-9548.656652,153.219100
21860.689664,592.164754,-10362.883188,-76.609550
21860.689997,1998.556043,-8290.306550,1149.143247
21860.690330,-1998.556043,-7920.203579,-2145.067394
21860.690663,-1850.514855,-8586.388927,-383.047749
21860.690996,-3108.864956,-11325.150913,689.485948
21860.691329,222.061783,-5995.668130,1072.533697
21860.691662,2072.576638,-11251.130318,5745.716235
21860.691995,0.000000,-5403.503377,0.000000
21860.692328,2368.659014,-10955.047942,3600.648841
21860.692661,-74.020594,-8290.306550,-1072.533697
21860.692994,592.164754,-8808.450710,0.000000
21860.693327,-1036.288319,-7254.018232,-1685.410096
21860.693660,518.144159,-9770.718434,-2528.115143
21860.693993,-1702.473667,-9992.780217,-2681.334243
21860.694326,888.247130,-10732.986159,612.876398
21860.694659,1702.473667,-9474.636058,-1532.190996
21860.694992,2368.659014,-11103.089130,3294.210641
21860.695325,4071.132681,-10658.965565,3600.648841
21860.695658,1258.350101,-8364.327145,1225.752797
21860.695991,2368.659014,-7476.080014,4519.963438
21860.696324,3849.070898,-6143.709319,3677.258390
21860.696657,1924.535449,-8660.409521,2145.067394
21860.696991,666.185348,-8364.327145,1072.533697
21860.697324,-2220.617826,-10140.821405,-766.095498
21860.697657,-1258.350101,-7994.224174,-3677.258390
21860.697990,-2812.782580,-10066.800811,-2528.115143
21860.698323,-1850.514855,-8956.491898,-3064.381992
21860.698656,-2442.679609,-11251.130318,-1915.238745
21860.698989,-2960.823768,-9548.656652,1838.629195
21860.699322,2812.782580,-6587.832884,4826.401637
21860.699655,4663.297435,-4737.318029,612.876398
21860.699988,296.082377,-10140.821405,3370.820191
21860.700321,6439.791695,-8882.471304,2374.896044
21860.700654,2812.782580,-10732.986159,2757.943793
21860.700987,4367.215058,-11251.130318,2911.162892
21860.701320,-444.123565,-8882.471304,0.000000
21860.701653,-2738.761985,-10510.924376,-4366.744339
21860.701986,1110.308913,-10066.800811,-1302.362347
21860.702319,-1258.350101,-11473.192101,-3370.820191
21860.702652,-2812.782580,-8364.327145,-2451.505594
21860.702985,-2960.823768,-9474.636058,1149.143247
21860.703318,518.144159,-10362.883188,1149.143247
21860.703651,1184.329507,-10732.986159,7354.516781
21860.703984,1924.535449,-4811.338623,6818.249932
21860.704318,888.247130,-7624.121203,2604.724693
21860.704651,2368.659014,-6883.915261,4366.744339
21860.704984,-74.020594,-9474.636058,-76.609550
21860.705317,-666.185348,-6513.812290,-5515.887586
21860.705650,-3552.988522,-10140.821405,-4519.963438
21860.705983,-3552.988522,-13397.727550,-3753.867940
21860.706316,-1554.432478,-10510.924376,-4060.306139
21860.706649,-962.267725,-11251.130318,-1608.800546
21860.706982,1036.288319,-8808.450710,0.000000
21860.707315,2294.638420,-10066.800811,2068.457845
21860.707648,4293.194464,-8364.327145,5822.325785
21860.707981,2072.576638,-7772.162391,3830.477490
21860.708314,4737.318029,-5403.503377,0.000000
21860.708647,4071.132681,-11843.295072,4213.525239
21860.708980,962.267725,-7476.080014,0.000000
21860.709313,-2368.659014,-9548.656652,0.000000
21860.709646,-370.102971,-12731.542202,-2528.115143
21860.709979,-1406.391290,-8882.471304,-3140.991542
21860.710312,-4737.318029,-10362.883188,-3753.867940
21860.710645,1184.329507,-9400.615463,-1072.533697
21860.710978,-2146.597232,-11029.068536,3370.820191
21860.711311,518.144159,-7698.141797,2528.115143
21860.711645,-1702.473667,-8438.347739,2145.067394
21860.711978,2072.576638,-6143.709319,3524.039291
21860.712311,6439.791695,-7328.038826,4826.401637
21860.712644,2294.638420,-11843.295072,3600.648841
21860.712977,592.164754,-6587.832884,0.000000
21860.713310,-4219.173869,-14804.118840,-3753.867940
21860.713643,-666.185348,-8364.327145,-6435.202183
21860.713976,-1258.350101,-13027.624579,-1302.362347
21860.714309,1480.411884,-7328.038826,-76.609550
21860.714642,814.226536,-9474.636058,1685.410096
21860.714975,518.144159,-6661.853478,383.047749
21860.715308,3330.926739,-6661.853478,4903.011187
21860.715641,4737.318029,-8364.327145,8197.221829
21860.715974,2960.823768,-5403.503377,3677.258390
21860.716307,-1480.411884,-14211.954086,2681.334243
21860.716640,1702.473667,-7698.141797,-2834.553343
21860.716973,-4441.235652,-12361.439231,-2757.943793
21860.717306,1702.473667,-8882.471304,-1608.800546
21860.717639,-3182.885551,-8660.409521,-3677.258390
21860.717972,-1924.535449,-8512.368333,-2221.676944
21860.718305,-1850.514855,-8882.471304,-3140.991542
21860.718638,-3627.009116,-10658.965565,-1915.238745
21860.718972,3256.906145,-9474.636058,5362.668486
21860.719305,4367.215058,-8882.471304,2987.772442
21860.719638,4737.318029,-8364.327145,7507.735880
21860.719971,2368.659014,-7920.203579,3370.820191
21860.720304,3034.844362,-10732.986159,-2298.286494
21860.720637,518.144159,-13323.706956,2451.505594
21860.720970,0.000000,-9178.553681,2298.286494
21860.721303,740.205942,-7254.018232,459.657299
21860.721636,-3108.864956,-7179.997637,-3064.381992
21860.721969,-370.102971,-8290.306550,-1915.238745
21860.722302,-3034.844362,-9474.636058,-1302.362347
21860.722635,-5329.482782,-7476.080014,-3064.381992
21860.722968,-1554.432478,-11843.295072,-689.485948
21860.723301,-1184.329507,-10807.006753,2757.943793
21860.723634,1406.391290,-8290.306550,536.266849
21860.723967,1850.514855,-9178.553681,153.219100
21860.724300,2960.823768,-9992.780217,766.095498
21860.724633,2960.823768,-9548.656652,2757.943793
21860.724966,4663.297435,-9474.636058,-76.609550
21860.725299,0.000000,-11325.150913,153.219100
21860.725632,4071.132681,-13027.624579,2374.896044
21860.725965,3478.967927,-6513.812290,-689.485948
21860.726299,1184.329507,-8068.244768,2757.943793
21860.726632,1184.329507,-6735.874072,1762.019645
21860.726965,-222.061783,-8068.244768,-842.705048
21860.727298,2812.782580,-9474.636058,-2604.724693
21860.727631,-2368.659014,-19023.292709,3677.258390
21860.727964,2294.638420,-6439.791695,3370.820191
21860.728297,296.082377,-9474.636058,689.485948
21860.728630,666.185348,-7254.018232,1225.752797
21860.728963,-370.102971,-4737.318029,-689.485948
21860.729296,-3849.070898,-7476.080014,-1838.629195
21860.729629,814.226536,-7105.977043,-76.609550
21860.729962,-5403.503377,-11251.130318,-3447.429741
21860.730295,-1776.494261,-7179.997637,153.219100
21860.730628,-74.020594,-9474.636058,-76.609550
21860.730961,-2368.659014,-9548.656652,-1225.752797
21860.731294,2516.700203,-7994.224174,2374.896044
21860.731627,3404.947333,-10362.883188,3830.477490
21860.731960,3552.988522,-6291.750507,1838.629195
21860.732293,0.000000,-9548.656652,3064.381992
21860.732626,6439.791695,-7994.224174,2987.772442
21860.732959,1776.494261,-5995.668130,1225.752797
21860.733292,1776.494261,-9992.780217,-76.609550
21860.733626,-2590.720797,-7328.038826,-4060.306139
21860.733959,-4737.318029,-9992.780217,-5592.497135
21860.734292,-1554.432478,-10288.862594,-3907.087040
21860.734625,-4737.318029,-11917.315666,-306.438199
21860.734958,-1480.411884,-9178.553681,-919.314598
21860.735291,-2960.823768,-8512.368333,5439.278036
21860.735624,2294.638420,-5403.503377,2451.505594
21860.735957,2368.659014,-5403.503377,5898.935335
21860.736290,4663.297435,-11843.295072,4826.401637
21860.736623,4737.318029,-8660.409521,3064.381992
21860.736956,1110.308913,-10214.842000,1762.019645
21860.737289,1702.473667,-8068.244768,-1225.752797
21860.737622,-2960.823768,-10881.027347,-3140.991542
21860.737955,-1998.556043,-10510.924376,-6205.373534
21860.738288,-2960.823768,-10732.986159,-383.047749
21860.738621,-4145.153275,-10066.800811,-5286.058936
21860.738954,0.000000,-8660.409521,1225.752797
21860.739287,-74.020594,-11251.130318,3600.648841
21860.739620,4071.132681,-5625.565159,3600.648841
21860.739953,1554.432478,-8808.450710,4290.134789
21860.740286,3552.988522,-8364.327145,2451.505594
21860.740620,3775.050304,-7698.141797,2374.896044
21860.740953,0.000000,-8660.409521,1225.752797
21860.741286,2886.803174,-9474.636058,-1302.362347
21860.741619,-3552.988522,-8364.327145,-1532.190996
21860.741952,-2368.659014,-7179.997637,-2221.676944
21860.742285,-74.020594,-8734.430116,-5592.497135
21860.742618,-518.144159,-12509.480420,-2221.676944
21860.742951,2812.782580,-10807.006753,-536.266849
21860.743284,740.205942,-10732.986159,5592.497135
21860.743617,3923.091493,-7105.977043,3447.429741
21860.743950,4145.153275,-7179.997637,4903.011187
21860.744283,2146.597232,-9770.718434,3140.991542
21860.744616,4515.256246,-6513.812290,1685.410096
21860.744949,-2368.659014,-11325.150913,1378.971896
21860.745282,2590.720797,-6439.791695,-1915.238745
21860.745615,-5921.647536,-10732.986159,-2451.505594
21860.745948,-1628.453072,-9326.594869,-3753.867940
21860.746281,-4071.132681,-5699.585753,-4903.011187
21860.746614,-2664.741391,-11547.212695,-1455.581446
21860.746947,-74.020594,-10658.965565,-76.609550
21860.747280,-4367.215058,-8956.491898,2451.505594
21860.747613,5255.462188,-4219.173869,3983.696590
21860.747947,2220.617826,-9474.636058,6358.592633
21860.748280,4737.318029,-6883.915261,5132.839837
21860.748613,2368.659014,-9844.739029,4903.011187
21860.748946,2294.638420,-10066.800811,-383.047749
21860.749279,0.000000,-9548.656652,-2451.505594
21860.749612,-3404.947333,-13027.624579,-3140.991542
21860.749945,-740.205942,-8290.306550,-3983.696590
21860.750278,-4737.318029,-9844.739029,-306.438199
21860.750611,-1850.514855,-8290.306550,-1838.629195
21860.750944,-2368.659014,-9474.636058,0.000000
21860.751277,1184.329507,-7846.182985,3217.601092
21860.751610,4071.132681,-7698.141797,4213.525239
21860.751943,3478.967927,-9474.636058,995.924147
21860.752276,0.000000,-12213.398043,4366.744339
21860.752609,5847.626942,-11843.295072,4826.401637
21860.752942,1184.329507,-8956.491898,1532.190996
21860.753275,4959.379811,-7105.977043,1762.019645
21860.753608,-3552.988522,-9918.759623,-3064.381992
21860.753941,-1406.391290,-10066.800811,-3600.648841
21860.754274,-4145.153275,-9474.636058,-3907.087040
21860.754607,-3330.926739,-10362.883188,-3753.867940
21860.754940,0.000000,-7179.997637,0.000000
21860.755274,-148.041188,-13027.624579,2374.896044
21860.755607,2590.720797,-4367.215058,1225.752797
21860.755940,0.000000,-8364.327145,4903.011187
21860.756273,7920.203579,-8290.306550,2374.896044
21860.756606,2368.659014,-10288.862594,4596.572988
21860.756939,666.185348,-8808.450710,2451.505594
21860.757272,370.102971,-6365.771101,-3064.381992
21860.757605,-888.247130,-11473.192101,-2451.505594
21860.757938,962.267725,-8956.491898,-1762.019645
21860.758271,-3182.885551,-10584.944971,-4290.134789
21860.758604,2294.638420,-9992.780217,-2911.162892
21860.758937,-2220.617826,-14137.933492,306.438199
21860.759270,4071.132681,-8660.409521,3600.648841
21860.759603,1702.473667,-9326.594869,1532.190996
21860.759936,2516.700203,-8364.327145,4903.011187
21860.760269,2738.761985,-7994.224174,3294.210641
21860.760604,1184.329507,-6883.915261,4903.011187
21860.760937,3330.926739,-7105.977043,2068.457845
21860.761270,0.000000,-8586.388927,842.705048
21860.761603,-1110.308913,-7402.059420,-2604.724693
21860.761936,-3478.967927,-10658.965565,-4979.620737
21860.762269,-4589.276840,-10732.986159,-2374.896044
21860.762602,-1258.350101,-7179.997637,-4290.134789
21860.762935,-2146.597232,-10362.883188,-2834.553343
21860.763268,-3552.988522,-9548.656652,0.000000
21860.763602,5847.626942,-11547.212695,5898.935335
21860.763935,6143.709319,-7105.977043,4213.525239
21860.764268,2368.659014,-9548.656652,5056.230287
21860.764601,2294.638420,-9622.677246,2757.943793
21860.764934,444.123565,-11251.130318,536.266849
21860.765267,1110.308913,-8290.306550,-76.609550
21860.765600,-592.164754,-9104.533087,1838.629195
21860.765933,-666.185348,-10658.965565,-4519.963438
21860.766267,-2960.823768,-6587.832884,-919.314598
21860.766600,-4737.318029,-7179.997637,-3677.258390
21860.766933,-1258.350101,-9548.656652,-1685.410096
21860.767266,-2442.679609,-12657.521608,3064.381992
21860.767599,3330.926739,-6217.729913,2834.553343
21860.767932,814.226536,-10362.883188,4826.401637
21860.768265,74.020594,-5995.668130,0.000000
21860.768598,3404.947333,-12435.459826,2987.772442
21860.768931,-74.020594,-8290.306550,-2528.115143
21860.769265,-2368.659014,-7772.162391,-1532.190996
21860.769598,-1850.514855,-14211.954086,-1608.800546
21860.769931,296.082377,-7179.997637,-2757.943793
21860.770264,-4293.194464,-10140.821405,-2145.067394
21860.770597,814.226536,-8142.265362,-1838.629195
21860.770930,1332.370696,-7476.080014,2911.162892
21860.771263,2368.659014,-8956.491898,4903.011187
21860.771596,6439.791695,-5921.647536,1149.143247
21860.771929,0.000000,-13249.686362,3677.258390
21860.772263,0.000000,-10732.986159,2681.334243
21860.772596,2294.638420,-7105.977043,-76.609550
21860.772929,1184.329507,-11029.068536,995.924147
21860.773262,1258.350101,-9696.697840,612.876398
21860.773595,370.102971,-7920.203579,-3600.648841
21860.773928,-4515.256246,-11029.068536,-3600.648841
21860.774261,-5329.482782,-7179.997637,-3064.381992
21860.774594,-1998.556043,-9548.656652,-995.924147
21860.774927,-2072.576638,-8512.368333,1455.581446
21860.775261,370.102971,-6143.709319,1302.362347
21860.775594,-74.020594,-7698.141797,2068.457845
21860.775927,6513.812290,-4811.338623,4903.011187
21860.776260,4219.173869,-10362.883188,7277.907231
21860.776593,2294.638420,-8142.265362,-2451.505594
21860.776926,-1184.329507,-13101.645173,-1378.971896
21860.777259,-666.185348,-15396.283594,-76.609550
21860.777592,0.000000,-9252.574275,-842.705048
21860.777926,-1406.391290,-9178.553681,536.266849
21860.778259,3849.070898,-3330.926739,-1838.629195
21860.778592,592.164754,-4811.338623,0.000000
21860.778925,-1776.494261,-7179.997637,0.000000
21860.779258,2886.803174,-9474.636058,-1302.362347
21860.779591,0.000000,-13323.706956,2681.334243
21860.779924,3552.988522,-7179.997637,5132.839837
21860.780257,962.267725,-10362.883188,2681.334243
21860.780590,4145.153275,-6439.791695,2374.896044
21860.780924,1184.329507,-9548.656652,0.000000
21860.781257,-74.020594,-10066.800811,842.705048
21860.781590,-74.020594,-9474.636058,-3217.601092
21860.781923,-7105.977043,-11029.068536,-2451.505594
21860.782256,-74.020594,-8290.306550,-3753.867940
21860.782589,-3849.070898,-6587.832884,-1072.533697
21860.782922,740.205942,-9918.759623,3600.648841
21860.783255,0.000000,-8068.244768,0.000000
21860.783588,-2146.597232,-15692.365970,3907.087040
21860.783922,2368.659014,-3404.947333,3064.381992
21860.784255,518.144159,-12213.398043,3600.648841
21860.784588,7624.121203,-6809.894666,4673.182538
21860.784921,1184.329507,-9918.759623,4213.525239
21860.785254,-1776.494261,-5107.421000,-3677.258390
21860.785587,-1184.329507,-10436.903782,-1915.238745
21860.785920,-3627.009116,-13323.706956,-4979.620737
21860.786253,-1554.432478,-8882.471304,-4979.620737
21860.786586,-7254.018232,-11917.315666,-5209.449386
21860.786920,-3034.844362,-10362.883188,-1302.362347
21860.787253,-3478.967927,-5403.503377,153.219100
21860.787586,2664.741391,-3923.091493,4903.011187
21860.787919,6439.791695,-9474.636058,7277.907231
21860.788252,4737.318029,-7179.997637,7814.174080
21860.788585,1184.329507,-8956.491898,4826.401637
21860.788918,1998.556043,-8882.471304,-2451.505594
21860.789251,2294.638420,-10510.924376,-995.924147
21860.789585,666.185348,-10584.944971,-995.924147
21860.789918,-1628.453072,-10436.903782,-4060.306139
21860.790251,-4811.338623,-11473.192101,-4596.572988
21860.790584,0.000000,-7179.997637,-3064.381992
21860.790917,-74.020594,-11843.295072,1149.143247
21860.791250,444.123565,-6513.812290,3677.258390
21860.791583,-666.185348,-8808.450710,2451.505594
21860.791916,3182.885551,-7031.956449,4443.353888
21860.792249,1776.494261,-5403.503377,3830.477490
21860.792583,1998.556043,-7105.977043,2374.896044
21860.792916,1998.556043,-5403.503377,0.000000
21860.793249,888.247130,-11843.295072,-383.047749
21860.793582,1702.473667,-10658.965565,-76.609550
21860.793915,-3923.091493,-7920.203579,-3677.258390
21860.794248,74.020594,-10362.883188,-1915.238745
21860.794581,1406.391290,-8364.327145,-3064.381992
21860.794914,-1184.329507,-11843.295072,-536.266849
21860.795247,0.000000,-8512.368333,0.000000
21860.795581,3478.967927,-10658.965565,-76.609550
21860.795914,2960.823768,-10732.986159,3677.258390
21860.796247,4737.318029,-8142.265362,7890.783629
21860.796580,2886.803174,-9178.553681,2374.896044
21860.796913,3849.070898,-5995.668130,5515.887586
21860.797246,1258.350101,-7476.080014,995.924147
21860.797579,1554.432478,-7846.182985,-76.609550
21860.797912,-962.267725,-8364.327145,-2374.896044
21860.798245,-1258.350101,-11547.212695,-3753.867940
21860.798579,-3627.009116,-9474.636058,-7124.688131
21860.798912,-5921.647536,-11177.109724,-3064.381992
21860.799245,-74.020594,-13619.789333,-2528.115143
21860.799578,-74.020594,-10436.903782,-1225.752797
21860.799911,2294.638420,-13027.624579,7277.907231
21860.800244,2442.679609,-4737.318029,4979.620737
21860.800577,4367.215058,-7698.141797,6052.154434
21860.800910,2294.638420,-7846.182985,4749.792088
21860.801243,1184.329507,-4885.359217,383.047749
21860.801577,-2368.659014,-9548.656652,-3677.258390
21860.801910,-2368.659014,-10584.944971,-2681.334243
21860.802243,-4811.338623,-10658.965565,-3294.210641
21860.802576,-2442.679609,-8512.368333,-4903.011187
21860.802909,1406.391290,-10658.965565,-3140.991542
21860.803242,-2590.720797,-12139.377449,-919.314598
21860.803575,-1924.535449,-9474.636058,-1302.362347
21860.803908,1480.411884,-10362.883188,2911.162892
21860.804242,1776.494261,-8956.491898,3983.696590
21860.804575,3404.947333,-8512.368333,5209.449386
21860.804908,3182.885551,-7624.121203,5592.497135
21860.805241,3034.844362,-5625.565159,1455.581446
21860.805574,4737.318029,-7698.141797,3524.039291
21860.805907,3108.864956,-9326.594869,-689.485948
21860.806240,-74.020594,-12213.398043,-4443.353888
21860.806573,740.205942,-10955.047942,-76.609550
21860.806906,-370.102971,-11843.295072,-3753.867940
21860.807240,-1628.453072,-7772.162391,-1838.629195
21860.807573,-1850.514855,-11843.295072,-1915.238745
21860.807906,1332.370696,-9104.533087,1302.362347
21860.808239,-296.082377,-9252.574275,2987.772442
21860.808572,2146.597232,-7105.977043,2374.896044
21860.808905,1184.329507,-7179.997637,6894.859482
21860.809238,1998.556043,-2590.720797,2451.505594
21860.809571,2368.659014,-8586.388927,2681.334243
21860.809904,-1258.350101,-10658.965565,-2528.115143
21860.810238,2590.720797,-9030.512492,-2681.334243
21860.810571,-74.020594,-12435.459826,-3140.991542
21860.810904,1184.329507,-10214.842000,-2145.067394
21860.811237,-2960.823768,-11917.315666,-3753.867940
21860.811570,2886.803174,-11399.171507,919.314598
21860.811903,4071.132681,-11695.253884,5439.278036
21860.812236,0.000000,-8364.327145,2451.505594
21860.812569,2072.576638,-10658.965565,4826.401637
21860.812902,4071.132681,-6883.915261,3064.381992
21860.813236,296.082377,-6291.750507,2757.943793
21860.813569,-74.020594,-7402.059420,-536.266849
21860.813902,-1850.514855,-7328.038826,-3140.991542
21860.814235,-3627.009116,-8586.388927,-5439.278036
21860.814568,-2812.782580,-10658.965565,-2221.676944
21860.814901,-2146.597232,-8290.306550,-3753.867940
21860.815234,-1776.494261,-11473.192101,-76.609550
21860.815567,1702.473667,-11621.233289,2374.896044
21860.815901,-74.020594,-11177.109724,842.705048
21860.816234,2368.659014,-9548.656652,5822.325785
21860.816567,3627.009116,-6587.832884,3983.696590
21860.816900,4515.256246,-8586.388927,3140.991542
21860.817233,444.123565,-7698.141797,2068.457845
21860.817566,814.226536,-12213.398043,-76.609550
21860.817899,-3552.988522,-5995.668130,-3677.258390
21860.818232,-3997.112087,-10658.965565,-4979.620737
21860.818565,-2590.720797,-10288.862594,-3140.991542
21860.818899,-1850.514855,-222.061783,-4903.011187
21860.819232,-4145.153275,-14878.139434,612.876398
21860.819565,-5403.503377,-19023.292709,383.047749
21860.819898,6513.812290,-814.226536,1838.629195
21860.820231,7846.182985,814.226536,3140.991542
21860.820564,4441.235652,-9030.512492,6511.811733
21860.820897,-5033.400406,-15470.304188,2451.505594
21860.821230,-4737.318029,-14878.139434,-306.438199
21860.821563,2368.659014,-11769.274478,-1608.800546
21860.821897,296.082377,-14137.933492,-2451.505594
21860.822230,5847.626942,-4737.318029,-2528.115143
21860.822563,148.041188,-4811.338623,-3677.258390
21860.822896,4663.297435,-5921.647536,2374.896044
21860.823229,2294.638420,-6513.812290,3294.210641
21860.823562,-1036.288319,-7254.018232,2911.162892
21860.823895,2664.741391,-4811.338623,6205.373534
21860.824228,-2294.638420,-8956.491898,2604.724693
21860.824561,2886.803174,-7846.182985,3600.648841
21860.824895,-962.267725,-9474.636058,3907.087040
21860.825228,3034.844362,-2960.823768,-689.485948
21860.825561,-2738.761985,-13397.727550,-3677.258390
