#time,accel_x,accel_y,accel_z
22412.895060,5329.482782,-8068.244768,1991.848295
22412.895394,8216.285956,-9178.553681,2145.067394
22412.895727,9474.636058,-8660.409521,3370.820191
22412.896061,9622.677246,-8438.347739,2681.334243
22412.896395,9474.636058,-8364.327145,1225.752797
22412.896728,9400.615463,-9474.636058,-1302.362347
22412.897062,5699.585753,-7772.162391,-3677.258390
22412.897395,6365.771101,-10658.965565,-1608.800546
22412.897729,8216.285956,-9474.636058,-3140.991542
22412.898063,6809.894666,-9474.636058,-842.705048
22412.898396,9104.533087,-8660.409521,153.219100
22412.898730,10732.986159,-8956.491898,3217.601092
22412.899063,12361.439231,-8660.409521,4213.525239
22412.899397,12657.521608,-10658.965565,5439.278036
22412.899730,9400.615463,-10066.800811,766.095498
22412.900064,5329.482782,-11917.315666,2451.505594
22412.900398,5551.544565,-11547.212695,-1608.800546
22412.900731,0.000000,-9548.656652,0.000000
22412.901065,3775.050304,-9474.636058,-76.609550
22412.901398,3034.844362,-7179.997637,766.095498
22412.901732,4959.379811,-5403.503377,612.876398
22412.902066,5625.565159,-6587.832884,1378.971896
22412.902399,8808.450710,-5921.647536,-76.609550
22412.902733,10584.944971,-5403.503377,612.876398
22412.903066,11843.295072,-9030.512492,2681.334243
22412.903400,12805.562797,-11843.295072,-76.609550
22412.903734,8660.409521,-9548.656652,-4290.134789
22412.904067,10881.027347,-11843.295072,-1915.238745
22412.904401,8808.450710,-12139.377449,-2528.115143
22412.904734,6365.771101,-12509.480420,-2451.505594
22412.905068,5107.421000,-11843.295072,-1455.581446
22412.905402,7624.121203,-9474.636058,-76.609550
22412.905735,10658.965565,-6439.791695,3524.039291
22412.906069,11103.089130,-5847.626942,4136.915689
22412.906402,12509.480420,-5995.668130,4826.401637
22412.906736,10807.006753,-8364.327145,6128.763984
22412.907069,10066.800811,-10140.821405,4519.963438
22412.907403,7031.956449,-9548.656652,-2451.505594
22412.907737,3108.864956,-9548.656652,-2451.505594
22412.908070,4589.276840,-11547.212695,-1302.362347
22412.908404,5107.421000,-7179.997637,-2451.505594
22412.908737,7920.203579,-9178.553681,-536.266849
22412.909071,8734.430116,-7846.182985,612.876398
22412.909405,8512.368333,-7698.141797,612.876398
22412.909738,10584.944971,-8290.306550,-76.609550
22412.910072,9400.615463,-11103.089130,-76.609550
22412.910405,7476.080014,-6291.750507,-3370.820191
22412.910739,8882.471304,-10732.986159,0.000000
22412.911073,10807.006753,-11547.212695,3600.648841
22412.911406,9992.780217,-11769.274478,4213.525239
22412.911740,11769.274478,-9178.553681,3983.696590
22412.912073,15174.221811,-7179.997637,6205.373534
22412.912407,14508.036463,-4959.379811,4596.572988
22412.912740,13915.871710,-5107.421000,1225.752797
22412.913074,12953.603985,-8142.265362,-2221.676944
22412.913408,7698.141797,-7772.162391,-4290.134789
22412.913741,10436.903782,-13027.624579,-4979.620737
22412.914075,4071.132681,-13027.624579,-7431.126331
22412.914408,2960.823768,-11991.336260,-7277.907231
22412.914742,7105.977043,-10732.986159,-1378.971896
22412.915076,13397.727550,-7179.997637,4903.011187
22412.915409,15766.386565,-5107.421000,8044.002729
22412.915743,15988.448347,-7846.182985,8733.488677
22412.916076,13545.768739,-7994.224174,4903.011187
22412.916410,13027.624579,-8142.265362,5515.887586
22412.916744,14804.118840,-10066.800811,2987.772442
22412.917077,11621.233289,-6661.853478,-2451.505594
22412.917411,9474.636058,-7476.080014,-4290.134789
22412.917744,9104.533087,-9770.718434,-5592.497135
22412.918078,7031.956449,-12657.521608,-5286.058936
22412.918412,4737.318029,-13619.789333,-4903.011187
22412.918745,7328.038826,-11251.130318,-2528.115143
22412.919079,7105.977043,-9548.656652,1838.629195
22412.919412,15026.180623,-8882.471304,5439.278036
22412.919746,16506.592507,-7105.977043,7277.907231
22412.920079,13027.624579,-6587.832884,8886.707777
22412.920413,13027.624579,-8956.491898,7967.393179
22412.920747,12953.603985,-8660.409521,4519.963438
22412.921080,11177.109724,-6735.874072,459.657299
22412.921414,8586.388927,-7698.141797,-3907.087040
22412.921747,5551.544565,-9178.553681,-6205.373534
22412.922081,2664.741391,-9548.656652,-7890.783629
22412.922415,3627.009116,-13767.830521,-5898.935335
22412.922748,5921.647536,-9548.656652,-2145.067394
22412.923082,9844.739029,-10140.821405,3447.429741
22412.923415,12953.603985,-8290.306550,4826.401637
22412.923749,10881.027347,-8068.244768,3677.258390
22412.924083,9474.636058,-10140.821405,8886.707777
22412.924416,14137.933492,-3849.070898,4826.401637
22412.924750,12435.459826,-8660.409521,5669.106685
22412.925083,13693.809927,-7698.141797,2374.896044
22412.925417,3552.988522,-12435.459826,-4749.792088
22412.925750,4885.359217,-8956.491898,-7431.126331
22412.926084,4959.379811,-10732.986159,-5898.935335
22412.926418,8142.265362,-9696.697840,-2681.334243
22412.926751,8068.244768,-5107.421000,1225.752797
22412.927085,7624.121203,-13619.789333,4213.525239
22412.927418,12361.439231,-9474.636058,2374.896044
22412.927752,12509.480420,-5995.668130,4903.011187
22412.928086,17690.922014,-7698.141797,7277.907231
22412.928419,12805.562797,-5625.565159,5209.449386
22412.928753,10732.986159,-9474.636058,1302.362347
22412.929086,7254.018232,-11917.315666,-3064.381992
22412.929420,7698.141797,-7920.203579,-3983.696590
22412.929754,6513.812290,-7179.997637,-3064.381992
22412.930087,8808.450710,-13915.871710,-1915.238745
22412.930421,7328.038826,-9474.636058,-2528.115143
22412.930754,4737.318029,-10732.986159,153.219100
22412.931088,13249.686362,-3627.009116,4903.011187
22412.931422,14582.057057,-4737.318029,4903.011187
22412.931755,14063.912898,-7402.059420,2987.772442
22412.932089,13175.665768,-5847.626942,4366.744339
22412.932422,9104.533087,-11251.130318,-229.828649
22412.932756,12435.459826,-9918.759623,2374.896044
22412.933089,9400.615463,-13027.624579,-2834.553343
22412.933423,3552.988522,-10732.986159,-4749.792088
22412.933757,5033.400406,-6883.915261,-2604.724693
22412.934090,8882.471304,-11029.068536,-76.609550
22412.934424,15322.262999,-5477.523971,1149.143247
22412.934757,10214.842000,-12509.480420,5592.497135
22412.935091,14804.118840,-4663.297435,1991.848295
22412.935425,9400.615463,-10140.821405,306.438199
22412.935758,15174.221811,-8734.430116,383.047749
22412.936092,12139.377449,-5995.668130,766.095498
22412.936425,7846.182985,-9548.656652,2451.505594
22412.936759,12361.439231,-8290.306550,-689.485948
22412.937093,4219.173869,-16580.613101,-76.609550
22412.937426,8216.285956,-9548.656652,766.095498
22412.937760,3997.112087,-10140.821405,919.314598
22412.938093,5033.400406,-8882.471304,1378.971896
22412.938427,148.041188,-6439.791695,-1532.190996
22412.938761,4071.132681,-5033.400406,-153.219100
22412.939094,9178.553681,-8734.430116,5286.058936
22412.939428,7031.956449,-7254.018232,3983.696590
22412.939761,6809.894666,-7772.162391,612.876398
22412.940095,1258.350101,-11843.295072,-76.609550
22412.940428,4219.173869,-10658.965565,-76.609550
22412.940762,3478.967927,-7105.977043,-3140.991542
22412.941096,0.000000,-10732.986159,-3064.381992
22412.941429,5033.400406,-10140.821405,-1225.752797
22412.941763,1184.329507,-9844.739029,0.000000
22412.942096,5921.647536,-8216.285956,-1378.971896
22412.942430,3034.844362,-14063.912898,842.705048
22412.942764,6735.874072,-7550.100608,4596.572988
22412.943097,3701.029710,-11029.068536,2757.943793
22412.943431,7920.203579,-5625.565159,2374.896044
22412.943764,4663.297435,-7179.997637,-1762.019645
22412.944098,4737.318029,-9696.697840,4213.525239
22412.944432,9104.533087,-7105.977043,2987.772442
22412.944765,2664.741391,-10288.862594,-383.047749
22412.945099,4441.235652,-6809.894666,-1149.143247
22412.945432,-2146.597232,-11917.315666,-4443.353888
22412.945766,3034.844362,-8142.265362,-4673.182538
22412.946099,2738.761985,-13619.789333,-76.609550
22412.946433,3478.967927,-7105.977043,-3064.381992
22412.946767,1776.494261,-9548.656652,-2451.505594
22412.947100,4737.318029,-11917.315666,4519.963438
22412.947434,7105.977043,-6883.915261,1378.971896
22412.947767,5699.585753,-9474.636058,4519.963438
22412.948101,7105.977043,-9622.677246,4519.963438
22412.948435,5033.400406,-7179.997637,1838.629195
22412.948768,4663.297435,-9474.636058,229.828649
22412.949102,3478.967927,-9474.636058,1149.143247
22412.949435,518.144159,-7179.997637,-3677.258390
22412.949769,-1776.494261,-9844.739029,-76.609550
22412.950103,-74.020594,-9474.636058,-1302.362347
22412.950436,-3034.844362,-7179.997637,-4903.011187
22412.950770,-74.020594,-13027.624579,536.266849
22412.951103,3478.967927,-4737.318029,229.828649
22412.951437,-814.226536,-9474.636058,1915.238745
22412.951771,1850.514855,-8808.450710,919.314598
22412.952104,4071.132681,-11843.295072,4826.401637
22412.952438,3701.029710,-5477.523971,2911.162892
22412.952771,3997.112087,-7920.203579,2451.505594
22412.953105,1702.473667,-8438.347739,-2757.943793
22412.953438,1184.329507,-12805.562797,-1225.752797
22412.953772,-888.247130,-9918.759623,-2528.115143
22412.954106,296.082377,-10140.821405,-4596.572988
22412.954439,1628.453072,-15396.283594,2374.896044
22412.954773,4811.338623,-6291.750507,1225.752797
22412.955106,592.164754,-8364.327145,2451.505594
22412.955440,5107.421000,-9474.636058,4979.620737
22412.955774,740.205942,-7402.059420,1991.848295
22412.956107,1702.473667,-8438.347739,3064.381992
22412.956441,3182.885551,-7105.977043,4213.525239
22412.956774,-1036.288319,-11029.068536,4213.525239
22412.957108,-3034.844362,-7179.997637,-2451.505594
22412.957442,-3849.070898,-7476.080014,0.000000
22412.957775,-2442.679609,-8290.306550,-7431.126331
22412.958109,-3997.112087,-13989.892304,-1991.848295
22412.958442,-5107.421000,-6513.812290,-6894.859482
22412.958776,-3923.091493,-14211.954086,-1915.238745
22412.959109,2368.659014,-7328.038826,3294.210641
22412.959443,1184.329507,-6735.874072,2757.943793
22412.959777,4071.132681,-10066.800811,6665.030833
22412.960110,4737.318029,-7179.997637,4903.011187
22412.960444,2294.638420,-12435.459826,6358.592633
22412.960777,2516.700203,-4737.318029,2987.772442
22412.961111,-1036.288319,-9030.512492,612.876398
22412.961445,-2368.659014,-7550.100608,-1915.238745
22412.961778,-4219.173869,-9474.636058,-5592.497135
22412.962112,-3034.844362,-9844.739029,-2528.115143
22412.962445,-4737.318029,-11177.109724,-3064.381992
22412.962779,-3627.009116,-11251.130318,-2374.896044
22412.963113,-3552.988522,-4885.359217,1225.752797
22412.963446,-814.226536,-9474.636058,1455.581446
22412.963780,2590.720797,-5107.421000,612.876398
22412.964113,4737.318029,-7476.080014,4903.011187
22412.964447,1776.494261,-12953.603985,4979.620737
22412.964781,2220.617826,-7402.059420,306.438199
22412.965114,2146.597232,-11547.212695,536.266849
22412.965448,2220.617826,-9178.553681,-3140.991542
22412.965781,0.000000,-10732.986159,1225.752797
22412.966115,1998.556043,-9474.636058,-4979.620737
22412.966448,-2664.741391,-11917.315666,-2374.896044
22412.966782,0.000000,-6143.709319,-76.609550
22412.967116,3552.988522,-12953.603985,5515.887586
22412.967449,2664.741391,-6291.750507,4290.134789
22412.967783,2738.761985,-9474.636058,3753.867940
22412.968116,-1184.329507,-8068.244768,2681.334243
22412.968450,-148.041188,-7105.977043,-76.609550
22412.968784,0.000000,-6883.915261,2451.505594
22412.969117,1184.329507,-5995.668130,536.266849
22412.969451,-2220.617826,-12435.459826,-1378.971896
22412.969784,0.000000,-5995.668130,-1455.581446
22412.970118,-666.185348,-11251.130318,-1302.362347
22412.970452,-2664.741391,-7476.080014,-5975.544884
22412.970785,-3552.988522,-11917.315666,-76.609550
22412.971119,2294.638420,-9474.636058,-3907.087040
22412.971452,4145.153275,-13101.645173,3370.820191
22412.971786,6587.832884,-7698.141797,7277.907231
22412.972120,7328.038826,-9030.512492,4903.011187
22412.972453,3330.926739,-9992.780217,7814.174080
22412.972787,5107.421000,-6883.915261,2374.896044
22412.973120,-2294.638420,-9548.656652,-1149.143247
22412.973454,-2368.659014,-7772.162391,-1225.752797
22412.973787,-3923.091493,-7402.059420,-6205.373534
22412.974121,-5181.441594,-7179.997637,-4290.134789
22412.974455,-2072.576638,-9252.574275,-689.485948
22412.974788,-4811.338623,-10658.965565,-3907.087040
22412.975121,-1184.329507,-10955.047942,1072.533697
22412.975455,-3256.906145,-8142.265362,842.705048
22412.975788,3330.926739,-7031.956449,1915.238745
22412.976121,4737.318029,-7328.038826,3064.381992
22412.976454,0.000000,-12509.480420,10265.679673
22412.976787,1110.308913,-2738.761985,459.657299
22412.977121,-2812.782580,-13101.645173,-2451.505594
22412.977454,296.082377,-8068.244768,-76.609550
22412.977787,-1850.514855,-6883.915261,-2451.505594
22412.978120,-2960.823768,-10362.883188,-3140.991542
22412.978453,-2442.679609,-9474.636058,-2528.115143
22412.978787,-5551.544565,-11029.068536,-2757.943793
22412.979120,2294.638420,-9474.636058,4826.401637
22412.979453,4145.153275,-7105.977043,7277.907231
22412.979786,814.226536,-5995.668130,2451.505594
22412.980120,888.247130,-10510.924376,4213.525239
22412.980453,1702.473667,-9474.636058,2374.896044
22412.980786,2812.782580,-5107.421000,4519.963438
22412.981119,3478.967927,-6513.812290,-1225.752797
22412.981452,-3478.967927,-11917.315666,-4519.963438
22412.981786,-6217.729913,-9918.759623,-9959.241474
22412.982119,-4737.318029,-16950.716072,-4903.011187
22412.982452,-74.020594,-7105.977043,-1991.848295
22412.982785,5921.647536,-7624.121203,2451.505594
22412.983118,5847.626942,-9474.636058,7277.907231
22412.983452,3552.988522,-5995.668130,4290.134789
22412.983785,1110.308913,-11473.192101,5745.716235
22412.984118,2812.782580,-8660.409521,3677.258390
22412.984451,5995.668130,-6661.853478,3677.258390
22412.984784,3182.885551,-4811.338623,1532.190996
22412.985118,0.000000,-8956.491898,-1838.629195
22412.985451,-4663.297435,-12287.418637,-4826.401637
22412.985784,-3404.947333,-10955.047942,-5286.058936
22412.986117,-3256.906145,-11177.109724,-2604.724693
22412.986450,962.267725,-7031.956449,-2987.772442
22412.986784,-3849.070898,-9548.656652,-2757.943793
22412.987117,-1258.350101,-16580.613101,-76.609550
22412.987450,3108.864956,-4219.173869,6128.763984
22412.987783,4663.297435,-9474.636058,8503.660028
22412.988116,6365.771101,-6365.771101,8733.488677
22412.988450,0.000000,-2738.761985,3830.477490
22412.988783,-1480.411884,-7624.121203,-4519.963438
22412.989116,370.102971,-10140.821405,-3370.820191
22412.989449,-5403.503377,-14952.160028,-3370.820191
22412.989782,-2368.659014,-10140.821405,-2451.505594
22412.990116,-2294.638420,-6291.750507,-4903.011187
22412.990449,-7920.203579,-12509.480420,-5822.325785
22412.990782,0.000000,-8512.368333,-1455.581446
22412.991115,-1258.350101,-13027.624579,3600.648841
22412.991448,6661.853478,-4737.318029,5439.278036
22412.991782,4811.338623,-7698.141797,9193.145976
22412.992115,4885.359217,-7402.059420,7507.735880
22412.992448,1998.556043,-8882.471304,2374.896044
22412.992781,2294.638420,-9474.636058,-76.609550
22412.993115,-3552.988522,-7772.162391,-3064.381992
22412.993448,-74.020594,-7698.141797,-3370.820191
22412.993781,4071.132681,-8882.471304,-3753.867940
22412.994114,-8290.306550,-14582.057057,-3064.381992
22412.994447,-222.061783,-9474.636058,-4213.525239
22412.994781,-3627.009116,-15322.262999,-306.438199
22412.995114,3108.864956,-7476.080014,2528.115143
22412.995447,3330.926739,-6069.688724,3294.210641
22412.995780,1110.308913,-5699.585753,4519.963438
22412.996113,0.000000,-7179.997637,4903.011187
22412.996447,3478.967927,-12435.459826,5898.935335
22412.996780,6513.812290,-2442.679609,2757.943793
22412.997113,1184.329507,-7179.997637,1225.752797
22412.997446,-1258.350101,-8586.388927,-7124.688131
22412.997779,-2590.720797,-14211.954086,-9576.193725
22412.998113,-5181.441594,-16950.716072,-229.828649
22412.998446,1998.556043,-6143.709319,-2221.676944
22412.998779,-2368.659014,-14063.912898,2681.334243
22412.999112,2220.617826,-3256.906145,1072.533697
22412.999445,-1998.556043,-12435.459826,1915.238745
22412.999779,666.185348,-5773.606348,2911.162892
22413.000112,5625.565159,-7105.977043,4826.401637
22413.000445,4663.297435,-9474.636058,4826.401637
22413.000778,0.000000,-5995.668130,6128.763984
22413.001111,-1184.329507,-4219.173869,-689.485948
22413.001445,-2442.679609,-15988.448347,-4596.572988
22413.001778,-888.247130,-8364.327145,-5822.325785
22413.002111,-814.226536,-13693.809927,-3753.867940
22413.002444,-1998.556043,-11103.089130,-2757.943793
22413.002777,-3478.967927,-11843.295072,-3140.991542
22413.003111,-5403.503377,-13619.789333,-2528.115143
22413.003444,3701.029710,-8808.450710,2681.334243
22413.003777,5329.482782,-5995.668130,9499.584175
22413.004110,4663.297435,-5329.482782,5822.325785
22413.004443,3478.967927,-4811.338623,4903.011187
22413.004777,-962.267725,-4737.318029,2987.772442
22413.005110,2146.597232,-6587.832884,1149.143247
22413.005443,-3849.070898,-11103.089130,-3064.381992
22413.005776,-1998.556043,-9696.697840,-5209.449386
22413.006110,-4737.318029,-10140.821405,-8503.660028
22413.006443,-2442.679609,-13249.686362,-5515.887586
22413.006776,-74.020594,-15396.283594,-76.609550
22413.007109,814.226536,-11103.089130,2221.676944
22413.007442,3552.988522,-6587.832884,4903.011187
22413.007776,3552.988522,-9178.553681,6435.202183
22413.008109,1924.535449,-8290.306550,4366.744339
22413.008442,2886.803174,-6217.729913,4673.182538
22413.008775,3034.844362,-8882.471304,2987.772442
22413.009108,7328.038826,-3256.906145,3907.087040
22413.009442,2368.659014,-8364.327145,2451.505594
22413.009775,-3034.844362,-7772.162391,-8120.612279
22413.010108,-6291.750507,-11917.315666,-9806.022374
22413.010441,-8882.471304,-18949.272115,-7431.126331
22413.010774,4071.132681,-5921.647536,-1302.362347
22413.011108,-370.102971,-14063.912898,-76.609550
22413.011441,5921.647536,-7179.997637,8886.707777
22413.011774,-4885.359217,-5699.585753,3064.381992
22413.012107,4885.359217,-5995.668130,612.876398
22413.012440,4663.297435,-10658.965565,6665.030833
22413.012774,0.000000,-8660.409521,1225.752797
22413.013107,2960.823768,-5699.585753,4749.792088
22413.013440,-7476.080014,-13027.624579,-7431.126331
22413.013773,-1998.556043,-7031.956449,-6741.640382
22413.014106,-3034.844362,-13915.871710,-1302.362347
22413.014440,5181.441594,-8438.347739,-76.609550
22413.014773,-3701.029710,-11621.233289,-306.438199
22413.015106,-5773.606348,-11029.068536,-4136.915689
22413.015439,2886.803174,-9178.553681,2604.724693
22413.015772,1480.411884,-9844.739029,7890.783629
22413.016106,9178.553681,-2368.659014,3983.696590
22413.016439,2590.720797,-8290.306550,5669.106685
22413.016772,296.082377,-6587.832884,-4903.011187
22413.017105,1110.308913,-13619.789333,-689.485948
22413.017438,-1184.329507,-10732.986159,-2451.505594
22413.017772,1184.329507,-9844.739029,-76.609550
22413.018105,0.000000,-7179.997637,0.000000
22413.018438,-74.020594,-9474.636058,-3753.867940
22413.018771,-3256.906145,-10732.986159,-76.609550
22413.019105,1184.329507,-7179.997637,0.000000
22413.019438,370.102971,-13915.871710,2604.724693
22413.019771,6661.853478,-4145.153275,7277.907231
22413.020104,2664.741391,-5995.668130,7277.907231
22413.020437,-74.020594,-7402.059420,0.000000
22413.020771,1776.494261,-6143.709319,0.000000
22413.021104,-1184.329507,-15396.283594,842.705048
22413.021437,6217.729913,-8660.409521,1225.752797
22413.021770,1406.391290,-5551.544565,-612.876398
22413.022103,-4441.235652,-15470.304188,-2451.505594
22413.022437,-2738.761985,-6439.791695,-3294.210641
22413.022770,-5107.421000,-12287.418637,-7737.564530
22413.023103,3552.988522,-11621.233289,2987.772442
22413.023436,74.020594,-6291.750507,1225.752797
22413.023769,1036.288319,-9474.636058,2374.896044
22413.024103,-5033.400406,-10658.965565,-383.047749
22413.024436,-4811.338623,-8808.450710,-383.047749
22413.024769,4811.338623,-7920.203579,4903.011187
22413.025102,7402.059420,-2442.679609,5975.544884
22413.025435,2590.720797,-10807.006753,3140.991542
22413.025769,-6513.812290,-5403.503377,-3677.258390
22413.026102,-3034.844362,-13619.789333,-4366.744339
22413.026435,296.082377,-10140.821405,-2451.505594
22413.026768,592.164754,-12657.521608,-383.047749
22413.027101,-2738.761985,-6587.832884,-5515.887586
22413.027435,-3552.988522,-12213.398043,-7354.516781
22413.027768,296.082377,-8364.327145,1991.848295
22413.028101,4441.235652,-11843.295072,6894.859482
22413.028434,7402.059420,-5477.523971,7124.688131
22413.028767,9400.615463,-6365.771101,10801.946522
22413.029101,-518.144159,-5995.668130,0.000000
22413.029434,4663.297435,-11251.130318,1762.019645
22413.029767,-3627.009116,-9474.636058,-2834.553343
22413.030100,-2960.823768,-11325.150913,-4903.011187
22413.030433,-1184.329507,-5995.668130,0.000000
22413.030767,-2442.679609,-11177.109724,-2604.724693
22413.031100,-2368.659014,-7031.956449,-3907.087040
22413.031433,-5921.647536,-12065.356855,-3064.381992
22413.031766,3478.967927,-11177.109724,1762.019645
22413.032100,5477.523971,-8364.327145,6128.763984
22413.032433,8586.388927,-5329.482782,11568.042020
22413.032766,4441.235652,-3478.967927,3524.039291
22413.033099,-2812.782580,-15544.324782,2604.724693
22413.033432,3997.112087,-4737.318029,-1915.238745
22413.033766,-1184.329507,-10732.986159,-2145.067394
22413.034099,0.000000,-9548.656652,919.314598
22413.034432,-1850.514855,-8290.306550,-6511.811733
22413.034765,-9326.594869,-15766.386565,-6435.202183
22413.035098,-4441.235652,-9252.574275,-2528.115143
22413.035432,814.226536,-7550.100608,2374.896044
22413.035765,5329.482782,-6439.791695,7354.516781
22413.036098,7698.141797,-3330.926739,8580.269578
22413.036431,962.267725,-9474.636058,3600.648841
22413.036764,666.185348,-7179.997637,4290.134789
22413.037098,1702.473667,-10362.883188,3600.648841
22413.037431,9400.615463,-7105.977043,-2528.115143
22413.037764,-3256.906145,-11917.315666,-2911.162892
22413.038097,-4219.173869,-10658.965565,-10189.070123
22413.038430,-7105.977043,-13693.809927,-6818.249932
22413.038764,-8808.450710,-15766.386565,-7354.516781
22413.039097,4515.256246,-8734.430116,612.876398
22413.039430,-2072.576638,-7179.997637,7354.516781
22413.039763,7698.141797,3478.967927,7967.393179
22413.040096,1702.473667,-10658.965565,7890.783629
22413.040430,2368.659014,-3034.844362,0.000000
22413.040763,6217.729913,-9104.533087,6818.249932
22413.041096,1110.308913,-11547.212695,1532.190996
22413.041429,5403.503377,-5255.462188,-3983.696590
22413.041762,-12139.377449,-16358.551318,-7890.783629
22413.042096,-3256.906145,-9770.718434,-10189.070123
22413.042429,-6513.812290,-14137.933492,-2757.943793
22413.042762,0.000000,-10140.821405,2068.457845
22413.043095,2294.638420,-6513.812290,1149.143247
22413.043428,-3552.988522,-9548.656652,4136.915689
22413.043762,4737.318029,-8438.347739,9422.974625
22413.044095,5921.647536,-1850.514855,8580.269578
22413.044428,9104.533087,-3552.988522,3140.991542
22413.044761,4663.297435,-8734.430116,4749.792088
22413.045095,2368.659014,-8660.409521,-1532.190996
22413.045428,-1850.514855,-12139.377449,-4673.182538
22413.045761,-3627.009116,-16580.613101,-8044.002729
22413.046094,-2368.659014,-10140.821405,-8963.317327
22413.046427,-6809.894666,-14878.139434,-1685.410096
22413.046761,2886.803174,-9474.636058,1762.019645
22413.047094,-3552.988522,-7179.997637,1838.629195
22413.047427,3478.967927,-6661.853478,7354.516781
22413.047760,1924.535449,-4367.215058,9269.755526
22413.048093,5255.462188,-740.205942,4673.182538
22413.048427,2886.803174,-5921.647536,2068.457845
22413.048760,1998.556043,-7994.224174,229.828649
22413.049093,1036.288319,-9992.780217,-3140.991542
22413.049426,296.082377,-12361.439231,-3600.648841
22413.049759,-3256.906145,-13693.809927,-8197.221829
22413.050093,-3034.844362,-15396.283594,-4979.620737
22413.050426,-1184.329507,-13841.851115,-76.609550
22413.050759,-2442.679609,-13619.789333,-2834.553343
22413.051092,-1480.411884,-9548.656652,2451.505594
22413.051425,0.000000,-6291.750507,6128.763984
22413.051759,2960.823768,-3923.091493,8886.707777
22413.052092,6735.874072,-74.020594,8120.612279
22413.052425,2960.823768,-8660.409521,6128.763984
22413.052758,0.000000,-2516.700203,612.876398
22413.053091,-3552.988522,-7476.080014,-3677.258390
22413.053425,-2442.679609,-12731.542202,-5898.935335
22413.053758,1998.556043,-7328.038826,-4903.011187
22413.054091,-8290.306550,-14582.057057,-5975.544884
22413.054424,-666.185348,-13027.624579,-4979.620737
22413.054757,-6217.729913,-13841.851115,-3140.991542
22413.055091,-2886.803174,-9992.780217,-1608.800546
22413.055424,4219.173869,-8586.388927,6128.763984
22413.055757,518.144159,-9770.718434,6971.469032
22413.056090,9770.718434,-4219.173869,6052.154434
22413.056423,2294.638420,-7772.162391,5209.449386
22413.056757,9770.718434,-1850.514855,4903.011187
22413.057090,4663.297435,-10658.965565,2987.772442
22413.057423,1480.411884,-5995.668130,0.000000
22413.057756,-2442.679609,-13323.706956,-7431.126331
22413.058090,-2738.761985,-14730.098246,-4290.134789
22413.058423,-592.164754,-8216.285956,-3677.258390
22413.058756,-3552.988522,-10288.862594,-4443.353888
22413.059089,-3627.009116,-13619.789333,-3753.867940
22413.059422,-8290.306550,-9548.656652,612.876398
22413.059756,1628.453072,-8882.471304,1608.800546
22413.060089,5699.585753,-4441.235652,7890.783629
22413.060422,296.082377,-5995.668130,4903.011187
22413.060755,8808.450710,-4145.153275,6052.154434
22413.061088,4663.297435,-7105.977043,4519.963438
22413.061422,2516.700203,-10510.924376,-612.876398
22413.061755,2886.803174,-11843.295072,1685.410096
22413.062088,-2442.679609,-14211.954086,-6818.249932
22413.062421,-1036.288319,-11547.212695,-4060.306139
22413.062754,-4589.276840,-13249.686362,-4903.011187
22413.063088,296.082377,-11325.150913,-1915.238745
22413.063421,0.000000,-9548.656652,3983.696590
22413.063754,1702.473667,-9474.636058,1762.019645
22413.064087,-2072.576638,-5995.668130,5515.887586
22413.064420,0.000000,-3034.844362,4596.572988
22413.064754,1554.432478,-8290.306550,3294.210641
22413.065087,148.041188,-4811.338623,2451.505594
22413.065420,2294.638420,-5329.482782,-766.095498
22413.065753,-1258.350101,-10584.944971,-2145.067394
22413.066086,-1998.556043,-13545.768739,-3753.867940
22413.066420,-222.061783,-13619.789333,-2528.115143
22413.066753,0.000000,-15988.448347,-4979.620737
22413.067086,-4145.153275,-14285.974681,0.000000
22413.067419,592.164754,-7624.121203,-1225.752797
22413.067752,2146.597232,-13619.789333,4213.525239
22413.068086,3478.967927,-4737.318029,5669.106685
22413.068419,-1258.350101,-9474.636058,3064.381992
22413.068752,3923.091493,-4737.318029,6818.249932
22413.069085,1554.432478,-5255.462188,3983.696590
22413.069418,-1184.329507,-6587.832884,1225.752797
22413.069752,1702.473667,-9474.636058,1149.143247
22413.070085,-7105.977043,-9548.656652,-1455.581446
22413.070418,-1554.432478,-9474.636058,-2221.676944
22413.070751,-4293.194464,-4811.338623,-6128.763984
22413.071085,-4145.153275,-9400.615463,-7431.126331
22413.071418,-888.247130,-11177.109724,-2757.943793
22413.071751,2738.761985,-9252.574275,-2451.505594
22413.072084,3478.967927,-12657.521608,3907.087040
22413.072417,4737.318029,-10436.903782,7507.735880
22413.072751,5551.544565,-6143.709319,689.485948
22413.073084,6439.791695,-10362.883188,4826.401637
22413.073417,2294.638420,-11547.212695,-1532.190996
22413.073750,1184.329507,-10140.821405,2987.772442
22413.074083,2664.741391,-7698.141797,612.876398
22413.074417,-1776.494261,-8956.491898,153.219100
22413.074750,-666.185348,-5403.503377,-612.876398
22413.075083,-3775.050304,-9844.739029,-2451.505594
22413.075416,-1258.350101,-11843.295072,-689.485948
22413.075749,-4145.153275,-4811.338623,-1838.629195
22413.076083,-74.020594,-10510.924376,-842.705048
22413.076416,0.000000,-4811.338623,-1838.629195
22413.076749,2368.659014,-13101.645173,4826.401637
22413.077082,6735.874072,-8216.285956,5515.887586
22413.077415,888.247130,-13101.645173,2604.724693
22413.077749,1776.494261,-11103.089130,229.828649
22413.078082,-1258.350101,-9844.739029,-2987.772442
22413.078415,-1850.514855,-13027.624579,-1915.238745
22413.078748,0.000000,-7476.080014,1532.190996
22413.079082,-1406.391290,-8068.244768,-612.876398
22413.079415,1702.473667,-7105.977043,383.047749
22413.079748,1184.329507,-3478.967927,2145.067394
22413.080081,4663.297435,-8882.471304,2374.896044
22413.080414,2368.659014,-5403.503377,2911.162892
22413.080748,2368.659014,-11325.150913,4519.963438
22413.081081,-74.020594,-8882.471304,459.657299
22413.081414,-4441.235652,-10732.986159,-2298.286494
22413.081747,1554.432478,-8142.265362,-7124.688131
22413.082080,-4737.318029,-17246.798449,-2451.505594
22413.082414,-888.247130,-7476.080014,-2911.162892
22413.082747,-6957.935855,-13989.892304,-995.924147
22413.083080,-2368.659014,-4811.338623,-2451.505594
22413.083413,0.000000,-10288.862594,4749.792088
22413.083747,5255.462188,-518.144159,5209.449386
22413.084080,5033.400406,-1850.514855,6128.763984
22413.084413,3478.967927,-8142.265362,4826.401637
22413.084746,4663.297435,-9178.553681,612.876398
22413.085079,-1702.473667,-12805.562797,-2757.943793
22413.085413,2294.638420,-9918.759623,-383.047749
22413.085746,-2738.761985,-12435.459826,-4366.744339
22413.086079,-888.247130,-13249.686362,-2451.505594
22413.086412,-2368.659014,-8364.327145,-76.609550
22413.086745,-4811.338623,-13323.706956,-4290.134789
22413.087079,-2368.659014,-5995.668130,0.000000
22413.087412,-4737.318029,-10362.883188,2681.334243
22413.087745,0.000000,-5107.421000,4290.134789
22413.088078,666.185348,-4959.379811,6665.030833
22413.088411,296.082377,-5107.421000,2834.553343
22413.088745,2220.617826,-2072.576638,2298.286494
22413.089078,2294.638420,-7994.224174,-383.047749
22413.089411,4515.256246,-14804.118840,2068.457845
22413.089744,4367.215058,-10807.006753,0.000000
22413.090078,-3997.112087,-14878.139434,-4290.134789
22413.090411,-3552.988522,-12509.480420,-6818.249932
22413.090744,-74.020594,-13027.624579,-2528.115143
22413.091077,-1776.494261,-13397.727550,1378.971896
22413.091410,814.226536,-8068.244768,3370.820191
22413.091744,370.102971,-8512.368333,4136.915689
22413.092077,592.164754,-3627.009116,4443.353888
22413.092410,4071.132681,-2294.638420,7354.516781
22413.092743,3552.988522,-5921.647536,9729.412825
22413.093076,5551.544565,-2368.659014,-76.609550
22413.093410,-5625.565159,-9548.656652,-2451.505594
22413.093743,2886.803174,-7698.141797,-3753.867940
22413.094076,-4071.132681,-16506.592507,-4443.353888
22413.094409,1110.308913,-10140.821405,-7431.126331
22413.094743,-2812.782580,-15396.283594,-5056.230287
22413.095076,-3404.947333,-10732.986159,-5822.325785
22413.095409,3627.009116,-8438.347739,-536.266849
22413.095742,-2590.720797,-14285.974681,919.314598
22413.096075,7994.224174,-2738.761985,6894.859482
22413.096409,1554.432478,-9178.553681,9576.193725
22413.096742,5329.482782,-3627.009116,6052.154434
22413.097075,9400.615463,-4737.318029,9422.974625
22413.097408,-2368.659014,-7476.080014,1838.629195
22413.097741,8808.450710,-4145.153275,1762.019645
22413.098075,-6291.750507,-15988.448347,-4366.744339
22413.098408,-2960.823768,-10732.986159,-8733.488677
22413.098741,-5181.441594,-12361.439231,-4290.134789
22413.099074,-5773.606348,-12213.398043,-7048.078582
22413.099407,-3404.947333,-9770.718434,-4060.306139
22413.099741,-2368.659014,-11695.253884,306.438199
22413.100074,3330.926739,-5995.668130,2451.505594
22413.100407,962.267725,-5107.421000,7967.393179
22413.100740,7328.038826,-8290.306550,6052.154434
22413.101074,1998.556043,-8290.306550,3907.087040
22413.101407,5329.482782,-7105.977043,7124.688131
22413.101740,2516.700203,-8956.491898,1762.019645
22413.102073,-2146.597232,-9252.574275,0.000000
22413.102406,-1480.411884,-9844.739029,-3907.087040
22413.102740,-2442.679609,-11843.295072,-3753.867940
22413.103073,-4293.194464,-7772.162391,-4903.011187
22413.103406,-5921.647536,-13101.645173,0.000000
22413.103739,-2368.659014,-7698.141797,-689.485948
22413.104072,1480.411884,-6883.915261,612.876398
22413.104406,-666.185348,-10881.027347,3753.867940
22413.104739,3108.864956,-3330.926739,1685.410096
22413.105072,-814.226536,-9844.739029,3753.867940
22413.105405,2886.803174,-6661.853478,1378.971896
22413.105739,4885.359217,-5995.668130,2528.115143
22413.106072,-4737.318029,-11029.068536,1225.752797
22413.106405,2294.638420,-8882.471304,-5286.058936
22413.106738,-5181.441594,-14285.974681,-5439.278036
22413.107071,592.164754,-9548.656652,0.000000
22413.107405,1110.308913,-7031.956449,-1608.800546
22413.107738,1184.329507,-10362.883188,-689.485948
22413.108071,1036.288319,-8956.491898,1685.410096
22413.108404,3108.864956,-5699.585753,2681.334243
22413.108737,3256.906145,-9548.656652,3370.820191
22413.109071,1480.411884,-7772.162391,4213.525239
22413.109404,1332.370696,-7698.141797,-383.047749
22413.109737,592.164754,-10362.883188,1991.848295
22413.110070,-74.020594,-9474.636058,-76.609550
22413.110403,-2442.679609,-10658.965565,-1915.238745
22413.110737,-3108.864956,-6291.750507,-2757.943793
22413.111070,-4737.318029,-9548.656652,-1991.848295
22413.111403,1702.473667,-9474.636058,-1608.800546
22413.111736,2960.823768,-10584.944971,2451.505594
22413.112070,2738.761985,-8808.450710,0.000000
22413.112403,4441.235652,-11399.171507,3294.210641
22413.112736,4441.235652,-10436.903782,3677.258390
22413.113069,5551.544565,-8882.471304,3294.210641
22413.113402,2516.700203,-5921.647536,1149.143247
22413.113736,0.000000,-11917.315666,-995.924147
22413.114069,-1258.350101,-12139.377449,-2528.115143
22413.114402,-74.020594,-6513.812290,-2604.724693
22413.114735,-3330.926739,-13619.789333,1149.143247
22413.115068,-4293.194464,-7772.162391,306.438199
22413.115402,-4367.215058,-4071.132681,-2681.334243
22413.115735,-740.205942,-9622.677246,3830.477490
22413.116068,2368.659014,-4219.173869,3677.258390
22413.116401,2294.638420,-8882.471304,3830.477490
22413.116735,0.000000,-7772.162391,4213.525239
22413.117068,4663.297435,-5625.565159,-1608.800546
22413.117401,-1776.494261,-10140.821405,-3677.258390
22413.117734,1776.494261,-11325.150913,-3370.820191
22413.118067,-2886.803174,-13101.645173,-6818.249932
22413.118401,-1184.329507,-16358.551318,-5515.887586
22413.118734,222.061783,-11843.295072,2528.115143
22413.119067,4367.215058,-4737.318029,4826.401637
22413.119400,-2368.659014,-7772.162391,2451.505594
22413.119733,-74.020594,-5921.647536,-76.609550
22413.120067,-74.020594,-8290.306550,1762.019645
22413.120400,3849.070898,-8364.327145,10342.289223
22413.120733,3478.967927,-4737.318029,4213.525239
22413.121066,-518.144159,-7846.182985,995.924147
22413.121399,-1036.288319,-9326.594869,-995.924147
22413.121733,592.164754,-9252.574275,-2145.067394
22413.122066,-2368.659014,-11473.192101,-3830.477490
22413.122399,-3404.947333,-11325.150913,-4979.620737
22413.122732,-3627.009116,-12065.356855,-8886.707777
22413.123066,-4145.153275,-16062.468941,0.000000
22413.123399,5847.626942,-8290.306550,1762.019645
22413.123732,-74.020594,-10658.965565,4213.525239
22413.124065,3552.988522,-6809.894666,4826.401637
22413.124398,3034.844362,-5773.606348,4749.792088
22413.124732,5033.400406,-6217.729913,8350.440928
22413.125065,5329.482782,-5773.606348,4443.353888
22413.125398,1184.329507,-10955.047942,3907.087040
22413.125731,518.144159,-9104.533087,-3064.381992
22413.126064,518.144159,-9770.718434,-3447.429741
22413.126398,-3108.864956,-14285.974681,-5439.278036
22413.126731,-2812.782580,-9844.739029,-6128.763984
22413.127064,-3552.988522,-11843.295072,-3447.429741
22413.127397,-2738.761985,-13027.624579,-2834.553343
22413.127731,-666.185348,-5699.585753,1838.629195
22413.128064,1480.411884,-9400.615463,7277.907231
22413.128397,5847.626942,-3552.988522,7584.345430
22413.128730,1036.288319,-1258.350101,3217.601092
22413.129063,1036.288319,-9474.636058,919.314598
22413.129397,3108.864956,-9992.780217,4903.011187
22413.129730,1184.329507,-5995.668130,-3064.381992
22413.130063,0.000000,-16506.592507,-76.609550
22413.130396,-2738.761985,-10066.800811,-4903.011187
22413.130729,74.020594,-8364.327145,-6741.640382
22413.131063,-2960.823768,-15322.262999,-76.609550
22413.131396,2442.679609,-2442.679609,-4596.572988
22413.131729,-3552.988522,-12065.356855,0.000000
22413.132062,3182.885551,-7402.059420,3907.087040
22413.132395,2516.700203,-5921.647536,4673.182538
22413.132729,-74.020594,-8586.388927,5439.278036
22413.133062,5255.462188,-8882.471304,3600.648841
22413.133395,-1332.370696,-8364.327145,1225.752797
22413.133728,2220.617826,-10658.965565,4213.525239
22413.134062,-666.185348,-11843.295072,-2528.115143
22413.134395,-1184.329507,-8364.327145,-4903.011187
22413.134728,-2442.679609,-15544.324782,-3140.991542
22413.135061,1036.288319,-11399.171507,995.924147
22413.135394,1406.391290,-8142.265362,-1532.190996
22413.135728,-1554.432478,-9770.718434,995.924147
22413.136061,-370.102971,-7105.977043,-2834.553343
22413.136394,1258.350101,-5403.503377,3064.381992
22413.136727,5551.544565,-8290.306550,4826.401637
22413.137060,4959.379811,-7105.977043,4213.525239
22413.137394,222.061783,-8290.306550,4826.401637
22413.137727,3849.070898,-6809.894666,459.657299
22413.138060,-1924.535449,-11547.212695,-2681.334243
22413.138393,-2368.659014,-11843.295072,-3677.258390
22413.138727,-4737.318029,-13101.645173,-3983.696590
22413.139060,-6957.935855,-9548.656652,-4903.011187
22413.139393,-666.185348,-9178.553681,-1532.190996
22413.139726,-2442.679609,-14211.954086,1149.143247
22413.140059,888.247130,-1554.432478,1838.629195
22413.140393,1184.329507,-7105.977043,4519.963438
22413.140726,4737.318029,-5995.668130,7124.688131
22413.141059,5921.647536,-3923.091493,6588.421283
22413.141392,2072.576638,-9030.512492,-919.314598
22413.141725,1776.494261,-12139.377449,1225.752797
22413.142059,1184.329507,-8364.327145,-4290.134789
22413.142392,-148.041188,-15248.242405,-2528.115143
22413.142725,-814.226536,-10658.965565,-2604.724693
22413.143058,-4811.338623,-13767.830521,-5439.278036
22413.143391,-4441.235652,-11029.068536,0.000000
22413.143725,-1554.432478,-6365.771101,-3447.429741
22413.144058,2368.659014,-8660.409521,9422.974625
22413.144391,4663.297435,-3997.112087,7431.126331
22413.144724,4071.132681,-1184.329507,4826.401637
22413.145058,444.123565,-9326.594869,3600.648841
22413.145391,2072.576638,-7920.203579,1455.581446
22413.145724,666.185348,-7550.100608,-766.095498
22413.146057,444.123565,-12879.583391,-4596.572988
22413.146390,-74.020594,-13619.789333,-2528.115143
22413.146724,-4737.318029,-10140.821405,-6435.202183
22413.147057,-3552.988522,-13693.809927,-2451.505594
22413.147390,-74.020594,-9474.636058,536.266849
22413.147723,-4737.318029,-9548.656652,-4290.134789
22413.148056,4071.132681,-11547.212695,7277.907231
22413.148390,2812.782580,-5847.626942,7890.783629
22413.148723,1998.556043,-5329.482782,5132.839837
22413.149056,3330.926739,-4737.318029,7431.126331
22413.149389,-370.102971,-5921.647536,-995.924147
22413.149723,1184.329507,-8364.327145,4443.353888
22413.150056,1110.308913,-8142.265362,-1302.362347
22413.150389,-74.020594,-9622.677246,-7354.516781
22413.150722,-2960.823768,-9992.780217,-3294.210641
22413.151055,-2738.761985,-11917.315666,-6435.202183
22413.151389,-1258.350101,-12953.603985,-2604.724693
22413.151722,-1776.494261,-9178.553681,-76.609550
22413.152055,0.000000,-8512.368333,-1915.238745
22413.152388,-1776.494261,-10140.821405,-1838.629195
22413.152721,7920.203579,-9178.553681,9729.412825
22413.153055,2886.803174,-9326.594869,6052.154434
22413.153388,7698.141797,-5551.544565,8580.269578
22413.153721,3775.050304,-9474.636058,7277.907231
22413.154054,1110.308913,-7179.997637,0.000000
22413.154387,1924.535449,-6365.771101,-383.047749
22413.154721,-3404.947333,-12953.603985,-7737.564530
22413.155054,-444.123565,-12805.562797,-3294.210641
22413.155387,-4589.276840,-10732.986159,-4903.011187
22413.155720,-1628.453072,-10066.800811,-4366.744339
22413.156054,-2220.617826,-9622.677246,612.876398
22413.156387,518.144159,-8882.471304,766.095498
22413.156720,2294.638420,-7698.141797,3600.648841
22413.157053,4663.297435,-6735.874072,4136.915689
22413.157386,2960.823768,-9474.636058,6052.154434
22413.157720,3478.967927,-11843.295072,6665.030833
22413.158053,-370.102971,-7179.997637,2451.505594
22413.158386,-74.020594,-8290.306550,-76.609550
22413.158719,-1702.473667,-9770.718434,-2834.553343
22413.159052,-2220.617826,-10732.986159,-4213.525239
22413.159386,-1628.453072,-11843.295072,-2221.676944
22413.159719,-5921.647536,-7476.080014,-3064.381992
22413.160052,1702.473667,-7772.162391,-2451.505594
22413.160385,0.000000,-14211.954086,4213.525239
22413.160719,3478.967927,-5033.400406,2374.896044
22413.161052,74.020594,-7476.080014,612.876398
22413.161385,5033.400406,-5699.585753,4213.525239
22413.161718,2516.700203,-9548.656652,6128.763984
22413.162051,666.185348,-8512.368333,1685.410096
22413.162385,-2146.597232,-9326.594869,-229.828649
22413.162718,-1850.514855,-9474.636058,-6358.592633
22413.163051,-3330.926739,-11325.150913,-4290.134789
22413.163384,-74.020594,-11251.130318,-5592.497135
22413.163717,-1702.473667,-10732.986159,76.609550
22413.164051,2368.659014,-4071.132681,2451.505594
22413.164384,7846.182985,-9474.636058,7354.516781
22413.164717,2442.679609,-8290.306550,4596.572988
22413.165050,4367.215058,-6957.935855,1915.238745
22413.165383,-1480.411884,-11473.192101,306.438199
22413.165717,0.000000,-8808.450710,-2987.772442
22413.166050,0.000000,-11917.315666,1378.971896
22413.166383,-4219.173869,-9474.636058,-4596.572988
22413.166716,-2368.659014,-4811.338623,-3677.258390
22413.167050,-3997.112087,-14137.933492,-76.609550
22413.167383,2886.803174,-7105.977043,1149.143247
22413.167716,-814.226536,-9474.636058,1915.238745
22413.168049,2220.617826,-5699.585753,-842.705048
22413.168382,3182.885551,-12139.377449,3600.648841
22413.168716,2294.638420,-10140.821405,9269.755526
22413.169049,7031.956449,-7698.141797,3600.648841
22413.169382,2368.659014,-3923.091493,2451.505594
22413.169715,-518.144159,-14211.954086,-689.485948
22413.170048,3478.967927,-9474.636058,-4060.306139
22413.170382,-4145.153275,-11917.315666,-2757.943793
22413.170715,-666.185348,-10658.965565,-5286.058936
22413.171048,-6217.729913,-14878.139434,-1685.410096
22413.171381,-3997.112087,-7254.018232,-3064.381992
22413.171715,-1406.391290,-10510.924376,-76.609550
22413.172048,2590.720797,-5625.565159,5132.839837
22413.172381,5329.482782,-5329.482782,7124.688131
22413.172714,1332.370696,-6291.750507,7048.078582
22413.173047,3997.112087,-6143.709319,5592.497135
22413.173381,296.082377,-4811.338623,0.000000
22413.173714,1924.535449,-12435.459826,-76.609550
22413.174047,518.144159,-10066.800811,-3753.867940
22413.174380,-4737.318029,-13397.727550,-6588.421283
22413.174713,-1480.411884,-12731.542202,-5286.058936
22413.175047,-6291.750507,-14285.974681,-7048.078582
22413.175380,-1332.370696,-10658.965565,-2681.334243
22413.175713,-2220.617826,-11473.192101,5822.325785
22413.176046,3108.864956,-5329.482782,5822.325785
22413.176379,4145.153275,-6439.791695,12793.794817
22413.176713,4663.297435,-4145.153275,7890.783629
22413.177046,2960.823768,-1850.514855,3983.696590
22413.177379,2368.659014,-8364.327145,7048.078582
22413.177712,4663.297435,-5329.482782,-3983.696590
22413.178046,-3552.988522,-11917.315666,-3064.381992
22413.178379,-3034.844362,-14211.954086,-8273.831378
22413.178712,-5477.523971,-13989.892304,-10112.460574
22413.179045,-4441.235652,-15322.262999,-6128.763984
22413.179378,1554.432478,-12731.542202,-1302.362347
22413.179711,-1258.350101,-10658.965565,-76.609550
22413.180044,592.164754,-3627.009116,6435.202183
22413.180377,4071.132681,-4811.338623,6128.763984
22413.180710,5921.647536,-9474.636058,15858.176809
22413.181043,3552.988522,-2960.823768,6971.469032
22413.181376,592.164754,-4811.338623,2451.505594
22413.181709,1258.350101,-11547.212695,-76.609550
22413.182043,1776.494261,-7179.997637,-5132.839837
22413.182376,0.000000,-15322.262999,-4366.744339
22413.182709,-2368.659014,-10140.821405,-8273.831378
22413.183042,-2072.576638,-16580.613101,-6511.811733
22413.183375,-1258.350101,-14804.118840,-4443.353888
22413.183708,-2960.823768,-11325.150913,612.876398
22413.184041,-1036.288319,-4515.256246,0.000000
22413.184374,-1628.453072,-8586.388927,4596.572988
22413.184707,3182.885551,-4219.173869,8580.269578
22413.185040,4071.132681,-3034.844362,6741.640382
22413.185373,6735.874072,-4737.318029,7584.345430
22413.185706,2664.741391,-6513.812290,3294.210641
22413.186040,-74.020594,-7476.080014,-1225.752797
22413.186373,0.000000,-7772.162391,-4903.011187
22413.186706,-370.102971,-17764.942608,-4979.620737
22413.187039,-2960.823768,-16136.489536,-4903.011187
22413.187372,-2590.720797,-11251.130318,-7737.564530
22413.187705,-4811.338623,-16284.530724,-2374.896044
22413.188038,2220.617826,-6439.791695,2834.553343
22413.188371,1110.308913,-8734.430116,5439.278036
22413.188704,5551.544565,-2072.576638,8503.660028
22413.189037,-740.205942,-8364.327145,5286.058936
22413.189370,1406.391290,-4589.276840,4213.525239
22413.189703,1924.535449,-5255.462188,3140.991542
22413.190037,-74.020594,-10362.883188,842.705048
22413.190370,-888.247130,-9474.636058,919.314598
22413.190703,-3034.844362,-10658.965565,-7124.688131
22413.191036,-5921.647536,-14285.974681,-8273.831378
22413.191369,-2368.659014,-13693.809927,-4290.134789
22413.191702,-3330.926739,-16284.530724,-2987.772442
22413.192035,2886.803174,-5329.482782,-2145.067394
22413.192368,2590.720797,-12731.542202,6741.640382
22413.192701,3552.988522,-4811.338623,3830.477490
22413.193034,3552.988522,-4811.338623,6128.763984
22413.193367,3552.988522,-10214.842000,5745.716235
22413.193701,3775.050304,-6513.812290,2068.457845
22413.194034,-1776.494261,-7476.080014,4903.011187
22413.194367,-74.020594,-11251.130318,-76.609550
22413.194700,-1184.329507,-5403.503377,-3677.258390
22413.195033,-4515.256246,-11843.295072,-5439.278036
22413.195366,-1184.329507,-10214.842000,-4596.572988
22413.195699,-5033.400406,-11843.295072,-3983.696590
22413.196032,-2072.576638,-9548.656652,-2298.286494
22413.196365,1702.473667,-13027.624579,-76.609550
22413.196698,3552.988522,-4219.173869,3677.258390
22413.197031,2960.823768,-5995.668130,5515.887586
22413.197364,7031.956449,-9326.594869,6052.154434
22413.197698,2368.659014,-9696.697840,4673.182538
22413.198031,3552.988522,-7328.038826,459.657299
22413.198364,2886.803174,-13323.706956,2374.896044
22413.198697,3256.906145,-8808.450710,153.219100
22413.199030,1110.308913,-12435.459826,-76.609550
22413.199363,-1850.514855,-6513.812290,-4060.306139
22413.199696,-6809.894666,-10732.986159,-3677.258390
22413.200029,-2442.679609,-9474.636058,-76.609550
22413.200362,-74.020594,-5181.441594,-536.266849
22413.200695,0.000000,-8660.409521,2374.896044
22413.201028,2442.679609,-5625.565159,4443.353888
22413.201361,-1628.453072,-8142.265362,3907.087040
22413.201695,6587.832884,-4441.235652,-76.609550
22413.202028,2886.803174,-12287.418637,3294.210641
22413.202361,-1332.370696,-13101.645173,-1762.019645
22413.202694,-2442.679609,-10436.903782,-7048.078582
22413.203027,-5329.482782,-16506.592507,-2757.943793
22413.203360,-4145.153275,-12213.398043,-4903.011187
22413.203693,592.164754,-5995.668130,3677.258390
22413.204026,-74.020594,-9474.636058,1915.238745
22413.204359,2368.659014,-666.185348,0.000000
22413.204692,-1036.288319,-8956.491898,7890.783629
22413.205025,1554.432478,-1258.350101,3830.477490
22413.205358,3552.988522,-8586.388927,5132.839837
22413.205692,2664.741391,-7994.224174,842.705048
22413.206025,0.000000,-11251.130318,-995.924147
22413.206358,-3627.009116,-13027.624579,-7431.126331
22413.206691,-3997.112087,-10732.986159,-7124.688131
22413.207024,-5995.668130,-17172.777854,-6665.030833
22413.207357,1480.411884,-7328.038826,0.000000
22413.207690,-3552.988522,-9548.656652,3677.258390
22413.208023,1998.556043,-10362.883188,4519.963438
22413.208356,4737.318029,-2738.761985,8733.488677
22413.208689,4071.132681,-5551.544565,7967.393179
22413.209022,9252.574275,-1110.308913,7124.688131
22413.209355,1924.535449,-10140.821405,2145.067394
22413.209689,4737.318029,-12509.480420,536.266849
22413.210022,1184.329507,-7772.162391,612.876398
22413.210355,-2368.659014,-12509.480420,-6205.373534
22413.210688,1110.308913,-10066.800811,-4979.620737
22413.211021,-10436.903782,-14211.954086,-9193.145976
22413.211354,-962.267725,-9326.594869,-6052.154434
22413.211687,-5181.441594,-12953.603985,536.266849
22413.212020,-5033.400406,-9178.553681,2298.286494
22413.212353,4515.256246,592.164754,6511.811733
22413.212686,1110.308913,-8882.471304,8503.660028
22413.213019,7105.977043,-3627.009116,9116.536426
22413.213352,592.164754,-8660.409521,5439.278036
22413.213686,2886.803174,-9844.739029,-2451.505594
22413.214019,0.000000,-11917.315666,-6128.763984
22413.214352,4219.173869,-13989.892304,0.000000
22413.214685,2886.803174,-12213.398043,-1991.848295
22413.215018,0.000000,-12583.501014,-3370.820191
22413.215351,-4145.153275,-12065.356855,-5209.449386
22413.215684,-4589.276840,-10732.986159,-3677.258390
22413.216017,592.164754,-6957.935855,6052.154434
22413.216350,3182.885551,-5921.647536,2681.334243
22413.216683,0.000000,-4811.338623,8886.707777
22413.217016,0.000000,-4367.215058,4290.134789
22413.217349,2072.576638,-4811.338623,3983.696590
22413.217683,2294.638420,-9030.512492,919.314598
22413.218016,3775.050304,-9252.574275,-612.876398
22413.218349,-1850.514855,-11843.295072,-3907.087040
22413.218682,-3034.844362,-11473.192101,-7967.393179
22413.219015,-1258.350101,-14211.954086,-4979.620737
22413.219348,296.082377,-10140.821405,-919.314598
22413.219681,1184.329507,-8956.491898,1915.238745
22413.220014,-222.061783,-10510.924376,2374.896044
22413.220347,518.144159,-7179.997637,1225.752797
22413.220680,592.164754,-5995.668130,2451.505594
22413.221013,2664.741391,-11843.295072,6052.154434
22413.221347,2738.761985,-2738.761985,7354.516781
22413.221680,1184.329507,-8068.244768,5439.278036
22413.222013,2368.659014,-5995.668130,4060.306139
22413.222346,-4145.153275,-10140.821405,-2145.067394
22413.222679,-3552.988522,-10732.986159,-5132.839837
22413.223012,-5995.668130,-13027.624579,-5132.839837
22413.223345,-3627.009116,-11399.171507,-6128.763984
22413.223678,-1776.494261,-8586.388927,-689.485948
22413.224011,-3923.091493,-11251.130318,-1915.238745
22413.224344,-2368.659014,-7179.997637,306.438199
22413.224677,-74.020594,-6513.812290,3600.648841
22413.225010,4145.153275,-7772.162391,3140.991542
22413.225344,3997.112087,-9178.553681,4826.401637
22413.225677,4737.318029,-12435.459826,2987.772442
22413.226010,3552.988522,-11917.315666,4903.011187
22413.226343,3256.906145,-9548.656652,1225.752797
22413.226676,4071.132681,-11843.295072,-3753.867940
22413.227009,-2368.659014,-8364.327145,0.000000
22413.227342,-5329.482782,-10732.986159,-4903.011187
22413.227675,-1036.288319,-8364.327145,-4749.792088
22413.228008,-4145.153275,-10881.027347,-995.924147
22413.228341,-1332.370696,-7402.059420,2374.896044
22413.228674,518.144159,-1998.556043,3600.648841
22413.229007,3478.967927,-7698.141797,-76.609550
22413.229341,3552.988522,-6143.709319,3217.601092
22413.229674,-370.102971,-11251.130318,-76.609550
22413.230007,0.000000,-11325.150913,0.000000
22413.230340,3775.050304,-11843.295072,-76.609550
22413.230673,2294.638420,-15396.283594,995.924147
22413.231006,3552.988522,-7846.182985,1302.362347
22413.231339,-222.061783,-10658.965565,-689.485948
22413.231672,592.164754,-9030.512492,-2221.676944
22413.232005,-2368.659014,-9548.656652,0.000000
22413.232338,6439.791695,-11843.295072,8197.221829
22413.232671,3849.070898,-1850.514855,8120.612279
22413.233004,3552.988522,-7031.956449,7277.907231
22413.233338,1110.308913,-5477.523971,0.000000
22413.233671,-2886.803174,-7994.224174,-1378.971896
22413.234004,1406.391290,-10658.965565,-536.266849
22413.234337,-3108.864956,-8512.368333,-5209.449386
22413.234670,-3256.906145,-14285.974681,-3983.696590
22413.235003,-6513.812290,-9548.656652,-4903.011187
22413.235336,-3627.009116,-9474.636058,-3140.991542
22413.235669,-814.226536,-9178.553681,-3294.210641
22413.236002,-2812.782580,-13101.645173,2451.505594
22413.236335,2516.700203,-6661.853478,1149.143247
22413.236668,2886.803174,-7772.162391,3447.429741
22413.237001,5181.441594,-9474.636058,11568.042020
22413.237335,5255.462188,-5921.647536,2374.896044
22413.237668,1184.329507,-10732.986159,6281.983084
22413.238001,3997.112087,-7698.141797,1455.581446
22413.238334,1110.308913,-9548.656652,-2451.505594
22413.238667,-2220.617826,-9770.718434,-2911.162892
22413.239000,-4515.256246,-10066.800811,-4979.620737
22413.239333,-6809.894666,-12509.480420,-2221.676944
22413.239666,0.000000,-5107.421000,0.000000
22413.239999,-4811.338623,-11843.295072,-2834.553343
22413.240332,-4737.318029,-5995.668130,-3600.648841
22413.240665,-4737.318029,-11473.192101,2834.553343
22413.240998,1998.556043,-6809.894666,2987.772442
22413.241332,2368.659014,-6291.750507,7048.078582
22413.241665,4145.153275,-7846.182985,5209.449386
22413.241998,4811.338623,-4885.359217,3064.381992
22413.242331,2368.659014,-10066.800811,1149.143247
22413.242664,4663.297435,-11695.253884,-842.705048
22413.242997,-74.020594,-11251.130318,-5132.839837
22413.243330,-1776.494261,-13989.892304,-3217.601092
22413.243663,3478.967927,-11843.295072,-2528.115143
22413.243996,-1554.432478,-11917.315666,306.438199
22413.244329,3256.906145,-5181.441594,842.705048
22413.244662,-1110.308913,-9992.780217,4673.182538
22413.244995,-888.247130,-7328.038826,842.705048
22413.245329,370.102971,-7105.977043,1455.581446
22413.245662,0.000000,-10066.800811,4519.963438
22413.245995,2368.659014,-1258.350101,0.000000
22413.246328,-888.247130,-11251.130318,3600.648841
22413.246661,518.144159,-6735.874072,-2145.067394
22413.246994,-2664.741391,-7772.162391,-7354.516781
22413.247327,1554.432478,-13915.871710,-2528.115143
22413.247660,1924.535449,-9548.656652,-2528.115143
22413.247993,-1036.288319,-11917.315666,-3677.258390
22413.248326,3034.844362,-11399.171507,-3447.429741
22413.248659,2664.741391,-13101.645173,2528.115143
22413.248993,7105.977043,-8142.265362,7584.345430
22413.249326,4959.379811,-5847.626942,4903.011187
22413.249659,1702.473667,-8290.306550,3830.477490
22413.249992,0.000000,-9696.697840,2757.943793
22413.250325,3182.885551,-8586.388927,6665.030833
22413.250658,-1554.432478,-5403.503377,0.000000
22413.250991,-2072.576638,-6587.832884,-2451.505594
22413.251324,-6439.791695,-8586.388927,-3753.867940
22413.251657,-6365.771101,-6439.791695,-7354.516781
22413.251990,-2442.679609,-11843.295072,-2528.115143
22413.252323,-1184.329507,-9252.574275,-995.924147
22413.252656,1110.308913,-11177.109724,459.657299
22413.252990,1702.473667,-7698.141797,1762.019645
22413.253323,2368.659014,-8364.327145,4060.306139
22413.253656,518.144159,-9548.656652,612.876398
22413.253989,7698.141797,-9992.780217,6358.592633
22413.254322,4663.297435,-15988.448347,4826.401637
22413.254655,4663.297435,-8882.471304,4060.306139
22413.254988,-814.226536,-7994.224174,-689.485948
22413.255321,-1776.494261,-9252.574275,612.876398
22413.255654,-3849.070898,-7328.038826,-1838.629195
22413.255987,-2294.638420,-5921.647536,-2298.286494
22413.256320,-2442.679609,-11843.295072,-1302.362347
22413.256653,-4737.318029,-7476.080014,0.000000
22413.256987,-296.082377,-7698.141797,2374.896044
22413.257320,-74.020594,-8586.388927,612.876398
22413.257653,1184.329507,-4811.338623,1225.752797
22413.257986,-3627.009116,-11769.274478,0.000000
22413.258319,-888.247130,-7846.182985,-459.657299
22413.258652,666.185348,-8734.430116,-3447.429741
22413.258985,1628.453072,-17172.777854,-229.828649
22413.259318,3182.885551,-8438.347739,1915.238745
22413.259651,1036.288319,-11251.130318,2068.457845
22413.259984,-74.020594,-13027.624579,-76.609550
22413.260317,0.000000,-3034.844362,0.000000
22413.260650,1998.556043,-13915.871710,3600.648841
22413.260984,6217.729913,-2442.679609,5515.887586
22413.261317,-888.247130,-9622.677246,2145.067394
22413.261650,1480.411884,-7550.100608,1685.410096
22413.261983,592.164754,-6069.688724,3370.820191
22413.262316,0.000000,-8956.491898,0.000000
22413.262649,4663.297435,-11843.295072,-4979.620737
22413.262982,-2294.638420,-11917.315666,-5515.887586
22413.263315,-4145.153275,-7179.997637,-7354.516781
22413.263648,-1258.350101,-15396.283594,-689.485948
22413.263981,296.082377,-9548.656652,1225.752797
22413.264314,-74.020594,-9622.677246,766.095498
22413.264647,5329.482782,-8290.306550,6588.421283
22413.264981,5107.421000,-4441.235652,5669.106685
22413.265314,2368.659014,-7179.997637,6435.202183
22413.265647,8216.285956,-4885.359217,4366.744339
22413.265980,5625.565159,-9252.574275,1915.238745
22413.266313,5033.400406,-9400.615463,-383.047749
22413.266646,1702.473667,-10658.965565,536.266849
22413.266979,-5625.565159,-10140.821405,-7967.393179
22413.267312,-4145.153275,-16284.530724,-3753.867940
22413.267645,-3923.091493,-9548.656652,-6128.763984
22413.267978,-3552.988522,-10807.006753,229.828649
22413.268311,-2442.679609,-8290.306550,3294.210641
22413.268644,-2442.679609,-7550.100608,1225.752797
22413.268978,-1702.473667,-7402.059420,6818.249932
22413.269311,3478.967927,-2516.700203,5362.668486
22413.269644,1776.494261,-5403.503377,2451.505594
22413.269977,0.000000,-7179.997637,1225.752797
22413.270310,-74.020594,-11251.130318,-2528.115143
22413.270643,0.000000,-7772.162391,-7048.078582
22413.270976,-2072.576638,-15174.221811,-3140.991542
22413.271309,-1628.453072,-11399.171507,-4519.963438
22413.271642,-2368.659014,-14063.912898,-2221.676944
22413.271975,-3182.885551,-9696.697840,-1532.190996
22413.272308,-4515.256246,-11103.089130,-3140.991542
22413.272641,1702.473667,-7105.977043,6818.249932
22413.272975,0.000000,-5995.668130,9116.536426
22413.273308,7031.956449,-2960.823768,6435.202183
22413.273641,-2368.659014,-6587.832884,6741.640382
22413.273974,2368.659014,-4737.318029,4826.401637
22413.274307,-1184.329507,-8068.244768,2451.505594
22413.274640,1406.391290,-7550.100608,-6128.763984
22413.274973,-74.020594,-15692.365970,-3677.258390
22413.275306,-4663.297435,-10362.883188,-9576.193725
22413.275639,-74.020594,-14211.954086,-6052.154434
22413.275972,-4145.153275,-16580.613101,-1302.362347
22413.276305,4885.359217,-6513.812290,-1302.362347
22413.276639,0.000000,-8364.327145,2145.067394
22413.276972,7031.956449,-10658.965565,4826.401637
22413.277305,5847.626942,-5921.647536,7890.783629
22413.277638,5773.606348,-4737.318029,7354.516781
22413.277971,5255.462188,-6883.915261,5898.935335
22413.278304,2516.700203,-7994.224174,2757.943793
22413.278637,0.000000,-7179.997637,-1225.752797
22413.278970,-74.020594,-9474.636058,-4366.744339
22413.279303,-4737.318029,-11621.233289,-6511.811733
22413.279635,-3627.009116,-13027.624579,-4979.620737
22413.279968,-4515.256246,-8364.327145,-7354.516781
22413.280301,-1850.514855,-11177.109724,-995.924147
22413.280634,0.000000,-9548.656652,3064.381992
22413.280967,4071.132681,-6809.894666,4826.401637
22413.281300,3552.988522,-7179.997637,5056.230287
22413.281633,2368.659014,-7772.162391,2757.943793
22413.281966,5847.626942,-10510.924376,1532.190996
22413.282299,2368.659014,-11917.315666,4290.134789
22413.282632,5699.585753,-5921.647536,2987.772442
22413.282965,-5921.647536,-15470.304188,-2604.724693
22413.283298,-3552.988522,-8364.327145,0.000000
22413.283631,-5403.503377,-9474.636058,-5745.716235
22413.283964,0.000000,-3923.091493,0.000000
22413.284296,-74.020594,-9474.636058,1455.581446
22413.284629,-2442.679609,-12731.542202,-76.609550
22413.284962,0.000000,-2960.823768,-1915.238745
22413.285295,-3627.009116,-12731.542202,-229.828649
22413.285628,3404.947333,-7846.182985,-995.924147
22413.285961,2294.638420,-10881.027347,3064.381992
22413.286294,1702.473667,-13841.851115,2987.772442
22413.286627,814.226536,-6661.853478,-3983.696590
22413.286960,-1776.494261,-10732.986159,1225.752797
22413.287293,2294.638420,-8882.471304,1149.143247
22413.287626,740.205942,-2442.679609,1225.752797
22413.287959,-2368.659014,-14804.118840,-76.609550
22413.288292,0.000000,-7476.080014,-1225.752797
22413.288625,-3108.864956,-12213.398043,-1991.848295
22413.288957,6143.709319,-6069.688724,6358.592633
22413.289290,3478.967927,-7105.977043,2374.896044
22413.289623,4071.132681,-5403.503377,1225.752797
22413.289956,0.000000,-11399.171507,2374.896044
22413.290289,-74.020594,-11843.295072,-76.609550
22413.290622,962.267725,-10807.006753,-612.876398
22413.290955,-666.185348,-9104.533087,-2528.115143
22413.291288,-148.041188,-10066.800811,459.657299
22413.291621,-3923.091493,-7698.141797,-1915.238745
22413.291954,-1776.494261,-7476.080014,-1838.629195
22413.292287,-5625.565159,-7772.162391,-1838.629195
22413.292620,2368.659014,-9104.533087,3677.258390
22413.292953,5255.462188,-7698.141797,1149.143247
22413.293286,1850.514855,-12213.398043,2451.505594
22413.293618,2368.659014,-8956.491898,7814.174080
22413.293951,4367.215058,-9474.636058,1608.800546
22413.294284,4145.153275,-8956.491898,4213.525239
22413.294617,888.247130,-7254.018232,-842.705048
22413.294950,-3256.906145,-8956.491898,-4903.011187
22413.295283,-2368.659014,-13989.892304,-6665.030833
22413.295616,0.000000,-10140.821405,-842.705048
22413.295949,-2960.823768,-9548.656652,-1455.581446
22413.296282,0.000000,-9030.512492,229.828649
22413.296615,-4219.173869,-8290.306550,-1302.362347
22413.296948,222.061783,-12435.459826,2987.772442
22413.297281,2368.659014,-3627.009116,5515.887586
22413.297614,4515.256246,-7698.141797,6052.154434
22413.297947,4663.297435,-8734.430116,4519.963438
22413.298279,3182.885551,-5921.647536,4826.401637
22413.298612,3849.070898,-8290.306550,1149.143247
22413.298945,-1110.308913,-11843.295072,-3600.648841
22413.299278,-666.185348,-12361.439231,-6665.030833
22413.299611,-3997.112087,-15396.283594,-10035.851024
22413.299944,1480.411884,-10510.924376,1608.800546
22413.300277,-4145.153275,-7772.162391,2451.505594
22413.300610,-74.020594,-8290.306550,2374.896044
22413.300943,222.061783,-8882.471304,4213.525239
22413.301276,0.000000,-6291.750507,3983.696590
22413.301609,4663.297435,-7105.977043,6971.469032
22413.301942,-222.061783,-4737.318029,4519.963438
22413.302275,2664.741391,-6809.894666,2374.896044
22413.302608,2220.617826,-4959.379811,1532.190996
22413.302940,-2886.803174,-13619.789333,-3140.991542
22413.303273,1258.350101,-9474.636058,-6818.249932
22413.303606,-5403.503377,-14804.118840,-9346.365076
22413.303939,-3552.988522,-13101.645173,-9499.584175
22413.304272,-148.041188,-17320.819043,4213.525239
22413.304605,0.000000,-7179.997637,3217.601092
22413.304938,5847.626942,-8882.471304,8350.440928
22413.305271,1628.453072,0.000000,9729.412825
22413.305604,2812.782580,-4663.297435,2374.896044
22413.305937,3552.988522,-9992.780217,9193.145976
22413.306270,7031.956449,-4293.194464,1225.752797
22413.306603,-2368.659014,-10881.027347,-3064.381992
22413.306936,1924.535449,-13619.789333,-1302.362347
22413.307269,-6661.853478,-7772.162391,-12257.527968
22413.307601,-3701.029710,-18653.189738,-4979.620737
22413.307934,888.247130,-6735.874072,-4519.963438
22413.308267,-4589.276840,-12361.439231,-2757.943793
22413.308600,-370.102971,-12287.418637,1149.143247
22413.308933,4071.132681,-7698.141797,7277.907231
22413.309266,1184.329507,-2442.679609,7967.393179
22413.309599,9992.780217,-2960.823768,7890.783629
22413.309932,2368.659014,-7179.997637,2451.505594
22413.310265,0.000000,-9548.656652,0.000000
22413.310598,1702.473667,-10658.965565,-1915.238745
22413.310931,-3108.864956,-13175.665768,-4673.182538
22413.311264,-2368.659014,-15396.283594,-5592.497135
22413.311597,-370.102971,-10362.883188,-4060.306139
22413.311930,-1628.453072,-13027.624579,-76.609550
22413.312262,2812.782580,-5329.482782,689.485948
22413.312595,-3701.029710,-9326.594869,1991.848295
22413.312928,3404.947333,-4367.215058,3524.039291
22413.313261,6217.729913,-3182.885551,8120.612279
22413.313594,4663.297435,-11251.130318,4826.401637
22413.313927,2368.659014,-5995.668130,2451.505594
22413.314260,-4145.153275,-13323.706956,-76.609550
22413.314593,-962.267725,-11621.233289,-5515.887586
22413.314926,-4441.235652,-8956.491898,-4290.134789
22413.315259,-1998.556043,-12509.480420,-3524.039291
22413.315592,0.000000,-10881.027347,1149.143247
22413.315925,-1184.329507,-6883.915261,-2451.505594
22413.316258,1998.556043,-10658.965565,2987.772442
22413.316591,3182.885551,-4219.173869,3294.210641
22413.316923,2368.659014,-10436.903782,7890.783629
22413.317256,4663.297435,-6513.812290,4903.011187
22413.317589,1998.556043,-4219.173869,1225.752797
22413.317922,-1258.350101,-8882.471304,-2528.115143
22413.318255,-1110.308913,-13693.809927,-1149.143247
22413.318588,-370.102971,-7550.100608,-2451.505594
22413.318921,-148.041188,-10658.965565,-612.876398
22413.319254,-1628.453072,-11103.089130,-1225.752797
22413.319587,-3627.009116,-8660.409521,-4903.011187
22413.319920,-4737.318029,-11325.150913,-76.609550
22413.320253,1110.308913,-8290.306550,-1149.143247
22413.320586,0.000000,-4219.173869,612.876398
22413.320919,1184.329507,-7772.162391,4290.134789
22413.321252,4071.132681,-3552.988522,2987.772442
22413.321584,-888.247130,-12731.542202,1762.019645
22413.321917,4145.153275,-8364.327145,153.219100
22413.322250,4071.132681,-8882.471304,1149.143247
22413.322583,0.000000,-7476.080014,0.000000
22413.322916,1110.308913,-9918.759623,-3600.648841
22413.323249,-666.185348,-15396.283594,-3983.696590
22413.323582,-1776.494261,-11769.274478,2374.896044
22413.323915,-74.020594,-5773.606348,-76.609550
22413.324248,1036.288319,-10436.903782,2374.896044
22413.324581,-5921.647536,-9844.739029,2451.505594
22413.324914,-296.082377,-5847.626942,995.924147
22413.325247,-1036.288319,-8290.306550,2374.896044
22413.325580,2146.597232,-9474.636058,3600.648841
22413.325912,814.226536,-5995.668130,-1838.629195
22413.326245,1924.535449,-11843.295072,4826.401637
22413.326578,3478.967927,-5921.647536,-3753.867940
22413.326911,-74.020594,-10362.883188,-2528.115143
22413.327244,1702.473667,-13323.706956,-2528.115143
22413.327577,-1110.308913,-13989.892304,-2604.724693
22413.327910,5255.462188,-8660.409521,0.000000
22413.328243,666.185348,-13101.645173,0.000000
22413.328576,222.061783,-9474.636058,4519.963438
22413.328909,0.000000,-6883.915261,2987.772442
22413.329242,222.061783,-8512.368333,5362.668486
22413.329575,5403.503377,-4737.318029,3294.210641
22413.329908,-1110.308913,-7772.162391,4290.134789
22413.330241,1628.453072,-4441.235652,2834.553343
22413.330573,-74.020594,-7105.977043,-689.485948
22413.330906,0.000000,-4811.338623,0.000000
22413.331239,-1924.535449,-14804.118840,-4366.744339
22413.331572,-666.185348,-9474.636058,-8580.269578
22413.331905,-4811.338623,-15988.448347,-8656.879127
22413.332238,-1702.473667,-14730.098246,-2911.162892
22413.332571,0.000000,-8956.491898,-612.876398
22413.332904,0.000000,-10140.821405,4903.011187
22413.333237,7550.100608,-8290.306550,7277.907231
22413.333570,3552.988522,-4811.338623,9806.022374
22413.333903,8216.285956,-9474.636058,9729.412825
22413.334236,4367.215058,-5921.647536,3600.648841
22413.334569,592.164754,-7476.080014,2451.505594
22413.334902,3923.091493,-6513.812290,1838.629195
22413.335234,2146.597232,-7402.059420,-2221.676944
22413.335567,-3701.029710,-10584.944971,-5745.716235
22413.335900,-7179.997637,-14211.954086,-7737.564530
22413.336233,-3627.009116,-13027.624579,-7431.126331
22413.336566,-8882.471304,-13101.645173,-306.438199
22413.336899,-4811.338623,-12287.418637,-76.609550
22413.337232,-74.020594,-7994.224174,2987.772442
22413.337565,-222.061783,-8290.306550,8503.660028
22413.337898,4737.318029,-2516.700203,4903.011187
22413.338231,3478.967927,-10510.924376,7048.078582
22413.338564,7994.224174,-7179.997637,4903.011187
22413.338897,1184.329507,-9548.656652,-1378.971896
22413.339230,2294.638420,-11695.253884,-995.924147
22413.339563,-3552.988522,-8956.491898,-4903.011187
22413.339895,-74.020594,-13619.789333,-2834.553343
22413.340228,-1628.453072,-7476.080014,-6128.763984
22413.340561,-814.226536,-9474.636058,-76.609550
22413.340894,-3182.885551,-11029.068536,229.828649
22413.341227,370.102971,-2738.761985,1532.190996
22413.341560,-2146.597232,-6809.894666,3447.429741
22413.341893,2368.659014,-5995.668130,2451.505594
22413.342226,-1480.411884,-11325.150913,6435.202183
22413.342559,-74.020594,-7698.141797,-76.609550
22413.342892,1702.473667,-8290.306550,-1072.533697
22413.343225,-4737.318029,-8956.491898,-1991.848295
22413.343558,-2072.576638,-10362.883188,-2528.115143
22413.343891,0.000000,-10510.924376,-459.657299
22413.344224,3034.844362,-8882.471304,-612.876398
22413.344556,-1998.556043,-12435.459826,-2681.334243
22413.344889,3997.112087,-11103.089130,-76.609550
22413.345222,2146.597232,-8660.409521,1838.629195
22413.345555,4959.379811,-9548.656652,4903.011187
22413.345888,5329.482782,-5477.523971,4136.915689
22413.346221,962.267725,-12879.583391,842.705048
22413.346554,4071.132681,-11103.089130,5515.887586
22413.346887,296.082377,-6587.832884,0.000000
22413.347220,444.123565,-9474.636058,-76.609550
22413.347553,-2738.761985,-6217.729913,-1532.190996
22413.347886,-9326.594869,-4219.173869,-5822.325785
22413.348219,-1702.473667,-10066.800811,-1302.362347
22413.348552,-4811.338623,-8882.471304,-4979.620737
22413.348885,-518.144159,-10955.047942,-1532.190996
22413.349217,2294.638420,-7846.182985,3600.648841
22413.349550,2590.720797,-9474.636058,842.705048
22413.349883,2368.659014,-10732.986159,2374.896044
22413.350216,7920.203579,-14211.954086,2987.772442
22413.350549,4219.173869,-10732.986159,3677.258390
22413.350882,7105.977043,-9400.615463,4596.572988
22413.351215,814.226536,-13397.727550,1225.752797
22413.351548,-296.082377,-8142.265362,-2528.115143
22413.351881,-2886.803174,-5551.544565,-995.924147
22413.352214,-2738.761985,-7624.121203,459.657299
22413.352547,592.164754,-4959.379811,-1838.629195
22413.352880,-3552.988522,-10584.944971,4213.525239
22413.353213,-1850.514855,-5625.565159,-4443.353888
22413.353546,-3849.070898,-7179.997637,0.000000
22413.353878,-3997.112087,-12435.459826,-76.609550
22413.354211,3108.864956,-2590.720797,612.876398
22413.354544,222.061783,-12435.459826,3907.087040
22413.354877,5477.523971,-5773.606348,766.095498
22413.355210,-148.041188,-12879.583391,842.705048
22413.355543,1702.473667,-5107.421000,-3140.991542
22413.355876,1110.308913,-15396.283594,-1302.362347
22413.356209,-7624.121203,-14285.974681,-3677.258390
22413.356542,2072.576638,-7698.141797,2451.505594
22413.356875,-4811.338623,-15988.448347,-1915.238745
22413.357208,5329.482782,-6587.832884,8656.879127
22413.357541,3182.885551,-2368.659014,3907.087040
22413.357874,5255.462188,-6513.812290,7277.907231
22413.358207,3997.112087,-4737.318029,2528.115143
22413.358539,-74.020594,-11843.295072,1455.581446
22413.358872,-1332.370696,-11621.233289,-2834.553343
22413.359205,-4219.173869,-9474.636058,-6052.154434
22413.359538,-3849.070898,-10436.903782,-8273.831378
22413.359871,-5255.462188,-11917.315666,-4213.525239
22413.360204,-1998.556043,-6587.832884,-2451.505594
22413.360537,-4219.173869,-13027.624579,-689.485948
22413.360870,-1554.432478,-7105.977043,1762.019645
22413.361203,0.000000,-4811.338623,4903.011187
22413.361536,6217.729913,-8586.388927,9729.412825
22413.361869,5625.565159,-5773.606348,11644.651570
22413.362202,5477.523971,-4145.153275,3524.039291
22413.362535,3997.112087,-11547.212695,3830.477490
22413.362868,2664.741391,-8364.327145,-612.876398
22413.363200,1702.473667,-11695.253884,-6128.763984
22413.363533,-2442.679609,-13027.624579,-7124.688131
22413.363866,-5773.606348,-10140.821405,-11951.089769
22413.364199,-10658.965565,-17838.963202,-2145.067394
22413.364532,-1184.329507,-8068.244768,1225.752797
22413.364865,-1628.453072,-3330.926739,-1378.971896
22413.365198,-370.102971,-8734.430116,6281.983084
22413.365531,3923.091493,-3849.070898,7048.078582
22413.365864,2294.638420,-8882.471304,6971.469032
22413.366197,3552.988522,-3034.844362,4903.011187
22413.366530,3478.967927,-7105.977043,-1302.362347
22413.366863,1184.329507,-10732.986159,3370.820191
22413.367196,4589.276840,-7105.977043,-1915.238745
22413.367529,-2738.761985,-15396.283594,-7431.126331
22413.367861,-3034.844362,-11843.295072,-9269.755526
22413.368194,-2220.617826,-11769.274478,-7431.126331
22413.368527,-4219.173869,-19319.375086,766.095498
22413.368860,4663.297435,-3330.926739,6818.249932
22413.369193,-74.020594,-10066.800811,8197.221829
22413.369526,4737.318029,-74.020594,10418.898773
22413.369859,-4737.318029,-6291.750507,8273.831378
22413.370192,4071.132681,-5329.482782,3600.648841
22413.370525,888.247130,-2738.761985,153.219100
22413.370858,-2146.597232,-11399.171507,-4060.306139
22413.371191,-2368.659014,-11325.150913,-3983.696590
22413.371524,-7476.080014,-12509.480420,-8886.707777
22413.371857,-814.226536,-11251.130318,-7584.345430
22413.372190,-1258.350101,-10362.883188,-4366.744339
22413.372522,1184.329507,-10732.986159,-766.095498
22413.372855,-1850.514855,-14211.954086,-76.609550
22413.373188,4663.297435,-8290.306550,4903.011187
22413.373521,2368.659014,-5995.668130,6741.640382
22413.373854,9104.533087,-4737.318029,11491.432470
22413.374187,4071.132681,-6661.853478,4213.525239
22413.374520,1332.370696,-7772.162391,2757.943793
22413.374853,-2516.700203,-10214.842000,766.095498
22413.375186,-74.020594,-5921.647536,-2987.772442
22413.375519,-3404.947333,-8660.409521,-6205.373534
22413.375852,-5477.523971,-12953.603985,-5439.278036
22413.376185,-2886.803174,-7476.080014,-5898.935335
22413.376518,-4737.318029,-13397.727550,-3677.258390
22413.376851,1998.556043,-9474.636058,536.266849
22413.377183,-1480.411884,-5403.503377,-2221.676944
22413.377516,2960.823768,-13693.809927,11644.651570
22413.377849,7920.203579,-1776.494261,7584.345430
22413.378182,0.000000,-8364.327145,4290.134789
22413.378515,4219.173869,-7328.038826,3370.820191
22413.378848,296.082377,-12435.459826,153.219100
22413.379181,2072.576638,-11621.233289,-459.657299
22413.379514,3478.967927,-9474.636058,-2681.334243
22413.379847,-666.185348,-12435.459826,-2834.553343
22413.380180,0.000000,-6291.750507,-919.314598
22413.380513,-2368.659014,-9548.656652,1072.533697
22413.380846,4071.132681,-8290.306550,-383.047749
22413.381179,-1258.350101,-9622.677246,3600.648841
22413.381507,296.082377,-5551.544565,1532.190996
22413.381840,-2960.823768,-10140.821405,-536.266849
22413.382173,-814.226536,-11843.295072,995.924147
22413.382506,1776.494261,-10140.821405,3830.477490
22413.382839,-666.185348,-7179.997637,-3677.258390
22413.383172,1776.494261,-10066.800811,-1302.362347
22413.383505,-3256.906145,-11029.068536,2681.334243
22413.383838,3478.967927,-7105.977043,-1608.800546
22413.384171,0.000000,-5995.668130,-1838.629195
22413.384504,0.000000,-13397.727550,5745.716235
22413.384837,2294.638420,-7105.977043,1762.019645
22413.385170,1924.535449,-9548.656652,5056.230287
22413.385503,5847.626942,-5329.482782,2374.896044
22413.385836,0.000000,-8364.327145,1991.848295
22413.386169,-74.020594,-12435.459826,-383.047749
22413.386502,-74.020594,-9252.574275,-2145.067394
22413.386835,-2960.823768,-10732.986159,-4903.011187
22413.387168,-3108.864956,-13027.624579,-459.657299
22413.387501,-1702.473667,-7031.956449,-4290.134789
22413.387834,-1110.308913,-13397.727550,-229.828649
22413.388167,592.164754,-7105.977043,2911.162892
22413.388500,-2220.617826,-5551.544565,0.000000
22413.388833,1998.556043,-9474.636058,1762.019645
22413.389166,2368.659014,-6291.750507,6128.763984
22413.389499,6143.709319,-10955.047942,6052.154434
22413.389832,6735.874072,-5995.668130,2451.505594
22413.390165,1110.308913,-12139.377449,-1915.238745
22413.390498,2886.803174,-13767.830521,612.876398
22413.390831,2738.761985,-8290.306550,-1302.362347
22413.391164,1924.535449,-10658.965565,-612.876398
22413.391497,-3256.906145,-9548.656652,-2451.505594
22413.391830,-2442.679609,-10362.883188,-1915.238745
22413.392163,-6809.894666,-10214.842000,-1608.800546
22413.392496,-2368.659014,-3182.885551,-383.047749
22413.392829,-3923.091493,-7920.203579,1532.190996
22413.393162,-370.102971,-5921.647536,2374.896044
22413.393495,3404.947333,-4737.318029,4826.401637
22413.393828,-370.102971,-9548.656652,1225.752797
22413.394161,4737.318029,-7476.080014,2681.334243
22413.394494,2590.720797,-12731.542202,459.657299
22413.394827,5181.441594,-10732.986159,-4290.134789
22413.395160,1332.370696,-14285.974681,-842.705048
22413.395493,2442.679609,-10510.924376,-3217.601092
22413.395826,-1258.350101,-13027.624579,-2068.457845
22413.396159,-2368.659014,-8068.244768,0.000000
22413.396492,3478.967927,-8290.306550,-76.609550
22413.396825,-1776.494261,-7698.141797,3294.210641
22413.397158,0.000000,-4811.338623,4903.011187
22413.397491,-74.020594,-7698.141797,3600.648841
22413.397824,0.000000,-4811.338623,5515.887586
22413.398157,1702.473667,-4441.235652,2145.067394
22413.398490,1998.556043,-9918.759623,-383.047749
22413.398823,2146.597232,-7624.121203,-1915.238745
22413.399156,-3034.844362,-14211.954086,-5592.497135
22413.399489,-74.020594,-13027.624579,-8044.002729
22413.399822,-1776.494261,-13249.686362,-2911.162892
22413.400155,0.000000,-12509.480420,1225.752797
22413.400488,2294.638420,-7105.977043,536.266849
22413.400821,222.061783,-9474.636058,1455.581446
22413.401154,-592.164754,-9918.759623,3983.696590
22413.401487,5181.441594,-3849.070898,6588.421283
22413.401820,3552.988522,-9474.636058,5898.935335
22413.402153,4219.173869,-8882.471304,3830.477490
22413.402486,0.000000,-8364.327145,3064.381992
22413.402819,1480.411884,-4219.173869,1072.533697
22413.403152,1110.308913,-10362.883188,-76.609550
22413.403485,-2442.679609,-7105.977043,-8580.269578
22413.403818,-1480.411884,-12731.542202,-6818.249932
22413.404151,-6069.688724,-11917.315666,-4213.525239
22413.404484,-3034.844362,-9622.677246,-7124.688131
22413.404817,-5625.565159,-9696.697840,0.000000
22413.405150,-1480.411884,-8882.471304,689.485948
22413.405483,1184.329507,-8216.285956,4290.134789
22413.405816,2072.576638,-7920.203579,5975.544884
22413.406149,4071.132681,-6661.853478,4673.182538
22413.406482,3552.988522,-11029.068536,4443.353888
22413.406816,9400.615463,-11547.212695,3600.648841
22413.407149,2590.720797,-11917.315666,4903.011187
22413.407482,7105.977043,-5329.482782,4213.525239
22413.407815,-74.020594,-8882.471304,-3907.087040
22413.408148,-4737.318029,-11621.233289,-4596.572988
22413.408481,-3330.926739,-8734.430116,-6511.811733
22413.408814,-1702.473667,-8364.327145,-2451.505594
22413.409147,-1184.329507,-10881.027347,0.000000
22413.409480,518.144159,-8290.306550,2987.772442
22413.409813,-4737.318029,-10732.986159,5132.839837
22413.410146,-1258.350101,-1258.350101,1225.752797
22413.410479,1998.556043,-9474.636058,4826.401637
22413.410812,4663.297435,-8882.471304,2987.772442
22413.411145,3478.967927,-8512.368333,4826.401637
22413.411478,-1850.514855,-9474.636058,-2528.115143
22413.411811,2442.679609,-7624.121203,-3140.991542
22413.412144,-2664.741391,-12583.501014,-995.924147
22413.412477,2664.741391,-7179.997637,-4749.792088
22413.412810,-74.020594,-17172.777854,-689.485948
22413.413143,592.164754,-9548.656652,-3677.258390
22413.413476,1776.494261,-13027.624579,6052.154434
22413.413809,5255.462188,-4811.338623,6128.763984
22413.414142,4737.318029,-4811.338623,5209.449386
22413.414475,1554.432478,-7994.224174,3983.696590
22413.414808,3330.926739,-5033.400406,2068.457845
22413.415141,-4663.297435,-9104.533087,-2298.286494
22413.415474,-2590.720797,-11991.336260,-3064.381992
22413.415807,-5847.626942,-6735.874072,-6818.249932
22413.416140,-1776.494261,-11843.295072,-2528.115143
22413.416473,-1258.350101,-10658.965565,-2528.115143
22413.416806,-3330.926739,-10140.821405,-4903.011187
22413.417139,-2664.741391,-11177.109724,3524.039291
22413.417472,148.041188,-5773.606348,1838.629195
22413.417805,4145.153275,-12805.562797,5439.278036
22413.418138,9400.615463,-7105.977043,11031.775171
22413.418471,4737.318029,-8512.368333,6205.373534
22413.418804,2368.659014,-5995.668130,4903.011187
22413.419137,2294.638420,-9474.636058,-1608.800546
22413.419470,0.000000,-9548.656652,-3064.381992
22413.419803,-6513.812290,-10140.821405,-3677.258390
22413.420136,-74.020594,-10658.965565,-3753.867940
22413.420469,-6513.812290,-10140.821405,-4290.134789
22413.420802,-2294.638420,-7105.977043,-766.095498
22413.421135,-3701.029710,-9474.636058,1149.143247
22413.421468,-1332.370696,-9474.636058,3294.210641
22413.421801,0.000000,-9548.656652,5515.887586
22413.422134,666.185348,-4737.318029,1762.019645
22413.422467,3997.112087,-9992.780217,4903.011187
22413.422800,888.247130,-7920.203579,2145.067394
22413.423133,4663.297435,-9178.553681,1762.019645
22413.423466,1184.329507,-4811.338623,0.000000
22413.423799,1702.473667,-10658.965565,-4979.620737
22413.424132,-666.185348,-11029.068536,-7814.174080
22413.424465,-3552.988522,-10732.986159,-4979.620737
22413.424798,2294.638420,-10955.047942,-1302.362347
22413.425131,1258.350101,-12805.562797,4903.011187
22413.425464,3182.885551,-9178.553681,5592.497135
22413.425797,3330.926739,-8216.285956,6205.373534
22413.426130,0.000000,-6587.832884,1838.629195
22413.426463,0.000000,-7179.997637,3064.381992
22413.426796,2294.638420,-10362.883188,2068.457845
22413.427129,0.000000,-2442.679609,-3370.820191
22413.427462,-4737.318029,-13989.892304,-689.485948
22413.427795,-3034.844362,-6365.771101,-4060.306139
22413.428128,-3182.885551,-6513.812290,-3524.039291
22413.428461,-2368.659014,-8142.265362,-4060.306139
22413.428794,1110.308913,-6735.874072,-3217.601092
22413.429127,-1184.329507,-15248.242405,-2298.286494
22413.429460,2368.659014,-10732.986159,7354.516781
22413.429793,5847.626942,-9474.636058,4826.401637
22413.430126,2072.576638,-11917.315666,7354.516781
22413.430459,7402.059420,-3627.009116,7890.783629
22413.430792,1258.350101,-10214.842000,0.000000
22413.431125,962.267725,-11547.212695,2068.457845
22413.431458,-296.082377,-8956.491898,-3217.601092
22413.431791,-5033.400406,-13767.830521,-3064.381992
22413.432124,-1850.514855,-7698.141797,-4366.744339
22413.432457,-4737.318029,-9474.636058,-1302.362347
22413.432790,-5329.482782,-4145.153275,-3753.867940
22413.433123,0.000000,-5995.668130,306.438199
22413.433456,2738.761985,-10066.800811,4826.401637
22413.433789,4663.297435,-7105.977043,3600.648841
22413.434122,1406.391290,-7476.080014,6588.421283
22413.434455,-666.185348,-8438.347739,842.705048
22413.434788,962.267725,-12879.583391,-2757.943793
22413.435121,0.000000,-11325.150913,0.000000
22413.435454,4071.132681,-10658.965565,-6818.249932
22413.435787,0.000000,-13989.892304,4673.182538
22413.436120,2294.638420,-8882.471304,1762.019645
22413.436453,2294.638420,-6513.812290,-383.047749
22413.436786,-1998.556043,-6217.729913,3294.210641
22413.437119,740.205942,-4737.318029,-2451.505594
22413.437453,0.000000,-10214.842000,3370.820191
22413.437786,-74.020594,-7402.059420,1149.143247
22413.438119,0.000000,-9548.656652,612.876398
22413.438452,-74.020594,-10658.965565,1072.533697
22413.438785,2664.741391,-9252.574275,-536.266849
22413.439118,-1480.411884,-12435.459826,-76.609550
22413.439451,-3256.906145,-10288.862594,-4903.011187
22413.439784,-4737.318029,-11029.068536,-6128.763984
22413.440117,1998.556043,-13027.624579,-1302.362347
22413.440450,1702.473667,-9548.656652,4903.011187
22413.440783,1184.329507,-4145.153275,5745.716235
22413.441116,3478.967927,-5921.647536,4826.401637
22413.441449,296.082377,-3775.050304,1225.752797
22413.441782,2294.638420,-9326.594869,1149.143247
22413.442115,5107.421000,-7846.182985,1378.971896
22413.442448,1776.494261,-13915.871710,-2528.115143
22413.442781,-444.123565,-14063.912898,-1302.362347
22413.443114,-1850.514855,-13027.624579,-4596.572988
22413.443447,-1184.329507,-10732.986159,-4903.011187
22413.443780,-3034.844362,-13027.624579,-3140.991542
22413.444113,-666.185348,-8808.450710,-1072.533697
22413.444446,-2960.823768,-8216.285956,4826.401637
22413.444779,-3849.070898,-5477.523971,3830.477490
22413.445112,4441.235652,-2072.576638,6052.154434
22413.445445,148.041188,-6957.935855,2987.772442
22413.445778,9400.615463,-5921.647536,5439.278036
22413.446111,-74.020594,-9178.553681,-4903.011187
22413.446444,5255.462188,-14211.954086,-2528.115143
22413.446777,1110.308913,-16580.613101,-2528.115143
22413.447110,-962.267725,-9696.697840,-4903.011187
22413.447443,3478.967927,-10658.965565,-1302.362347
22413.447776,-1110.308913,-11029.068536,-3447.429741
22413.448109,1110.308913,-13323.706956,5056.230287
22413.448442,0.000000,-3330.926739,4903.011187
22413.448775,-1776.494261,-6883.915261,3064.381992
22413.449108,-2960.823768,-4219.173869,4903.011187
22413.449441,0.000000,-8216.285956,3600.648841
22413.449774,-1850.514855,-7179.997637,919.314598
22413.450107,-1776.494261,-7772.162391,612.876398
22413.450440,-4219.173869,-11547.212695,-6205.373534
22413.450773,-888.247130,-11399.171507,-2834.553343
22413.451106,518.144159,-9474.636058,-3447.429741
22413.451439,1184.329507,-10214.842000,-229.828649
22413.451772,2960.823768,-3034.844362,-2298.286494
22413.452105,0.000000,-13767.830521,-1608.800546
22413.452438,666.185348,-11695.253884,1762.019645
22413.452771,2294.638420,-8364.327145,1991.848295
22413.453104,3182.885551,-13619.789333,4826.401637
22413.453437,2294.638420,-9474.636058,6052.154434
22413.453770,-6513.812290,-8364.327145,-2451.505594
22413.454103,4441.235652,-7105.977043,4826.401637
22413.454436,-1258.350101,-7698.141797,-1532.190996
22413.454769,7994.224174,-7031.956449,4749.792088
22413.455102,0.000000,-9178.553681,2221.676944
22413.455435,-1406.391290,-8364.327145,-1225.752797
22413.455768,-2072.576638,-9696.697840,-2757.943793
22413.456101,-2368.659014,-6809.894666,-6665.030833
22413.456434,-888.247130,-11029.068536,-3140.991542
22413.456767,-5921.647536,-8364.327145,-4903.011187
22413.457100,592.164754,-13323.706956,1149.143247
22413.457433,-2590.720797,-10658.965565,1149.143247
22413.457766,1184.329507,-9326.594869,3447.429741
22413.458099,3478.967927,-6513.812290,6665.030833
22413.458432,4071.132681,-7920.203579,6205.373534
22413.458765,6661.853478,-6513.812290,6435.202183
22413.459098,3997.112087,-9252.574275,5132.839837
22413.459431,4071.132681,-6513.812290,-689.485948
22413.459764,1332.370696,-10362.883188,-76.609550
22413.460097,-74.020594,-10658.965565,-3907.087040
22413.460430,-1480.411884,-11325.150913,-3370.820191
22413.460763,-3552.988522,-10288.862594,-2757.943793
22413.461096,-6883.915261,-11325.150913,-7354.516781
22413.461429,-4515.256246,-10658.965565,-3753.867940
22413.461762,-1110.308913,-10955.047942,1378.971896
22413.462095,592.164754,-6735.874072,3753.867940
22413.462428,-2220.617826,-7179.997637,4903.011187
22413.462761,-74.020594,-6513.812290,2374.896044
22413.463094,1702.473667,-7698.141797,1149.143247
22413.463427,2368.659014,-6291.750507,4290.134789
22413.463760,10288.862594,-10658.965565,2374.896044
22413.464093,0.000000,-12065.356855,1685.410096
22413.464426,1628.453072,-5921.647536,-4519.963438
22413.464759,-5329.482782,-14730.098246,-7354.516781
22413.465092,1924.535449,-6439.791695,-1838.629195
22413.465425,-1036.288319,-11769.274478,-842.705048
22413.465758,-74.020594,-10658.965565,-689.485948
22413.466091,-2368.659014,-14285.974681,4903.011187
22413.466424,-74.020594,0.000000,4826.401637
22413.466757,2294.638420,-16580.613101,9116.536426
22413.467090,1184.329507,-2590.720797,3294.210641
22413.467423,0.000000,-1998.556043,-919.314598
22413.467757,-4663.297435,-17542.880825,-1455.581446
22413.468090,-592.164754,-23020.404796,229.828649
22413.468423,5921.647536,8216.285956,-2451.505594
22413.468756,5033.400406,-592.164754,-1991.848295
22413.469089,-740.205942,-10362.883188,-306.438199
22413.469422,-4811.338623,-17468.860231,536.266849
22413.469755,-4515.256246,-13397.727550,612.876398
22413.470088,0.000000,-16062.468941,3677.258390
22413.470421,5255.462188,-7698.141797,-1302.362347
22413.470754,11473.192101,-6513.812290,2451.505594
22413.471087,9474.636058,-3923.091493,6052.154434
22413.471420,3478.967927,-8290.306550,4826.401637
22413.471753,-4145.153275,-9548.656652,-1762.019645
22413.472086,-2516.700203,-9178.553681,-76.609550
22413.472419,-5477.523971,-4811.338623,-1608.800546
22413.472752,296.082377,-3923.091493,0.000000
22413.473085,-5921.647536,-9548.656652,5515.887586
22413.473418,-2442.679609,-4145.153275,-995.924147
22413.473751,592.164754,-3627.009116,-3064.381992
22413.474084,592.164754,-16358.551318,5439.278036
22413.474417,3108.864956,-13397.727550,919.314598
22413.474750,888.247130,-16506.592507,306.438199
22413.475083,3478.967927,-17172.777854,-1915.238745
22413.475416,-592.164754,-15692.365970,1685.410096
22413.475749,4663.297435,-8290.306550,-76.609550
22413.476082,0.000000,-11325.150913,3600.648841
22413.476415,-1258.350101,-6587.832884,-3677.258390
22413.476748,296.082377,-4367.215058,-1915.238745
22413.477081,-1258.350101,-9474.636058,1149.143247
22413.477414,2146.597232,-4737.318029,-76.609550
22413.477747,1554.432478,-9474.636058,-1915.238745
22413.478080,888.247130,-11769.274478,-306.438199
22413.478413,222.061783,-9400.615463,-5898.935335
22413.478746,-5921.647536,-13249.686362,-7967.393179
22413.479079,1110.308913,-13027.624579,-3753.867940
22413.479412,-3552.988522,-8364.327145,-2451.505594
22413.479745,0.000000,-5107.421000,3064.381992
22413.480078,-1850.514855,-8290.306550,2374.896044
22413.480411,-1702.473667,-4145.153275,1149.143247
22413.480744,-1776.494261,-5699.585753,3677.258390
22413.481077,2368.659014,-4515.256246,6358.592633
22413.481410,1628.453072,-7105.977043,4826.401637
22413.481743,2960.823768,-7772.162391,4903.011187
22413.482076,2294.638420,-11177.109724,0.000000
22413.482409,1776.494261,-12583.501014,4826.401637
22413.482742,4663.297435,-10658.965565,2374.896044
22413.483075,740.205942,-10140.821405,0.000000
22413.483408,2664.741391,-8438.347739,2834.553343
22413.483741,-2368.659014,-7920.203579,-76.609550
22413.484074,-74.020594,-6957.935855,-76.609550
22413.484407,-2886.803174,-2442.679609,-2298.286494
22413.484740,-3849.070898,-9696.697840,1455.581446
22413.485073,-74.020594,-8512.368333,1149.143247
22413.485406,-1258.350101,-10066.800811,1915.238745
22413.485739,-962.267725,-10214.842000,842.705048
22413.486072,2664.741391,-8512.368333,842.705048
22413.486405,5329.482782,-11177.109724,4596.572988
22413.486738,7624.121203,-11103.089130,0.000000
22413.487071,7698.141797,-13545.768739,7660.954980
22413.487404,5551.544565,-9474.636058,-1915.238745
22413.487737,0.000000,-12213.398043,-1685.410096
22413.488070,-2072.576638,-8660.409521,-1225.752797
22413.488403,1406.391290,-5551.544565,-4903.011187
22413.488736,-4663.297435,-12805.562797,-2145.067394
22413.489069,-3627.009116,-9770.718434,-3370.820191
22413.489402,-7179.997637,-15396.283594,-3753.867940
22413.489735,-74.020594,-8734.430116,-1302.362347
22413.490068,1184.329507,-7772.162391,3753.867940
22413.490401,4737.318029,-7179.997637,7277.907231
22413.490734,4071.132681,-9474.636058,5132.839837
22413.491067,4367.215058,-7476.080014,-76.609550
22413.491400,3034.844362,-9548.656652,1072.533697
22413.491734,2146.597232,-8734.430116,-459.657299
22413.492067,2442.679609,-8068.244768,-1991.848295
22413.492400,-4737.318029,-9548.656652,-4749.792088
22413.492733,-74.020594,-9548.656652,-9806.022374
22413.493066,-4145.153275,-12287.418637,2374.896044
22413.493399,-2442.679609,-7105.977043,-1608.800546
22413.493732,-962.267725,-6883.915261,2451.505594
22413.494065,-1332.370696,-7179.997637,6358.592633
22413.494398,740.205942,-3330.926739,5592.497135
22413.494731,740.205942,-6291.750507,9499.584175
22413.495064,-74.020594,-5107.421000,1302.362347
22413.495397,3627.009116,-10955.047942,3524.039291
22413.495730,-1776.494261,-9844.739029,612.876398
22413.496063,-74.020594,-11547.212695,-3447.429741
22413.496396,-5403.503377,-12805.562797,-8427.050478
22413.496729,-1184.329507,-9548.656652,-4903.011187
22413.497062,-1184.329507,-10881.027347,-2451.505594
22413.497395,3478.967927,-10362.883188,1302.362347
22413.497728,-74.020594,-9918.759623,4979.620737
22413.498061,666.185348,-6735.874072,4060.306139
22413.498394,5255.462188,-10362.883188,10648.727422
22413.498727,2664.741391,-6957.935855,9729.412825
22413.499060,740.205942,-4219.173869,4903.011187
22413.499393,592.164754,-5995.668130,0.000000
22413.499726,2294.638420,-13027.624579,-1302.362347
22413.500059,-1776.494261,-10288.862594,-8580.269578
22413.500392,-4367.215058,-11843.295072,-9882.631924
22413.500725,-4219.173869,-13915.871710,-11031.775171
22413.501058,-2590.720797,-13027.624579,-7431.126331
22413.501391,-666.185348,-9474.636058,-2221.676944
22413.501724,1406.391290,-9918.759623,-229.828649
22413.502057,2294.638420,-8882.471304,5056.230287
22413.502390,8216.285956,-7994.224174,10495.508323
22413.502723,6439.791695,-7105.977043,11568.042020
22413.503056,5847.626942,-6513.812290,5745.716235
22413.503389,2664.741391,-10140.821405,4903.011187
22413.503722,1702.473667,-11843.295072,-76.609550
22413.504055,0.000000,-7772.162391,-6741.640382
22413.504388,-4737.318029,-12509.480420,-4903.011187
22413.504721,-666.185348,-7698.141797,-7584.345430
22413.505054,-3182.885551,-10214.842000,-4673.182538
22413.505387,-3182.885551,-11251.130318,-995.924147
22413.505720,-2516.700203,-5921.647536,-842.705048
22413.506053,-3256.906145,-8364.327145,2757.943793
22413.506386,3108.864956,-8290.306550,7277.907231
22413.506719,-222.061783,-8290.306550,2987.772442
22413.507052,0.000000,-10732.986159,5515.887586
22413.507385,6735.874072,-8290.306550,6052.154434
22413.507718,-1554.432478,-8364.327145,612.876398
22413.508051,4663.297435,-7105.977043,842.705048
22413.508384,-4219.173869,-9400.615463,-4903.011187
22413.508717,1406.391290,-9400.615463,-5669.106685
22413.509050,0.000000,-14285.974681,766.095498
22413.509383,2294.638420,-10658.965565,-76.609550
22413.509716,0.000000,-7179.997637,2451.505594
22413.510049,-4737.318029,-6587.832884,6128.763984
22413.510383,4071.132681,-4737.318029,1762.019645
22413.510716,0.000000,-9252.574275,1915.238745
22413.511049,2590.720797,-8882.471304,2145.067394
22413.511382,-2812.782580,-11473.192101,-2145.067394
22413.511715,-740.205942,-11843.295072,1149.143247
22413.512048,-1850.514855,-11103.089130,-76.609550
22413.512381,-3552.988522,-7772.162391,-6741.640382
22413.512714,0.000000,-7624.121203,1608.800546
22413.513047,-74.020594,-8290.306550,-2145.067394
22413.513380,1776.494261,-2442.679609,0.000000
22413.513713,4145.153275,-7105.977043,5898.935335
22413.514046,1924.535449,-7772.162391,1302.362347
22413.514379,2886.803174,-11547.212695,3447.429741
22413.514712,1998.556043,-12879.583391,2604.724693
22413.515045,1998.556043,-12435.459826,-689.485948
22413.515378,0.000000,-14285.974681,-2451.505594
22413.515711,740.205942,-10066.800811,1532.190996
22413.516044,-1924.535449,-7179.997637,-1378.971896
22413.516377,0.000000,-5995.668130,1225.752797
22413.516710,0.000000,-4811.338623,2681.334243
22413.517043,-2442.679609,-7105.977043,-842.705048
22413.517376,-4367.215058,-2442.679609,-1838.629195
22413.517709,-6809.894666,-8364.327145,-4979.620737
22413.518042,0.000000,-6587.832884,0.000000
22413.518375,2368.659014,-12509.480420,5439.278036
22413.518708,1924.535449,-11917.315666,1225.752797
22413.519041,1850.514855,-11029.068536,229.828649
22413.519374,-74.020594,-12953.603985,-1608.800546
22413.519707,5033.400406,-5995.668130,2068.457845
22413.520040,6439.791695,-9474.636058,1455.581446
22413.520373,592.164754,-10732.986159,3447.429741
22413.520706,2294.638420,-9030.512492,3294.210641
22413.521039,-1258.350101,-9474.636058,3294.210641
22413.521372,296.082377,-5625.565159,4826.401637
22413.521705,-2294.638420,-4959.379811,-3524.039291
22413.522038,-1258.350101,-11473.192101,-1378.971896
22413.522371,-1332.370696,-10214.842000,-1302.362347
22413.522704,-1184.329507,-12065.356855,1072.533697
22413.523037,-4145.153275,-11917.315666,0.000000
22413.523370,5921.647536,-9326.594869,2374.896044
22413.523703,1110.308913,-11621.233289,842.705048
22413.524036,5625.565159,-3849.070898,2451.505594
22413.524369,-370.102971,-8290.306550,-2374.896044
22413.524702,-1776.494261,-9548.656652,-2145.067394
22413.525035,296.082377,-8956.491898,153.219100
22413.525368,-1554.432478,-11547.212695,-1072.533697
22413.525701,3478.967927,-9474.636058,-76.609550
22413.526034,-4145.153275,-14285.974681,2068.457845
22413.526367,2960.823768,-8290.306550,5439.278036
22413.526700,2294.638420,-7994.224174,0.000000
22413.527033,2368.659014,-9548.656652,7354.516781
22413.527366,2220.617826,-6217.729913,2145.067394
22413.527699,148.041188,-12065.356855,3677.258390
22413.528032,-2590.720797,-7105.977043,-383.047749
22413.528365,-4663.297435,-7179.997637,-6435.202183
22413.528698,-2960.823768,-5995.668130,-5822.325785
22413.529032,1036.288319,-8290.306550,-2528.115143
22413.529365,-2590.720797,-9548.656652,-3677.258390
22413.529698,-4737.318029,-9548.656652,0.000000
22413.530031,-1628.453072,-13323.706956,-383.047749
22413.530364,1184.329507,-8956.491898,3064.381992
22413.530697,4959.379811,-12583.501014,6281.983084
22413.531030,5477.523971,-10658.965565,9269.755526
22413.531363,6957.935855,-3182.885551,4903.011187
22413.531696,2886.803174,-8956.491898,3064.381992
22413.532029,2220.617826,-8512.368333,2681.334243
22413.532362,592.164754,-3997.112087,-1532.190996
22413.532695,-3256.906145,-9326.594869,-5898.935335
22413.533028,-1258.350101,-10658.965565,-4366.744339
22413.533361,-9104.533087,-10732.986159,-7660.954980
22413.533694,-3997.112087,-9548.656652,-4903.011187
22413.534027,-74.020594,-11843.295072,-1915.238745
22413.534360,1406.391290,-5699.585753,1685.410096
22413.534693,2368.659014,-8956.491898,7201.297681
22413.535026,3775.050304,-6587.832884,5822.325785
22413.535359,814.226536,-10140.821405,3140.991542
22413.535692,2812.782580,-11251.130318,6205.373534
22413.536025,1406.391290,-9548.656652,3983.696590
22413.536358,1110.308913,-6883.915261,0.000000
22413.536691,2294.638420,-10658.965565,-76.609550
22413.537024,-3627.009116,-8290.306550,-6205.373534
22413.537357,-2812.782580,-7476.080014,-6128.763984
22413.537690,-3627.009116,-12731.542202,-4366.744339
22413.538023,1184.329507,-11917.315666,-3217.601092
22413.538356,-3478.967927,-13101.645173,7660.954980
22413.538689,2220.617826,-1776.494261,2221.676944
22413.539022,0.000000,-10140.821405,4290.134789
22413.539355,4219.173869,-4219.173869,4290.134789
22413.539688,8216.285956,-7105.977043,1762.019645
22413.540021,-3552.988522,-12213.398043,1225.752797
22413.540354,1184.329507,-11325.150913,-2681.334243
22413.540687,-12139.377449,-14285.974681,-9806.022374
22413.541020,-370.102971,-9178.553681,-2604.724693
22413.541353,-3108.864956,-9696.697840,-1762.019645
22413.541686,1924.535449,-5403.503377,-612.876398
22413.542019,2294.638420,-6513.812290,3600.648841
22413.542352,1776.494261,-5995.668130,4136.915689
22413.542685,7624.121203,-8290.306550,4826.401637
22413.543018,3552.988522,-10732.986159,12257.527968
22413.543351,9400.615463,-5625.565159,2374.896044
22413.543684,-74.020594,-16210.510130,2221.676944
22413.544017,444.123565,-9474.636058,-5745.716235
22413.544350,-4663.297435,-12213.398043,-9499.584175
22413.544683,-3478.967927,-11917.315666,-4903.011187
22413.545016,-4293.194464,-9548.656652,-4290.134789
22413.545349,-1850.514855,-10658.965565,-76.609550
22413.545682,-1184.329507,-4219.173869,3983.696590
22413.546015,-4737.318029,-5107.421000,3370.820191
22413.546348,2294.638420,-6217.729913,4903.011187
22413.546681,5847.626942,-4737.318029,7890.783629
22413.547014,8216.285956,-7550.100608,5745.716235
22413.547347,3997.112087,-9104.533087,4136.915689
22413.547680,1924.535449,-10214.842000,-3140.991542
22413.548014,-3552.988522,-9844.739029,-6435.202183
22413.548347,1110.308913,-14211.954086,-4979.620737
22413.548680,-2146.597232,-13619.789333,-5439.278036
22413.549013,-1406.391290,-11843.295072,-4749.792088
22413.549346,-1850.514855,-9548.656652,689.485948
22413.549679,-3108.864956,-5107.421000,1991.848295
22413.550012,1406.391290,-5625.565159,4826.401637
22413.550345,2886.803174,-2516.700203,2451.505594
22413.550678,2368.659014,-10140.821405,7277.907231
22413.551011,1998.556043,-10955.047942,7431.126331
22413.551344,-666.185348,-11029.068536,0.000000
22413.551677,-296.082377,-11473.192101,-229.828649
22413.552010,740.205942,-9104.533087,-1532.190996
22413.552343,2220.617826,-6365.771101,-3294.210641
22413.552676,-4145.153275,-9844.739029,-4290.134789
22413.553009,-74.020594,-9474.636058,-5592.497135
22413.553342,-5329.482782,-8364.327145,-4290.134789
22413.553675,0.000000,-8364.327145,766.095498
22413.554008,-1554.432478,-13619.789333,3600.648841
22413.554341,-1776.494261,-8364.327145,3830.477490
22413.554674,-666.185348,-9548.656652,3830.477490
22413.555007,-740.205942,-7476.080014,1838.629195
22413.555340,-3330.926739,-11991.336260,3677.258390
22413.555673,-74.020594,-10362.883188,3600.648841
22413.556006,-74.020594,-9474.636058,1149.143247
22413.556339,-5921.647536,-7179.997637,612.876398
22413.556672,-4737.318029,-6291.750507,-76.609550
22413.557005,-7179.997637,-5921.647536,-3907.087040
22413.557338,-4737.318029,-8290.306550,-76.609550
22413.557671,-7698.141797,-4959.379811,-3447.429741
22413.558004,-8956.491898,-11251.130318,-4979.620737
22413.558337,-8512.368333,-13767.830521,-1302.362347
22413.558670,-6735.874072,-11695.253884,0.000000
22413.559003,-4737.318029,-8364.327145,0.000000
22413.559336,-4737.318029,-13101.645173,6894.859482
22413.559669,-370.102971,-7402.059420,4519.963438
22413.560002,-1628.453072,-5403.503377,2451.505594
22413.560335,-814.226536,-8290.306550,2987.772442
22413.560668,-3256.906145,-4071.132681,1532.190996
22413.561001,-7179.997637,-8808.450710,-2987.772442
22413.561334,-2886.803174,-7105.977043,-2145.067394
22413.561667,-8956.491898,-10955.047942,-7124.688131
22413.562000,-6217.729913,-10732.986159,-383.047749
22413.562333,-4811.338623,-10510.924376,-766.095498
22413.562666,-4959.379811,-12805.562797,-229.828649
22413.562999,-5921.647536,-13397.727550,6741.640382
22413.563332,-7179.997637,-9474.636058,1149.143247
22413.563665,-2442.679609,-7698.141797,2451.505594
22413.563998,-5329.482782,-8364.327145,4903.011187
22413.564331,-4737.318029,-8586.388927,4213.525239
22413.564664,-7550.100608,-4959.379811,0.000000
22413.564997,-7846.182985,-10362.883188,-2374.896044
22413.565330,-10140.821405,-8290.306550,-4060.306139
22413.565663,-8660.409521,-11103.089130,-3753.867940
22413.565996,-6735.874072,-10658.965565,-2528.115143
22413.566329,-7105.977043,-13101.645173,2987.772442
22413.566663,-5403.503377,-9548.656652,2757.943793
22413.566996,-4737.318029,-7179.997637,5362.668486
22413.567329,-7105.977043,-11029.068536,5439.278036
22413.567662,-4811.338623,-9326.594869,2374.896044
22413.567995,-7994.224174,-9474.636058,1608.800546
22413.568328,-9844.739029,-10288.862594,-842.705048
22413.568661,-10955.047942,-8216.285956,-1685.410096
22413.568994,-11695.253884,-8068.244768,-1762.019645
22413.569327,-8660.409521,-6809.894666,-2528.115143
22413.569660,-12731.542202,-8956.491898,-3064.381992
22413.569993,-14804.118840,-10881.027347,-3753.867940
22413.570326,-10732.986159,-8512.368333,-1685.410096
22413.570659,-10658.965565,-9548.656652,1378.971896
22413.570992,-1702.473667,-7031.956449,5745.716235
22413.571325,-3701.029710,-9770.718434,5439.278036
22413.571658,-4515.256246,-8216.285956,2987.772442
22413.571991,-8586.388927,-12065.356855,2528.115143
22413.572324,-8956.491898,-8512.368333,-2834.553343
22413.572657,-7402.059420,-10510.924376,-76.609550
22413.572990,-13101.645173,-16432.571912,-1915.238745
22413.573323,-9548.656652,-5921.647536,-5515.887586
22413.573656,-12879.583391,-8364.327145,-2451.505594
22413.573989,-10362.883188,-8364.327145,612.876398
22413.574322,-9400.615463,-8364.327145,2221.676944
22413.574655,-10658.965565,-11843.295072,1072.533697
22413.574988,-6069.688724,-7624.121203,4060.306139
22413.575321,-11843.295072,-10140.821405,5515.887586
22413.575654,-2442.679609,-8290.306550,4213.525239
22413.575987,-8068.244768,-9622.677246,3294.210641
22413.576320,-10732.986159,-7179.997637,0.000000
22413.576653,-11399.171507,-11399.171507,-76.609550
22413.576986,-16136.489536,-11917.315666,-3524.039291
22413.577319,-13397.727550,-7994.224174,-3830.477490
22413.577652,-14211.954086,-7328.038826,-766.095498
22413.577985,-12287.418637,-7550.100608,-1608.800546
22413.578318,-12435.459826,-6587.832884,306.438199
22413.578651,-8364.327145,-9474.636058,2374.896044
22413.578984,-4811.338623,-8438.347739,3830.477490
22413.579317,-7179.997637,-13027.624579,5286.058936
22413.579650,-4811.338623,-8882.471304,1762.019645
22413.579983,-8290.306550,-10732.986159,2604.724693
22413.580316,-4219.173869,-9474.636058,-76.609550
22413.580649,-5403.503377,-10362.883188,-1608.800546
22413.580982,-13027.624579,-9548.656652,-3370.820191
22413.581315,-10732.986159,-11843.295072,-2834.553343
22413.581648,-13101.645173,-9474.636058,-3217.601092
22413.581981,-10140.821405,-7920.203579,-919.314598
22413.582314,-8882.471304,-7624.121203,1991.848295
22413.582647,-8290.306550,-6291.750507,2451.505594
22413.582980,-10658.965565,-8364.327145,2451.505594
22413.583313,-6587.832884,-10658.965565,1762.019645
22413.583646,-6587.832884,-9992.780217,2681.334243
22413.583979,-9326.594869,-7772.162391,0.000000
22413.584312,-10658.965565,-10955.047942,-612.876398
22413.584645,-10881.027347,-12435.459826,-2528.115143
22413.584978,-10510.924376,-10140.821405,-1455.581446
22413.585311,-10288.862594,-8438.347739,-1149.143247
22413.585644,-9770.718434,-8290.306550,0.000000
22413.585977,-10955.047942,-6291.750507,1838.629195
22413.586310,-7179.997637,-8882.471304,-76.609550
22413.586643,-7846.182985,-8364.327145,2757.943793
22413.586976,-8142.265362,-11917.315666,4136.915689
22413.587309,-5773.606348,-10288.862594,612.876398
22413.587642,-7698.141797,-11695.253884,76.609550
22413.587975,-8142.265362,-9844.739029,-612.876398
22413.588308,-8734.430116,-10140.821405,-76.609550
22413.588641,-11917.315666,-10362.883188,-2528.115143
22413.588974,-13027.624579,-9474.636058,-383.047749
22413.589307,-13619.789333,-7698.141797,-2221.676944
22413.589640,-11843.295072,-4219.173869,0.000000
22413.589973,-8142.265362,-7105.977043,4213.525239
22413.590306,-5403.503377,-7105.977043,2987.772442
22413.590639,-7179.997637,-7476.080014,2451.505594
22413.590972,-7402.059420,-12879.583391,2221.676944
22413.591305,-9104.533087,-13767.830521,-536.266849
22413.591638,-11547.212695,-11917.315666,0.000000
22413.591971,-6291.750507,-12731.542202,-383.047749
22413.592304,-8882.471304,-8956.491898,3064.381992
22413.592637,-5329.482782,-8068.244768,4826.401637
22413.592970,-7772.162391,-4737.318029,-383.047749
22413.593303,-11029.068536,-5921.647536,-76.609550
22413.593636,-12657.521608,-7550.100608,-2068.457845
22413.593969,-15174.221811,-11621.233289,-2145.067394
22413.594302,-15100.201217,-11325.150913,-1685.410096
22413.594635,-14211.954086,-10140.821405,0.000000
22413.594968,-8068.244768,-8882.471304,2911.162892
22413.595301,-5847.626942,-6809.894666,4136.915689
22413.595634,-6291.750507,-6291.750507,2145.067394
22413.595967,-5403.503377,-8882.471304,1608.800546
22413.596300,-8882.471304,-9548.656652,0.000000
22413.596633,-6587.832884,-12435.459826,-689.485948
22413.596966,-10140.821405,-10658.965565,-5362.668486
22413.597299,-13619.789333,-10732.986159,-3907.087040
22413.597632,-13249.686362,-11843.295072,-4979.620737
22413.597965,-16062.468941,-10140.821405,-3677.258390
22413.598298,-13915.871710,-10955.047942,766.095498
22413.598631,-10732.986159,-9178.553681,5669.106685
22413.598964,-5107.421000,-6587.832884,10342.289223
22413.599297,-1776.494261,-4293.194464,12870.404366
22413.599630,-74.020594,-3552.988522,7277.907231
22413.599963,0.000000,-2738.761985,1225.752797
22413.600296,-2368.659014,-9844.739029,-76.609550
22413.600629,-5995.668130,-12139.377449,-9269.755526
22413.600962,-11251.130318,-15174.221811,-11261.603821
22413.601295,-11917.315666,-14285.974681,-13176.842566
22413.601628,-9252.574275,-13027.624579,-6894.859482
22413.601961,-6809.894666,-10066.800811,-2221.676944
22413.602294,-2590.720797,-8882.471304,3600.648841
22413.602627,-666.185348,-3034.844362,7354.516781
22413.602960,2960.823768,-6957.935855,14325.985813
22413.603293,4663.297435,-8882.471304,12793.794817
22413.603626,740.205942,-5995.668130,8580.269578
22413.603959,1998.556043,-9474.636058,4826.401637
22413.604292,-888.247130,-10584.944971,-76.609550
22413.604625,-1924.535449,-10510.924376,-3140.991542
22413.604958,-6143.709319,-11917.315666,-6741.640382
22413.605291,-9326.594869,-11917.315666,-8273.831378
22413.605624,-9400.615463,-11843.295072,-2528.115143
22413.605957,-7179.997637,-9474.636058,-2528.115143
22413.606290,-7031.956449,-7179.997637,2451.505594
22413.606623,-5921.647536,-6587.832884,9422.974625
22413.606956,-1258.350101,-5921.647536,9269.755526
22413.607289,-296.082377,-7994.224174,11874.480219
22413.607622,0.000000,-8364.327145,10495.508323
22413.607955,370.102971,-10955.047942,9193.145976
22413.608288,296.082377,-10584.944971,7354.516781
22413.608621,-74.020594,-10362.883188,2834.553343
22413.608954,-4737.318029,-8364.327145,-995.924147
22413.609287,-7105.977043,-8660.409521,0.000000
22413.609620,-5255.462188,-11843.295072,4213.525239
22413.609953,-4811.338623,-11843.295072,4213.525239
22413.610286,-7698.141797,-10288.862594,9729.412825
22413.610619,-5995.668130,-9104.533087,10801.946522
22413.610952,-3404.947333,-8364.327145,16164.615008
22413.611285,-1480.411884,-8068.244768,19612.044749
22413.611618,74.020594,-7328.038826,19688.654299
22413.611951,814.226536,-9474.636058,19535.435199
22413.612284,0.000000,-9104.533087,18922.558801
22413.612617,-1258.350101,-7772.162391,15168.690860
22413.612950,-3997.112087,-8364.327145,12257.527968
22413.613283,-4811.338623,-8290.306550,10342.289223
22413.613616,-5625.565159,-7772.162391,16930.710506
22413.613949,-1258.350101,-5625.565159,17083.929605
22413.614282,-74.020594,-4737.318029,19535.435199
22413.614615,0.000000,-6587.832884,23212.693589
22413.614948,0.000000,-5699.585753,21757.112143
22413.615281,666.185348,-7772.162391,20837.797546
22413.615614,1998.556043,-10955.047942,22293.378992
22413.615947,3478.967927,-11843.295072,24438.446386
22413.616280,592.164754,-7772.162391,26889.951980
22413.616613,3478.967927,-10658.965565,25664.199183
22413.616946,1702.473667,-2664.741391,18079.853753
22413.617279,0.000000,-4811.338623,20837.797546
22413.617612,4663.297435,-2960.823768,19612.044749
22413.617945,1628.453072,-3256.906145,20071.702048
22413.618278,518.144159,-3997.112087,16471.053207
22413.618611,0.000000,-3404.947333,14709.033562
22413.618944,-1628.453072,-7179.997637,14709.033562
22413.619277,2960.823768,-13397.727550,19535.435199
22413.619610,-74.020594,-12435.459826,18309.682402
22413.619943,-666.185348,-9474.636058,16854.100956
22413.620276,-814.226536,-5921.647536,18309.682402
22413.620609,888.247130,-5107.421000,17160.539155
22413.620942,2738.761985,-4737.318029,16700.881856
22413.621275,0.000000,-6069.688724,14938.862211
22413.621608,-1554.432478,-5033.400406,10495.508323
22413.621941,-3849.070898,-6069.688724,7048.078582
22413.622274,-3034.844362,-9474.636058,3600.648841
22413.622607,-2738.761985,-9844.739029,2451.505594
22413.622940,296.082377,-13471.748144,6128.763984
22413.623273,2960.823768,-11843.295072,9729.412825
22413.623606,1184.329507,-10140.821405,8886.707777
22413.623939,1554.432478,-10362.883188,9806.022374
22413.624272,-592.164754,-8956.491898,7660.954980
22413.624605,-814.226536,-9548.656652,6741.640382
22413.624938,-74.020594,-9326.594869,6435.202183
22413.625271,-1480.411884,-7624.121203,3753.867940
22413.625604,-1776.494261,-7031.956449,3217.601092
22413.625937,-2294.638420,-8660.409521,2451.505594
22413.626270,-3330.926739,-9548.656652,536.266849
22413.626603,-2368.659014,-9548.656652,2757.943793
22413.626936,3256.906145,-13027.624579,5745.716235
22413.627269,4663.297435,-11843.295072,4826.401637
22413.627602,3404.947333,-9548.656652,3677.258390
22413.627935,3478.967927,-10955.047942,5132.839837
22413.628268,2516.700203,-7476.080014,4903.011187
22413.628601,2146.597232,-9474.636058,5056.230287
22413.628934,1036.288319,-11325.150913,4290.134789
22413.629267,-1184.329507,-11325.150913,4903.011187
22413.629600,-1850.514855,-5403.503377,0.000000
22413.629933,-74.020594,-3256.906145,-689.485948
22413.630266,-2664.741391,-4811.338623,612.876398
22413.630599,0.000000,-9104.533087,3907.087040
22413.630932,-888.247130,-12065.356855,3677.258390
22413.631265,1258.350101,-13841.851115,6818.249932
22413.631598,1184.329507,-8068.244768,6128.763984
22413.631931,3775.050304,-8068.244768,7890.783629
22413.632264,4071.132681,-5921.647536,7277.907231
22413.632597,1184.329507,-7476.080014,5515.887586
22413.632930,1110.308913,-11843.295072,2987.772442
22413.633263,-3330.926739,-7476.080014,1225.752797
22413.633596,-1554.432478,-11843.295072,4826.401637
22413.633930,-1850.514855,-4737.318029,842.705048
22413.634263,-2368.659014,-10955.047942,2374.896044
22413.634596,-2368.659014,-11325.150913,4749.792088
22413.634929,-740.205942,-12139.377449,6588.421283
22413.635262,814.226536,-11177.109724,8273.831378
22413.635595,2368.659014,-9548.656652,12180.918418
22413.635928,370.102971,-7179.997637,10112.460574
22413.636261,-2368.659014,-4811.338623,10418.898773
22413.636594,1702.473667,-8290.306550,5439.278036
22413.636927,0.000000,-11029.068536,6511.811733
22413.637260,-74.020594,-11251.130318,8503.660028
22413.637593,-814.226536,-10807.006753,9116.536426
22413.637926,-74.020594,-6661.853478,10342.289223
22413.638259,-444.123565,-8512.368333,11568.042020
22413.638592,-74.020594,-10658.965565,12180.918418
22413.638925,0.000000,-11325.150913,17160.539155
22413.639258,3923.091493,-12731.542202,19535.435199
22413.639591,2886.803174,-3330.926739,14709.033562
22413.639924,0.000000,-4811.338623,15934.786358
22413.640257,2886.803174,-7698.141797,19075.777900
22413.640590,1258.350101,-8216.285956,20224.921147
22413.640923,1036.288319,-4441.235652,18769.339701
22413.641256,518.144159,-4589.276840,14632.424012
22413.641589,1110.308913,-5921.647536,15551.738609
22413.641922,-814.226536,-4737.318029,16394.443657
22413.642255,-2442.679609,-3034.844362,12410.747068
22413.642588,-2738.761985,-7698.141797,11568.042020
22413.642921,-1776.494261,-11325.150913,19612.044749
22413.643254,2294.638420,-9178.553681,21910.331243
22413.643587,592.164754,-4811.338623,17773.415554
22413.643920,2368.659014,-7031.956449,22293.378992
22413.644253,2886.803174,-8290.306550,20071.702048
22413.644586,2368.659014,-3627.009116,20837.797546
22413.644919,-74.020594,-6217.729913,16624.272307
22413.645252,-2516.700203,-6069.688724,13866.328514
22413.645585,-3108.864956,-4441.235652,10418.898773
22413.645918,-666.185348,-6513.812290,10342.289223
22413.646251,-74.020594,-7105.977043,8810.098227
22413.646584,-3552.988522,-13101.645173,15934.786358
22413.646917,0.000000,-11029.068536,20454.749797
22413.647250,-74.020594,-3256.906145,13253.452115
22413.647583,1998.556043,-5107.421000,13559.890315
22413.647916,4071.132681,-6883.915261,13023.623466
22413.648249,2738.761985,-12287.418637,14555.814462
22413.648582,2812.782580,-11177.109724,15704.957709
22413.648915,-1480.411884,-1850.514855,6435.202183
22413.649248,518.144159,-2146.597232,0.000000
22413.649581,2442.679609,-9474.636058,5439.278036
22413.649914,-1258.350101,-9918.759623,689.485948
22413.650247,-2220.617826,-8364.327145,-3677.258390
22413.650580,-3849.070898,-10732.986159,-689.485948
22413.650913,-2664.741391,-14063.912898,-76.609550
22413.651246,1776.494261,-7846.182985,2681.334243
22413.651579,2960.823768,-9622.677246,4213.525239
22413.651912,5255.462188,-10658.965565,4826.401637
22413.652245,2368.659014,-7772.162391,3370.820191
22413.652578,4663.297435,-11843.295072,2068.457845
22413.652911,4663.297435,-13619.789333,1225.752797
22413.653244,1184.329507,-15248.242405,2451.505594
22413.653577,592.164754,-4737.318029,-5822.325785
22413.653910,-3627.009116,-4515.256246,-13100.233016
22413.654243,-888.247130,-13397.727550,-5592.497135
22413.654576,518.144159,-9770.718434,-2528.115143
22413.654909,-3330.926739,-7254.018232,-9576.193725
22413.655242,592.164754,-11547.212695,-8044.002729
22413.655575,-1850.514855,-14285.974681,-6128.763984
22413.655908,1184.329507,-14285.974681,2451.505594
22413.656241,3478.967927,-9474.636058,-995.924147
22413.656574,2960.823768,-5033.400406,-6128.763984
22413.656907,2146.597232,-4737.318029,-9269.755526
22413.657240,3552.988522,-14656.077652,-4060.306139
22413.657573,1628.453072,-18949.272115,-3064.381992
22413.657906,-4071.132681,740.205942,-14096.157163
22413.658239,-1258.350101,-1480.411884,-18462.901502
22413.658572,-1702.473667,-13767.830521,-11951.089769
22413.658905,592.164754,-18135.045579,-3370.820191
22413.659238,-1406.391290,-14582.057057,-3600.648841
22413.659571,1110.308913,-9474.636058,-5592.497135
22413.659904,2072.576638,-7698.141797,-1302.362347
22413.660237,5255.462188,-7105.977043,-1915.238745
22413.660570,2960.823768,-9844.739029,0.000000
22413.660903,1480.411884,-17394.839637,-3064.381992
22413.661236,-666.185348,-13841.851115,-2834.553343
22413.661569,-3182.885551,-2368.659014,-9346.365076
22413.661902,-1850.514855,-888.247130,-12334.137518
22413.662235,2960.823768,-4071.132681,-9422.974625
22413.662568,0.000000,-11917.315666,-9806.022374
22413.662901,2442.679609,-18949.272115,-2528.115143
22413.663234,1110.308913,-14211.954086,-3140.991542
22413.663567,1998.556043,-8512.368333,-1225.752797
22413.663900,4663.297435,-4441.235652,-383.047749
22413.664233,888.247130,-7179.997637,-4903.011187
22413.664566,2590.720797,-15544.324782,-1302.362347
22413.664899,1406.391290,-17468.860231,2374.896044
22413.665232,-370.102971,-12731.542202,2298.286494
22413.665565,148.041188,-5477.523971,536.266849
22413.665898,-74.020594,-7105.977043,-689.485948
22413.666231,-3552.988522,-6291.750507,0.000000
22413.666564,-5921.647536,-9548.656652,1532.190996
22413.666897,-222.061783,-12879.583391,-76.609550
22413.667230,2960.823768,-8512.368333,7277.907231
22413.667563,1258.350101,-9696.697840,8963.317327
22413.667896,740.205942,-11029.068536,12947.013916
22413.668229,-1850.514855,-5773.606348,6205.373534
22413.668562,-74.020594,-4737.318029,2374.896044
22413.668895,6291.750507,-4811.338623,5132.839837
22413.669228,1184.329507,-12213.398043,11031.775171
22413.669561,1702.473667,-13027.624579,9729.412825
22413.669894,-2442.679609,-7772.162391,4903.011187
22413.670227,-3849.070898,-10658.965565,6971.469032
22413.670560,-4145.153275,-1332.370696,0.000000
22413.670893,814.226536,-8142.265362,2987.772442
22413.671226,4367.215058,-10362.883188,10955.165621
22413.671559,3478.967927,-6217.729913,10342.289223
22413.671892,-296.082377,-10881.027347,9269.755526
22413.672225,222.061783,-9030.512492,8120.612279
22413.672558,518.144159,-8882.471304,7890.783629
22413.672891,2368.659014,-5107.421000,9806.022374
22413.673224,0.000000,-4515.256246,6665.030833
22413.673557,2294.638420,-8882.471304,5745.716235
22413.673890,-1628.453072,-10140.821405,7354.516781
22413.674223,-2368.659014,-11325.150913,10801.946522
22413.674556,-3552.988522,-7179.997637,5515.887586
22413.674889,-1998.556043,-7994.224174,6665.030833
22413.675222,1554.432478,-2368.659014,8427.050478
22413.675555,962.267725,-2812.782580,5439.278036
22413.675888,4663.297435,-11177.109724,10955.165621
22413.676221,2516.700203,-7179.997637,9729.412825
22413.676554,3478.967927,-10362.883188,6511.811733
22413.676887,2960.823768,-9548.656652,11261.603821
22413.677220,-444.123565,-7994.224174,3600.648841
22413.677553,-74.020594,444.123565,-2528.115143
22413.677886,-1924.535449,-6069.688724,-6281.983084
22413.678219,0.000000,-12805.562797,-1225.752797
22413.678552,-1110.308913,-16580.613101,1149.143247
22413.678885,-3701.029710,-10584.944971,-1225.752797
22413.679218,-3552.988522,-8512.368333,-2528.115143
22413.679551,-1776.494261,-7772.162391,0.000000
22413.679884,2960.823768,-7476.080014,4826.401637
22413.680217,3775.050304,-7624.121203,383.047749
22413.680550,3478.967927,-11103.089130,0.000000
22413.680883,1406.391290,-10807.006753,-2757.943793
22413.681216,-3404.947333,-10436.903782,-4290.134789
22413.681549,666.185348,-4737.318029,-6435.202183
22413.681882,-2812.782580,-4219.173869,-9806.022374
22413.682215,2294.638420,-9474.636058,-8044.002729
22413.682548,-2368.659014,-16062.468941,-3983.696590
22413.682880,-4737.318029,-22280.198854,-2528.115143
