#time,accel_x,accel_y,accel_z
19757.977620,1554.432478,-10288.862594,536.266849
19757.977954,0.000000,-7179.997637,766.095498
19757.978288,3775.050304,-9104.533087,3524.039291
19757.978622,5921.647536,-7994.224174,6052.154434
19757.978956,5773.606348,-7105.977043,5056.230287
19757.979290,6217.729913,-6957.935855,2911.162892
19757.979624,4071.132681,-8290.306550,-383.047749
19757.979957,1184.329507,-8956.491898,-1762.019645
19757.980291,2368.659014,-9696.697840,-2528.115143
19757.980625,3478.967927,-10066.800811,-5745.716235
19757.980959,2368.659014,-9548.656652,-3677.258390
19757.981293,5107.421000,-9844.739029,-612.876398
19757.981627,9104.533087,-9252.574275,3217.601092
19757.981961,9474.636058,-9548.656652,5439.278036
19757.982294,11917.315666,-9252.574275,4903.011187
19757.982628,11843.295072,-6587.832884,2757.943793
19757.982962,12139.377449,-9252.574275,4826.401637
19757.983296,12213.398043,-8068.244768,229.828649
19757.983630,8216.285956,-8068.244768,-4290.134789
19757.983964,5329.482782,-10881.027347,-2451.505594
19757.984297,4219.173869,-10732.986159,-3983.696590
19757.984631,3478.967927,-11029.068536,-4596.572988
19757.984965,1776.494261,-11325.150913,-3064.381992
19757.985299,2072.576638,-10881.027347,0.000000
19757.985633,1776.494261,-9548.656652,3677.258390
19757.985967,2886.803174,-8512.368333,5745.716235
19757.986301,3627.009116,-7624.121203,7124.688131
19757.986634,4959.379811,-6217.729913,7967.393179
19757.986968,5847.626942,-5921.647536,7277.907231
19757.987302,4071.132681,-4367.215058,1378.971896
19757.987636,0.000000,-7476.080014,-2451.505594
19757.987970,-888.247130,-10658.965565,-3753.867940
19757.988304,-1850.514855,-9178.553681,-7737.564530
19757.988638,-444.123565,-10510.924376,-5209.449386
19757.988971,-2072.576638,-11473.192101,-5515.887586
19757.989305,1406.391290,-12435.459826,-3140.991542
19757.989639,3552.988522,-11177.109724,2451.505594
19757.989973,3701.029710,-7772.162391,3064.381992
19757.990307,5847.626942,-7179.997637,2451.505594
19757.990641,6661.853478,-10658.965565,6971.469032
19757.990974,5847.626942,-9474.636058,4826.401637
19757.991308,3404.947333,-4959.379811,3677.258390
19757.991642,2664.741391,-8290.306550,2374.896044
19757.991976,1184.329507,-8660.409521,-76.609550
19757.992310,592.164754,-7179.997637,-1608.800546
19757.992644,2294.638420,-7698.141797,-2987.772442
19757.992978,1184.329507,-9696.697840,-2451.505594
19757.993311,0.000000,-11621.233289,-3677.258390
19757.993645,1110.308913,-15100.201217,-2528.115143
19757.993979,-1258.350101,-11843.295072,-3370.820191
19757.994313,-2368.659014,-12509.480420,1225.752797
19757.994647,-1184.329507,-11917.315666,1838.629195
19757.994981,-1258.350101,-9918.759623,3830.477490
19757.995315,-1406.391290,-7328.038826,4903.011187
19757.995648,-74.020594,-4737.318029,4903.011187
19757.995982,3182.885551,-4441.235652,6052.154434
19757.996316,4737.318029,-2960.823768,6052.154434
19757.996650,3552.988522,-2442.679609,0.000000
19757.996984,5329.482782,-6291.750507,1149.143247
19757.997318,7031.956449,-10658.965565,-2528.115143
19757.997651,6735.874072,-11843.295072,-4366.744339
19757.997985,5033.400406,-13693.809927,-6435.202183
19757.998319,3478.967927,-15692.365970,-6281.983084
19757.998653,1702.473667,-16506.592507,-4443.353888
19757.998987,1184.329507,-12509.480420,-2145.067394
19757.999321,2960.823768,-10140.821405,5515.887586
19757.999655,4145.153275,-8068.244768,9116.536426
19757.999988,4071.132681,-5033.400406,4903.011187
19758.000322,4441.235652,-5181.441594,4903.011187
19758.000656,4663.297435,-4737.318029,4826.401637
19758.000990,4663.297435,-2590.720797,3064.381992
19758.001324,3330.926739,-6513.812290,2221.676944
19758.001658,1924.535449,-8734.430116,-612.876398
19758.001992,962.267725,-10881.027347,-3447.429741
19758.002325,1480.411884,-14137.933492,-3140.991542
19758.002659,740.205942,-13397.727550,-3447.429741
19758.002993,148.041188,-12657.521608,-2911.162892
19758.003327,-148.041188,-13101.645173,-2681.334243
19758.003661,-2220.617826,-11029.068536,-2451.505594
19758.003995,-2368.659014,-10140.821405,842.705048
19758.004328,888.247130,-8660.409521,4519.963438
19758.004662,-370.102971,-5699.585753,1838.629195
19758.004996,74.020594,-5847.626942,5132.839837
19758.005330,1702.473667,-6513.812290,3600.648841
19758.005664,1850.514855,-4885.359217,5439.278036
19758.005998,518.144159,-7328.038826,3294.210641
19758.006332,-2072.576638,-10955.047942,1225.752797
19758.006665,-4737.318029,-10732.986159,-1838.629195
19758.006999,-8290.306550,-12213.398043,-1302.362347
19758.007333,-5995.668130,-11251.130318,-4979.620737
19758.007667,-7179.997637,-10955.047942,-5592.497135
19758.008001,-6513.812290,-8364.327145,-1915.238745
19758.008335,-4811.338623,-5995.668130,0.000000
19758.008669,-222.061783,-5847.626942,2374.896044
19758.009002,888.247130,-5699.585753,2911.162892
19758.009336,3330.926739,-6513.812290,2987.772442
19758.009670,4663.297435,-7994.224174,4136.915689
19758.010004,3552.988522,-10732.986159,4826.401637
19758.010338,2738.761985,-9548.656652,-2145.067394
19758.010672,2442.679609,-11917.315666,0.000000
19758.011006,0.000000,-13915.871710,842.705048
19758.011339,-2960.823768,-12509.480420,0.000000
19758.011673,-3404.947333,-12509.480420,-2145.067394
19758.012007,-2960.823768,-11917.315666,-383.047749
19758.012341,-3034.844362,-8142.265362,1608.800546
19758.012675,-1850.514855,-7105.977043,2374.896044
19758.013009,-74.020594,-6513.812290,2987.772442
19758.013342,1702.473667,-2442.679609,2451.505594
19758.013676,6439.791695,-5921.647536,6971.469032
19758.014010,6735.874072,-4737.318029,3294.210641
19758.014344,7031.956449,-7698.141797,2374.896044
19758.014678,5773.606348,-8808.450710,-1378.971896
19758.015012,3182.885551,-11325.150913,-4213.525239
19758.015346,1702.473667,-13027.624579,-5745.716235
19758.015679,-1480.411884,-13101.645173,-7354.516781
19758.016013,-74.020594,-14285.974681,-6128.763984
19758.016347,0.000000,-11917.315666,-3677.258390
19758.016681,2072.576638,-12287.418637,2374.896044
19758.017015,666.185348,-7179.997637,1838.629195
19758.017349,4663.297435,-8068.244768,6665.030833
19758.017683,5033.400406,-6587.832884,8503.660028
19758.018016,4367.215058,-5181.441594,6511.811733
19758.018350,2664.741391,-6143.709319,4519.963438
19758.018684,1776.494261,-5403.503377,2451.505594
19758.019018,2294.638420,-8142.265362,153.219100
19758.019352,1332.370696,-7698.141797,-1991.848295
19758.019686,-1184.329507,-10881.027347,-4979.620737
19758.020019,-1776.494261,-11473.192101,-6665.030833
19758.020353,-2368.659014,-12435.459826,-6205.373534
19758.020687,-148.041188,-14804.118840,-2528.115143
19758.021021,-3182.885551,-11325.150913,-4903.011187
19758.021355,0.000000,-10584.944971,0.000000
19758.021689,3627.009116,-11177.109724,5898.935335
19758.022023,2368.659014,-7105.977043,8044.002729
19758.022356,1036.288319,-5551.544565,6358.592633
19758.022690,296.082377,-6513.812290,6435.202183
19758.023024,-296.082377,-6957.935855,4213.525239
19758.023358,-1776.494261,-5551.544565,3677.258390
19758.023692,-3627.009116,-7698.141797,-1072.533697
19758.024026,-6957.935855,-6587.832884,-4903.011187
19758.024360,-6809.894666,-11029.068536,-4060.306139
19758.024693,-3627.009116,-10658.965565,-4979.620737
19758.025027,-4145.153275,-10288.862594,-1915.238745
19758.025361,-2368.659014,-9548.656652,-1608.800546
19758.025695,-740.205942,-9104.533087,0.000000
19758.026029,666.185348,-9918.759623,2221.676944
19758.026363,2146.597232,-8882.471304,4443.353888
19758.026696,2886.803174,-6069.688724,1915.238745
19758.027030,2960.823768,-7179.997637,2757.943793
19758.027364,4515.256246,-9178.553681,4213.525239
19758.027698,222.061783,-6883.915261,306.438199
19758.028032,-740.205942,-10214.842000,-1532.190996
19758.028366,-2812.782580,-10732.986159,-3907.087040
19758.028699,-3330.926739,-12509.480420,-4366.744339
19758.029033,-3330.926739,-11769.274478,-2987.772442
19758.029366,-3552.988522,-11917.315666,1225.752797
19758.029700,518.144159,-7476.080014,536.266849
19758.030034,3552.988522,-7772.162391,5975.544884
19758.030367,4885.359217,-4811.338623,5515.887586
19758.030701,4737.318029,-4219.173869,6588.421283
19758.031034,6661.853478,-6957.935855,4826.401637
19758.031368,3849.070898,-5403.503377,-1225.752797
19758.031701,0.000000,-9548.656652,-2451.505594
19758.032035,444.123565,-12435.459826,-4673.182538
19758.032369,-74.020594,-13323.706956,-5286.058936
19758.032702,-1480.411884,-14063.912898,-5515.887586
19758.033036,-1258.350101,-13323.706956,-3907.087040
19758.033369,-1184.329507,-12287.418637,383.047749
19758.033703,0.000000,-7772.162391,2451.505594
19758.034037,2368.659014,-6883.915261,5822.325785
19758.034370,4737.318029,-8808.450710,9729.412825
19758.034704,4663.297435,-5921.647536,7277.907231
19758.035037,592.164754,-5107.421000,7354.516781
19758.035371,1702.473667,-4811.338623,1608.800546
19758.035704,-1036.288319,-6883.915261,-1072.533697
19758.036038,-1406.391290,-7846.182985,-4060.306139
19758.036372,-1850.514855,-8586.388927,-5898.935335
19758.036705,-2368.659014,-11917.315666,-6128.763984
19758.037039,-2442.679609,-12435.459826,-6128.763984
19758.037372,-74.020594,-15396.283594,-4979.620737
19758.037706,-74.020594,-11547.212695,-1225.752797
19758.038039,0.000000,-10140.821405,4903.011187
19758.038373,3701.029710,-9252.574275,4903.011187
19758.038707,4737.318029,-7772.162391,7890.783629
19758.039040,2442.679609,-6735.874072,6588.421283
19758.039374,1702.473667,-7105.977043,3983.696590
19758.039707,-2294.638420,-9474.636058,-76.609550
19758.040041,-6513.812290,-7476.080014,-1225.752797
19758.040375,-5403.503377,-10658.965565,-3753.867940
19758.040708,-5403.503377,-8216.285956,-4596.572988
19758.041042,-4737.318029,-10140.821405,-1838.629195
19758.041375,-74.020594,-9474.636058,-76.609550
19758.041709,2072.576638,-7994.224174,3600.648841
19758.042042,2220.617826,-8216.285956,3983.696590
19758.042376,2960.823768,-8956.491898,1991.848295
19758.042710,3552.988522,-9474.636058,1915.238745
19758.043043,2960.823768,-9548.656652,2681.334243
19758.043377,1406.391290,-7179.997637,-2145.067394
19758.043710,-3552.988522,-9548.656652,-1838.629195
19758.044044,-370.102971,-12435.459826,-2528.115143
19758.044377,-3034.844362,-9178.553681,-3294.210641
19758.044711,-1850.514855,-9474.636058,-2221.676944
19758.045045,-1924.535449,-9696.697840,536.266849
19758.045378,814.226536,-10510.924376,3600.648841
19758.045712,3701.029710,-7031.956449,6588.421283
19758.046045,4071.132681,-8290.306550,6665.030833
19758.046379,2960.823768,-5995.668130,3677.258390
19758.046713,5033.400406,-9474.636058,6052.154434
19758.047046,4663.297435,-7994.224174,-76.609550
19758.047380,2072.576638,-5699.585753,-3370.820191
19758.047713,814.226536,-9474.636058,-6205.373534
19758.048047,-296.082377,-11103.089130,-6588.421283
19758.048380,-1480.411884,-11547.212695,-5592.497135
19758.048714,-888.247130,-11843.295072,-4136.915689
19758.049048,-74.020594,-11843.295072,-2068.457845
19758.049381,1480.411884,-11177.109724,1149.143247
19758.049715,4145.153275,-9918.759623,5209.449386
19758.050048,5033.400406,-7994.224174,7048.078582
19758.050382,2960.823768,-6587.832884,4903.011187
19758.050715,5255.462188,-10066.800811,5132.839837
19758.051049,1406.391290,-10658.965565,2374.896044
19758.051383,-3256.906145,-7920.203579,1838.629195
19758.051716,-3034.844362,-9474.636058,-2834.553343
19758.052050,-3034.844362,-7846.182985,-4903.011187
19758.052383,-3034.844362,-8438.347739,-2451.505594
19758.052717,-1258.350101,-6883.915261,-2068.457845
19758.053051,-1924.535449,-8216.285956,-1149.143247
19758.053384,0.000000,-8808.450710,-1072.533697
19758.053718,3627.009116,-12879.583391,2987.772442
19758.054051,814.226536,-8364.327145,1225.752797
19758.054385,0.000000,-8364.327145,612.876398
19758.054718,2664.741391,-10658.965565,2681.334243
19758.055052,0.000000,-9548.656652,1378.971896
19758.055386,814.226536,-9474.636058,842.705048
19758.055719,-2886.803174,-10362.883188,-689.485948
19758.056053,-4589.276840,-9770.718434,-1762.019645
19758.056386,-3627.009116,-9474.636058,-76.609550
19758.056720,-2442.679609,-9474.636058,-76.609550
19758.057053,-5921.647536,-5995.668130,3064.381992
19758.057387,-1184.329507,-8364.327145,4903.011187
19758.057721,2368.659014,-7994.224174,6052.154434
19758.058054,4071.132681,-7920.203579,6052.154434
19758.058388,2368.659014,-7179.997637,1915.238745
19758.058721,2220.617826,-7920.203579,-76.609550
19758.059055,962.267725,-9696.697840,-2987.772442
19758.059389,0.000000,-9548.656652,-4749.792088
19758.059722,-1850.514855,-12287.418637,-6205.373534
19758.060056,-5625.565159,-10140.821405,-4290.134789
19758.060389,-1036.288319,-11843.295072,-1608.800546
19758.060723,0.000000,-9474.636058,0.000000
19758.061056,222.061783,-8882.471304,2681.334243
19758.061390,1628.453072,-8142.265362,4366.744339
19758.061724,3108.864956,-7476.080014,5745.716235
19758.062057,2738.761985,-8438.347739,6358.592633
19758.062391,2072.576638,-9104.533087,4903.011187
19758.062724,0.000000,-7179.997637,2451.505594
19758.063058,814.226536,-9178.553681,2068.457845
19758.063391,2294.638420,-8290.306550,-2221.676944
19758.063725,-1480.411884,-7179.997637,-1838.629195
19758.064059,-74.020594,-9474.636058,-2528.115143
19758.064392,-1184.329507,-8808.450710,-3447.429741
19758.064726,592.164754,-10140.821405,-3677.258390
19758.065059,370.102971,-11399.171507,-2298.286494
19758.065393,296.082377,-10732.986159,-1225.752797
19758.065726,2072.576638,-9622.677246,2374.896044
19758.066060,3775.050304,-9548.656652,2987.772442
19758.066394,4293.194464,-9918.759623,4519.963438
19758.066727,3775.050304,-8660.409521,4979.620737
19758.067061,0.000000,-7772.162391,1838.629195
19758.067394,518.144159,-8290.306550,-76.609550
19758.067728,-2960.823768,-9844.739029,3600.648841
19758.068062,-3034.844362,-6883.915261,-2145.067394
19758.068395,-3627.009116,-8290.306550,-76.609550
19758.068729,-2960.823768,-7920.203579,-1608.800546
19758.069062,-1628.453072,-9474.636058,-536.266849
19758.069396,1406.391290,-8882.471304,-76.609550
19758.069729,2664.741391,-7476.080014,459.657299
19758.070063,4663.297435,-10955.047942,2681.334243
19758.070397,1480.411884,-9548.656652,0.000000
19758.070730,0.000000,-10140.821405,1225.752797
19758.071064,1702.473667,-11843.295072,-383.047749
19758.071397,0.000000,-7179.997637,-2451.505594
19758.071731,666.185348,-11843.295072,995.924147
19758.072064,0.000000,-8956.491898,2145.067394
19758.072398,-1554.432478,-8290.306550,-383.047749
19758.072732,-2664.741391,-8660.409521,-612.876398
19758.073065,-2442.679609,-10362.883188,-76.609550
19758.073399,-4737.318029,-7772.162391,2451.505594
19758.073732,-74.020594,-8290.306550,3600.648841
19758.074066,-74.020594,-7698.141797,842.705048
19758.074400,0.000000,-8364.327145,3830.477490
19758.074733,3478.967927,-6809.894666,2374.896044
19758.075067,2738.761985,-6587.832884,2987.772442
19758.075400,3182.885551,-7402.059420,842.705048
19758.075734,666.185348,-9104.533087,-3064.381992
19758.076067,-592.164754,-8956.491898,-4903.011187
19758.076401,-2368.659014,-11029.068536,-1915.238745
19758.076735,-666.185348,-11399.171507,-6741.640382
19758.077068,-2368.659014,-10732.986159,-6128.763984
19758.077402,592.164754,-13397.727550,1838.629195
19758.077735,2886.803174,-9178.553681,1838.629195
19758.078069,2220.617826,-9178.553681,4826.401637
19758.078402,2590.720797,-8660.409521,5439.278036
19758.078736,3627.009116,-8586.388927,7584.345430
19758.079070,2664.741391,-5033.400406,5439.278036
19758.079403,1702.473667,-6661.853478,3600.648841
19758.079737,-518.144159,-7846.182985,-383.047749
19758.080070,-1480.411884,-8660.409521,-3064.381992
19758.080404,-1184.329507,-9326.594869,-2757.943793
19758.080738,-74.020594,-9474.636058,-5286.058936
19758.081071,-2960.823768,-9844.739029,-4903.011187
19758.081405,0.000000,-11325.150913,-2451.505594
19758.081738,2146.597232,-11843.295072,-76.609550
19758.082072,1184.329507,-8956.491898,0.000000
19758.082405,3182.885551,-10658.965565,2298.286494
19758.082739,4663.297435,-9474.636058,4979.620737
19758.083073,3849.070898,-8364.327145,5362.668486
19758.083406,3478.967927,-7105.977043,4213.525239
19758.083740,-1184.329507,-7698.141797,1149.143247
19758.084073,-3552.988522,-9844.739029,306.438199
19758.084407,-2738.761985,-10658.965565,-76.609550
19758.084740,-3034.844362,-8882.471304,-4060.306139
19758.085074,-5107.421000,-9992.780217,-689.485948
19758.085408,-4071.132681,-10066.800811,-1225.752797
19758.085741,370.102971,-8438.347739,2681.334243
19758.086075,2072.576638,-6661.853478,4290.134789
19758.086408,2368.659014,-5995.668130,3677.258390
19758.086742,5847.626942,-8290.306550,2987.772442
19758.087076,1184.329507,-9844.739029,4213.525239
19758.087409,2294.638420,-7698.141797,-3064.381992
19758.087743,-2368.659014,-11029.068536,-3677.258390
19758.088076,-1554.432478,-10362.883188,-5286.058936
19758.088410,-2664.741391,-11399.171507,-3447.429741
19758.088743,-2146.597232,-11029.068536,-3064.381992
19758.089077,-3034.844362,-10955.047942,-1608.800546
19758.089411,-1184.329507,-10881.027347,2145.067394
19758.089744,2294.638420,-7772.162391,4290.134789
19758.090078,4071.132681,-8142.265362,9729.412825
19758.090411,5551.544565,-6513.812290,6052.154434
19758.090745,2368.659014,-6587.832884,6665.030833
19758.091078,2368.659014,-7179.997637,3217.601092
19758.091412,2368.659014,-7402.059420,536.266849
19758.091746,148.041188,-8512.368333,-3447.429741
19758.092079,-1998.556043,-9770.718434,-6358.592633
19758.092413,-2886.803174,-11843.295072,-7431.126331
19758.092746,-4737.318029,-10732.986159,-6128.763984
19758.093080,-1258.350101,-13027.624579,-4979.620737
19758.093414,-222.061783,-10658.965565,-2528.115143
19758.093747,1184.329507,-9844.739029,4903.011187
19758.094081,4737.318029,-8512.368333,7967.393179
19758.094414,5329.482782,-6957.935855,7354.516781
19758.094748,5255.462188,-7624.121203,6971.469032
19758.095081,3330.926739,-8290.306550,4213.525239
19758.095415,518.144159,-9474.636058,2374.896044
19758.095749,-3552.988522,-8660.409521,-536.266849
19758.096082,-5033.400406,-9992.780217,-4060.306139
19758.096416,-4885.359217,-9474.636058,-4060.306139
19758.096749,-3256.906145,-8956.491898,-2834.553343
19758.097083,-222.061783,-9474.636058,-76.609550
19758.097416,962.267725,-6883.915261,612.876398
19758.097750,3552.988522,-8808.450710,5439.278036
19758.098084,5255.462188,-7624.121203,1532.190996
19758.098417,4145.153275,-9474.636058,2604.724693
19758.098751,3552.988522,-11103.089130,2374.896044
19758.099084,1332.370696,-10584.944971,-536.266849
19758.099418,666.185348,-10584.944971,-1608.800546
19758.099751,-1850.514855,-11029.068536,-1838.629195
19758.100085,-2442.679609,-10066.800811,-3140.991542
19758.100419,-5181.441594,-8068.244768,-2451.505594
19758.100752,-1258.350101,-9474.636058,-1302.362347
19758.101086,-1258.350101,-9178.553681,612.876398
19758.101419,-1036.288319,-7476.080014,4443.353888
19758.101753,3478.967927,-7698.141797,4826.401637
19758.102087,2664.741391,-7698.141797,5745.716235
19758.102420,3182.885551,-7624.121203,3983.696590
19758.102754,4367.215058,-7698.141797,2911.162892
19758.103087,1184.329507,-7179.997637,-1532.190996
19758.103421,0.000000,-7179.997637,-2451.505594
19758.103754,-74.020594,-13619.789333,-5592.497135
19758.104088,-2442.679609,-13619.789333,-6205.373534
19758.104422,-5033.400406,-10436.903782,-4903.011187
19758.104755,-2738.761985,-9548.656652,-4596.572988
19758.105089,-1554.432478,-10955.047942,459.657299
19758.105422,814.226536,-8364.327145,3370.820191
19758.105756,3923.091493,-6661.853478,7431.126331
19758.106089,4145.153275,-6883.915261,7967.393179
19758.106423,4367.215058,-9178.553681,7890.783629
19758.106757,4367.215058,-8290.306550,2987.772442
19758.107090,-1776.494261,-8660.409521,2298.286494
19758.107424,-74.020594,-9474.636058,-76.609550
19758.107757,-2442.679609,-7772.162391,-4903.011187
19758.108091,-1480.411884,-9178.553681,-3600.648841
19758.108425,-1554.432478,-8512.368333,-3064.381992
19758.108758,74.020594,-8438.347739,-3217.601092
19758.109092,1184.329507,-10881.027347,-1225.752797
19758.109425,2886.803174,-10658.965565,-766.095498
19758.109759,3034.844362,-9770.718434,383.047749
19758.110092,3182.885551,-9696.697840,766.095498
19758.110426,4367.215058,-10658.965565,1149.143247
19758.110760,2960.823768,-10066.800811,2528.115143
19758.111093,0.000000,-8364.327145,2451.505594
19758.111427,-74.020594,-9474.636058,-76.609550
19758.111760,-2442.679609,-8734.430116,-1838.629195
19758.112094,-1554.432478,-10658.965565,1762.019645
19758.112427,-2442.679609,-8290.306550,536.266849
19758.112761,-2072.576638,-7105.977043,689.485948
19758.113095,-1702.473667,-7328.038826,1302.362347
19758.113428,592.164754,-9030.512492,1762.019645
19758.113762,4071.132681,-7402.059420,3600.648841
19758.114095,0.000000,-7179.997637,3753.867940
19758.114429,3182.885551,-9474.636058,-2451.505594
19758.114763,1184.329507,-9548.656652,-2145.067394
19758.115096,0.000000,-9844.739029,-2451.505594
19758.115430,-74.020594,-10584.944971,-3447.429741
19758.115763,-2294.638420,-11103.089130,-3217.601092
19758.116097,-666.185348,-11547.212695,-995.924147
19758.116430,-888.247130,-8808.450710,1378.971896
19758.116764,0.000000,-7698.141797,536.266849
19758.117098,444.123565,-9474.636058,4826.401637
19758.117431,2294.638420,-11251.130318,2987.772442
19758.117765,0.000000,-7476.080014,4903.011187
19758.118098,0.000000,-9474.636058,4060.306139
19758.118432,-1702.473667,-8660.409521,1532.190996
19758.118765,0.000000,-7994.224174,1532.190996
19758.119099,740.205942,-7994.224174,1762.019645
19758.119433,1332.370696,-6661.853478,919.314598
19758.119766,-1184.329507,-7179.997637,-3370.820191
19758.120100,1110.308913,-11251.130318,-3140.991542
19758.120433,-666.185348,-11843.295072,-3140.991542
19758.120767,-2960.823768,-9844.739029,-3064.381992
19758.121101,-74.020594,-13027.624579,-2834.553343
19758.121434,0.000000,-10881.027347,-689.485948
19758.121768,3108.864956,-10288.862594,2145.067394
19758.122101,2590.720797,-8956.491898,4749.792088
19758.122435,1776.494261,-8734.430116,3677.258390
19758.122768,2516.700203,-8808.450710,5745.716235
19758.123102,2294.638420,-8290.306550,1838.629195
19758.123436,0.000000,-7772.162391,4979.620737
19758.123769,-148.041188,-8512.368333,3600.648841
19758.124103,-74.020594,-9474.636058,-76.609550
19758.124436,-2960.823768,-8956.491898,-1378.971896
19758.124770,-666.185348,-8586.388927,-2451.505594
19758.125103,-1036.288319,-8216.285956,-2987.772442
19758.125437,518.144159,-9400.615463,-3217.601092
19758.125771,1184.329507,-9548.656652,-76.609550
19758.126104,1628.453072,-10658.965565,383.047749
19758.126438,2220.617826,-10288.862594,306.438199
19758.126771,3034.844362,-10214.842000,2068.457845
19758.127105,2442.679609,-9178.553681,1608.800546
19758.127439,2368.659014,-8956.491898,3217.601092
19758.127772,2294.638420,-9474.636058,1762.019645
19758.128106,-3404.947333,-7179.997637,612.876398
19758.128439,-666.185348,-10066.800811,-689.485948
19758.128773,-666.185348,-11547.212695,-76.609550
19758.129106,-3256.906145,-9252.574275,-153.219100
19758.129440,-3478.967927,-10140.821405,76.609550
19758.129773,-1332.370696,-8068.244768,1302.362347
19758.130106,0.000000,-7179.997637,3064.381992
19758.130440,1184.329507,-5995.668130,5515.887586
19758.130773,5847.626942,-5773.606348,2681.334243
19758.131107,3775.050304,-8290.306550,2681.334243
19758.131440,2146.597232,-7179.997637,0.000000
19758.131773,0.000000,-9844.739029,-1302.362347
19758.132107,-1258.350101,-11251.130318,-6588.421283
19758.132440,-2812.782580,-10732.986159,-5209.449386
19758.132774,-1406.391290,-12657.521608,-3753.867940
19758.133107,-592.164754,-11843.295072,-995.924147
19758.133441,-2368.659014,-9548.656652,2604.724693
19758.133774,2294.638420,-9474.636058,2987.772442
19758.134107,592.164754,-7328.038826,6128.763984
19758.134441,1184.329507,-8068.244768,9116.536426
19758.134774,2146.597232,-5329.482782,4903.011187
19758.135108,740.205942,-6217.729913,3983.696590
19758.135441,518.144159,-6365.771101,1302.362347
19758.135775,-370.102971,-8512.368333,-995.924147
19758.136108,-666.185348,-7994.224174,-4979.620737
19758.136441,-2368.659014,-10881.027347,-4366.744339
19758.136775,-3182.885551,-10658.965565,-8656.879127
19758.137108,-4441.235652,-12213.398043,-5515.887586
19758.137442,-814.226536,-13027.624579,-2528.115143
19758.137775,1702.473667,-11547.212695,1072.533697
19758.138109,2812.782580,-9548.656652,4060.306139
19758.138442,4663.297435,-9400.615463,6281.983084
19758.138775,5255.462188,-7254.018232,7814.174080
19758.139109,1776.494261,-5995.668130,6128.763984
19758.139442,3478.967927,-8290.306550,2374.896044
19758.139776,-3256.906145,-8364.327145,766.095498
19758.140109,-4737.318029,-8956.491898,-1225.752797
19758.140442,-4811.338623,-10362.883188,-4979.620737
19758.140776,-3627.009116,-10362.883188,-4060.306139
19758.141109,-4811.338623,-10436.903782,-2451.505594
19758.141443,-888.247130,-9400.615463,459.657299
19758.141776,2368.659014,-6513.812290,3140.991542
19758.142110,2960.823768,-5995.668130,3677.258390
19758.142443,6439.791695,-7402.059420,3447.429741
19758.142776,5847.626942,-9178.553681,3753.867940
19758.143110,3404.947333,-9104.533087,919.314598
19758.143443,1776.494261,-10288.862594,-1762.019645
19758.143777,-1702.473667,-9844.739029,-4903.011187
19758.144110,-814.226536,-13027.624579,-3753.867940
19758.144444,-3627.009116,-7772.162391,-6128.763984
19758.144777,-2368.659014,-11843.295072,-1455.581446
19758.145110,-2368.659014,-11621.233289,1302.362347
19758.145444,-1258.350101,-9104.533087,2451.505594
19758.145777,1702.473667,-6587.832884,6435.202183
19758.146111,2368.659014,-6217.729913,7354.516781
19758.146444,2590.720797,-5551.544565,5132.839837
19758.146778,2368.659014,-5995.668130,4903.011187
19758.147111,4663.297435,-7698.141797,1149.143247
19758.147444,1184.329507,-4811.338623,-4290.134789
19758.147778,-1776.494261,-10140.821405,-4366.744339
19758.148111,-1258.350101,-13027.624579,-7431.126331
19758.148445,-4737.318029,-11917.315666,-6741.640382
19758.148778,-2442.679609,-12213.398043,-5592.497135
19758.149112,-1998.556043,-12065.356855,-2221.676944
19758.149445,1110.308913,-11251.130318,1378.971896
19758.149778,4737.318029,-10066.800811,7277.907231
19758.150112,7031.956449,-8290.306550,6665.030833
19758.150445,2664.741391,-6291.750507,7354.516781
19758.150779,5699.585753,-10066.800811,8503.660028
19758.151112,1110.308913,-8216.285956,3370.820191
19758.151445,-888.247130,-8290.306550,1762.019645
19758.151779,-4293.194464,-8660.409521,-2911.162892
19758.152112,-4367.215058,-9474.636058,-4443.353888
19758.152446,-4811.338623,-9030.512492,-4443.353888
19758.152779,-1554.432478,-8290.306550,-3753.867940
19758.153113,-2294.638420,-7179.997637,-4903.011187
19758.153446,0.000000,-9104.533087,-153.219100
19758.153779,4663.297435,-11251.130318,2068.457845
19758.154113,4367.215058,-7476.080014,0.000000
19758.154446,4145.153275,-10214.842000,2987.772442
19758.154780,4145.153275,-9400.615463,2298.286494
19758.155113,3775.050304,-10658.965565,2374.896044
19758.155447,1924.535449,-8808.450710,612.876398
19758.155780,-962.267725,-10362.883188,-1455.581446
19758.156113,-2886.803174,-10140.821405,-2757.943793
19758.156447,-3034.844362,-10807.006753,-766.095498
19758.156780,-2072.576638,-9030.512492,383.047749
19758.157114,-4145.153275,-7179.997637,612.876398
19758.157447,0.000000,-8660.409521,4213.525239
19758.157781,3478.967927,-5477.523971,2451.505594
19758.158114,3552.988522,-5995.668130,2757.943793
19758.158447,5033.400406,-7994.224174,4673.182538
19758.158781,4145.153275,-7772.162391,0.000000
19758.159114,1480.411884,-10140.821405,-2068.457845
19758.159448,148.041188,-10881.027347,-5056.230287
19758.159781,-3108.864956,-12657.521608,-5286.058936
19758.160114,-2146.597232,-12731.542202,-3140.991542
19758.160448,-2294.638420,-9548.656652,-1608.800546
19758.160781,-74.020594,-9474.636058,-1608.800546
19758.161115,0.000000,-7772.162391,2604.724693
19758.161448,1184.329507,-8364.327145,6358.592633
19758.161782,4515.256246,-8660.409521,6588.421283
19758.162115,2220.617826,-9400.615463,6052.154434
19758.162448,148.041188,-8364.327145,2757.943793
19758.162782,-666.185348,-9178.553681,1915.238745
19758.163115,-1998.556043,-8586.388927,-76.609550
19758.163449,0.000000,-7772.162391,1225.752797
19758.163782,-2368.659014,-4811.338623,-3677.258390
19758.164116,-1776.494261,-7846.182985,-1072.533697
19758.164449,-74.020594,-8882.471304,-1302.362347
19758.164782,1110.308913,-8882.471304,-3753.867940
19758.165116,-74.020594,-11547.212695,-2374.896044
19758.165449,0.000000,-10881.027347,-2145.067394
19758.165783,1406.391290,-11103.089130,-229.828649
19758.166116,1480.411884,-11695.253884,2911.162892
19758.166450,3478.967927,-12879.583391,4826.401637
19758.166783,0.000000,-7772.162391,4903.011187
19758.167116,1480.411884,-10214.842000,4826.401637
19758.167450,-666.185348,-7179.997637,0.000000
19758.167783,-2368.659014,-7772.162391,2451.505594
19758.168117,-1258.350101,-6809.894666,0.000000
19758.168450,-2738.761985,-7698.141797,-612.876398
19758.168784,-2220.617826,-8068.244768,-1149.143247
19758.169117,-962.267725,-9326.594869,-153.219100
19758.169450,814.226536,-7994.224174,-1915.238745
19758.169784,1776.494261,-8364.327145,2374.896044
19758.170117,4071.132681,-9474.636058,1608.800546
19758.170451,4071.132681,-10362.883188,-2298.286494
19758.170784,592.164754,-9548.656652,0.000000
19758.171117,1702.473667,-10288.862594,-842.705048
19758.171451,1184.329507,-10362.883188,-383.047749
19758.171784,370.102971,-11547.212695,689.485948
19758.172118,0.000000,-8586.388927,459.657299
19758.172451,-74.020594,-8290.306550,-383.047749
19758.172785,-1332.370696,-8068.244768,0.000000
19758.173118,-1702.473667,-9622.677246,919.314598
19758.173451,-1628.453072,-9622.677246,2298.286494
19758.173785,-1184.329507,-8068.244768,3064.381992
19758.174118,-222.061783,-8882.471304,2987.772442
19758.174452,0.000000,-5995.668130,0.000000
19758.174785,3849.070898,-9474.636058,4826.401637
19758.175119,2738.761985,-7105.977043,1915.238745
19758.175452,1924.535449,-5995.668130,0.000000
19758.175785,1110.308913,-10362.883188,-2374.896044
19758.176119,592.164754,-10807.006753,-3370.820191
19758.176452,-370.102971,-10955.047942,-4290.134789
19758.176786,-74.020594,-12435.459826,-3217.601092
19758.177119,-74.020594,-12435.459826,-4366.744339
19758.177453,296.082377,-12583.501014,1149.143247
19758.177786,4071.132681,-11843.295072,3600.648841
19758.178119,1110.308913,-7476.080014,3677.258390
19758.178453,1184.329507,-8956.491898,6665.030833
19758.178786,2442.679609,-8734.430116,6818.249932
19758.179120,1406.391290,-5477.523971,5209.449386
19758.179453,296.082377,-6143.709319,2911.162892
19758.179786,-1554.432478,-7402.059420,-76.609550
19758.180120,-666.185348,-8290.306550,-3753.867940
19758.180453,-3552.988522,-8364.327145,-2757.943793
19758.180787,-814.226536,-10066.800811,-2834.553343
19758.181120,-74.020594,-11251.130318,-5439.278036
19758.181454,-74.020594,-12435.459826,-2528.115143
19758.181787,888.247130,-11769.274478,-76.609550
19758.182120,666.185348,-10807.006753,919.314598
19758.182454,1332.370696,-9622.677246,2604.724693
19758.182787,3256.906145,-7179.997637,3677.258390
19758.183121,4367.215058,-7476.080014,4903.011187
19758.183454,1184.329507,-6587.832884,6894.859482
19758.183788,-74.020594,-7994.224174,-76.609550
19758.184121,-2960.823768,-8364.327145,-1991.848295
19758.184454,-4737.318029,-9548.656652,-2834.553343
19758.184788,-3775.050304,-9918.759623,-3140.991542
19758.185121,-5403.503377,-9770.718434,-2451.505594
19758.185455,-2886.803174,-10510.924376,-306.438199
19758.185788,2590.720797,-9474.636058,4519.963438
19758.186122,1480.411884,-5403.503377,5515.887586
19758.186455,5847.626942,-7698.141797,4213.525239
19758.186788,5847.626942,-6439.791695,1225.752797
19758.187122,4737.318029,-10658.965565,2987.772442
19758.187455,2368.659014,-8068.244768,-2068.457845
19758.187789,-888.247130,-11029.068536,-3753.867940
19758.188122,-1776.494261,-11621.233289,-4519.963438
19758.188456,-1480.411884,-11917.315666,-3524.039291
19758.188789,-148.041188,-11843.295072,-1302.362347
19758.189122,-3552.988522,-10140.821405,-612.876398
19758.189456,-1184.329507,-10510.924376,2068.457845
19758.189789,1184.329507,-8956.491898,5822.325785
19758.190123,1924.535449,-6439.791695,7507.735880
19758.190456,2368.659014,-7105.977043,6741.640382
19758.190789,2072.576638,-3627.009116,3447.429741
19758.191123,0.000000,-7179.997637,4596.572988
19758.191456,2886.803174,-5921.647536,-383.047749
19758.191790,-1258.350101,-7402.059420,-4366.744339
19758.192123,-1406.391290,-10658.965565,-5592.497135
19758.192457,-3182.885551,-10732.986159,-6971.469032
19758.192790,-2442.679609,-13027.624579,-6588.421283
19758.193123,-2886.803174,-12879.583391,-5132.839837
19758.193457,-74.020594,-13619.789333,-1302.362347
19758.193790,1184.329507,-10140.821405,3830.477490
19758.194124,3849.070898,-8364.327145,8120.612279
19758.194457,7624.121203,-8290.306550,7584.345430
19758.194791,2960.823768,-4811.338623,7354.516781
19758.195124,4663.297435,-8734.430116,4060.306139
19758.195457,1628.453072,-8882.471304,2681.334243
19758.195791,-2664.741391,-8364.327145,-1149.143247
19758.196124,-4737.318029,-9252.574275,-4596.572988
19758.196458,-5403.503377,-9178.553681,-5592.497135
19758.196791,-4737.318029,-9548.656652,-2145.067394
19758.197125,-1258.350101,-9474.636058,-1302.362347
19758.197458,2294.638420,-7994.224174,-995.924147
19758.197791,3552.988522,-8068.244768,4443.353888
19758.198125,5255.462188,-8216.285956,2757.943793
19758.198458,5033.400406,-9474.636058,3140.991542
19758.198792,3701.029710,-9474.636058,1149.143247
19758.199125,2590.720797,-10066.800811,-76.609550
19758.199458,888.247130,-9548.656652,-2451.505594
19758.199792,-2368.659014,-10732.986159,-76.609550
19758.200125,-2738.761985,-9474.636058,-4519.963438
19758.200459,-5329.482782,-9548.656652,-3677.258390
19758.200792,-2368.659014,-10288.862594,2145.067394
19758.201126,-2590.720797,-8216.285956,1838.629195
19758.201459,-1258.350101,-8216.285956,4213.525239
19758.201792,518.144159,-6587.832884,4979.620737
19758.202126,1110.308913,-7254.018232,4366.744339
19758.202459,1776.494261,-6587.832884,1685.410096
19758.202793,3701.029710,-8216.285956,2834.553343
19758.203126,1702.473667,-7254.018232,0.000000
19758.203460,1110.308913,-8734.430116,-3983.696590
19758.203793,-74.020594,-13619.789333,-4979.620737
19758.204126,-2442.679609,-11843.295072,-6971.469032
19758.204460,-4737.318029,-11029.068536,-4596.572988
19758.204793,-74.020594,-12805.562797,-76.609550
19758.205127,962.267725,-11103.089130,536.266849
19758.205460,2516.700203,-9992.780217,5209.449386
19758.205794,3182.885551,-7105.977043,6205.373534
19758.206127,2072.576638,-6883.915261,5669.106685
19758.206460,2368.659014,-8660.409521,4903.011187
19758.206794,1628.453072,-7105.977043,3294.210641
19758.207127,-1184.329507,-8586.388927,-76.609550
19758.207461,-3552.988522,-8364.327145,536.266849
19758.207794,-2738.761985,-10066.800811,-2834.553343
19758.208127,-2442.679609,-7179.997637,-4903.011187
19758.208461,-222.061783,-8290.306550,-1915.238745
19758.208794,592.164754,-7624.121203,-2757.943793
19758.209128,2146.597232,-10658.965565,-1532.190996
19758.209461,2368.659014,-11029.068536,76.609550
19758.209795,2368.659014,-9844.739029,612.876398
19758.210128,4071.132681,-10066.800811,0.000000
19758.210461,2368.659014,-10732.986159,2911.162892
19758.210795,5847.626942,-10658.965565,2987.772442
19758.211128,1480.411884,-7179.997637,1532.190996
19758.211462,296.082377,-7846.182985,1225.752797
19758.211795,-1628.453072,-8808.450710,-612.876398
19758.212129,-1480.411884,-10214.842000,842.705048
19758.212462,-1258.350101,-7994.224174,1149.143247
19758.212795,-370.102971,-9178.553681,1149.143247
19758.213129,-2590.720797,-6587.832884,-1838.629195
19758.213462,-74.020594,-9474.636058,1762.019645
19758.213796,4663.297435,-7105.977043,536.266849
19758.214129,3552.988522,-7328.038826,3524.039291
19758.214463,5033.400406,-10510.924376,2221.676944
19758.214796,2664.741391,-10288.862594,76.609550
19758.215129,888.247130,-10732.986159,-1378.971896
19758.215463,296.082377,-10436.903782,-2374.896044
19758.215796,-1258.350101,-10955.047942,-3370.820191
19758.216130,-2368.659014,-10732.986159,919.314598
19758.216463,-74.020594,-9474.636058,-1455.581446
19758.216797,-2368.659014,-7179.997637,-2145.067394
19758.217130,-1480.411884,-9548.656652,3600.648841
19758.217463,1702.473667,-10066.800811,3677.258390
19758.217797,1480.411884,-8512.368333,6511.811733
19758.218130,0.000000,-7328.038826,4979.620737
19758.218464,-1332.370696,-8734.430116,2451.505594
19758.218797,0.000000,-7624.121203,1838.629195
19758.219130,0.000000,-7772.162391,2604.724693
19758.219464,1332.370696,-6809.894666,306.438199
19758.219797,-888.247130,-8586.388927,-1608.800546
19758.220131,-1258.350101,-9030.512492,-4443.353888
19758.220464,-74.020594,-11251.130318,-3753.867940
19758.220798,-1776.494261,-11029.068536,-2757.943793
19758.221131,-74.020594,-11991.336260,-689.485948
19758.221464,-74.020594,-10881.027347,-3064.381992
19758.221798,2368.659014,-9696.697840,2221.676944
19758.222131,3923.091493,-10658.965565,4826.401637
19758.222465,1406.391290,-9030.512492,4366.744339
19758.222798,2738.761985,-7994.224174,4290.134789
19758.223132,814.226536,-9326.594869,4290.134789
19758.223465,1110.308913,-6143.709319,2757.943793
19758.223798,-2368.659014,-7476.080014,2298.286494
19758.224132,-1850.514855,-7328.038826,-3064.381992
19758.224465,-3923.091493,-7179.997637,-3370.820191
19758.224799,0.000000,-9400.615463,-1302.362347
19758.225132,1110.308913,-8586.388927,-3600.648841
19758.225466,740.205942,-9622.677246,-1915.238745
19758.225799,1998.556043,-10066.800811,-1225.752797
19758.226132,814.226536,-10584.944971,-612.876398
19758.226466,1776.494261,-11029.068536,306.438199
19758.226799,0.000000,-9548.656652,3907.087040
19758.227133,4071.132681,-9474.636058,1455.581446
19758.227466,1776.494261,-7476.080014,1225.752797
19758.227799,0.000000,-8364.327145,2451.505594
19758.228133,-1184.329507,-7476.080014,0.000000
19758.228466,-1406.391290,-9104.533087,-1225.752797
19758.228799,-2146.597232,-10362.883188,-1225.752797
19758.229133,-2886.803174,-9474.636058,-995.924147
19758.229466,-1850.514855,-10955.047942,-76.609550
19758.229799,0.000000,-9326.594869,4826.401637
19758.230132,3478.967927,-7698.141797,3294.210641
19758.230465,2812.782580,-5995.668130,4903.011187
19758.230798,3552.988522,-6291.750507,6281.983084
19758.231131,3552.988522,-6735.874072,2987.772442
19758.231464,2738.761985,-7179.997637,-2145.067394
19758.231797,0.000000,-10732.986159,-2987.772442
19758.232130,-1924.535449,-11325.150913,-5822.325785
19758.232464,-3034.844362,-11843.295072,-6818.249932
19758.232797,-1554.432478,-13619.789333,-5745.716235
19758.233130,-3552.988522,-9548.656652,-4903.011187
19758.233463,-1184.329507,-10732.986159,2987.772442
19758.233796,1110.308913,-7698.141797,3447.429741
19758.234129,1776.494261,-7476.080014,8733.488677
19758.234462,2886.803174,-7624.121203,8273.831378
19758.234795,3478.967927,-5477.523971,7737.564530
19758.235128,1184.329507,-5995.668130,4903.011187
19758.235461,518.144159,-6809.894666,1149.143247
19758.235795,-666.185348,-8586.388927,-2451.505594
19758.236128,-1776.494261,-7994.224174,-4903.011187
19758.236461,-2368.659014,-9770.718434,-6205.373534
19758.236794,-2072.576638,-11547.212695,-5975.544884
19758.237127,-2442.679609,-14211.954086,-5592.497135
19758.237460,-1184.329507,-13101.645173,-76.609550
19758.237793,-74.020594,-10066.800811,0.000000
19758.238126,2368.659014,-7179.997637,2451.505594
19758.238459,4145.153275,-8660.409521,7048.078582
19758.238792,4959.379811,-5995.668130,7354.516781
19758.239126,4071.132681,-6513.812290,5286.058936
19758.239459,2220.617826,-7550.100608,2681.334243
19758.239792,-962.267725,-10066.800811,-76.609550
19758.240125,-4737.318029,-8364.327145,-4290.134789
19758.240458,-4811.338623,-10658.965565,-5286.058936
19758.240791,-5403.503377,-8364.327145,-4903.011187
19758.241124,-3552.988522,-11029.068536,-383.047749
19758.241457,1702.473667,-11251.130318,2374.896044
19758.241790,2368.659014,-5995.668130,4366.744339
19758.242123,4663.297435,-7105.977043,4290.134789
19758.242457,5107.421000,-8068.244768,4136.915689
19758.242790,4367.215058,-8660.409521,2911.162892
19758.243123,1776.494261,-8660.409521,0.000000
19758.243456,2886.803174,-8882.471304,-3830.477490
19758.243789,-1184.329507,-10140.821405,-4903.011187
19758.244122,0.000000,-12953.603985,-995.924147
19758.244455,-2442.679609,-10066.800811,-5286.058936
19758.244788,-2960.823768,-11769.274478,-2068.457845
19758.245121,-2146.597232,-10436.903782,-76.609550
19758.245454,0.000000,-11103.089130,4826.401637
19758.245788,2368.659014,-6143.709319,7431.126331
19758.246121,4071.132681,-7105.977043,7890.783629
19758.246454,2294.638420,-4811.338623,1838.629195
19758.246787,3849.070898,-8438.347739,5286.058936
19758.247120,4071.132681,-8882.471304,1762.019645
19758.247453,1110.308913,-5477.523971,-4519.963438
19758.247786,-1776.494261,-10658.965565,-5439.278036
19758.248119,-3108.864956,-11325.150913,-7354.516781
19758.248452,-3404.947333,-12435.459826,-5592.497135
19758.248785,-3256.906145,-11621.233289,-4290.134789
19758.249119,-370.102971,-13471.748144,-76.609550
19758.249452,0.000000,-11621.233289,1225.752797
19758.249785,4071.132681,-8734.430116,4826.401637
19758.250118,3256.906145,-6735.874072,7277.907231
19758.250451,1776.494261,-5403.503377,4903.011187
19758.250784,4737.318029,-9474.636058,8197.221829
19758.251117,1110.308913,-8438.347739,3140.991542
19758.251450,-4441.235652,-5995.668130,1225.752797
19758.251783,-5033.400406,-9992.780217,-3140.991542
19758.252116,-5181.441594,-9474.636058,-4979.620737
19758.252450,-4589.276840,-9622.677246,-3447.429741
19758.252783,-2146.597232,-7994.224174,-2068.457845
19758.253116,-888.247130,-9104.533087,-1149.143247
19758.253449,1480.411884,-8364.327145,1225.752797
19758.253782,4737.318029,-8956.491898,6435.202183
19758.254115,5255.462188,-8586.388927,2068.457845
19758.254448,2664.741391,-7179.997637,0.000000
19758.254781,3552.988522,-11251.130318,2374.896044
19758.255114,1184.329507,-9548.656652,0.000000
19758.255447,1332.370696,-10288.862594,383.047749
19758.255781,-2368.659014,-9918.759623,-1225.752797
19758.256114,-3108.864956,-10362.883188,-1685.410096
19758.256447,-1850.514855,-11103.089130,-76.609550
19758.256780,-3552.988522,-8956.491898,2374.896044
19758.257113,-1554.432478,-5995.668130,0.000000
19758.257446,0.000000,-7624.121203,4596.572988
19758.257779,4663.297435,-9326.594869,5745.716235
19758.258112,4663.297435,-6217.729913,5669.106685
19758.258445,3478.967927,-7105.977043,2068.457845
19758.258778,3849.070898,-7994.224174,383.047749
19758.259112,1850.514855,-10362.883188,-2374.896044
19758.259445,0.000000,-10140.821405,-5362.668486
19758.259778,-1776.494261,-14211.954086,-4979.620737
19758.260111,-5625.565159,-10140.821405,-7354.516781
19758.260444,-2072.576638,-10732.986159,-1762.019645
19758.260777,-74.020594,-11547.212695,383.047749
19758.261110,1110.308913,-7550.100608,3600.648841
19758.261443,1110.308913,-8142.265362,4903.011187
19758.261776,3404.947333,-6809.894666,5669.106685
19758.262109,2294.638420,-7254.018232,5822.325785
19758.262443,592.164754,-8068.244768,4903.011187
19758.262776,1702.473667,-8290.306550,229.828649
19758.263109,-1480.411884,-10066.800811,-76.609550
19758.263442,-74.020594,-11251.130318,-76.609550
19758.263775,-2442.679609,-7179.997637,-3370.820191
19758.264108,-666.185348,-7698.141797,-2911.162892
19758.264441,-518.144159,-7698.141797,-3983.696590
19758.264774,1258.350101,-10807.006753,-2221.676944
19758.265107,1184.329507,-10584.944971,-1762.019645
19758.265440,0.000000,-11325.150913,0.000000
19758.265774,2886.803174,-9474.636058,0.000000
19758.266107,3478.967927,-10362.883188,2681.334243
19758.266440,3923.091493,-9844.739029,4519.963438
19758.266773,3997.112087,-7698.141797,5515.887586
19758.267106,0.000000,-6291.750507,3064.381992
19758.267439,2294.638420,-9474.636058,2221.676944
19758.267772,-3404.947333,-7179.997637,1838.629195
19758.268105,-1258.350101,-9178.553681,-76.609550
19758.268438,-2442.679609,-9326.594869,-689.485948
19758.268772,-3256.906145,-7179.997637,-3370.820191
19758.269105,-296.082377,-9474.636058,-1608.800546
19758.269438,1702.473667,-8882.471304,0.000000
19758.269771,3997.112087,-7698.141797,1149.143247
19758.270104,4737.318029,-8660.409521,1838.629195
19758.270437,7031.956449,-11251.130318,842.705048
19758.270770,3849.070898,-11177.109724,0.000000
19758.271103,3108.864956,-12435.459826,1149.143247
19758.271436,1628.453072,-9548.656652,-1838.629195
19758.271769,0.000000,-12805.562797,1149.143247
19758.272103,444.123565,-9548.656652,383.047749
19758.272436,-370.102971,-8956.491898,229.828649
19758.272769,-1850.514855,-9252.574275,0.000000
19758.273102,-1258.350101,-10658.965565,1762.019645
19758.273435,-370.102971,-8882.471304,76.609550
19758.273768,-1036.288319,-8438.347739,4826.401637
19758.274101,-74.020594,-8290.306550,2987.772442
19758.274434,-1480.411884,-7476.080014,3064.381992
19758.274767,2220.617826,-8290.306550,3447.429741
19758.275100,296.082377,-6735.874072,995.924147
19758.275434,518.144159,-7994.224174,-1378.971896
19758.275767,-1258.350101,-10510.924376,-3830.477490
19758.276100,-2738.761985,-11177.109724,-5056.230287
19758.276433,-4145.153275,-9548.656652,-7354.516781
19758.276766,-1850.514855,-14211.954086,-3140.991542
19758.277099,-2664.741391,-9844.739029,-2451.505594
19758.277432,-2368.659014,-10732.986159,1225.752797
19758.277765,3330.926739,-10362.883188,4826.401637
19758.278098,-888.247130,-7328.038826,5209.449386
19758.278431,518.144159,-8586.388927,4826.401637
19758.278765,1110.308913,-8290.306550,6205.373534
19758.279098,-370.102971,-5329.482782,4673.182538
19758.279431,-1110.308913,-5847.626942,2451.505594
19758.279764,-2960.823768,-8142.265362,-536.266849
19758.280097,-2960.823768,-9252.574275,-2757.943793
19758.280430,-2368.659014,-8068.244768,-3064.381992
19758.280763,-74.020594,-10658.965565,-2834.553343
19758.281096,-74.020594,-9400.615463,-6052.154434
19758.281429,0.000000,-11325.150913,-4290.134789
19758.281762,2368.659014,-10881.027347,1455.581446
19758.282096,1776.494261,-9548.656652,1225.752797
19758.282429,3478.967927,-10955.047942,2987.772442
19758.282762,4811.338623,-9104.533087,4366.744339
19758.283095,4071.132681,-8438.347739,5439.278036
19758.283428,4071.132681,-7698.141797,2987.772442
19758.283761,0.000000,-7179.997637,612.876398
19758.284094,-3552.988522,-7476.080014,0.000000
19758.284427,-518.144159,-11843.295072,-689.485948
19758.284760,-2442.679609,-10658.965565,-2528.115143
19758.285093,-1850.514855,-9178.553681,-1915.238745
19758.285427,-962.267725,-10658.965565,-229.828649
19758.285760,1776.494261,-8586.388927,3140.991542
19758.286093,3849.070898,-6069.688724,4060.306139
19758.286426,5107.421000,-6809.894666,4060.306139
19758.286759,7031.956449,-8290.306550,3600.648841
19758.287092,4145.153275,-10140.821405,2451.505594
19758.287425,5107.421000,-11251.130318,-76.609550
19758.287758,-1702.473667,-9548.656652,-3677.258390
19758.288091,0.000000,-10140.821405,-4903.011187
19758.288424,-666.185348,-11325.150913,-4596.572988
19758.288758,-1554.432478,-11843.295072,-2911.162892
19758.289091,-1924.535449,-9918.759623,-1149.143247
19758.289424,-2072.576638,-11325.150913,2987.772442
19758.289757,592.164754,-7179.997637,3983.696590
19758.290090,3478.967927,-8290.306550,8503.660028
19758.290423,2294.638420,-7105.977043,6052.154434
19758.290756,592.164754,-4811.338623,6128.763984
19758.291089,3478.967927,-7698.141797,4826.401637
19758.291422,296.082377,-6661.853478,-459.657299
19758.291755,-2516.700203,-8586.388927,-4826.401637
19758.292089,-3330.926739,-9844.739029,-7354.516781
19758.292422,-4071.132681,-11399.171507,-7354.516781
19758.292755,-4145.153275,-13101.645173,-4903.011187
19758.293088,-1258.350101,-13619.789333,-4366.744339
19758.293421,-2960.823768,-10732.986159,0.000000
19758.293754,0.000000,-7476.080014,4903.011187
19758.294087,5847.626942,-9474.636058,8503.660028
19758.294420,2664.741391,-6587.832884,8427.050478
19758.294753,2886.803174,-6291.750507,6052.154434
19758.295086,814.226536,-7179.997637,3753.867940
19758.295420,222.061783,-8882.471304,1455.581446
19758.295753,-5921.647536,-8364.327145,-919.314598
19758.296086,-5551.544565,-9178.553681,-5286.058936
19758.296419,-5921.647536,-9474.636058,-4443.353888
19758.296752,-3478.967927,-10066.800811,-2987.772442
19758.297085,-962.267725,-7105.977043,-1378.971896
19758.297418,0.000000,-7179.997637,1225.752797
19758.297751,5551.544565,-7698.141797,4213.525239
19758.298084,6735.874072,-7994.224174,2374.896044
19758.298417,4145.153275,-9548.656652,3830.477490
19758.298751,4071.132681,-9474.636058,1149.143247
19758.299084,1776.494261,-8956.491898,-1072.533697
19758.299417,2220.617826,-11547.212695,-1455.581446
19758.299750,-1406.391290,-11473.192101,-2451.505594
19758.300083,-2368.659014,-10140.821405,-2451.505594
19758.300416,-3552.988522,-9548.656652,-153.219100
19758.300749,-1258.350101,-8956.491898,-2145.067394
19758.301082,0.000000,-8364.327145,1225.752797
19758.301415,1184.329507,-8512.368333,6894.859482
19758.301748,2442.679609,-4811.338623,4903.011187
19758.302082,3849.070898,-6365.771101,4979.620737
19758.302415,4071.132681,-8290.306550,4366.744339
19758.302748,3552.988522,-7031.956449,1991.848295
19758.303081,4071.132681,-8290.306550,-689.485948
19758.303414,296.082377,-9548.656652,-1915.238745
19758.303747,-666.185348,-11251.130318,-8120.612279
19758.304080,-3404.947333,-11473.192101,-5209.449386
19758.304413,-1776.494261,-11843.295072,-2834.553343
19758.304746,-74.020594,-11843.295072,-2145.067394
19758.305079,1332.370696,-11177.109724,1378.971896
19758.305413,1924.535449,-9770.718434,4749.792088
19758.305746,3997.112087,-6883.915261,6358.592633
19758.306079,2886.803174,-5625.565159,4290.134789
19758.306412,2960.823768,-10658.965565,6665.030833
19758.306745,0.000000,-5995.668130,1838.629195
19758.307078,-2960.823768,-8808.450710,2987.772442
19758.307411,-2442.679609,-8586.388927,-1302.362347
19758.307744,-4811.338623,-9474.636058,-3753.867940
19758.308077,-3849.070898,-8142.265362,-3370.820191
19758.308410,-2812.782580,-7994.224174,-2528.115143
19758.308744,-1998.556043,-8512.368333,-2681.334243
19758.309077,-2368.659014,-9548.656652,-2451.505594
19758.309410,2294.638420,-11251.130318,-689.485948
19758.309743,1480.411884,-8956.491898,3370.820191
19758.310076,4663.297435,-10955.047942,3600.648841
19758.310409,1998.556043,-8364.327145,1225.752797
19758.310742,2294.638420,-9400.615463,2987.772442
19758.311075,1036.288319,-8586.388927,1685.410096
19758.311408,-740.205942,-9918.759623,-383.047749
19758.311741,-3108.864956,-10362.883188,-1302.362347
19758.312075,-4737.318029,-10140.821405,0.000000
19758.312408,-2442.679609,-8290.306550,-1149.143247
19758.312741,-3108.864956,-8882.471304,459.657299
19758.313074,-1258.350101,-6587.832884,153.219100
19758.313407,74.020594,-8290.306550,2604.724693
19758.313740,1184.329507,-4811.338623,2451.505594
19758.314073,4663.297435,-7105.977043,2068.457845
19758.314406,3182.885551,-7920.203579,-1685.410096
19758.314739,2368.659014,-9844.739029,383.047749
19758.315072,3478.967927,-12435.459826,-229.828649
19758.315406,0.000000,-10140.821405,-3677.258390
19758.315739,-1258.350101,-11103.089130,-3983.696590
19758.316072,-1184.329507,-11843.295072,-2451.505594
19758.316405,296.082377,-11177.109724,-383.047749
19758.316738,-1776.494261,-9992.780217,1838.629195
19758.317071,1702.473667,-8290.306550,-383.047749
19758.317404,592.164754,-8364.327145,2451.505594
19758.317737,3923.091493,-9474.636058,6971.469032
19758.318070,1702.473667,-5033.400406,2757.943793
19758.318403,0.000000,-8660.409521,4826.401637
19758.318737,962.267725,-7698.141797,1608.800546
19758.319070,1406.391290,-8142.265362,1455.581446
19758.319403,2294.638420,-7698.141797,-612.876398
19758.319736,1702.473667,-9474.636058,-2068.457845
19758.320069,-74.020594,-9474.636058,-7584.345430
19758.320402,0.000000,-10732.986159,-3064.381992
19758.320735,0.000000,-11621.233289,-1608.800546
19758.321068,1554.432478,-10066.800811,-2987.772442
19758.321401,2072.576638,-11621.233289,1762.019645
19758.321734,4145.153275,-9770.718434,4366.744339
19758.322068,4737.318029,-6661.853478,6128.763984
19758.322401,2664.741391,-9104.533087,4903.011187
19758.322734,2294.638420,-7402.059420,3140.991542
19758.323067,-1036.288319,-7772.162391,306.438199
19758.323400,0.000000,-10436.903782,4213.525239
19758.323733,-2442.679609,-7698.141797,-842.705048
19758.324066,-4367.215058,-6587.832884,-4903.011187
19758.324399,-444.123565,-9474.636058,-1302.362347
19758.324732,-1850.514855,-8882.471304,-1532.190996
19758.325065,296.082377,-6439.791695,-1225.752797
19758.325399,1110.308913,-8734.430116,-459.657299
19758.325732,888.247130,-7254.018232,-919.314598
19758.326065,1924.535449,-9622.677246,612.876398
19758.326398,1184.329507,-10732.986159,919.314598
19758.326731,814.226536,-9696.697840,-612.876398
19758.327064,148.041188,-11473.192101,1838.629195
19758.327397,2294.638420,-13471.748144,1149.143247
19758.327730,-3256.906145,-7179.997637,0.000000
19758.328063,-2146.597232,-10066.800811,-76.609550
19758.328396,-370.102971,-9474.636058,-1302.362347
19758.328730,-3552.988522,-10807.006753,1532.190996
19758.329063,-2146.597232,-8290.306550,1149.143247
19758.329396,-1998.556043,-8882.471304,2374.896044
19758.329729,-1628.453072,-7328.038826,2451.505594
19758.330062,814.226536,-7105.977043,1762.019645
19758.330395,1184.329507,-5403.503377,4290.134789
19758.330728,1406.391290,-4811.338623,1532.190996
19758.331061,4367.215058,-8882.471304,-76.609550
19758.331394,740.205942,-9474.636058,-4213.525239
19758.331727,-74.020594,-11547.212695,-4979.620737
19758.332060,-1850.514855,-12435.459826,-5898.935335
19758.332393,-1776.494261,-11843.295072,-4979.620737
19758.332726,-2960.823768,-11917.315666,-3064.381992
19758.333059,592.164754,-9918.759623,0.000000
19758.333392,3478.967927,-11547.212695,4826.401637
19758.333725,1776.494261,-8364.327145,5515.887586
19758.334058,4071.132681,-9474.636058,7277.907231
19758.334391,1184.329507,-7179.997637,6741.640382
19758.334724,1776.494261,-4219.173869,4903.011187
19758.335057,962.267725,-5995.668130,1685.410096
19758.335390,0.000000,-7772.162391,-306.438199
19758.335723,-1036.288319,-9178.553681,-3294.210641
19758.336056,-1184.329507,-8364.327145,-4903.011187
19758.336390,518.144159,-7550.100608,-5592.497135
19758.336723,1480.411884,-12361.439231,-2834.553343
19758.337056,4663.297435,-12361.439231,-995.924147
19758.337389,2590.720797,-11473.192101,-2145.067394
19758.337722,4737.318029,-10732.986159,3294.210641
19758.338055,4145.153275,-9548.656652,2451.505594
19758.338388,6069.688724,-9918.759623,4826.401637
19758.338721,6143.709319,-8142.265362,5439.278036
19758.339054,3849.070898,-7476.080014,4060.306139
19758.339387,148.041188,-6587.832884,0.000000
19758.339720,-74.020594,-11843.295072,-76.609550
19758.340053,-3997.112087,-8068.244768,-1225.752797
19758.340386,-5921.647536,-8364.327145,-2451.505594
19758.340719,-4737.318029,-10584.944971,-1685.410096
19758.341052,-4441.235652,-9548.656652,-2757.943793
19758.341385,-1406.391290,-9178.553681,459.657299
19758.341718,666.185348,-7550.100608,2604.724693
19758.342051,2368.659014,-6587.832884,2068.457845
19758.342384,2442.679609,-7179.997637,2451.505594
19758.342717,2886.803174,-8882.471304,1685.410096
19758.343050,592.164754,-8512.368333,-459.657299
19758.343383,-1554.432478,-10807.006753,-3140.991542
19758.343716,-1554.432478,-11843.295072,-3753.867940
19758.344050,-5329.482782,-10881.027347,-3064.381992
19758.344383,-3182.885551,-11843.295072,-1302.362347
19758.344716,-5995.668130,-9992.780217,-3677.258390
19758.345049,-4737.318029,-9548.656652,536.266849
19758.345382,-2368.659014,-10510.924376,7277.907231
19758.345715,-1332.370696,-6069.688724,7277.907231
19758.346048,0.000000,-5477.523971,6894.859482
19758.346381,74.020594,-5773.606348,6052.154434
19758.346714,0.000000,-5329.482782,3447.429741
19758.347047,-74.020594,-3182.885551,0.000000
19758.347380,1110.308913,-8882.471304,-1915.238745
19758.347713,-1850.514855,-9474.636058,-7431.126331
19758.348046,-4441.235652,-11325.150913,-7354.516781
19758.348379,-2738.761985,-13619.789333,-7431.126331
19758.348712,-4737.318029,-13101.645173,-6741.640382
19758.349045,-1628.453072,-11695.253884,-2604.724693
19758.349378,2368.659014,-11325.150913,3140.991542
19758.349711,4145.153275,-7179.997637,6128.763984
19758.350044,6143.709319,-4811.338623,4903.011187
19758.350377,7624.121203,-9474.636058,7277.907231
19758.350710,4145.153275,-5403.503377,6128.763984
19758.351043,2516.700203,-8364.327145,4903.011187
19758.351376,0.000000,-7179.997637,-1149.143247
19758.351710,-3034.844362,-9770.718434,-4519.963438
19758.352043,-3775.050304,-10732.986159,-6205.373534
19758.352376,-962.267725,-10362.883188,-4443.353888
19758.352709,1702.473667,-10066.800811,-1302.362347
19758.353042,1184.329507,-8364.327145,0.000000
19758.353375,6439.791695,-10658.965565,2987.772442
19758.353708,7031.956449,-7328.038826,1838.629195
19758.354041,7920.203579,-9474.636058,4826.401637
19758.354374,6143.709319,-10214.842000,1225.752797
19758.354707,5773.606348,-9252.574275,766.095498
19758.355040,4293.194464,-11251.130318,1149.143247
19758.355373,1776.494261,-10140.821405,-1685.410096
19758.355706,-1924.535449,-10214.842000,-3753.867940
19758.356039,-3552.988522,-12509.480420,-1915.238745
19758.356372,-3478.967927,-9548.656652,-2451.505594
19758.356705,-2738.761985,-7179.997637,0.000000
19758.357038,-148.041188,-9326.594869,3600.648841
19758.357371,518.144159,-7846.182985,3677.258390
19758.357704,1628.453072,-6735.874072,4596.572988
19758.358037,3108.864956,-6513.812290,3677.258390
19758.358370,4145.153275,-6809.894666,2911.162892
19758.358703,1702.473667,-8882.471304,-1302.362347
19758.359036,518.144159,-11251.130318,-2834.553343
19758.359370,-4145.153275,-12805.562797,-5822.325785
19758.359703,-5181.441594,-12657.521608,-6281.983084
19758.360036,-6217.729913,-11473.192101,-4519.963438
19758.360369,-2442.679609,-11843.295072,-1915.238745
19758.360702,-3552.988522,-10140.821405,0.000000
19758.361035,-888.247130,-8882.471304,4826.401637
19758.361368,518.144159,-6143.709319,5209.449386
19758.361701,0.000000,-5107.421000,6435.202183
19758.362034,2294.638420,-8882.471304,4826.401637
19758.362367,-1332.370696,-7772.162391,4596.572988
19758.362700,-3108.864956,-7254.018232,612.876398
19758.363033,-2442.679609,-7698.141797,-995.924147
19758.363366,-2664.741391,-7772.162391,-3064.381992
19758.363699,-1184.329507,-9474.636058,-1302.362347
19758.364032,-666.185348,-10288.862594,-1455.581446
19758.364365,-74.020594,-7920.203579,-5515.887586
19758.364698,296.082377,-11769.274478,-612.876398
19758.365031,2738.761985,-9030.512492,-2298.286494
19758.365364,2738.761985,-10658.965565,383.047749
19758.365697,3108.864956,-9326.594869,842.705048
19758.366030,4663.297435,-9474.636058,1762.019645
19758.366363,2960.823768,-10140.821405,4903.011187
19758.366697,5847.626942,-11251.130318,4213.525239
19758.367030,0.000000,-7772.162391,612.876398
19758.367363,0.000000,-9548.656652,766.095498
19758.367696,1110.308913,-11843.295072,-76.609550
19758.368029,-2368.659014,-7476.080014,0.000000
19758.368362,-1184.329507,-7772.162391,-919.314598
19758.368695,-1184.329507,-9030.512492,-1149.143247
19758.369028,1184.329507,-8808.450710,0.000000
19758.369361,5403.503377,-7105.977043,4443.353888
19758.369694,5255.462188,-7105.977043,-76.609550
19758.370027,2368.659014,-8660.409521,919.314598
19758.370360,5551.544565,-11843.295072,-76.609550
19758.370693,2886.803174,-10658.965565,-2528.115143
19758.371026,0.000000,-10436.903782,-766.095498
19758.371359,-222.061783,-11029.068536,-2757.943793
19758.371692,370.102971,-11695.253884,-766.095498
19758.372025,-74.020594,-8734.430116,0.000000
19758.372358,888.247130,-9252.574275,0.000000
19758.372691,-1924.535449,-8808.450710,306.438199
19758.373024,-1036.288319,-9252.574275,1608.800546
19758.373357,0.000000,-8364.327145,3983.696590
19758.373690,-1850.514855,-5921.647536,1455.581446
19758.374023,-4737.318029,-7772.162391,2757.943793
19758.374357,1110.308913,-8586.388927,1762.019645
19758.374690,-1776.494261,-5403.503377,0.000000
19758.375023,0.000000,-6883.915261,1838.629195
19758.375356,-1406.391290,-9474.636058,-2834.553343
19758.375689,-3108.864956,-9104.533087,-4290.134789
19758.376022,-3108.864956,-10510.924376,-3983.696590
19758.376355,-2146.597232,-9918.759623,-3907.087040
19758.376688,-4737.318029,-10732.986159,-3064.381992
19758.377021,-222.061783,-10955.047942,-2451.505594
19758.377354,2294.638420,-11251.130318,536.266849
19758.377687,0.000000,-8956.491898,5515.887586
19758.378020,1776.494261,-9918.759623,6052.154434
19758.378353,0.000000,-6587.832884,4290.134789
19758.378686,148.041188,-9474.636058,5439.278036
19758.379019,-296.082377,-6661.853478,3677.258390
19758.379352,-2442.679609,-7402.059420,842.705048
19758.379685,-666.185348,-9474.636058,-76.609550
19758.380018,-3182.885551,-7476.080014,-3370.820191
19758.380351,-74.020594,-9474.636058,-3753.867940
19758.380684,-370.102971,-7772.162391,-4903.011187
19758.381017,592.164754,-9548.656652,-4903.011187
19758.381350,3997.112087,-11769.274478,-153.219100
19758.381683,2368.659014,-11917.315666,1149.143247
19758.382017,2368.659014,-10732.986159,153.219100
19758.382350,3775.050304,-9622.677246,2221.676944
19758.382683,4737.318029,-9918.759623,3524.039291
19758.383016,2960.823768,-8364.327145,4903.011187
19758.383349,2886.803174,-6587.832884,306.438199
19758.383682,0.000000,-8956.491898,2987.772442
19758.384015,-74.020594,-10362.883188,-1302.362347
19758.384348,-1554.432478,-9030.512492,-1608.800546
19758.384681,-2146.597232,-10066.800811,-1302.362347
19758.385014,-2590.720797,-10288.862594,-1149.143247
19758.385347,444.123565,-9326.594869,1149.143247
19758.385680,1554.432478,-8068.244768,3524.039291
19758.386013,5551.544565,-8882.471304,4826.401637
19758.386346,2664.741391,-5403.503377,4903.011187
19758.386679,5847.626942,-8586.388927,4826.401637
19758.387012,4663.297435,-10658.965565,-1302.362347
19758.387345,-666.185348,-9400.615463,-3753.867940
19758.387678,-814.226536,-13027.624579,-4979.620737
19758.388011,-2294.638420,-11325.150913,-4903.011187
19758.388344,-666.185348,-11991.336260,-2604.724693
19758.388677,-2368.659014,-11473.192101,-995.924147
19758.389010,-74.020594,-10658.965565,1149.143247
19758.389343,-1406.391290,-10066.800811,3830.477490
19758.389677,74.020594,-7920.203579,6128.763984
19758.390010,518.144159,-8586.388927,6818.249932
19758.390343,0.000000,-3923.091493,4903.011187
19758.390676,518.144159,-7105.977043,4826.401637
19758.391009,-740.205942,-4737.318029,-76.609550
19758.391342,-2368.659014,-7772.162391,153.219100
19758.391675,-2442.679609,-8586.388927,-4979.620737
19758.392008,-2442.679609,-9474.636058,-7737.564530
19758.392341,-3775.050304,-12287.418637,-7048.078582
19758.392674,-2738.761985,-12879.583391,-5286.058936
19758.393007,-2072.576638,-11843.295072,-3600.648841
19758.393340,0.000000,-11325.150913,1225.752797
19758.393673,2664.741391,-11251.130318,5745.716235
19758.394006,1776.494261,-8364.327145,4903.011187
19758.394339,1184.329507,-6587.832884,8733.488677
19758.394672,3478.967927,-7105.977043,4826.401637
19758.395005,1258.350101,-5403.503377,3064.381992
19758.395338,-74.020594,-9326.594869,1762.019645
19758.395671,-1998.556043,-9178.553681,-1915.238745
19758.396004,-4885.359217,-10066.800811,-4060.306139
19758.396337,-3034.844362,-10955.047942,-2834.553343
19758.396670,-2442.679609,-13619.789333,-2528.115143
19758.397003,-1776.494261,-7772.162391,0.000000
19758.397337,3256.906145,-6883.915261,1838.629195
19758.397670,5995.668130,-7994.224174,4826.401637
19758.398003,7105.977043,-8512.368333,5592.497135
19758.398336,6513.812290,-7920.203579,3677.258390
19758.398669,3849.070898,-9252.574275,153.219100
19758.399002,3256.906145,-9104.533087,-1762.019645
19758.399335,592.164754,-11695.253884,-3830.477490
19758.399668,1998.556043,-13027.624579,-3907.087040
19758.400001,-2368.659014,-9548.656652,-2451.505594
19758.400334,-1332.370696,-12065.356855,-689.485948
19758.400667,-666.185348,-11843.295072,-76.609550
19758.401000,962.267725,-10955.047942,4826.401637
19758.401333,2664.741391,-6365.771101,7431.126331
19758.401666,2442.679609,-5477.523971,6665.030833
19758.401999,3404.947333,-5551.544565,5056.230287
19758.402332,2960.823768,-5403.503377,4903.011187
19758.402665,2294.638420,-4959.379811,612.876398
19758.402998,3330.926739,-8290.306550,-689.485948
19758.403331,-74.020594,-11547.212695,-7584.345430
19758.403664,0.000000,-11029.068536,-6128.763984
19758.403997,-666.185348,-14063.912898,-4979.620737
19758.404330,-2146.597232,-12583.501014,-5515.887586
19758.404663,-1776.494261,-12953.603985,-3217.601092
19758.404997,888.247130,-11917.315666,536.266849
19758.405330,3552.988522,-8364.327145,6128.763984
19758.405663,5551.544565,-5403.503377,7354.516781
19758.405996,5551.544565,-7031.956449,7124.688131
19758.406329,5699.585753,-7254.018232,6971.469032
19758.406662,3404.947333,-8142.265362,6052.154434
19758.406995,0.000000,-6291.750507,536.266849
19758.407328,-3923.091493,-9474.636058,-4979.620737
19758.407661,-8290.306550,-10436.903782,-4826.401637
19758.407994,-5107.421000,-10658.965565,-4979.620737
19758.408327,-1850.514855,-9474.636058,-2834.553343
19758.408660,-4145.153275,-9548.656652,-1532.190996
19758.408993,74.020594,-9696.697840,229.828649
19758.409326,2294.638420,-9252.574275,2681.334243
19758.409659,1036.288319,-8068.244768,2834.553343
19758.409992,1184.329507,-9548.656652,1225.752797
19758.410325,1110.308913,-8068.244768,0.000000
19758.410658,-1776.494261,-9548.656652,2451.505594
19758.410991,-74.020594,-10658.965565,-76.609550
19758.411324,-5699.585753,-9252.574275,-2451.505594
19758.411657,-5255.462188,-11843.295072,-1302.362347
19758.411990,-5699.585753,-11473.192101,-383.047749
19758.412323,-4959.379811,-8216.285956,612.876398
19758.412657,-3552.988522,-7179.997637,2374.896044
19758.412990,-666.185348,-8882.471304,4826.401637
19758.413323,74.020594,-3627.009116,4903.011187
19758.413656,2960.823768,-6365.771101,7354.516781
19758.413989,4663.297435,-7105.977043,1762.019645
19758.414322,0.000000,-6587.832884,0.000000
19758.414655,-74.020594,-10658.965565,-3447.429741
19758.414988,-666.185348,-11251.130318,-4673.182538
19758.415321,-4219.173869,-12509.480420,-5209.449386
19758.415654,-2294.638420,-11621.233289,-4673.182538
19758.415987,-370.102971,-11251.130318,-2068.457845
19758.416320,-2368.659014,-9548.656652,1225.752797
19758.416653,1776.494261,-9030.512492,3907.087040
19758.416986,518.144159,-7105.977043,2221.676944
19758.417319,1184.329507,-4811.338623,6128.763984
19758.417652,4663.297435,-7698.141797,5132.839837
19758.417985,3108.864956,-7920.203579,4673.182538
19758.418318,2220.617826,-8216.285956,3294.210641
19758.418651,1184.329507,-8216.285956,0.000000
19758.418984,2294.638420,-10658.965565,-689.485948
19758.419317,0.000000,-9474.636058,-2604.724693
19758.419650,1110.308913,-9326.594869,-4519.963438
19758.419983,1258.350101,-9844.739029,-3830.477490
19758.420317,2368.659014,-11325.150913,-1225.752797
19758.420650,4663.297435,-11843.295072,-76.609550
19758.420983,2886.803174,-10288.862594,-1225.752797
19758.421316,3701.029710,-7179.997637,1838.629195
19758.421649,5699.585753,-11547.212695,3600.648841
19758.421982,3256.906145,-7772.162391,1378.971896
19758.422315,3478.967927,-9918.759623,3753.867940
19758.422648,-74.020594,-8808.450710,919.314598
19758.422981,296.082377,-9548.656652,1532.190996
19758.423314,-74.020594,-9474.636058,2374.896044
19758.423647,0.000000,-8882.471304,-76.609550
19758.423980,-3552.988522,-7179.997637,612.876398
19758.424313,-666.185348,-10066.800811,-1302.362347
19758.424646,-74.020594,-7550.100608,-3447.429741
19758.424979,888.247130,-9474.636058,612.876398
19758.425312,1998.556043,-7476.080014,-1455.581446
19758.425645,2294.638420,-10510.924376,-536.266849
19758.425978,1258.350101,-11695.253884,1149.143247
19758.426311,-74.020594,-9474.636058,-76.609550
19758.426644,-296.082377,-10955.047942,-76.609550
19758.426977,-2368.659014,-7772.162391,1225.752797
19758.427310,-962.267725,-11843.295072,2374.896044
19758.427643,-3552.988522,-5403.503377,0.000000
19758.427977,-2590.720797,-8882.471304,-76.609550
19758.428310,-4811.338623,-8956.491898,0.000000
19758.428643,-3478.967927,-9178.553681,689.485948
19758.428976,-3997.112087,-8882.471304,1838.629195
19758.429309,-4737.318029,-7179.997637,2451.505594
19758.429642,-1258.350101,-6809.894666,229.828649
19758.429975,592.164754,-8512.368333,3677.258390
19758.430308,4071.132681,-8882.471304,4213.525239
19758.430641,1406.391290,-4811.338623,2451.505594
19758.430974,1184.329507,-6587.832884,0.000000
19758.431307,0.000000,-9696.697840,-2221.676944
19758.431640,-666.185348,-10510.924376,-4366.744339
19758.431973,-1332.370696,-10510.924376,-5439.278036
19758.432306,-370.102971,-13619.789333,-3753.867940
19758.432639,-1702.473667,-9548.656652,-4903.011187
19758.432972,1702.473667,-13915.871710,1455.581446
19758.433305,4663.297435,-12731.542202,6052.154434
19758.433638,1184.329507,-6291.750507,4903.011187
19758.433971,2960.823768,-8364.327145,6588.421283
19758.434304,5847.626942,-7698.141797,5745.716235
19758.434637,2368.659014,-5403.503377,6894.859482
19758.434970,2590.720797,-7105.977043,2374.896044
19758.435304,-74.020594,-9474.636058,-689.485948
19758.435637,-1702.473667,-8660.409521,-3524.039291
19758.435970,-74.020594,-8290.306550,-4826.401637
19758.436303,222.061783,-10140.821405,-5439.278036
19758.436636,666.185348,-10510.924376,-5132.839837
19758.436969,2516.700203,-13027.624579,-153.219100
19758.437302,2220.617826,-9548.656652,0.000000
19758.437635,1184.329507,-7179.997637,1838.629195
19758.437968,5699.585753,-11843.295072,4213.525239
19758.438301,5033.400406,-7772.162391,4903.011187
19758.438634,4145.153275,-8364.327145,6665.030833
19758.438967,3330.926739,-7328.038826,2911.162892
19758.439300,-666.185348,-8290.306550,-459.657299
19758.439633,-3108.864956,-10955.047942,-2604.724693
19758.439966,-4219.173869,-11843.295072,-2528.115143
19758.440299,-6291.750507,-7476.080014,-4903.011187
19758.440632,-3552.988522,-10658.965565,-612.876398
19758.440965,-1184.329507,-10658.965565,2374.896044
19758.441298,518.144159,-6883.915261,2757.943793
19758.441631,3775.050304,-6513.812290,4826.401637
19758.441964,4071.132681,-6587.832884,4903.011187
19758.442298,3256.906145,-7179.997637,3140.991542
19758.442631,2368.659014,-8882.471304,1455.581446
19758.442964,-962.267725,-8882.471304,-4060.306139
19758.443297,-4811.338623,-9548.656652,-7354.516781
19758.443630,-2442.679609,-13027.624579,-4979.620737
19758.443963,-2442.679609,-13619.789333,-3753.867940
19758.444296,-5921.647536,-10436.903782,-1225.752797
19758.444629,-3627.009116,-10066.800811,-1608.800546
19758.444962,-2886.803174,-10288.862594,3600.648841
19758.445295,444.123565,-8364.327145,7737.564530
19758.445628,2146.597232,-4663.297435,8810.098227
19758.445961,1184.329507,-5995.668130,8580.269578
19758.446294,1776.494261,-6217.729913,7660.954980
19758.446627,2294.638420,-7105.977043,1149.143247
19758.446960,0.000000,-6587.832884,-919.314598
19758.447293,-814.226536,-9474.636058,-2528.115143
19758.447626,-2442.679609,-10510.924376,-9652.803275
19758.447959,-2812.782580,-12583.501014,-8044.002729
19758.448292,-2960.823768,-13323.706956,-5898.935335
19758.448625,-1554.432478,-11547.212695,-3447.429741
19758.448958,0.000000,-11917.315666,1225.752797
19758.449292,4811.338623,-8290.306550,5439.278036
19758.449625,5921.647536,-6883.915261,7584.345430
19758.449958,5921.647536,-7105.977043,8044.002729
19758.450291,5847.626942,-7105.977043,6971.469032
19758.450624,1924.535449,-7105.977043,2221.676944
19758.450957,0.000000,-9548.656652,1838.629195
19758.451290,-2590.720797,-9474.636058,-3753.867940
19758.451623,-5477.523971,-9548.656652,-7048.078582
19758.451956,-3034.844362,-11251.130318,-4060.306139
19758.452289,-1036.288319,-10807.006753,-2528.115143
19758.452622,1258.350101,-7772.162391,-229.828649
19758.452955,3701.029710,-7402.059420,2451.505594
19758.453288,5625.565159,-6883.915261,3064.381992
19758.453621,7105.977043,-7624.121203,5898.935335
19758.453954,2368.659014,-7772.162391,3677.258390
19758.454287,5847.626942,-9474.636058,-76.609550
19758.454620,1184.329507,-9474.636058,-2528.115143
19758.454953,592.164754,-10955.047942,-2834.553343
19758.455286,-370.102971,-11843.295072,-3753.867940
19758.455619,-4737.318029,-11399.171507,-3447.429741
19758.455952,-3849.070898,-10510.924376,-1685.410096
19758.456285,-5181.441594,-11473.192101,306.438199
19758.456619,-666.185348,-9178.553681,3600.648841
19758.456952,0.000000,-7105.977043,7354.516781
19758.457285,2294.638420,-6513.812290,7890.783629
19758.457618,1184.329507,-3034.844362,4903.011187
19758.457951,0.000000,-6587.832884,4903.011187
19758.458284,74.020594,-5699.585753,0.000000
19758.458617,-1554.432478,-8142.265362,-3830.477490
19758.458950,-2960.823768,-10732.986159,-7354.516781
19758.459283,-4663.297435,-13175.665768,-7814.174080
19758.459616,-5329.482782,-11029.068536,-7967.393179
19758.459949,-1850.514855,-14211.954086,-3140.991542
19758.460282,-1554.432478,-14211.954086,-76.609550
19758.460615,-370.102971,-7772.162391,1225.752797
19758.460948,2812.782580,-9474.636058,8503.660028
19758.461281,2664.741391,-5255.462188,7660.954980
19758.461614,4663.297435,-5181.441594,6971.469032
19758.461947,2738.761985,-8956.491898,6971.469032
19758.462280,1110.308913,-7031.956449,3830.477490
19758.462613,-3552.988522,-8068.244768,0.000000
19758.462946,-74.020594,-10658.965565,-4366.744339
19758.463279,-4737.318029,-9548.656652,-4903.011187
19758.463613,-4737.318029,-7772.162391,-4903.011187
19758.463946,1850.514855,-9474.636058,-1302.362347
19758.464279,888.247130,-8660.409521,-1225.752797
19758.464612,4219.173869,-9474.636058,153.219100
19758.464945,5255.462188,-9844.739029,2221.676944
19758.465278,3923.091493,-8660.409521,1149.143247
19758.465611,2664.741391,-8364.327145,919.314598
19758.465944,4663.297435,-9252.574275,1532.190996
19758.466277,5181.441594,-9474.636058,2528.115143
19758.466610,4145.153275,-9104.533087,2528.115143
19758.466943,1110.308913,-11843.295072,536.266849
19758.467276,-1776.494261,-8364.327145,-1532.190996
19758.467609,-1628.453072,-13027.624579,-76.609550
19758.467942,-1258.350101,-7105.977043,-2834.553343
19758.468275,-2664.741391,-8512.368333,0.000000
19758.468608,1998.556043,-8808.450710,2987.772442
19758.468941,1924.535449,-7994.224174,3753.867940
19758.469274,2960.823768,-5699.585753,3064.381992
19758.469607,5403.503377,-6143.709319,1685.410096
19758.469940,3330.926739,-7179.997637,0.000000
19758.470273,3627.009116,-7179.997637,0.000000
19758.470607,4663.297435,-11843.295072,-1915.238745
19758.470940,0.000000,-9548.656652,-6588.421283
19758.471273,0.000000,-12583.501014,-3217.601092
19758.471606,-666.185348,-14211.954086,-1915.238745
19758.471939,1184.329507,-11029.068536,-459.657299
19758.472272,-1036.288319,-10510.924376,612.876398
19758.472605,-222.061783,-7846.182985,1149.143247
19758.472938,592.164754,-8364.327145,6128.763984
19758.473271,148.041188,-5995.668130,4903.011187
19758.473604,3478.967927,-8290.306550,4519.963438
19758.473937,-2368.659014,-7179.997637,3677.258390
19758.474270,-888.247130,-8882.471304,2987.772442
19758.474603,-4145.153275,-6587.832884,-2451.505594
19758.474936,-3478.967927,-9178.553681,-2221.676944
19758.475269,-3108.864956,-8068.244768,-3677.258390
19758.475602,-3775.050304,-9548.656652,-3753.867940
19758.475935,-666.185348,-11251.130318,-2834.553343
19758.476268,-5921.647536,-11325.150913,-2451.505594
19758.476601,-3627.009116,-11251.130318,-4060.306139
19758.476934,-3256.906145,-8364.327145,0.000000
19758.477267,1406.391290,-11251.130318,4826.401637
19758.477601,1702.473667,-9178.553681,4596.572988
19758.477934,-296.082377,-8586.388927,4596.572988
19758.478267,-1184.329507,-7624.121203,2681.334243
19758.478600,-1406.391290,-9548.656652,3830.477490
19758.478933,-2146.597232,-7179.997637,1838.629195
19758.479266,-814.226536,-9474.636058,-76.609550
19758.479599,-5329.482782,-7179.997637,-2451.505594
19758.479932,-4589.276840,-7179.997637,-2451.505594
19758.480265,-814.226536,-9474.636058,-76.609550
19758.480598,2294.638420,-8586.388927,-612.876398
19758.480931,2294.638420,-8142.265362,-995.924147
19758.481264,1702.473667,-10066.800811,-536.266849
19758.481597,1998.556043,-11695.253884,306.438199
19758.481930,1924.535449,-9030.512492,-1149.143247
19758.482263,3923.091493,-11251.130318,1455.581446
19758.482596,3552.988522,-9622.677246,1608.800546
19758.482929,2590.720797,-10807.006753,2298.286494
19758.483262,1258.350101,-8882.471304,76.609550
19758.483595,-74.020594,-9474.636058,-1302.362347
19758.483928,-888.247130,-9992.780217,612.876398
19758.484261,-74.020594,-11251.130318,-689.485948
19758.484595,-1776.494261,-8660.409521,1838.629195
19758.484928,592.164754,-7772.162391,2757.943793
19758.485261,2294.638420,-7105.977043,1532.190996
19758.485594,4367.215058,-8660.409521,3600.648841
19758.485927,6143.709319,-6069.688724,4596.572988
19758.486260,5847.626942,-7105.977043,2911.162892
19758.486593,4737.318029,-5995.668130,0.000000
19758.486926,4293.194464,-12731.542202,-76.609550
19758.487259,3182.885551,-14211.954086,-3753.867940
19758.487592,-2368.659014,-9548.656652,-6128.763984
19758.487925,-74.020594,-15396.283594,-3753.867940
19758.488258,-1258.350101,-11325.150913,-3677.258390
19758.488591,-370.102971,-11177.109724,0.000000
19758.488924,1554.432478,-8512.368333,3140.991542
19758.489257,1480.411884,-7179.997637,5822.325785
19758.489590,2368.659014,-8364.327145,7660.954980
19758.489923,7031.956449,-8290.306550,9116.536426
19758.490256,148.041188,-4811.338623,5209.449386
19758.490589,0.000000,-7179.997637,3907.087040
19758.490922,-2442.679609,-10362.883188,-2221.676944
19758.491255,-4145.153275,-8956.491898,-4290.134789
19758.491589,-3034.844362,-10066.800811,-5745.716235
19758.491922,-2886.803174,-10214.842000,-6205.373534
19758.492255,-3404.947333,-11917.315666,-4596.572988
19758.492588,-962.267725,-12731.542202,-1302.362347
19758.492921,-74.020594,-11843.295072,-76.609550
19758.493254,-1184.329507,-7179.997637,2451.505594
19758.493587,3775.050304,-9474.636058,6052.154434
19758.493920,4071.132681,-7105.977043,5439.278036
19758.494253,1776.494261,-7179.997637,7584.345430
19758.494586,444.123565,-7179.997637,2451.505594
19758.494919,-2516.700203,-9178.553681,-383.047749
19758.495252,-4589.276840,-11177.109724,-2757.943793
19758.495585,-6587.832884,-11695.253884,-2528.115143
19758.495918,-7328.038826,-9696.697840,-4060.306139
19758.496251,-6069.688724,-8956.491898,-1915.238745
19758.496584,-2368.659014,-9400.615463,1302.362347
19758.496917,1480.411884,-2738.761985,3983.696590
19758.497250,2368.659014,-4811.338623,6128.763984
19758.497583,6439.791695,-7105.977043,4826.401637
19758.497916,5255.462188,-6217.729913,536.266849
19758.498249,3108.864956,-8660.409521,766.095498
19758.498582,2664.741391,-9474.636058,-3140.991542
19758.498916,-2072.576638,-12361.439231,-5056.230287
19758.499249,-814.226536,-12509.480420,-5975.544884
19758.499582,-1184.329507,-12509.480420,-3600.648841
19758.499915,0.000000,-11769.274478,-1685.410096
19758.500248,-1258.350101,-10288.862594,0.000000
19758.500581,1110.308913,-11547.212695,2374.896044
19758.500914,3478.967927,-6513.812290,6128.763984
19758.501247,3182.885551,-3034.844362,8580.269578
19758.501580,5329.482782,-5403.503377,7660.954980
19758.501913,4145.153275,-6587.832884,5822.325785
19758.502246,2812.782580,-7772.162391,1991.848295
19758.502579,2590.720797,-6883.915261,-2221.676944
19758.502912,-74.020594,-11843.295072,-4979.620737
19758.503245,-3552.988522,-10140.821405,-9499.584175
19758.503578,-2442.679609,-13027.624579,-9576.193725
19758.503911,-2368.659014,-11621.233289,-5515.887586
19758.504244,-222.061783,-13915.871710,-1838.629195
19758.504577,3478.967927,-11843.295072,2374.896044
19758.504910,4441.235652,-9918.759623,6971.469032
19758.505243,4441.235652,-6291.750507,7660.954980
19758.505576,4737.318029,-5773.606348,7354.516781
19758.505910,2812.782580,-6883.915261,5745.716235
19758.506243,1184.329507,-8956.491898,5439.278036
19758.506576,-1554.432478,-7328.038826,0.000000
19758.506909,-7698.141797,-8364.327145,-1838.629195
19758.507242,-4811.338623,-11251.130318,-4979.620737
19758.507575,-7846.182985,-9400.615463,-5975.544884
19758.507908,-3034.844362,-9474.636058,-3907.087040
19758.508241,-2442.679609,-8586.388927,-766.095498
19758.508574,0.000000,-8290.306550,1455.581446
19758.508907,2664.741391,-7402.059420,4060.306139
19758.509240,4367.215058,-9474.636058,4213.525239
19758.509573,0.000000,-6587.832884,2451.505594
19758.509906,3034.844362,-10362.883188,2987.772442
19758.510239,2294.638420,-9178.553681,-1455.581446
19758.510572,0.000000,-9696.697840,-1225.752797
19758.510905,-2146.597232,-11547.212695,-2528.115143
19758.511238,-4219.173869,-11029.068536,-3064.381992
19758.511571,-4811.338623,-10955.047942,-1915.238745
19758.511904,-2960.823768,-11177.109724,919.314598
19758.512237,-74.020594,-8882.471304,3600.648841
19758.512570,0.000000,-7994.224174,5592.497135
19758.512904,2368.659014,-4811.338623,5592.497135
19758.513237,2590.720797,-6069.688724,4903.011187
19758.513570,2442.679609,-5995.668130,2451.505594
19758.513903,4663.297435,-8734.430116,1455.581446
19758.514236,1184.329507,-5995.668130,-4903.011187
19758.514569,1184.329507,-11843.295072,-3140.991542
19758.514902,-1258.350101,-13027.624579,-6588.421283
19758.515235,-1850.514855,-11325.150913,-7814.174080
19758.515568,-1258.350101,-11695.253884,-4060.306139
19758.515901,814.226536,-12139.377449,-76.609550
19758.516234,1480.411884,-9918.759623,2911.162892
19758.516567,2960.823768,-8512.368333,5515.887586
19758.516900,6735.874072,-8290.306550,7277.907231
19758.517233,2368.659014,-4811.338623,5515.887586
19758.517566,5847.626942,-11547.212695,7277.907231
19758.517899,2146.597232,-7624.121203,2681.334243
19758.518232,-2960.823768,-7772.162391,0.000000
19758.518565,-222.061783,-9326.594869,-2528.115143
19758.518898,-2220.617826,-10214.842000,-2681.334243
19758.519231,-740.205942,-9474.636058,-3447.429741
19758.519564,962.267725,-9474.636058,-1302.362347
19758.519898,2294.638420,-13027.624579,-2528.115143
19758.520231,2146.597232,-9252.574275,-1685.410096
19758.520564,2368.659014,-10436.903782,1225.752797
19758.520897,3775.050304,-10658.965565,1762.019645
19758.521230,4589.276840,-9400.615463,3600.648841
19758.521563,3182.885551,-10584.944971,2604.724693
19758.521896,3478.967927,-9178.553681,3600.648841
19758.522229,222.061783,-9474.636058,2604.724693
19758.522562,-1628.453072,-8216.285956,0.000000
19758.522895,-2442.679609,-10658.965565,-1149.143247
19758.523228,-5921.647536,-8364.327145,612.876398
19758.523561,-2738.761985,-8882.471304,-76.609550
19758.523894,-5551.544565,-7698.141797,-1302.362347
19758.524227,-2664.741391,-7105.977043,-76.609550
19758.524560,-1258.350101,-8586.388927,2221.676944
19758.524893,1332.370696,-5921.647536,1838.629195
19758.525226,1628.453072,-6291.750507,612.876398
19758.525559,1184.329507,-9252.574275,153.219100
19758.525892,814.226536,-8364.327145,0.000000
19758.526225,1036.288319,-12731.542202,-76.609550
19758.526558,-74.020594,-9696.697840,-4903.011187
19758.526892,-2072.576638,-13249.686362,-995.924147
19758.527225,-296.082377,-13027.624579,-76.609550
19758.527558,0.000000,-8956.491898,689.485948
19758.527891,-1554.432478,-9696.697840,1149.143247
19758.528224,518.144159,-6661.853478,1762.019645
19758.528557,0.000000,-9252.574275,4903.011187
19758.528890,1628.453072,-5477.523971,5056.230287
19758.529223,962.267725,-6291.750507,3830.477490
19758.529556,814.226536,-7994.224174,2374.896044
19758.529889,1332.370696,-7550.100608,2451.505594
19758.530222,0.000000,-7179.997637,0.000000
19758.530555,2886.803174,-5773.606348,-4213.525239
19758.530888,0.000000,-9844.739029,-1608.800546
19758.531221,1998.556043,-11251.130318,-4826.401637
19758.531554,2294.638420,-10362.883188,-3294.210641
19758.531887,0.000000,-12065.356855,-2757.943793
19758.532221,1332.370696,-9548.656652,-3064.381992
19758.532554,2590.720797,-11621.233289,1149.143247
19758.532887,5625.565159,-8364.327145,3524.039291
19758.533220,5255.462188,-8882.471304,6588.421283
19758.533553,1258.350101,-7476.080014,3370.820191
19758.533887,2294.638420,-5995.668130,1225.752797
19758.534220,1480.411884,-10362.883188,6052.154434
19758.534553,222.061783,-4959.379811,0.000000
19758.534886,-3034.844362,-7031.956449,-2451.505594
19758.535220,-1850.514855,-10066.800811,-2451.505594
19758.535553,-2220.617826,-8882.471304,-2528.115143
19758.535886,-1480.411884,-8586.388927,-1991.848295
19758.536219,1406.391290,-6735.874072,-3294.210641
19758.536552,0.000000,-8660.409521,1608.800546
19758.536886,4663.297435,-10362.883188,2374.896044
19758.537219,4663.297435,-9474.636058,-229.828649
19758.537552,1776.494261,-10881.027347,2451.505594
19758.537885,2294.638420,-9474.636058,0.000000
19758.538218,2294.638420,-11547.212695,1608.800546
19758.538552,2738.761985,-9622.677246,1149.143247
19758.538885,-666.185348,-9696.697840,229.828649
19758.539218,-2368.659014,-8068.244768,-1838.629195
19758.539551,-2368.659014,-10732.986159,2221.676944
19758.539884,-2442.679609,-9474.636058,-1378.971896
19758.540218,-3478.967927,-5403.503377,-2451.505594
19758.540551,-2960.823768,-11103.089130,4826.401637
19758.540884,-1850.514855,-5551.544565,0.000000
19758.541217,740.205942,-7105.977043,3294.210641
19758.541551,2220.617826,-6143.709319,4443.353888
19758.541884,2590.720797,-6291.750507,2298.286494
19758.542217,148.041188,-7179.997637,-1532.190996
19758.542550,296.082377,-11251.130318,-2528.115143
19758.542883,-3701.029710,-10510.924376,-5362.668486
19758.543217,-4515.256246,-11325.150913,-6588.421283
19758.543550,-1258.350101,-13027.624579,-4979.620737
19758.543883,-2442.679609,-11769.274478,-3677.258390
19758.544216,-2072.576638,-9548.656652,1915.238745
19758.544549,-74.020594,-11843.295072,5745.716235
19758.544883,814.226536,-7031.956449,4826.401637
19758.545216,2516.700203,-8290.306550,7354.516781
19758.545549,2294.638420,-5625.565159,7048.078582
19758.545882,1184.329507,-5699.585753,4903.011187
19758.546216,74.020594,-6143.709319,2298.286494
19758.546549,0.000000,-7105.977043,-919.314598
19758.546882,-444.123565,-8586.388927,-3753.867940
19758.547215,-2368.659014,-9548.656652,-3753.867940
19758.547548,-1258.350101,-10658.965565,-5592.497135
19758.547882,-1258.350101,-12139.377449,-7584.345430
19758.548215,-518.144159,-11843.295072,-3753.867940
19758.548548,0.000000,-10881.027347,-919.314598
19758.548881,2960.823768,-9252.574275,2987.772442
19758.549214,5699.585753,-7920.203579,5362.668486
19758.549548,4737.318029,-8660.409521,7354.516781
19758.549881,7031.956449,-6217.729913,4826.401637
19758.550214,3552.988522,-8956.491898,6665.030833
19758.550547,1110.308913,-8364.327145,-1838.629195
19758.550881,-1998.556043,-11843.295072,-1838.629195
19758.551214,-4145.153275,-9622.677246,-4136.915689
19758.551547,-3997.112087,-9918.759623,-2834.553343
19758.551880,-3404.947333,-10510.924376,-2374.896044
19758.552213,1110.308913,-8956.491898,-306.438199
19758.552547,4663.297435,-9326.594869,5439.278036
19758.552880,4367.215058,-3923.091493,2451.505594
19758.553213,7031.956449,-7105.977043,4213.525239
19758.553546,7031.956449,-9326.594869,1455.581446
19758.553879,3552.988522,-9548.656652,2374.896044
19758.554213,2664.741391,-11547.212695,-1149.143247
19758.554546,-74.020594,-11251.130318,-4366.744339
19758.554879,-888.247130,-13027.624579,-3294.210641
19758.555212,-2516.700203,-10584.944971,-3064.381992
19758.555546,-2590.720797,-10658.965565,-3140.991542
19758.555879,-4737.318029,-9548.656652,1532.190996
19758.556212,-666.185348,-8290.306550,459.657299
19758.556545,0.000000,-7179.997637,4903.011187
19758.556878,3775.050304,-7994.224174,8503.660028
19758.557212,1628.453072,-5921.647536,4903.011187
19758.557545,2294.638420,-7105.977043,4213.525239
19758.557878,888.247130,-7402.059420,1225.752797
19758.558211,1850.514855,-7328.038826,-842.705048
19758.558544,-222.061783,-9178.553681,-5286.058936
19758.558878,-3849.070898,-11473.192101,-7124.688131
19758.559211,-4515.256246,-13619.789333,-7660.954980
19758.559544,-4071.132681,-12879.583391,-6281.983084
19758.559877,-3256.906145,-12435.459826,-2987.772442
19758.560210,-74.020594,-11251.130318,-689.485948
19758.560544,1184.329507,-9548.656652,6128.763984
19758.560877,2960.823768,-6291.750507,10955.165621
19758.561210,3478.967927,-4219.173869,6128.763984
19758.561543,2368.659014,-6883.915261,6818.249932
19758.561877,1850.514855,-9474.636058,4826.401637
19758.562210,-1776.494261,-7920.203579,1532.190996
19758.562543,-4737.318029,-9252.574275,-2681.334243
19758.562876,-5995.668130,-9474.636058,-5439.278036
19758.563209,-5551.544565,-9548.656652,-6128.763984
19758.563543,-4737.318029,-8068.244768,-3064.381992
19758.563876,-74.020594,-9474.636058,-76.609550
19758.564209,2886.803174,-8882.471304,-689.485948
19758.564542,2960.823768,-7920.203579,1838.629195
19758.564875,5255.462188,-8290.306550,2987.772442
19758.565209,5181.441594,-8068.244768,2681.334243
19758.565542,4885.359217,-9918.759623,2681.334243
19758.565875,3849.070898,-9548.656652,2145.067394
19758.566208,3034.844362,-10140.821405,0.000000
19758.566542,-3552.988522,-9548.656652,306.438199
19758.566875,-1258.350101,-10066.800811,-4903.011187
19758.567208,-3256.906145,-11621.233289,-2451.505594
19758.567541,-444.123565,-11251.130318,1455.581446
19758.567874,-2220.617826,-7179.997637,1225.752797
19758.568208,222.061783,-7550.100608,2374.896044
19758.568541,962.267725,-5551.544565,3983.696590
19758.568874,2960.823768,-6957.935855,4213.525239
19758.569207,5773.606348,-6513.812290,3600.648841
19758.569540,3849.070898,-8734.430116,4213.525239
19758.569874,3478.967927,-7698.141797,-3524.039291
19758.570207,0.000000,-10732.986159,-3064.381992
19758.570540,-1184.329507,-12731.542202,-4519.963438
19758.570873,-1776.494261,-12805.562797,-4366.744339
19758.571207,-2368.659014,-11325.150913,-3677.258390
19758.571540,0.000000,-11695.253884,-995.924147
19758.571873,-888.247130,-10436.903782,1685.410096
19758.572206,814.226536,-7328.038826,3140.991542
19758.572539,4071.132681,-7105.977043,5745.716235
19758.572873,1776.494261,-4811.338623,3677.258390
19758.573206,1184.329507,-8512.368333,7277.907231
19758.573539,-74.020594,-7105.977043,2681.334243
19758.573872,-3552.988522,-7476.080014,1378.971896
19758.574205,-3108.864956,-8882.471304,-2221.676944
19758.574539,-3330.926739,-9844.739029,-3064.381992
19758.574872,-3034.844362,-8364.327145,-4213.525239
19758.575205,-1998.556043,-8882.471304,-3140.991542
19758.575538,-148.041188,-9474.636058,-2757.943793
19758.575871,74.020594,-10066.800811,-306.438199
19758.576205,1110.308913,-9474.636058,-459.657299
19758.576538,1776.494261,-8956.491898,1072.533697
19758.576871,3478.967927,-9474.636058,2374.896044
19758.577204,2368.659014,-10881.027347,6358.592633
19758.577538,2886.803174,-7624.121203,2451.505594
19758.577871,0.000000,-9844.739029,1838.629195
19758.578204,-1184.329507,-8364.327145,1225.752797
19758.578537,-1850.514855,-9918.759623,306.438199
19758.578870,-1702.473667,-9178.553681,536.266849
19758.579204,-2590.720797,-7994.224174,-153.219100
19758.579537,-1480.411884,-7994.224174,-689.485948
19758.579870,-2146.597232,-7179.997637,-2145.067394
19758.580203,2294.638420,-9474.636058,1149.143247
19758.580536,2886.803174,-4811.338623,0.000000
19758.580870,2368.659014,-8364.327145,842.705048
19758.581203,4663.297435,-11843.295072,-76.609550
19758.581536,2368.659014,-10140.821405,612.876398
19758.581869,2072.576638,-10732.986159,459.657299
19758.582203,2738.761985,-10288.862594,-1302.362347
19758.582536,1258.350101,-12213.398043,-689.485948
19758.582869,0.000000,-10732.986159,0.000000
19758.583202,2294.638420,-8882.471304,-1915.238745
19758.583535,-1480.411884,-7772.162391,-2451.505594
19758.583869,-2368.659014,-8956.491898,1838.629195
19758.584202,-74.020594,-10362.883188,2068.457845
19758.584535,592.164754,-7105.977043,4979.620737
19758.584868,148.041188,-7550.100608,3753.867940
19758.585201,296.082377,-8142.265362,2145.067394
19758.585535,2146.597232,-7846.182985,2374.896044
19758.585868,3182.885551,-8882.471304,3294.210641
19758.586201,3478.967927,-6069.688724,-3524.039291
19758.586534,-1702.473667,-9252.574275,-3064.381992
19758.586868,1184.329507,-13101.645173,-689.485948
19758.587201,-666.185348,-10362.883188,-4979.620737
19758.587534,-1628.453072,-12361.439231,-2834.553343
19758.587867,-1850.514855,-9844.739029,-3524.039291
19758.588200,888.247130,-13323.706956,995.924147
19758.588534,2664.741391,-8660.409521,4519.963438
19758.588867,1776.494261,-7772.162391,7354.516781
19758.589200,2294.638420,-9474.636058,5439.278036
19758.589533,2072.576638,-8512.368333,5975.544884
19758.589866,148.041188,-8512.368333,5439.278036
19758.590200,-2368.659014,-5995.668130,919.314598
19758.590533,-5329.482782,-9252.574275,-76.609550
19758.590866,-3627.009116,-8438.347739,-4673.182538
19758.591199,-3923.091493,-7179.997637,-4903.011187
19758.591532,-1184.329507,-8290.306550,-1991.848295
19758.591866,-74.020594,-9474.636058,-1915.238745
19758.592199,0.000000,-10066.800811,-1302.362347
19758.592532,2072.576638,-9992.780217,1149.143247
19758.592865,1480.411884,-9548.656652,1225.752797
19758.593199,1184.329507,-10140.821405,1225.752797
19758.593532,1184.329507,-8364.327145,3983.696590
19758.593865,4367.215058,-10658.965565,1455.581446
19758.594198,3552.988522,-9252.574275,2757.943793
19758.594531,592.164754,-11547.212695,2068.457845
19758.594865,-1480.411884,-7179.997637,-1608.800546
19758.595198,-1480.411884,-11843.295072,-76.609550
19758.595531,-2664.741391,-9696.697840,-1072.533697
19758.595864,-2590.720797,-8290.306550,-842.705048
19758.596197,-74.020594,-9474.636058,2374.896044
19758.596531,592.164754,-7179.997637,4826.401637
19758.596864,4071.132681,-4367.215058,1838.629195
19758.597197,3849.070898,-5995.668130,4903.011187
19758.597530,7031.956449,-7698.141797,3600.648841
19758.597864,4515.256246,-8808.450710,0.000000
19758.598197,3552.988522,-10881.027347,-1762.019645
19758.598530,-222.061783,-11177.109724,-4290.134789
19758.598863,-814.226536,-11473.192101,-5975.544884
19758.599196,296.082377,-12287.418637,-4060.306139
19758.599530,592.164754,-13249.686362,-76.609550
19758.599863,-74.020594,-8438.347739,-1532.190996
19758.600196,0.000000,-9844.739029,3447.429741
19758.600529,4367.215058,-9474.636058,4826.401637
19758.600862,2294.638420,-7105.977043,7277.907231
19758.601196,2442.679609,-5847.626942,7124.688131
19758.601529,2146.597232,-6365.771101,4826.401637
19758.601862,814.226536,-5995.668130,2374.896044
19758.602195,0.000000,-7772.162391,0.000000
19758.602529,-74.020594,-8290.306550,-3753.867940
19758.602862,-1776.494261,-9548.656652,-3983.696590
19758.603195,-2368.659014,-8660.409521,-5362.668486
19758.603528,-74.020594,-14804.118840,-5898.935335
19758.603861,-666.185348,-11695.253884,-5286.058936
19758.604195,-1184.329507,-13471.748144,-1838.629195
19758.604528,1406.391290,-10214.842000,1225.752797
19758.604861,4367.215058,-9474.636058,5439.278036
19758.605194,2368.659014,-7179.997637,6741.640382
19758.605527,5847.626942,-5921.647536,6971.469032
19758.605861,1480.411884,-6883.915261,5286.058936
19758.606194,814.226536,-7624.121203,2604.724693
19758.606527,-3627.009116,-8660.409521,0.000000
19758.606860,-7698.141797,-8364.327145,-4903.011187
19758.607194,-5995.668130,-10658.965565,-4979.620737
19758.607527,-7772.162391,-8660.409521,-6128.763984
19758.607860,-3404.947333,-9400.615463,-842.705048
19758.608193,-74.020594,-9474.636058,3294.210641
19758.608526,1332.370696,-5551.544565,1838.629195
19758.608860,3330.926739,-7105.977043,3064.381992
19758.609193,3552.988522,-8438.347739,3600.648841
19758.609526,2516.700203,-8068.244768,1838.629195
19758.609859,148.041188,-9104.533087,612.876398
19758.610192,1998.556043,-10066.800811,-4060.306139
19758.610526,-2072.576638,-12509.480420,-3677.258390
19758.610859,-2442.679609,-13619.789333,-1915.238745
19758.611192,-4219.173869,-9918.759623,-4749.792088
19758.611525,-5921.647536,-10732.986159,-306.438199
19758.611858,-2294.638420,-9548.656652,1532.190996
19758.612192,-74.020594,-7698.141797,6052.154434
19758.612525,1332.370696,-5255.462188,6741.640382
19758.612858,4515.256246,-5921.647536,7277.907231
19758.613191,4663.297435,-6513.812290,2987.772442
19758.613525,3552.988522,-6069.688724,4826.401637
19758.613858,4663.297435,-9474.636058,-76.609550
19758.614191,814.226536,-8882.471304,-5822.325785
19758.614524,-1480.411884,-13027.624579,-7431.126331
19758.614857,-4145.153275,-13545.768739,-8044.002729
19758.615191,-2886.803174,-12287.418637,-7048.078582
19758.615524,-2368.659014,-13101.645173,-3447.429741
19758.615857,1110.308913,-10658.965565,536.266849
19758.616190,1776.494261,-7179.997637,2451.505594
19758.616523,5329.482782,-6587.832884,10189.070123
19758.616857,7031.956449,-4737.318029,7584.345430
19758.617190,2516.700203,-5995.668130,5515.887586
19758.617523,5033.400406,-9326.594869,6665.030833
19758.617856,-592.164754,-8068.244768,2068.457845
19758.618190,-1776.494261,-8808.450710,-2604.724693
19758.618523,-4071.132681,-10807.006753,-5745.716235
19758.618856,-3330.926739,-11843.295072,-6205.373534
19758.619189,-2664.741391,-9548.656652,-4749.792088
19758.619522,-518.144159,-9844.739029,-3370.820191
19758.619856,1702.473667,-9326.594869,-995.924147
19758.620189,2368.659014,-9548.656652,2451.505594
19758.620522,5329.482782,-8512.368333,6665.030833
19758.620855,5847.626942,-7105.977043,2374.896044
19758.621188,2368.659014,-7772.162391,1225.752797
19758.621522,4737.318029,-9622.677246,3294.210641
19758.621855,1184.329507,-9548.656652,612.876398
19758.622188,-1184.329507,-10362.883188,-1608.800546
19758.622521,-4737.318029,-10807.006753,-3600.648841
19758.622855,-5329.482782,-12139.377449,-3447.429741
19758.623188,-1850.514855,-10658.965565,-689.485948
19758.623521,-4145.153275,-7328.038826,1149.143247
19758.623854,-1258.350101,-7105.977043,0.000000
19758.624187,-2368.659014,-5699.585753,5209.449386
19758.624521,0.000000,-6587.832884,5975.544884
19758.624854,5551.544565,-4737.318029,4213.525239
19758.625187,2960.823768,-8734.430116,3294.210641
19758.625520,1776.494261,-7179.997637,-1685.410096
19758.625853,0.000000,-10732.986159,-3217.601092
19758.626187,-1554.432478,-12731.542202,-6588.421283
19758.626520,-3997.112087,-12509.480420,-5209.449386
19758.626853,-4737.318029,-11917.315666,-7048.078582
19758.627186,-1184.329507,-12657.521608,536.266849
19758.627519,-370.102971,-9918.759623,842.705048
19758.627853,814.226536,-7031.956449,3447.429741
19758.628186,1776.494261,-7402.059420,6971.469032
19758.628519,3256.906145,-6809.894666,7124.688131
19758.628852,1924.535449,-5995.668130,6052.154434
19758.629186,0.000000,-8068.244768,5056.230287
19758.629519,-74.020594,-9474.636058,-76.609550
19758.629852,-666.185348,-8586.388927,-2604.724693
19758.630185,-1776.494261,-9548.656652,-995.924147
19758.630518,-2368.659014,-8660.409521,-2145.067394
19758.630852,0.000000,-9918.759623,-4060.306139
19758.631185,814.226536,-10140.821405,-4519.963438
19758.631518,814.226536,-11547.212695,-2528.115143
19758.631851,1184.329507,-9696.697840,-1762.019645
19758.632185,2590.720797,-9844.739029,1225.752797
19758.632518,4367.215058,-8290.306550,1149.143247
19758.632851,3552.988522,-10140.821405,6052.154434
19758.633184,3478.967927,-9474.636058,4213.525239
19758.633518,518.144159,-6883.915261,0.000000
19758.633851,0.000000,-7772.162391,306.438199
19758.634184,-1850.514855,-10140.821405,0.000000
19758.634517,-74.020594,-9474.636058,0.000000
19758.634851,-3701.029710,-9474.636058,-1378.971896
19758.635184,-2442.679609,-7772.162391,-2298.286494
19758.635517,-1554.432478,-9918.759623,-2298.286494
19758.635850,962.267725,-7402.059420,-76.609550
19758.636184,2812.782580,-6587.832884,1225.752797
19758.636517,2442.679609,-8734.430116,383.047749
19758.636850,2368.659014,-9548.656652,612.876398
19758.637184,2886.803174,-10955.047942,-153.219100
19758.637517,296.082377,-8364.327145,-2451.505594
19758.637850,1184.329507,-10732.986159,1455.581446
19758.638183,962.267725,-11547.212695,-1378.971896
19758.638517,-1184.329507,-9548.656652,0.000000
19758.638850,-1258.350101,-9474.636058,-459.657299
19758.639183,-1258.350101,-8956.491898,-766.095498
19758.639516,-2442.679609,-10362.883188,1149.143247
19758.639850,-74.020594,-10658.965565,2374.896044
19758.640183,-74.020594,-8290.306550,2374.896044
19758.640516,-3849.070898,-5995.668130,3064.381992
19758.640849,0.000000,-8660.409521,4826.401637
19758.641183,1998.556043,-6069.688724,2451.505594
19758.641516,1776.494261,-6587.832884,4903.011187
19758.641849,1924.535449,-7105.977043,0.000000
19758.642183,-296.082377,-9770.718434,-3217.601092
19758.642516,-962.267725,-11473.192101,-4596.572988
19758.642849,-2294.638420,-11843.295072,-4673.182538
19758.643182,-74.020594,-11251.130318,-6818.249932
19758.643516,-2368.659014,-12213.398043,-995.924147
19758.643849,1702.473667,-11843.295072,536.266849
19758.644182,1110.308913,-8438.347739,2528.115143
19758.644515,1036.288319,-8290.306550,5439.278036
19758.644849,1184.329507,-7476.080014,5286.058936
19758.645182,2738.761985,-7550.100608,7354.516781
19758.645515,2146.597232,-6439.791695,6205.373534
19758.645848,0.000000,-5403.503377,2451.505594
19758.646182,-1850.514855,-6957.935855,-2451.505594
19758.646515,-1184.329507,-11029.068536,-689.485948
19758.646848,-666.185348,-9474.636058,-4749.792088
19758.647181,-2220.617826,-8290.306550,-6665.030833
19758.647515,-2960.823768,-9548.656652,-6894.859482
19758.647848,148.041188,-11843.295072,-3140.991542
19758.648181,2442.679609,-10436.903782,612.876398
19758.648515,3775.050304,-9474.636058,2451.505594
19758.648848,6439.791695,-9474.636058,4826.401637
19758.649181,4145.153275,-8364.327145,6128.763984
19758.649514,5255.462188,-9474.636058,4826.401637
19758.649848,3478.967927,-5403.503377,612.876398
19758.650181,0.000000,-10066.800811,1149.143247
19758.650514,-1776.494261,-9844.739029,-2528.115143
19758.650847,-3330.926739,-11843.295072,-2068.457845
19758.651181,-3923.091493,-9548.656652,-3217.601092
19758.651514,-4811.338623,-9474.636058,-2528.115143
19758.651847,-1480.411884,-10510.924376,1762.019645
19758.652180,592.164754,-7550.100608,4290.134789
19758.652514,3182.885551,-5551.544565,5286.058936
19758.652847,4071.132681,-7105.977043,4366.744339
19758.653180,4145.153275,-6661.853478,2604.724693
19758.653514,3108.864956,-10436.903782,1225.752797
19758.653847,1924.535449,-7179.997637,-3677.258390
19758.654180,-74.020594,-14211.954086,-2834.553343
19758.654513,-3552.988522,-10732.986159,-6128.763984
19758.654847,-814.226536,-12435.459826,-3140.991542
19758.655180,-2294.638420,-12731.542202,-1302.362347
19758.655513,-1480.411884,-9548.656652,-76.609550
19758.655846,-2368.659014,-10214.842000,2451.505594
19758.656180,2442.679609,-8142.265362,6511.811733
19758.656513,4071.132681,-7105.977043,9729.412825
19758.656846,0.000000,-4811.338623,6741.640382
19758.657179,0.000000,-4811.338623,6435.202183
19758.657513,1110.308913,-7698.141797,1608.800546
19758.657846,0.000000,-5403.503377,0.000000
19758.658179,-814.226536,-9178.553681,-4136.915689
19758.658512,-2146.597232,-9992.780217,-7124.688131
19758.658846,-2960.823768,-11177.109724,-7890.783629
19758.659179,-2294.638420,-13545.768739,-6205.373534
19758.659512,-1258.350101,-12139.377449,-4519.963438
19758.659846,-2368.659014,-11917.315666,1225.752797
19758.660179,4663.297435,-9474.636058,4826.401637
19758.660512,5847.626942,-7550.100608,5515.887586
19758.660845,6513.812290,-7476.080014,11031.775171
19758.661179,4959.379811,-4959.379811,6128.763984
19758.661512,2886.803174,-8142.265362,4366.744339
19758.661845,888.247130,-8956.491898,2374.896044
19758.662178,-3775.050304,-9770.718434,-2068.457845
19758.662512,-6217.729913,-9548.656652,-6128.763984
19758.662845,-8290.306550,-11029.068536,-3447.429741
19758.663178,-3627.009116,-10955.047942,-5592.497135
19758.663511,-2960.823768,-6587.832884,-2757.943793
19758.663845,1184.329507,-8512.368333,4596.572988
19758.664178,4367.215058,-4293.194464,2451.505594
19758.664511,5625.565159,-6809.894666,5132.839837
19758.664844,5329.482782,-8734.430116,3677.258390
19758.665178,4885.359217,-9326.594869,2221.676944
19758.665511,2368.659014,-8364.327145,-1378.971896
19758.665844,2812.782580,-12287.418637,-1915.238745
19758.666178,-888.247130,-12065.356855,-2834.553343
19758.666511,-2072.576638,-11991.336260,-3524.039291
19758.666844,-74.020594,-11843.295072,-2528.115143
19758.667177,-2442.679609,-10658.965565,-2451.505594
19758.667511,-2368.659014,-9696.697840,3753.867940
19758.667844,0.000000,-8364.327145,8197.221829
19758.668177,2886.803174,-5329.482782,6665.030833
19758.668510,2812.782580,-3701.029710,7354.516781
19758.668844,2738.761985,-6439.791695,4519.963438
19758.669177,3923.091493,-6143.709319,2834.553343
19758.669510,2368.659014,-6587.832884,0.000000
19758.669843,2368.659014,-7105.977043,-4903.011187
19758.670177,740.205942,-13027.624579,-7431.126331
19758.670510,-3552.988522,-14582.057057,-5362.668486
19758.670843,-1998.556043,-14211.954086,-5286.058936
19758.671177,-666.185348,-14211.954086,-5286.058936
19758.671510,-666.185348,-13323.706956,-76.609550
19758.671843,1406.391290,-8734.430116,4979.620737
19758.672176,4367.215058,-5107.421000,7814.174080
19758.672510,4959.379811,-3182.885551,8503.660028
19758.672843,3552.988522,-6587.832884,8273.831378
19758.673176,4663.297435,-6513.812290,5362.668486
19758.673509,-2072.576638,-8660.409521,4213.525239
19758.673843,-3034.844362,-10066.800811,-4673.182538
19758.674176,-7105.977043,-11325.150913,-7201.297681
19758.674509,-7105.977043,-10140.821405,-7201.297681
19758.674842,-4145.153275,-9770.718434,-4519.963438
19758.675176,-1110.308913,-9104.533087,-2604.724693
19758.675509,1406.391290,-9400.615463,0.000000
19758.675842,4367.215058,-11547.212695,4826.401637
19758.676175,2738.761985,-5403.503377,1838.629195
19758.676509,4071.132681,-8734.430116,2374.896044
19758.676842,3478.967927,-9326.594869,459.657299
19758.677175,2368.659014,-9548.656652,4060.306139
19758.677509,2220.617826,-10955.047942,3064.381992
19758.677842,-74.020594,-10214.842000,-689.485948
19758.678175,-4071.132681,-10955.047942,-1608.800546
19758.678508,-3478.967927,-10955.047942,-995.924147
19758.678842,-3034.844362,-9474.636058,-383.047749
19758.679175,-4737.318029,-7772.162391,3217.601092
19758.679508,-1258.350101,-6809.894666,-229.828649
19758.679841,-1184.329507,-5995.668130,612.876398
19758.680175,3775.050304,-7698.141797,4826.401637
19758.680508,4663.297435,-5625.565159,3370.820191
19758.680841,3404.947333,-7402.059420,1225.752797
19758.681174,2146.597232,-9844.739029,-1608.800546
19758.681508,1184.329507,-10807.006753,-2221.676944
19758.681841,-370.102971,-12139.377449,-4979.620737
19758.682174,-2072.576638,-12065.356855,-2911.162892
19758.682508,-888.247130,-11325.150913,-2451.505594
19758.682841,1480.411884,-11695.253884,383.047749
19758.683174,296.082377,-8808.450710,1685.410096
19758.683507,1702.473667,-8882.471304,2068.457845
19758.683841,592.164754,-8068.244768,4979.620737
19758.684174,1184.329507,-7476.080014,7890.783629
19758.684507,1998.556043,-5329.482782,2681.334243
19758.684840,-1184.329507,-8068.244768,3677.258390
19758.685174,1110.308913,-9178.553681,1762.019645
19758.685507,74.020594,-8290.306550,842.705048
19758.685840,740.205942,-8882.471304,-1149.143247
19758.686173,0.000000,-8438.347739,-3677.258390
19758.686507,-962.267725,-8734.430116,-5898.935335
19758.686840,0.000000,-9548.656652,-3677.258390
19758.687173,1998.556043,-12287.418637,-1302.362347
19758.687506,2294.638420,-9474.636058,-4290.134789
19758.687840,1480.411884,-10436.903782,1838.629195
19758.688173,4367.215058,-10658.965565,2068.457845
19758.688506,4145.153275,-8290.306550,3907.087040
19758.688840,2516.700203,-9474.636058,5132.839837
19758.689173,740.205942,-7698.141797,2451.505594
19758.689506,-740.205942,-9104.533087,2451.505594
19758.689839,-3552.988522,-9548.656652,4979.620737
19758.690173,-2442.679609,-6809.894666,-2145.067394
19758.690506,-5329.482782,-7179.997637,-3677.258390
19758.690839,-4145.153275,-9252.574275,-1302.362347
19758.691172,-4367.215058,-6735.874072,-3064.381992
19758.691506,-1184.329507,-7179.997637,-2221.676944
19758.691839,740.205942,-7402.059420,153.219100
19758.692172,1332.370696,-8956.491898,76.609550
19758.692505,4663.297435,-11251.130318,-76.609550
19758.692839,1924.535449,-11547.212695,3600.648841
19758.693172,1110.308913,-8808.450710,-2451.505594
19758.693505,1850.514855,-11473.192101,1762.019645
19758.693839,-74.020594,-13619.789333,1149.143247
19758.694172,0.000000,-9548.656652,919.314598
19758.694505,-2368.659014,-8660.409521,-459.657299
19758.694838,-1184.329507,-9030.512492,0.000000
19758.695172,-1554.432478,-9178.553681,1455.581446
19758.695505,-1850.514855,-7698.141797,2068.457845
19758.695838,-74.020594,-8290.306550,2068.457845
19758.696171,-2960.823768,-5995.668130,0.000000
19758.696505,0.000000,-9474.636058,2374.896044
19758.696838,3182.885551,-6513.812290,2068.457845
19758.697171,1776.494261,-7179.997637,3677.258390
19758.697504,3182.885551,-7254.018232,0.000000
19758.697838,1998.556043,-9918.759623,-2068.457845
19758.698171,888.247130,-11177.109724,-3677.258390
19758.698504,-962.267725,-11843.295072,-4673.182538
19758.698837,-74.020594,-11251.130318,-6052.154434
19758.699171,-888.247130,-11399.171507,-4136.915689
19758.699504,1406.391290,-9992.780217,-842.705048
19758.699837,3034.844362,-8808.450710,3524.039291
19758.700171,3478.967927,-9474.636058,5439.278036
19758.700504,1184.329507,-9548.656652,8503.660028
19758.700837,1110.308913,-9770.718434,4749.792088
19758.701170,0.000000,-7105.977043,5515.887586
19758.701504,-2368.659014,-7328.038826,1838.629195
19758.701837,518.144159,-3775.050304,0.000000
19758.702170,-1110.308913,-10510.924376,-383.047749
19758.702503,444.123565,-5773.606348,-1685.410096
19758.702837,518.144159,-8734.430116,-3294.210641
19758.703170,-2738.761985,-8660.409521,-7584.345430
19758.703503,4071.132681,-11843.295072,-3140.991542
19758.703836,-74.020594,-13619.789333,-3140.991542
19758.704170,1184.329507,-9548.656652,-1225.752797
19758.704503,2812.782580,-12213.398043,2374.896044
19758.704836,5033.400406,-9548.656652,4903.011187
19758.705170,3775.050304,-9030.512492,6128.763984
19758.705503,5255.462188,-7031.956449,4673.182538
19758.705836,592.164754,-8438.347739,1915.238745
19758.706169,148.041188,-8512.368333,0.000000
19758.706503,-74.020594,-9474.636058,-689.485948
19758.706836,-5329.482782,-8364.327145,-3677.258390
19758.707169,-5921.647536,-8364.327145,-1762.019645
19758.707502,-4811.338623,-12435.459826,-2528.115143
19758.707836,0.000000,-9178.553681,1608.800546
19758.708169,814.226536,-6809.894666,3217.601092
19758.708502,3034.844362,-7031.956449,2604.724693
19758.708835,5255.462188,-6735.874072,3677.258390
19758.709169,4663.297435,-10658.965565,4826.401637
19758.709502,3478.967927,-7698.141797,-2298.286494
19758.709835,-3256.906145,-11325.150913,-2911.162892
19758.710168,-74.020594,-14211.954086,-5592.497135
19758.710502,-1850.514855,-12435.459826,-5286.058936
19758.710835,-2072.576638,-12435.459826,-1915.238745
19758.711168,-3997.112087,-10140.821405,-1302.362347
19758.711502,-2294.638420,-9030.512492,1149.143247
19758.711835,0.000000,-8734.430116,6665.030833
19758.712168,2664.741391,-6291.750507,10189.070123
19758.712501,1924.535449,-5847.626942,7048.078582
19758.712835,2590.720797,-4959.379811,5745.716235
19758.713168,1776.494261,-7105.977043,3294.210641
19758.713501,1406.391290,-5995.668130,-1149.143247
19758.713834,-1776.494261,-8364.327145,-3140.991542
19758.714168,-1850.514855,-11251.130318,-8044.002729
19758.714501,-4219.173869,-12731.542202,-10265.679673
19758.714834,-4737.318029,-13693.809927,-7354.516781
19758.715167,-2738.761985,-14211.954086,-4060.306139
19758.715501,-1554.432478,-10732.986159,-459.657299
19758.715834,3108.864956,-9474.636058,5132.839837
19758.716167,5699.585753,-7031.956449,8963.317327
19758.716501,5329.482782,-5551.544565,10112.460574
19758.716834,4737.318029,-5403.503377,9959.241474
19758.717167,4071.132681,-7105.977043,2834.553343
19758.717500,0.000000,-8364.327145,0.000000
19758.717834,-2220.617826,-10658.965565,-1302.362347
19758.718167,-6513.812290,-9696.697840,-6665.030833
19758.718500,-5995.668130,-11547.212695,-6358.592633
19758.718833,-4737.318029,-10881.027347,-4903.011187
19758.719167,-2146.597232,-9474.636058,-2145.067394
19758.719500,2294.638420,-9400.615463,2374.896044
19758.719833,3552.988522,-5995.668130,7277.907231
19758.720166,7031.956449,-7105.977043,4213.525239
19758.720500,4145.153275,-5995.668130,5515.887586
19758.720833,3552.988522,-8956.491898,4366.744339
19758.721166,5107.421000,-8142.265362,306.438199
19758.721499,3775.050304,-11695.253884,-689.485948
19758.721833,-740.205942,-11917.315666,-3524.039291
19758.722166,-2812.782580,-13175.665768,-4749.792088
19758.722499,-5995.668130,-12435.459826,-6511.811733
19758.722833,-2664.741391,-13471.748144,-76.609550
19758.723166,-4293.194464,-8438.347739,229.828649
19758.723499,-2072.576638,-7772.162391,6818.249932
19758.723832,1702.473667,-3849.070898,5975.544884
19758.724166,2886.803174,-4441.235652,6665.030833
19758.724499,3330.926739,-4367.215058,5669.106685
19758.724832,3775.050304,-5699.585753,2757.943793
19758.725165,1554.432478,-7550.100608,-1455.581446
19758.725499,-2072.576638,-8956.491898,-7048.078582
19758.725832,-2442.679609,-14211.954086,-9269.755526
19758.726165,-4737.318029,-13101.645173,-6588.421283
19758.726498,-4737.318029,-12805.562797,-3677.258390
19758.726832,-74.020594,-13027.624579,-2528.115143
19758.727165,-74.020594,-11843.295072,1149.143247
19758.727498,1480.411884,-7772.162391,5515.887586
19758.727832,4071.132681,-6513.812290,7890.783629
19758.728165,2812.782580,-4367.215058,6741.640382
19758.728498,1184.329507,-6587.832884,4903.011187
19758.728831,2886.803174,-7105.977043,3907.087040
19758.729165,-2072.576638,-8956.491898,536.266849
19758.729498,-3997.112087,-8660.409521,-3677.258390
19758.729831,-5329.482782,-10436.903782,-4903.011187
19758.730164,-4441.235652,-8660.409521,-4749.792088
19758.730498,-370.102971,-9474.636058,-1302.362347
19758.730831,1110.308913,-7476.080014,-3677.258390
19758.731164,592.164754,-9696.697840,842.705048
19758.731497,4663.297435,-11843.295072,3600.648841
19758.731830,3627.009116,-7179.997637,2451.505594
19758.732163,3478.967927,-7994.224174,1608.800546
19758.732496,3552.988522,-9548.656652,1225.752797
19758.732830,3997.112087,-9844.739029,2451.505594
19758.733163,1776.494261,-9400.615463,3064.381992
19758.733496,2886.803174,-9474.636058,-1455.581446
19758.733829,-3552.988522,-9548.656652,-3677.258390
19758.734162,-3256.906145,-11917.315666,995.924147
19758.734496,-2442.679609,-9474.636058,-995.924147
19758.734829,-2664.741391,-8364.327145,2068.457845
19758.735162,-3849.070898,-5625.565159,0.000000
19758.735495,444.123565,-7179.997637,3600.648841
19758.735828,3552.988522,-5255.462188,3830.477490
19758.736162,4071.132681,-7105.977043,2987.772442
19758.736495,4663.297435,-8290.306550,-2221.676944
19758.736828,1184.329507,-10436.903782,-76.609550
19758.737161,4663.297435,-14211.954086,-76.609550
19758.737494,2294.638420,-10732.986159,-3677.258390
19758.737828,1924.535449,-13471.748144,-1302.362347
19758.738161,740.205942,-12657.521608,-612.876398
19758.738494,444.123565,-10881.027347,0.000000
19758.738827,0.000000,-9548.656652,766.095498
19758.739160,-814.226536,-7698.141797,536.266849
19758.739494,0.000000,-7179.997637,1532.190996
19758.739827,1480.411884,-8068.244768,7890.783629
19758.740160,1998.556043,-4737.318029,3753.867940
19758.740493,-2072.576638,-5995.668130,2451.505594
19758.740826,1406.391290,-9474.636058,2374.896044
19758.741160,-1110.308913,-8364.327145,919.314598
19758.741493,0.000000,-8364.327145,-1455.581446
19758.741826,-740.205942,-8882.471304,-2987.772442
19758.742159,-370.102971,-10066.800811,-4060.306139
19758.742492,1184.329507,-10066.800811,-2604.724693
19758.742825,-444.123565,-11991.336260,-2374.896044
19758.743159,-370.102971,-10955.047942,-2528.115143
19758.743492,-1776.494261,-10732.986159,0.000000
19758.743825,3478.967927,-11695.253884,4826.401637
19758.744158,888.247130,-5403.503377,3677.258390
19758.744491,2294.638420,-9474.636058,7277.907231
19758.744825,3182.885551,-8290.306550,3907.087040
19758.745158,-1184.329507,-8364.327145,4290.134789
19758.745491,0.000000,-8512.368333,3600.648841
19758.745824,-3849.070898,-8290.306550,-306.438199
19758.746157,-4441.235652,-8956.491898,-2528.115143
19758.746491,-2738.761985,-10362.883188,-2681.334243
19758.746824,-4145.153275,-7476.080014,-1532.190996
19758.747157,-74.020594,-6513.812290,-3753.867940
19758.747490,0.000000,-8364.327145,766.095498
19758.747823,0.000000,-8956.491898,153.219100
19758.748157,2886.803174,-10658.965565,-76.609550
19758.748490,1776.494261,-11843.295072,2068.457845
19758.748823,1924.535449,-9252.574275,1225.752797
19758.749156,2664.741391,-9770.718434,1225.752797
19758.749489,2368.659014,-10881.027347,1915.238745
19758.749823,0.000000,-9548.656652,2451.505594
19758.750156,-2960.823768,-9548.656652,-3677.258390
19758.750489,-888.247130,-11547.212695,-76.609550
19758.750822,-3627.009116,-10881.027347,-1072.533697
19758.751155,-3182.885551,-8068.244768,-153.219100
19758.751489,-1850.514855,-8290.306550,2374.896044
19758.751822,-1480.411884,-6217.729913,2681.334243
19758.752155,1776.494261,-5921.647536,3907.087040
19758.752488,3478.967927,-5329.482782,4826.401637
19758.752821,4663.297435,-8290.306550,4213.525239
19758.753154,1480.411884,-7179.997637,1378.971896
19758.753488,4071.132681,-13915.871710,-1302.362347
19758.753821,-814.226536,-9548.656652,-6741.640382
19758.754154,-2368.659014,-11917.315666,-6128.763984
19758.754487,-666.185348,-11251.130318,-7124.688131
19758.754820,-592.164754,-12657.521608,-3217.601092
19758.755154,1110.308913,-11473.192101,229.828649
19758.755487,1998.556043,-8512.368333,3907.087040
19758.755820,2590.720797,-7179.997637,4366.744339
19758.756153,3552.988522,-6587.832884,9729.412825
19758.756486,4663.297435,-6809.894666,7584.345430
19758.756820,0.000000,-3627.009116,5515.887586
19758.757153,0.000000,-4811.338623,2451.505594
19758.757486,-666.185348,-7994.224174,-3064.381992
19758.757819,-2146.597232,-10066.800811,-4979.620737
19758.758152,-3701.029710,-10288.862594,-6818.249932
19758.758486,-3552.988522,-9844.739029,-7354.516781
19758.758819,-1554.432478,-11251.130318,-7814.174080
19758.759152,-222.061783,-12731.542202,-3217.601092
19758.759485,962.267725,-10732.986159,1532.190996
19758.759818,2516.700203,-9400.615463,3600.648841
19758.760152,4737.318029,-8660.409521,7354.516781
19758.760485,5255.462188,-9474.636058,6511.811733
19758.760818,2812.782580,-3923.091493,3140.991542
19758.761151,1184.329507,-8216.285956,5439.278036
19758.761484,-370.102971,-8586.388927,-1532.190996
19758.761818,-3849.070898,-9548.656652,-2451.505594
19758.762151,-4959.379811,-11103.089130,-3830.477490
19758.762484,-5255.462188,-10807.006753,-3447.429741
19758.762817,-5625.565159,-10214.842000,-3140.991542
19758.763150,-1850.514855,-9474.636058,-689.485948
19758.763483,2294.638420,-7698.141797,2068.457845
19758.763817,2368.659014,-5699.585753,6588.421283
19758.764150,4737.318029,-6291.750507,6971.469032
19758.764483,5255.462188,-7105.977043,2987.772442
19758.764816,3552.988522,-8364.327145,3370.820191
19758.765149,1110.308913,-8808.450710,-1991.848295
19758.765483,-740.205942,-11029.068536,-5362.668486
19758.765816,-666.185348,-13027.624579,-5898.935335
19758.766149,-2368.659014,-12731.542202,-4366.744339
19758.766482,-74.020594,-10658.965565,-4366.744339
19758.766815,-2960.823768,-11621.233289,1762.019645
19758.767149,-74.020594,-9474.636058,2374.896044
19758.767482,1998.556043,-9178.553681,5209.449386
19758.767815,2886.803174,-5921.647536,8503.660028
19758.768148,2368.659014,-4589.276840,6894.859482
19758.768481,2368.659014,-4811.338623,4903.011187
19758.768815,2590.720797,-7254.018232,3217.601092
19758.769148,1184.329507,-5995.668130,612.876398
