#time,accel_x,accel_y,accel_z
20534.242783,4071.132681,-7402.059420,-1532.190996
20534.243117,2442.679609,-8586.388927,-2834.553343
20534.243450,1554.432478,-8438.347739,-3753.867940
20534.243784,2072.576638,-9548.656652,-4903.011187
20534.244117,2886.803174,-10955.047942,-3753.867940
20534.244451,4737.318029,-10140.821405,0.000000
20534.244784,9400.615463,-9474.636058,2068.457845
20534.245118,7698.141797,-7476.080014,4903.011187
20534.245451,12879.583391,-10658.965565,4826.401637
20534.245785,11251.130318,-7179.997637,2757.943793
20534.246118,11251.130318,-7772.162391,3677.258390
20534.246452,11621.233289,-8660.409521,2068.457845
20534.246785,8882.471304,-9326.594869,-842.705048
20534.247119,7772.162391,-9770.718434,-3600.648841
20534.247452,8216.285956,-11547.212695,-2681.334243
20534.247786,5255.462188,-8956.491898,-4290.134789
20534.248119,6143.709319,-12731.542202,-1302.362347
20534.248453,5847.626942,-12435.459826,-1302.362347
20534.248786,2368.659014,-10140.821405,2451.505594
20534.249120,7031.956449,-10658.965565,6358.592633
20534.249453,6809.894666,-8290.306550,6665.030833
20534.249787,8808.450710,-5921.647536,6818.249932
20534.250120,9178.553681,-5403.503377,7431.126331
20534.250453,8734.430116,-4515.256246,4136.915689
20534.250787,6513.812290,-5995.668130,2451.505594
20534.251120,7624.121203,-7698.141797,-4979.620737
20534.251454,4737.318029,-7254.018232,-6358.592633
20534.251787,3552.988522,-9548.656652,-6128.763984
20534.252121,6735.874072,-13027.624579,-5132.839837
20534.252454,6661.853478,-13397.727550,-4290.134789
20534.252788,8808.450710,-12805.562797,-459.657299
20534.253121,9178.553681,-12361.439231,1608.800546
20534.253455,8364.327145,-11991.336260,3907.087040
20534.253788,8290.306550,-10732.986159,6971.469032
20534.254122,8290.306550,-6883.915261,7354.516781
20534.254455,10584.944971,-4663.297435,6818.249932
20534.254789,7550.100608,-6513.812290,5439.278036
20534.255122,5255.462188,-6957.935855,842.705048
20534.255456,888.247130,-7179.997637,-1225.752797
20534.255789,-74.020594,-12731.542202,-2528.115143
20534.256123,-3034.844362,-9844.739029,-7354.516781
20534.256456,-4737.318029,-12361.439231,-5362.668486
20534.256790,-1406.391290,-13027.624579,-1915.238745
20534.257123,0.000000,-10881.027347,1072.533697
20534.257457,3034.844362,-9178.553681,4596.572988
20534.257790,7179.997637,-7031.956449,7737.564530
20534.258124,6069.688724,-3923.091493,4903.011187
20534.258457,4737.318029,-4811.338623,3677.258390
20534.258791,6439.791695,-7105.977043,-76.609550
20534.259124,5255.462188,-7105.977043,-4366.744339
20534.259458,2664.741391,-9400.615463,-3447.429741
20534.259791,2294.638420,-10658.965565,-6894.859482
20534.260125,444.123565,-13841.851115,-4673.182538
20534.260458,1036.288319,-14285.974681,-842.705048
20534.260792,3923.091493,-11695.253884,2298.286494
20534.261125,5329.482782,-9252.574275,6128.763984
20534.261459,7105.977043,-6587.832884,11568.042020
20534.261792,12953.603985,-4145.153275,7431.126331
20534.262126,11399.171507,-2442.679609,4903.011187
20534.262459,11251.130318,-6735.874072,4826.401637
20534.262793,4737.318029,-7476.080014,-3524.039291
20534.263126,3552.988522,-9992.780217,-7737.564530
20534.263460,0.000000,-10807.006753,-9806.022374
20534.263793,-1258.350101,-14211.954086,-9882.631924
20534.264127,-1850.514855,-15322.262999,-6818.249932
20534.264460,-2738.761985,-15396.283594,-76.609550
20534.264794,2886.803174,-12879.583391,3447.429741
20534.265127,6513.812290,-7179.997637,12257.527968
20534.265461,10066.800811,-4811.338623,15321.909960
20534.265794,14137.933492,-5329.482782,14632.424012
20534.266128,10288.862594,-3330.926739,7967.393179
20534.266461,6291.750507,-5921.647536,842.705048
20534.266795,814.226536,-9400.615463,-6435.202183
20534.267128,-4589.276840,-10140.821405,-11951.089769
20534.267462,-7179.997637,-14804.118840,-12947.013916
20534.267795,-9474.636058,-13101.645173,-12257.527968
20534.268129,-7105.977043,-14211.954086,-3753.867940
20534.268462,-666.185348,-11251.130318,2374.896044
20534.268796,5107.421000,-6883.915261,10265.679673
20534.269129,7698.141797,-6069.688724,12563.966167
20534.269463,6439.791695,-6143.709319,11261.603821
20534.269796,6957.935855,-5625.565159,7277.907231
20534.270130,6217.729913,-5699.585753,4443.353888
20534.270463,4663.297435,-6513.812290,-689.485948
20534.270797,-3775.050304,-11695.253884,-5439.278036
20534.271130,-8808.450710,-11103.089130,-11874.480219
20534.271464,-7772.162391,-11917.315666,-12257.527968
20534.271797,-5033.400406,-10362.883188,-4979.620737
20534.272131,0.000000,-8364.327145,2374.896044
20534.272464,-74.020594,-9918.759623,1532.190996
20534.272798,148.041188,-8364.327145,3677.258390
20534.273131,4737.318029,-8956.491898,9193.145976
20534.273464,2886.803174,-7772.162391,7967.393179
20534.273798,1776.494261,-8142.265362,5132.839837
20534.274131,-1110.308913,-8216.285956,1149.143247
20534.274465,-2368.659014,-7920.203579,-919.314598
20534.274798,-2960.823768,-6587.832884,-2911.162892
20534.275132,1110.308913,-5773.606348,-1915.238745
20534.275465,-74.020594,-9474.636058,-2528.115143
20534.275799,-2368.659014,-7179.997637,-3677.258390
20534.276132,-74.020594,-11843.295072,-3140.991542
20534.276466,-2368.659014,-13101.645173,-1302.362347
20534.276799,-2368.659014,-11917.315666,-1149.143247
20534.277133,-3404.947333,-14063.912898,766.095498
20534.277466,-296.082377,-9918.759623,2221.676944
20534.277800,3256.906145,-8734.430116,8503.660028
20534.278133,7031.956449,-5329.482782,7277.907231
20534.278467,4737.318029,-2442.679609,4903.011187
20534.278800,0.000000,-5107.421000,1838.629195
20534.279134,1110.308913,-6143.709319,-3753.867940
20534.279467,-74.020594,-9474.636058,-4060.306139
20534.279801,-962.267725,-9326.594869,-6281.983084
20534.280134,-4737.318029,-13619.789333,-6511.811733
20534.280468,-3997.112087,-12879.583391,-5745.716235
20534.280801,1110.308913,-14804.118840,-76.609550
20534.281135,4071.132681,-8956.491898,2451.505594
20534.281468,4737.318029,-8956.491898,7584.345430
20534.281802,7031.956449,-11251.130318,8503.660028
20534.282135,2294.638420,-4811.338623,2451.505594
20534.282469,4219.173869,-8290.306550,3907.087040
20534.282802,1406.391290,-7402.059420,1149.143247
20534.283136,-1110.308913,-9030.512492,-2528.115143
20534.283469,-3627.009116,-11103.089130,-4366.744339
20534.283803,-2442.679609,-11177.109724,-3140.991542
20534.284136,-2516.700203,-8956.491898,-2604.724693
20534.284470,1998.556043,-7105.977043,1072.533697
20534.284803,1998.556043,-9474.636058,2834.553343
20534.285137,592.164754,-7476.080014,1838.629195
20534.285470,592.164754,-11029.068536,2145.067394
20534.285804,1110.308913,-10955.047942,1455.581446
20534.286137,-1554.432478,-7179.997637,0.000000
20534.286471,-1184.329507,-9104.533087,1149.143247
20534.286804,-1332.370696,-7920.203579,76.609550
20534.287138,0.000000,-6809.894666,919.314598
20534.287471,592.164754,-6069.688724,1685.410096
20534.287805,1702.473667,-6661.853478,536.266849
20534.288138,1776.494261,-7328.038826,-76.609550
20534.288472,1184.329507,-9548.656652,1149.143247
20534.288805,1998.556043,-10066.800811,-2757.943793
20534.289139,-1776.494261,-10732.986159,-3677.258390
20534.289472,-1184.329507,-14656.077652,-383.047749
20534.289806,296.082377,-12361.439231,0.000000
20534.290139,1998.556043,-11103.089130,3907.087040
20534.290473,3034.844362,-7624.121203,4136.915689
20534.290806,1628.453072,-7624.121203,3370.820191
20534.291140,-74.020594,-7105.977043,-76.609550
20534.291473,0.000000,-7476.080014,1762.019645
20534.291807,-74.020594,-4811.338623,-3677.258390
20534.292140,-2664.741391,-9474.636058,-2221.676944
20534.292474,-1850.514855,-11843.295072,-2834.553343
20534.292807,-2442.679609,-11251.130318,-2528.115143
20534.293141,518.144159,-10732.986159,76.609550
20534.293474,2442.679609,-9474.636058,2604.724693
20534.293807,3775.050304,-8364.327145,4596.572988
20534.294140,1480.411884,-7772.162391,3983.696590
20534.294473,4071.132681,-9474.636058,2221.676944
20534.294805,-2368.659014,-10140.821405,0.000000
20534.295138,-1258.350101,-8882.471304,-2221.676944
20534.295471,-5921.647536,-13619.789333,-76.609550
20534.295804,-7105.977043,-5403.503377,-6128.763984
20534.296137,-5921.647536,-10140.821405,-612.876398
20534.296470,0.000000,-5107.421000,2451.505594
20534.296803,3923.091493,-6217.729913,4979.620737
20534.297136,4663.297435,-7105.977043,6052.154434
20534.297469,2960.823768,-5995.668130,2451.505594
20534.297802,2886.803174,-12435.459826,1762.019645
20534.298135,1702.473667,-9474.636058,-2528.115143
20534.298468,-2368.659014,-11917.315666,-919.314598
20534.298801,-1776.494261,-13693.809927,-2681.334243
20534.299134,-2960.823768,-11177.109724,-2221.676944
20534.299467,-814.226536,-10881.027347,153.219100
20534.299800,1406.391290,-7254.018232,1532.190996
20534.300133,962.267725,-9474.636058,2987.772442
20534.300466,0.000000,-4811.338623,1532.190996
20534.300799,2590.720797,-7254.018232,2145.067394
20534.301132,4737.318029,-6217.729913,3294.210641
20534.301465,3404.947333,-8586.388927,2221.676944
20534.301798,1998.556043,-12287.418637,1149.143247
20534.302131,-666.185348,-11251.130318,-2451.505594
20534.302464,0.000000,-11917.315666,919.314598
20534.302797,2294.638420,-9474.636058,-1915.238745
20534.303130,-888.247130,-9548.656652,-919.314598
20534.303463,-888.247130,-10436.903782,-229.828649
20534.303796,-592.164754,-9252.574275,-1072.533697
20534.304129,-370.102971,-8882.471304,-383.047749
20534.304462,0.000000,-8216.285956,612.876398
20534.304795,-74.020594,-10362.883188,2374.896044
20534.305128,1110.308913,-6587.832884,1225.752797
20534.305461,4515.256246,-8882.471304,6435.202183
20534.305794,5847.626942,-7105.977043,3600.648841
20534.306127,3701.029710,-5995.668130,3983.696590
20534.306460,4071.132681,-9474.636058,1149.143247
20534.306793,740.205942,-10436.903782,-1532.190996
20534.307126,-2072.576638,-11621.233289,-3447.429741
20534.307459,-5181.441594,-11917.315666,-6128.763984
20534.307792,-7105.977043,-10732.986159,-7201.297681
20534.308125,-7920.203579,-9548.656652,-4903.011187
20534.308458,-2072.576638,-11399.171507,842.705048
20534.308791,2886.803174,-9474.636058,6052.154434
20534.309124,4145.153275,-3330.926739,7354.516781
20534.309457,4663.297435,-3775.050304,5898.935335
20534.309790,3330.926739,-6291.750507,4366.744339
20534.310123,4293.194464,-7031.956449,2604.724693
20534.310456,666.185348,-9474.636058,0.000000
20534.310789,-2368.659014,-11473.192101,-3983.696590
20534.311122,-5847.626942,-13619.789333,-5286.058936
20534.311455,-4811.338623,-15396.283594,-6818.249932
20534.311788,-3997.112087,-9844.739029,-2451.505594
20534.312121,-2368.659014,-8364.327145,2374.896044
20534.312454,1110.308913,-6883.915261,76.609550
20534.312787,2294.638420,-7698.141797,4673.182538
20534.313120,3256.906145,-5699.585753,4903.011187
20534.313453,3108.864956,-7624.121203,4903.011187
20534.313786,1480.411884,-9400.615463,3217.601092
20534.314119,-1184.329507,-9474.636058,306.438199
20534.314452,-2590.720797,-9844.739029,-689.485948
20534.314785,222.061783,-8586.388927,-1302.362347
20534.315118,-74.020594,-8290.306550,-1915.238745
20534.315451,-1776.494261,-7402.059420,-1915.238745
20534.315783,-3552.988522,-10140.821405,-842.705048
20534.316116,-666.185348,-11103.089130,-2834.553343
20534.316449,-74.020594,-10362.883188,-2834.553343
20534.316782,1702.473667,-10362.883188,1762.019645
20534.317115,2294.638420,-10066.800811,2681.334243
20534.317448,1702.473667,-9104.533087,3294.210641
20534.317781,4737.318029,-9400.615463,5592.497135
20534.318114,5255.462188,-5551.544565,5669.106685
20534.318447,7920.203579,-7698.141797,5439.278036
20534.318780,2368.659014,-8364.327145,3907.087040
20534.319113,-74.020594,-7846.182985,-5515.887586
20534.319446,-1776.494261,-9548.656652,-5975.544884
20534.319779,-2220.617826,-10140.821405,-5515.887586
20534.320112,-3627.009116,-13323.706956,-6281.983084
20534.320445,-4145.153275,-13101.645173,-4443.353888
20534.320778,0.000000,-12139.377449,919.314598
20534.321111,4293.194464,-7698.141797,6281.983084
20534.321444,5403.503377,-3404.947333,7890.783629
20534.321777,6735.874072,-7698.141797,9116.536426
20534.322110,4663.297435,-4737.318029,2451.505594
20534.322443,0.000000,-7476.080014,2451.505594
20534.322776,1184.329507,-8290.306550,-1072.533697
20534.323109,-4737.318029,-9844.739029,-4903.011187
20534.323442,-5551.544565,-11325.150913,-6128.763984
20534.323775,-5181.441594,-12509.480420,-3983.696590
20534.324108,-2960.823768,-11103.089130,-2221.676944
20534.324441,-1776.494261,-8660.409521,0.000000
20534.324774,2886.803174,-10658.965565,3294.210641
20534.325107,4071.132681,-7105.977043,4213.525239
20534.325440,1184.329507,-5995.668130,5056.230287
20534.325773,4367.215058,-9474.636058,3600.648841
20534.326106,888.247130,-9844.739029,2987.772442
20534.326439,-2738.761985,-9770.718434,-689.485948
20534.326772,-3627.009116,-9400.615463,-3064.381992
20534.327105,-3701.029710,-9326.594869,-2451.505594
20534.327438,-962.267725,-9474.636058,-76.609550
20534.327771,-666.185348,-6365.771101,-2451.505594
20534.328104,-2960.823768,-8364.327145,0.000000
20534.328437,-592.164754,-10881.027347,2221.676944
20534.328770,1702.473667,-10658.965565,-76.609550
20534.329103,-592.164754,-9992.780217,2068.457845
20534.329436,-1258.350101,-9474.636058,0.000000
20534.329769,-888.247130,-11251.130318,1455.581446
20534.330102,1850.514855,-9622.677246,3600.648841
20534.330435,4885.359217,-7476.080014,6358.592633
20534.330768,3108.864956,-7179.997637,3217.601092
20534.331101,0.000000,-7994.224174,-1072.533697
20534.331434,-2590.720797,-9104.533087,-3140.991542
20534.331767,-1998.556043,-5995.668130,-5822.325785
20534.332100,-2368.659014,-10140.821405,-2451.505594
20534.332433,-1258.350101,-11251.130318,-3753.867940
20534.332766,-3478.967927,-10732.986159,0.000000
20534.333099,0.000000,-10288.862594,2604.724693
20534.333432,4663.297435,-7105.977043,4826.401637
20534.333765,5329.482782,-7624.121203,7277.907231
20534.334098,5921.647536,-5847.626942,5515.887586
20534.334431,2220.617826,-7328.038826,995.924147
20534.334764,2368.659014,-8660.409521,0.000000
20534.335097,-1776.494261,-8956.491898,-306.438199
20534.335430,-1258.350101,-11251.130318,-5745.716235
20534.335763,-3552.988522,-9548.656652,-7354.516781
20534.336096,-4441.235652,-12213.398043,-2604.724693
20534.336429,0.000000,-9844.739029,-1838.629195
20534.336761,3923.091493,-9474.636058,3600.648841
20534.337094,6513.812290,-7179.997637,6588.421283
20534.337427,5033.400406,-6439.791695,4903.011187
20534.337760,7031.956449,-10066.800811,4826.401637
20534.338093,3552.988522,-8660.409521,4213.525239
20534.338426,-1258.350101,-7476.080014,0.000000
20534.338759,-2442.679609,-12731.542202,-2528.115143
20534.339092,-6069.688724,-10362.883188,-5669.106685
20534.339425,-1998.556043,-10066.800811,-1302.362347
20534.339758,-222.061783,-6365.771101,-689.485948
20534.340091,370.102971,-7920.203579,536.266849
20534.340424,-1110.308913,-8068.244768,0.000000
20534.340757,-1036.288319,-7772.162391,76.609550
20534.341090,2886.803174,-9474.636058,2987.772442
20534.341423,0.000000,-7772.162391,1225.752797
20534.341756,1036.288319,-12731.542202,1762.019645
20534.342089,-518.144159,-8364.327145,306.438199
20534.342422,-1184.329507,-8586.388927,1685.410096
20534.342755,370.102971,-8216.285956,1762.019645
20534.343088,-1406.391290,-8808.450710,229.828649
20534.343421,-3330.926739,-8364.327145,-2451.505594
20534.343754,-2368.659014,-7772.162391,-1532.190996
20534.344087,-74.020594,-7402.059420,-4136.915689
20534.344420,-1776.494261,-11251.130318,-76.609550
20534.344753,-3627.009116,-11843.295072,-689.485948
20534.345086,-3552.988522,-9548.656652,2221.676944
20534.345419,518.144159,-8734.430116,2987.772442
20534.345752,2664.741391,-7772.162391,5515.887586
20534.346085,4515.256246,-6069.688724,4290.134789
20534.346418,2146.597232,-7846.182985,2298.286494
20534.346751,2368.659014,-8216.285956,612.876398
20534.347084,444.123565,-9992.780217,-1762.019645
20534.347417,-74.020594,-9178.553681,-2757.943793
20534.347750,-2368.659014,-9844.739029,-2987.772442
20534.348083,-4145.153275,-11547.212695,-4519.963438
20534.348416,-2368.659014,-10436.903782,-1838.629195
20534.348749,2294.638420,-9474.636058,1149.143247
20534.349082,5847.626942,-4885.359217,3370.820191
20534.349415,4885.359217,-7179.997637,6052.154434
20534.349748,5255.462188,-9474.636058,2374.896044
20534.350081,3701.029710,-6587.832884,2451.505594
20534.350414,3478.967927,-8734.430116,536.266849
20534.350747,2220.617826,-9992.780217,-2068.457845
20534.351080,-2664.741391,-12139.377449,-4366.744339
20534.351413,-1628.453072,-13027.624579,-2834.553343
20534.351746,1110.308913,-8438.347739,-2604.724693
20534.352079,3552.988522,-10140.821405,2451.505594
20534.352412,3256.906145,-10658.965565,3294.210641
20534.352745,2886.803174,-8216.285956,612.876398
20534.353078,3552.988522,-9252.574275,4826.401637
20534.353411,2590.720797,-8438.347739,3140.991542
20534.353744,740.205942,-9548.656652,1608.800546
20534.354077,-1258.350101,-9326.594869,-153.219100
20534.354410,-1998.556043,-10658.965565,-1302.362347
20534.354743,1702.473667,-5995.668130,-2451.505594
20534.355076,962.267725,-9474.636058,2374.896044
20534.355409,1702.473667,-10510.924376,2374.896044
20534.355742,-2442.679609,-7254.018232,-3294.210641
20534.356075,-1258.350101,-9474.636058,-3294.210641
20534.356408,-2220.617826,-9548.656652,-1685.410096
20534.356741,-2368.659014,-10436.903782,-229.828649
20534.357074,-1924.535449,-11251.130318,1762.019645
20534.357407,-4293.194464,-8364.327145,612.876398
20534.357739,0.000000,-9548.656652,3677.258390
20534.358072,5699.585753,-7698.141797,6665.030833
20534.358405,3034.844362,-4811.338623,4290.134789
20534.358738,0.000000,-5995.668130,3064.381992
20534.359071,-1850.514855,-10362.883188,-3140.991542
20534.359404,-3701.029710,-10881.027347,-3983.696590
20534.359737,-3701.029710,-9844.739029,-5056.230287
20534.360070,-3997.112087,-12213.398043,-3983.696590
20534.360403,-5625.565159,-10732.986159,-3677.258390
20534.360736,-2664.741391,-10955.047942,1762.019645
20534.361069,1184.329507,-7328.038826,5362.668486
20534.361402,3701.029710,-5403.503377,6894.859482
20534.361735,7031.956449,-7105.977043,8503.660028
20534.362068,4663.297435,-7698.141797,4826.401637
20534.362401,2886.803174,-4811.338623,1225.752797
20534.362734,1702.473667,-9474.636058,-76.609550
20534.363067,-1850.514855,-11843.295072,-5592.497135
20534.363400,-4145.153275,-12583.501014,-5822.325785
20534.363733,-4737.318029,-13101.645173,-4213.525239
20534.364066,-1184.329507,-9770.718434,-2374.896044
20534.364399,2294.638420,-8142.265362,536.266849
20534.364732,5255.462188,-7624.121203,4290.134789
20534.365065,6217.729913,-7772.162391,7201.297681
20534.365398,4737.318029,-5995.668130,4903.011187
20534.365731,5181.441594,-10066.800811,4519.963438
20534.366064,3478.967927,-9178.553681,842.705048
20534.366397,-370.102971,-10066.800811,-1302.362347
20534.366730,-74.020594,-11251.130318,-3140.991542
20534.367063,-296.082377,-10658.965565,-1608.800546
20534.367396,222.061783,-9326.594869,-1072.533697
20534.367729,1184.329507,-8438.347739,536.266849
20534.368062,-74.020594,-9474.636058,-1302.362347
20534.368395,0.000000,-9252.574275,0.000000
20534.368728,2590.720797,-10658.965565,-76.609550
20534.369061,1406.391290,-7772.162391,1225.752797
20534.369394,0.000000,-9548.656652,2451.505594
20534.369727,-740.205942,-10732.986159,1225.752797
20534.370060,1776.494261,-9178.553681,2834.553343
20534.370393,592.164754,-8956.491898,2528.115143
20534.370726,2812.782580,-5477.523971,2374.896044
20534.371059,-1554.432478,-7179.997637,-1302.362347
20534.371392,-444.123565,-9474.636058,-2528.115143
20534.371725,-1554.432478,-9474.636058,-2528.115143
20534.372058,-5921.647536,-9548.656652,-3064.381992
20534.372391,-666.185348,-11843.295072,-383.047749
20534.372724,-5773.606348,-11621.233289,-1225.752797
20534.373057,-370.102971,-9770.718434,2528.115143
20534.373390,1184.329507,-7920.203579,4673.182538
20534.373723,2072.576638,-8290.306550,4903.011187
20534.374056,2960.823768,-6587.832884,6128.763984
20534.374389,4071.132681,-9474.636058,2374.896044
20534.374722,74.020594,-6587.832884,0.000000
20534.375055,-2368.659014,-11103.089130,-76.609550
20534.375388,-3627.009116,-13027.624579,-4979.620737
20534.375721,-8882.471304,-11325.150913,-4903.011187
20534.376054,-5181.441594,-10881.027347,-3140.991542
20534.376387,-2368.659014,-8364.327145,459.657299
20534.376720,1480.411884,-6365.771101,3447.429741
20534.377053,2368.659014,-5995.668130,6435.202183
20534.377386,2886.803174,-6809.894666,3907.087040
20534.377719,3108.864956,-8364.327145,3217.601092
20534.378052,3552.988522,-8216.285956,2374.896044
20534.378385,1110.308913,-9474.636058,-1915.238745
20534.378717,-2368.659014,-8956.491898,-3064.381992
20534.379050,-3034.844362,-13027.624579,-4366.744339
20534.379383,-2664.741391,-8364.327145,-2451.505594
20534.379716,1110.308913,-10066.800811,536.266849
20534.380049,2886.803174,-9474.636058,1762.019645
20534.380382,1184.329507,-7624.121203,919.314598
20534.380715,2516.700203,-8882.471304,1149.143247
20534.381048,4367.215058,-7846.182985,3217.601092
20534.381381,1480.411884,-7179.997637,1225.752797
20534.381714,0.000000,-9548.656652,1225.752797
20534.382047,2886.803174,-10658.965565,1149.143247
20534.382380,1184.329507,-7772.162391,0.000000
20534.382713,4441.235652,-7772.162391,3447.429741
20534.383046,3775.050304,-7402.059420,-383.047749
20534.383379,1184.329507,-10732.986159,-1608.800546
20534.383712,518.144159,-9474.636058,-2528.115143
20534.384045,592.164754,-10658.965565,-1915.238745
20534.384378,0.000000,-9992.780217,-1225.752797
20534.384711,0.000000,-8956.491898,1225.752797
20534.385044,2886.803174,-9474.636058,229.828649
20534.385377,1480.411884,-8364.327145,5056.230287
20534.385710,6439.791695,-8882.471304,7124.688131
20534.386043,3552.988522,-6587.832884,3064.381992
20534.386376,2886.803174,-7994.224174,1455.581446
20534.386709,1480.411884,-8142.265362,-1608.800546
20534.387042,148.041188,-10140.821405,-3140.991542
20534.387375,-370.102971,-11843.295072,-3753.867940
20534.387708,-5625.565159,-11917.315666,-1302.362347
20534.388041,-6883.915261,-11547.212695,-6052.154434
20534.388374,-4737.318029,-10140.821405,-1072.533697
20534.388707,3478.967927,-8882.471304,2374.896044
20534.389040,5847.626942,-7698.141797,7277.907231
20534.389373,4737.318029,-6143.709319,6588.421283
20534.389706,2220.617826,-7179.997637,2451.505594
20534.390039,1924.535449,-9918.759623,3140.991542
20534.390372,-1184.329507,-7179.997637,0.000000
20534.390705,-1258.350101,-11843.295072,-1302.362347
20534.391038,-9326.594869,-9548.656652,-5822.325785
20534.391371,-9474.636058,-11325.150913,-4903.011187
20534.391704,-4811.338623,-11843.295072,-1302.362347
20534.392037,-74.020594,-9474.636058,1149.143247
20534.392370,-1036.288319,-7994.224174,2451.505594
20534.392703,0.000000,-5995.668130,2145.067394
20534.393036,2146.597232,-8290.306550,3370.820191
20534.393369,0.000000,-5403.503377,3064.381992
20534.393702,1110.308913,-10510.924376,1072.533697
20534.394035,-2146.597232,-10807.006753,306.438199
20534.394368,-2664.741391,-10140.821405,-919.314598
20534.394701,0.000000,-9400.615463,1072.533697
20534.395034,3478.967927,-8290.306550,2374.896044
20534.395368,0.000000,-8364.327145,1838.629195
20534.395701,444.123565,-9252.574275,0.000000
20534.396034,2294.638420,-10658.965565,-2528.115143
20534.396367,-1628.453072,-9548.656652,-2145.067394
20534.396700,592.164754,-11843.295072,-76.609550
20534.397033,1110.308913,-10955.047942,-1302.362347
20534.397366,0.000000,-10140.821405,0.000000
20534.397699,2664.741391,-10288.862594,4826.401637
20534.398032,4885.359217,-5921.647536,5898.935335
20534.398365,4219.173869,-4219.173869,5515.887586
20534.398699,7031.956449,-7105.977043,2374.896044
20534.399032,814.226536,-10658.965565,-1915.238745
20534.399365,0.000000,-7179.997637,-2451.505594
20534.399698,-2442.679609,-12731.542202,-3753.867940
20534.400031,-2960.823768,-10732.986159,-5898.935335
20534.400364,-5181.441594,-13175.665768,-4366.744339
20534.400697,-2738.761985,-11843.295072,-1302.362347
20534.401030,2960.823768,-7179.997637,3677.258390
20534.401363,6735.874072,-4219.173869,3677.258390
20534.401697,9622.677246,-8290.306550,8503.660028
20534.402030,5403.503377,-6809.894666,3217.601092
20534.402363,2960.823768,-7476.080014,3064.381992
20534.402696,2072.576638,-7772.162391,-1302.362347
20534.403029,-1998.556043,-13027.624579,-4060.306139
20534.403362,-4737.318029,-11843.295072,-6511.811733
20534.403695,-5403.503377,-13545.768739,-4366.744339
20534.404028,-74.020594,-10510.924376,-995.924147
20534.404361,0.000000,-8364.327145,2451.505594
20534.404694,3478.967927,-9474.636058,6052.154434
20534.405028,370.102971,-4811.338623,2451.505594
20534.405361,1776.494261,-7994.224174,2451.505594
20534.405694,4071.132681,-9474.636058,3600.648841
20534.406027,-1924.535449,-7772.162391,612.876398
20534.406360,-3034.844362,-9918.759623,-383.047749
20534.406693,-4071.132681,-11177.109724,-1455.581446
20534.407026,-4737.318029,-9548.656652,-1685.410096
20534.407359,-74.020594,-9474.636058,-1302.362347
20534.407692,-3552.988522,-7920.203579,1378.971896
20534.408026,-296.082377,-9918.759623,-76.609550
20534.408359,-2738.761985,-8068.244768,-2451.505594
20534.408692,-74.020594,-9474.636058,1455.581446
20534.409025,-74.020594,-8290.306550,2451.505594
20534.409358,296.082377,-8586.388927,2834.553343
20534.409691,-666.185348,-10881.027347,1302.362347
20534.410024,0.000000,-8364.327145,2451.505594
20534.410357,2886.803174,-7105.977043,1685.410096
20534.410690,3478.967927,-7550.100608,2374.896044
20534.411023,1406.391290,-8586.388927,-153.219100
20534.411357,74.020594,-8956.491898,-2757.943793
20534.411690,-2368.659014,-7772.162391,-3524.039291
20534.412023,-666.185348,-11251.130318,-2528.115143
20534.412356,-3627.009116,-11399.171507,-5286.058936
20534.412689,-4737.318029,-12065.356855,-1378.971896
20534.413022,1480.411884,-11843.295072,2987.772442
20534.413355,3627.009116,-6291.750507,4903.011187
20534.413688,7254.018232,-5403.503377,6894.859482
20534.414021,6439.791695,-6883.915261,5822.325785
20534.414355,5107.421000,-6291.750507,3983.696590
20534.414688,2960.823768,-8364.327145,1225.752797
20534.415021,2294.638420,-9474.636058,-4060.306139
20534.415354,-3552.988522,-11917.315666,-6741.640382
20534.415687,-5033.400406,-14211.954086,-5592.497135
20534.416020,-3034.844362,-12287.418637,-5592.497135
20534.416353,-1776.494261,-10732.986159,612.876398
20534.416686,1924.535449,-8808.450710,2911.162892
20534.417019,3849.070898,-7402.059420,5898.935335
20534.417352,5329.482782,-6069.688724,6205.373534
20534.417686,7624.121203,-7698.141797,5439.278036
20534.418019,5847.626942,-9474.636058,2068.457845
20534.418352,-1776.494261,-8660.409521,306.438199
20534.418685,-2368.659014,-11769.274478,-76.609550
20534.419018,-4811.338623,-11843.295072,-5515.887586
20534.419351,-2072.576638,-11177.109724,-2528.115143
20534.419684,-1332.370696,-8512.368333,-536.266849
20534.420017,962.267725,-7994.224174,-383.047749
20534.420350,0.000000,-9030.512492,-229.828649
20534.420684,370.102971,-8734.430116,-689.485948
20534.421017,1480.411884,-8364.327145,1225.752797
20534.421350,3256.906145,-9474.636058,4826.401637
20534.421683,1110.308913,-9326.594869,1838.629195
20534.422016,-1776.494261,-7772.162391,612.876398
20534.422349,2886.803174,-9474.636058,3600.648841
20534.422682,1184.329507,-7179.997637,3064.381992
20534.423015,1406.391290,-7402.059420,459.657299
20534.423348,-888.247130,-7698.141797,-2068.457845
20534.423681,-3478.967927,-9252.574275,-4060.306139
20534.424015,0.000000,-8216.285956,-3677.258390
20534.424348,-2368.659014,-10881.027347,-2911.162892
20534.424681,-2072.576638,-10881.027347,-2374.896044
20534.425014,-2960.823768,-11473.192101,612.876398
20534.425347,2368.659014,-10140.821405,4826.401637
20534.425680,5847.626942,-5699.585753,3677.258390
20534.426013,5921.647536,-5995.668130,7354.516781
20534.426346,6735.874072,-8290.306550,3600.648841
20534.426679,2368.659014,-7179.997637,1225.752797
20534.427013,1702.473667,-10510.924376,-766.095498
20534.427346,-1702.473667,-10436.903782,-3830.477490
20534.427679,-4293.194464,-12065.356855,-5592.497135
20534.428012,-4219.173869,-13619.789333,-5286.058936
20534.428345,-5255.462188,-11917.315666,-2451.505594
20534.428678,-74.020594,-5995.668130,-2451.505594
20534.429011,3552.988522,-9474.636058,7277.907231
20534.429344,4737.318029,-6143.709319,8810.098227
20534.429677,4071.132681,-6513.812290,4826.401637
20534.430010,2738.761985,-9030.512492,3600.648841
20534.430344,1776.494261,-7179.997637,1685.410096
20534.430677,-2220.617826,-10658.965565,-1302.362347
20534.431010,-4959.379811,-11547.212695,-4519.963438
20534.431343,-4811.338623,-11843.295072,-4060.306139
20534.431676,-4441.235652,-11325.150913,-1225.752797
20534.432009,1036.288319,-9178.553681,1762.019645
20534.432342,1110.308913,-7179.997637,0.000000
20534.432675,0.000000,-6587.832884,0.000000
20534.433008,2294.638420,-8586.388927,1762.019645
20534.433342,2960.823768,-8068.244768,3064.381992
20534.433675,1184.329507,-8956.491898,1225.752797
20534.434008,222.061783,-9548.656652,0.000000
20534.434341,-1258.350101,-10732.986159,-1302.362347
20534.434674,2516.700203,-11251.130318,2987.772442
20534.435007,1702.473667,-9474.636058,536.266849
20534.435340,-2072.576638,-7179.997637,919.314598
20534.435673,-74.020594,-8290.306550,-76.609550
20534.436006,-1258.350101,-8290.306550,-3370.820191
20534.436339,-592.164754,-7920.203579,-1608.800546
20534.436673,-2886.803174,-10658.965565,-2068.457845
20534.437006,-2516.700203,-9918.759623,-995.924147
20534.437339,-1184.329507,-11103.089130,2068.457845
20534.437672,2886.803174,-8882.471304,153.219100
20534.438005,3552.988522,-7624.121203,5822.325785
20534.438338,7031.956449,-8882.471304,5439.278036
20534.438671,4663.297435,-6513.812290,2374.896044
20534.439004,2516.700203,-10066.800811,1608.800546
20534.439337,1628.453072,-9252.574275,-1838.629195
20534.439671,-1628.453072,-10214.842000,-3907.087040
20534.440004,-1998.556043,-11991.336260,-4979.620737
20534.440337,-4737.318029,-11325.150913,-3370.820191
20534.440670,-1850.514855,-11621.233289,-1225.752797
20534.441003,2812.782580,-8364.327145,3983.696590
20534.441336,5329.482782,-5551.544565,7048.078582
20534.441669,6069.688724,-4515.256246,6435.202183
20534.442002,3552.988522,-6587.832884,5439.278036
20534.442335,4663.297435,-8290.306550,2987.772442
20534.442668,1702.473667,-8290.306550,-2528.115143
20534.443002,-2368.659014,-11177.109724,-2987.772442
20534.443335,-5403.503377,-13027.624579,-6205.373534
20534.443668,-6513.812290,-12657.521608,-5439.278036
20534.444001,-2072.576638,-10510.924376,-2145.067394
20534.444334,222.061783,-8660.409521,383.047749
20534.444667,888.247130,-6883.915261,2451.505594
20534.445000,0.000000,-7179.997637,5362.668486
20534.445333,4663.297435,-6513.812290,2757.943793
20534.445666,1184.329507,-6587.832884,1225.752797
20534.446000,1184.329507,-8364.327145,3217.601092
20534.446333,-1184.329507,-7920.203579,383.047749
20534.446666,-1036.288319,-10955.047942,-76.609550
20534.446999,-370.102971,-11103.089130,0.000000
20534.447332,-2442.679609,-8956.491898,-1378.971896
20534.447665,-370.102971,-9474.636058,-689.485948
20534.447998,-3552.988522,-8660.409521,-76.609550
20534.448331,-74.020594,-8290.306550,-4366.744339
20534.448664,-1628.453072,-8660.409521,0.000000
20534.448997,2294.638420,-10658.965565,2987.772442
20534.449331,-740.205942,-9548.656652,1838.629195
20534.449664,-962.267725,-9474.636058,766.095498
20534.449997,740.205942,-9844.739029,3907.087040
20534.450330,2368.659014,-5847.626942,3830.477490
20534.450663,3478.967927,-5033.400406,2528.115143
20534.450996,2664.741391,-9474.636058,2374.896044
20534.451329,-2368.659014,-7179.997637,-3983.696590
20534.451662,-2368.659014,-11325.150913,-1915.238745
20534.451995,-1850.514855,-10214.842000,-5592.497135
20534.452329,-5403.503377,-12287.418637,-4673.182538
20534.452662,-4737.318029,-11029.068536,-4136.915689
20534.452995,148.041188,-11473.192101,1762.019645
20534.453328,3404.947333,-6587.832884,5822.325785
20534.453661,5329.482782,-5995.668130,7967.393179
20534.453994,5847.626942,-7105.977043,4366.744339
20534.454327,4737.318029,-6587.832884,5515.887586
20534.454660,4663.297435,-10214.842000,4213.525239
20534.454993,370.102971,-7179.997637,-2451.505594
20534.455326,-4885.359217,-11547.212695,-6818.249932
20534.455660,-6809.894666,-12509.480420,-7507.735880
20534.455993,-5773.606348,-12657.521608,-4903.011187
20534.456326,-1110.308913,-9548.656652,-1838.629195
20534.456659,1184.329507,-8956.491898,2451.505594
20534.456992,4367.215058,-6217.729913,3753.867940
20534.457325,5773.606348,-7105.977043,6205.373534
20534.457658,4589.276840,-6883.915261,5745.716235
20534.457991,5403.503377,-8290.306550,3753.867940
20534.458324,1184.329507,-7179.997637,1378.971896
20534.458658,-370.102971,-11843.295072,-1302.362347
20534.458991,-3923.091493,-8364.327145,-4903.011187
20534.459324,-2072.576638,-12435.459826,-2528.115143
20534.459657,-74.020594,-9474.636058,-1302.362347
20534.459990,0.000000,-7179.997637,153.219100
20534.460323,592.164754,-7179.997637,-612.876398
20534.460656,1702.473667,-9400.615463,-459.657299
20534.460989,3627.009116,-8364.327145,1838.629195
20534.461322,4293.194464,-11177.109724,4826.401637
20534.461655,2886.803174,-10066.800811,842.705048
20534.461989,0.000000,-11917.315666,1225.752797
20534.462322,4663.297435,-9474.636058,2374.896044
20534.462655,5625.565159,-6069.688724,3064.381992
20534.462988,4737.318029,-6883.915261,3447.429741
20534.463321,1776.494261,-9548.656652,-306.438199
20534.463654,-2220.617826,-10436.903782,-4290.134789
20534.463987,0.000000,-9992.780217,-2987.772442
20534.464320,-1258.350101,-12435.459826,-3140.991542
20534.464653,-1258.350101,-9474.636058,-5745.716235
20534.464987,-2368.659014,-12435.459826,-76.609550
20534.465320,-74.020594,-11843.295072,2374.896044
20534.465653,2664.741391,-5403.503377,5822.325785
20534.465986,5847.626942,-8290.306550,7890.783629
20534.466319,3849.070898,-6587.832884,6971.469032
20534.466652,-888.247130,-7328.038826,2834.553343
20534.466985,-740.205942,-8438.347739,-1302.362347
20534.467318,-5329.482782,-8364.327145,-4596.572988
20534.467651,-7994.224174,-11325.150913,-6128.763984
20534.467984,-6957.935855,-13027.624579,-4979.620737
20534.468318,-7476.080014,-11769.274478,-5515.887586
20534.468651,-4737.318029,-7772.162391,0.000000
20534.468984,2294.638420,-8290.306550,4213.525239
20534.469317,3182.885551,-5699.585753,6588.421283
20534.469650,3182.885551,-6069.688724,6205.373534
20534.469983,2072.576638,-7772.162391,4060.306139
20534.470316,592.164754,-6291.750507,2145.067394
20534.470649,-2368.659014,-8734.430116,-1225.752797
20534.470982,-3330.926739,-11325.150913,-4136.915689
20534.471316,-5847.626942,-12435.459826,-4673.182538
20534.471649,-2072.576638,-11251.130318,-76.609550
20534.471982,2294.638420,-10658.965565,1762.019645
20534.472315,1110.308913,-6883.915261,0.000000
20534.472648,0.000000,-6883.915261,0.000000
20534.472981,962.267725,-11843.295072,2374.896044
20534.473314,3552.988522,-6587.832884,2604.724693
20534.473647,592.164754,-10658.965565,1762.019645
20534.473980,740.205942,-9696.697840,1378.971896
20534.474313,1406.391290,-10140.821405,2451.505594
20534.474647,1702.473667,-8882.471304,1762.019645
20534.474980,4737.318029,-5403.503377,3370.820191
20534.475313,0.000000,-5403.503377,1225.752797
20534.475646,3478.967927,-9474.636058,-1302.362347
20534.475979,2294.638420,-10658.965565,-1915.238745
20534.476312,1554.432478,-9474.636058,-3140.991542
20534.476645,740.205942,-11251.130318,-3753.867940
20534.476978,222.061783,-11029.068536,-2451.505594
20534.477311,1628.453072,-10658.965565,0.000000
20534.477644,2590.720797,-10066.800811,2451.505594
20534.477978,8216.285956,-9474.636058,5745.716235
20534.478311,5329.482782,-6883.915261,5515.887586
20534.478644,7994.224174,-6883.915261,6971.469032
20534.478977,6735.874072,-6069.688724,1532.190996
20534.479310,1184.329507,-9548.656652,0.000000
20534.479643,-74.020594,-9770.718434,-5209.449386
20534.479976,-4219.173869,-13101.645173,-5898.935335
20534.480309,-5773.606348,-13545.768739,-6741.640382
20534.480642,-4959.379811,-12657.521608,-3370.820191
20534.480976,-74.020594,-7402.059420,536.266849
20534.481309,4145.153275,-7328.038826,8503.660028
20534.481642,5847.626942,-7698.141797,7890.783629
20534.481975,962.267725,-5995.668130,3677.258390
20534.482308,2368.659014,-8364.327145,5515.887586
20534.482641,-1924.535449,-7402.059420,306.438199
20534.482974,-3775.050304,-10066.800811,-2528.115143
20534.483307,-8142.265362,-9474.636058,-5286.058936
20534.483640,-8142.265362,-11621.233289,-5209.449386
20534.483973,-6513.812290,-9548.656652,-2451.505594
20534.484307,-74.020594,-11251.130318,-76.609550
20534.484640,-2516.700203,-7328.038826,612.876398
20534.484973,-3256.906145,-5995.668130,2451.505594
20534.485306,3108.864956,-8882.471304,5439.278036
20534.485639,592.164754,-7179.997637,3983.696590
20534.485972,-222.061783,-8956.491898,1991.848295
20534.486305,-2812.782580,-9992.780217,459.657299
20534.486638,-3182.885551,-10362.883188,0.000000
20534.486971,-2960.823768,-7772.162391,306.438199
20534.487305,-1924.535449,-6735.874072,-919.314598
20534.487638,-518.144159,-8216.285956,-1149.143247
20534.487971,-2812.782580,-8364.327145,-2221.676944
20534.488304,-74.020594,-9474.636058,-1302.362347
20534.488637,-1258.350101,-8364.327145,-2298.286494
20534.488970,888.247130,-10807.006753,2451.505594
20534.489303,3182.885551,-10658.965565,-76.609550
20534.489636,814.226536,-11103.089130,306.438199
20534.489969,5181.441594,-11399.171507,5745.716235
20534.490302,4885.359217,-8068.244768,4290.134789
20534.490636,5847.626942,-7550.100608,4826.401637
20534.490969,4219.173869,-7402.059420,1762.019645
20534.491302,592.164754,-6735.874072,-2451.505594
20534.491635,814.226536,-7179.997637,-4903.011187
20534.491968,2886.803174,-10362.883188,-2528.115143
20534.492301,-2442.679609,-13619.789333,-4979.620737
20534.492634,-5033.400406,-10732.986159,-5822.325785
20534.492967,-962.267725,-11843.295072,-1302.362347
20534.493300,4441.235652,-7772.162391,4290.134789
20534.493634,7920.203579,-5477.523971,6588.421283
20534.493967,9030.512492,-6291.750507,6894.859482
20534.494300,5921.647536,-8364.327145,4903.011187
20534.494633,3997.112087,-7476.080014,0.000000
20534.494966,5551.544565,-11843.295072,-689.485948
20534.495299,-1258.350101,-10436.903782,-5515.887586
20534.495633,-1924.535449,-11547.212695,-5286.058936
20534.495966,-3552.988522,-11621.233289,-4903.011187
20534.496299,-74.020594,-13027.624579,-76.609550
20534.496632,370.102971,-7179.997637,306.438199
20534.496965,2812.782580,-7698.141797,3830.477490
20534.497298,3478.967927,-6513.812290,4213.525239
20534.497631,3552.988522,-8586.388927,5745.716235
20534.497965,1776.494261,-5995.668130,1225.752797
20534.498298,0.000000,-9548.656652,3370.820191
20534.498631,1110.308913,-8734.430116,-1149.143247
20534.498964,-370.102971,-12139.377449,-689.485948
20534.499297,-1406.391290,-10140.821405,-1608.800546
20534.499630,-1110.308913,-9104.533087,-1532.190996
20534.499964,-1110.308913,-8660.409521,-1608.800546
20534.500297,-3256.906145,-7772.162391,-1072.533697
20534.500630,-74.020594,-10658.965565,-2528.115143
20534.500963,0.000000,-9548.656652,3600.648841
20534.501296,-74.020594,-11843.295072,2374.896044
20534.501629,-2960.823768,-7179.997637,2604.724693
20534.501962,-1554.432478,-9400.615463,2681.334243
20534.502296,-74.020594,-9030.512492,3140.991542
20534.502629,814.226536,-5995.668130,3370.820191
20534.502962,666.185348,-7994.224174,1762.019645
20534.503295,-3552.988522,-7179.997637,-2145.067394
20534.503628,-3627.009116,-10955.047942,-4366.744339
20534.503961,-3404.947333,-10362.883188,-3217.601092
20534.504294,-5625.565159,-10881.027347,-3907.087040
20534.504628,-6735.874072,-11769.274478,-4443.353888
20534.504961,-7105.977043,-9548.656652,-2451.505594
20534.505294,-666.185348,-10362.883188,3600.648841
20534.505627,3478.967927,-3627.009116,4903.011187
20534.505960,5181.441594,-6809.894666,9422.974625
20534.506293,8216.285956,-8290.306550,7890.783629
20534.506627,1184.329507,-5995.668130,2451.505594
20534.506960,1110.308913,-9178.553681,-2451.505594
20534.507293,-2146.597232,-10510.924376,-5209.449386
20534.507626,-5847.626942,-12805.562797,-7354.516781
20534.507959,-5921.647536,-12065.356855,-4903.011187
20534.508292,-3627.009116,-13619.789333,-5439.278036
20534.508625,0.000000,-8364.327145,0.000000
20534.508959,4737.318029,-6735.874072,7814.174080
20534.509292,7031.956449,-6809.894666,7890.783629
20534.509625,5477.523971,-3182.885551,6588.421283
20534.509958,4959.379811,-7846.182985,3983.696590
20534.510291,6217.729913,-7105.977043,1915.238745
20534.510624,2072.576638,-10732.986159,-459.657299
20534.510958,-666.185348,-14211.954086,-2528.115143
20534.511291,-1258.350101,-11843.295072,-7890.783629
20534.511624,-3404.947333,-13989.892304,-1608.800546
20534.511957,2368.659014,-8364.327145,2834.553343
20534.512290,3330.926739,-6661.853478,0.000000
20534.512623,2442.679609,-9474.636058,1762.019645
20534.512956,3701.029710,-6291.750507,2451.505594
20534.513290,4663.297435,-8586.388927,4136.915689
20534.513623,4885.359217,-7179.997637,2298.286494
20534.513956,518.144159,-9474.636058,-76.609550
20534.514289,-1184.329507,-10140.821405,-2451.505594
20534.514622,1480.411884,-11843.295072,1149.143247
20534.514955,2886.803174,-7105.977043,0.000000
20534.515288,2294.638420,-7698.141797,0.000000
20534.515622,1924.535449,-10362.883188,-76.609550
20534.515955,962.267725,-8586.388927,-1608.800546
20534.516288,666.185348,-10658.965565,-1072.533697
20534.516621,-1924.535449,-10140.821405,-2145.067394
20534.516954,-3849.070898,-10214.842000,-2221.676944
20534.517287,-2960.823768,-10140.821405,76.609550
20534.517621,444.123565,-8068.244768,2528.115143
20534.517954,2146.597232,-7031.956449,4826.401637
20534.518287,4145.153275,-6587.832884,6128.763984
20534.518620,3478.967927,-9178.553681,4826.401637
20534.518953,-666.185348,-7476.080014,-2298.286494
20534.519286,-1776.494261,-10658.965565,-153.219100
20534.519619,-2442.679609,-10658.965565,-5592.497135
20534.519953,-5921.647536,-11029.068536,-3983.696590
20534.520286,-6957.935855,-11769.274478,-3907.087040
20534.520619,-5625.565159,-12213.398043,-1685.410096
20534.520952,-1332.370696,-9474.636058,2604.724693
20534.521285,1998.556043,-8290.306550,4826.401637
20534.521618,592.164754,-5403.503377,6281.983084
20534.521952,2294.638420,-4959.379811,1838.629195
20534.522285,2368.659014,-6883.915261,4366.744339
20534.522618,2294.638420,-9474.636058,1762.019645
20534.522951,-74.020594,-10066.800811,-689.485948
20534.523284,-4959.379811,-13027.624579,-4060.306139
20534.523617,-6365.771101,-12953.603985,-4979.620737
20534.523950,-3034.844362,-11029.068536,-1991.848295
20534.524284,-592.164754,-8364.327145,-229.828649
20534.524617,4071.132681,-9326.594869,4213.525239
20534.524950,0.000000,-7179.997637,1225.752797
20534.525283,2960.823768,-8512.368333,4826.401637
20534.525616,2812.782580,-6291.750507,2451.505594
20534.525949,1332.370696,-7179.997637,1991.848295
20534.526282,1998.556043,-9178.553681,0.000000
20534.526616,-518.144159,-9992.780217,-842.705048
20534.526949,1332.370696,-11473.192101,-459.657299
20534.527282,1332.370696,-9548.656652,-229.828649
20534.527615,2886.803174,-11251.130318,-1302.362347
20534.527948,592.164754,-11251.130318,1455.581446
20534.528281,3404.947333,-10658.965565,2374.896044
20534.528615,-74.020594,-7772.162391,-1762.019645
20534.528948,1184.329507,-8660.409521,1225.752797
20534.529281,-1110.308913,-8364.327145,0.000000
20534.529614,-148.041188,-9400.615463,-689.485948
20534.529947,1184.329507,-9548.656652,2298.286494
20534.530280,4737.318029,-6957.935855,3294.210641
20534.530613,5329.482782,-4811.338623,2451.505594
20534.530947,6291.750507,-10658.965565,2374.896044
20534.531280,2886.803174,-9178.553681,-2298.286494
20534.531613,0.000000,-9844.739029,-2451.505594
20534.531946,1184.329507,-10436.903782,-2451.505594
20534.532279,-1628.453072,-11473.192101,-4136.915689
20534.532612,-2738.761985,-11843.295072,-3907.087040
20534.532946,-740.205942,-10510.924376,-995.924147
20534.533279,2442.679609,-8438.347739,5132.839837
20534.533612,5995.668130,-4811.338623,6435.202183
20534.533945,4663.297435,-6513.812290,6205.373534
20534.534278,3849.070898,-5403.503377,3983.696590
20534.534611,1036.288319,-8290.306550,766.095498
20534.534944,3478.967927,-9474.636058,-76.609550
20534.535278,-3330.926739,-9844.739029,-4290.134789
20534.535611,-4737.318029,-12879.583391,-2528.115143
20534.535944,-4811.338623,-13619.789333,-6205.373534
20534.536277,-2590.720797,-9622.677246,-2451.505594
20534.536610,0.000000,-10140.821405,3370.820191
20534.536943,2664.741391,-5403.503377,2451.505594
20534.537276,2072.576638,-9252.574275,4519.963438
20534.537610,2072.576638,-7698.141797,4060.306139
20534.537943,1406.391290,-7698.141797,2374.896044
20534.538276,-666.185348,-7179.997637,0.000000
20534.538609,962.267725,-10658.965565,1149.143247
20534.538942,-3034.844362,-10658.965565,-1302.362347
20534.539275,-2368.659014,-8660.409521,0.000000
20534.539609,-2738.761985,-10658.965565,-76.609550
20534.539942,-2664.741391,-9030.512492,-689.485948
20534.540275,-3849.070898,-9104.533087,-1762.019645
20534.540608,-4589.276840,-9548.656652,-1762.019645
20534.540941,-3404.947333,-7179.997637,-1838.629195
20534.541274,-3923.091493,-8512.368333,0.000000
20534.541607,-74.020594,-10658.965565,1149.143247
20534.541941,-4737.318029,-9548.656652,1302.362347
20534.542274,0.000000,-8364.327145,5592.497135
20534.542607,2072.576638,-5107.421000,3600.648841
20534.542940,3552.988522,-7105.977043,3294.210641
20534.543273,296.082377,-8068.244768,-306.438199
20534.543606,-2072.576638,-10510.924376,-3983.696590
20534.543940,-74.020594,-11843.295072,-2528.115143
20534.544273,-3552.988522,-10436.903782,-3524.039291
20534.544606,-666.185348,-14211.954086,-3753.867940
20534.544939,-2738.761985,-9844.739029,-4290.134789
20534.545272,0.000000,-11399.171507,1838.629195
20534.545605,6069.688724,-8882.471304,7048.078582
20534.545938,7402.059420,-6143.709319,7507.735880
20534.546272,6957.935855,-6069.688724,6894.859482
20534.546605,4737.318029,-6291.750507,3677.258390
20534.546938,3478.967927,-5995.668130,0.000000
20534.547271,2368.659014,-11843.295072,-2528.115143
20534.547604,-3256.906145,-8364.327145,-6741.640382
20534.547937,-8290.306550,-13397.727550,-5515.887586
20534.548270,-1258.350101,-13619.789333,-4979.620737
20534.548604,962.267725,-12435.459826,0.000000
20534.548937,4663.297435,-7031.956449,2911.162892
20534.549270,7994.224174,-5921.647536,7277.907231
20534.549603,5477.523971,-6439.791695,5669.106685
20534.549936,7105.977043,-5033.400406,2681.334243
20534.550269,5625.565159,-9474.636058,4213.525239
20534.550603,3034.844362,-8882.471304,0.000000
20534.550936,-888.247130,-10584.944971,-3217.601092
20534.551269,-3552.988522,-12731.542202,-5439.278036
20534.551602,-1258.350101,-11695.253884,-3447.429741
20534.551935,-148.041188,-10881.027347,2068.457845
20534.552268,2294.638420,-7698.141797,-1762.019645
20534.552601,-2368.659014,-8660.409521,919.314598
20534.552935,1776.494261,-7772.162391,2451.505594
20534.553268,1998.556043,-7846.182985,2451.505594
20534.553601,1850.514855,-6883.915261,3370.820191
20534.553934,-1258.350101,-10214.842000,1608.800546
20534.554267,-2960.823768,-10807.006753,1072.533697
20534.554600,-2368.659014,-8364.327145,0.000000
20534.554934,1406.391290,-9474.636058,1762.019645
20534.555267,-1924.535449,-6587.832884,-2068.457845
20534.555600,-4737.318029,-8660.409521,-1838.629195
20534.555933,-3627.009116,-12435.459826,-2528.115143
20534.556266,-4145.153275,-7772.162391,-2451.505594
20534.556599,-3256.906145,-10881.027347,-1302.362347
20534.556932,-4441.235652,-10140.821405,0.000000
20534.557266,-3997.112087,-9918.759623,1072.533697
20534.557599,-2368.659014,-9030.512492,4290.134789
20534.557932,4071.132681,-9474.636058,4826.401637
20534.558265,1776.494261,-5995.668130,6281.983084
20534.558598,0.000000,-6587.832884,6435.202183
20534.558931,1998.556043,-7105.977043,-536.266849
20534.559264,-2960.823768,-10288.862594,-1532.190996
20534.559598,-2368.659014,-9770.718434,-4903.011187
20534.559931,-5551.544565,-12361.439231,-5209.449386
20534.560264,-5403.503377,-12361.439231,-5362.668486
20534.560597,-4219.173869,-14211.954086,-1915.238745
20534.560930,-666.185348,-7105.977043,-383.047749
20534.561263,1184.329507,-5995.668130,6281.983084
20534.561597,7031.956449,-5773.606348,7277.907231
20534.561930,5847.626942,-3627.009116,2451.505594
20534.562263,4737.318029,-9104.533087,6052.154434
20534.562596,4811.338623,-6513.812290,1915.238745
20534.562929,1628.453072,-10584.944971,-1302.362347
20534.563262,-1850.514855,-11843.295072,-4903.011187
20534.563595,-3627.009116,-14211.954086,-5592.497135
20534.563929,-1702.473667,-12361.439231,-3524.039291
20534.564262,1776.494261,-9104.533087,-919.314598
20534.564595,1850.514855,-9770.718434,1762.019645
20534.564928,2368.659014,-5403.503377,2451.505594
20534.565261,4737.318029,-6883.915261,6435.202183
20534.565594,9400.615463,-7105.977043,4826.401637
20534.565928,3627.009116,-5921.647536,1915.238745
20534.566261,0.000000,-10436.903782,1378.971896
20534.566594,-1628.453072,-9696.697840,-2221.676944
20534.566927,0.000000,-9992.780217,-1149.143247
20534.567260,1184.329507,-8956.491898,-1608.800546
20534.567593,1998.556043,-9474.636058,-1532.190996
20534.567926,-296.082377,-11029.068536,-689.485948
20534.568260,1110.308913,-8068.244768,-1302.362347
20534.568593,1702.473667,-9326.594869,-3064.381992
20534.568926,1480.411884,-8068.244768,766.095498
20534.569259,1184.329507,-9548.656652,3600.648841
20534.569592,1036.288319,-9844.739029,1838.629195
20534.569925,3552.988522,-9104.533087,2374.896044
20534.570258,3182.885551,-9844.739029,5439.278036
20534.570592,4737.318029,-6957.935855,4749.792088
20534.570925,1406.391290,-8142.265362,842.705048
20534.571258,-2072.576638,-9548.656652,-1991.848295
20534.571591,-2072.576638,-7772.162391,-4366.744339
20534.571924,-4737.318029,-10140.821405,-2145.067394
20534.572257,-2442.679609,-12879.583391,-1302.362347
20534.572591,-4811.338623,-11251.130318,-4060.306139
20534.572924,-3627.009116,-11177.109724,-1532.190996
20534.573257,1036.288319,-7402.059420,4060.306139
20534.573590,3182.885551,-5625.565159,6665.030833
20534.573923,2664.741391,-6365.771101,4290.134789
20534.574256,4663.297435,-8882.471304,5439.278036
20534.574589,-2368.659014,-8364.327145,1838.629195
20534.574923,-2368.659014,-9548.656652,1225.752797
20534.575256,-4219.173869,-9770.718434,-5669.106685
20534.575589,-7105.977043,-10732.986159,-5515.887586
20534.575922,-4959.379811,-11029.068536,-3983.696590
20534.576255,-1850.514855,-10955.047942,-76.609550
20534.576588,-1924.535449,-9400.615463,995.924147
20534.576922,222.061783,-6587.832884,1685.410096
20534.577255,962.267725,-7105.977043,1608.800546
20534.577588,1184.329507,-7328.038826,6665.030833
20534.577921,2590.720797,-8290.306550,2374.896044
20534.578254,-2738.761985,-7179.997637,0.000000
20534.578587,-3552.988522,-9548.656652,0.000000
20534.578920,-3034.844362,-9474.636058,-2604.724693
20534.579254,-1184.329507,-10436.903782,-459.657299
20534.579587,888.247130,-7698.141797,-459.657299
20534.579920,148.041188,-9030.512492,0.000000
20534.580253,1702.473667,-7994.224174,-2451.505594
20534.580586,0.000000,-9548.656652,-1608.800546
20534.580919,1628.453072,-10436.903782,-306.438199
20534.581252,1776.494261,-8512.368333,1302.362347
20534.581586,1184.329507,-10584.944971,1991.848295
20534.581919,1998.556043,-9474.636058,0.000000
20534.582252,2368.659014,-9548.656652,3677.258390
20534.582585,7402.059420,-9474.636058,6665.030833
20534.582918,6513.812290,-6143.709319,4903.011187
20534.583251,592.164754,-8364.327145,1225.752797
20534.583585,1998.556043,-8290.306550,-3140.991542
20534.583918,0.000000,-9770.718434,-2604.724693
20534.584251,-148.041188,-10214.842000,-4979.620737
20534.584584,-1258.350101,-12435.459826,-4366.744339
20534.584917,-3923.091493,-13619.789333,-6205.373534
20534.585250,0.000000,-10955.047942,2068.457845
20534.585583,4663.297435,-10658.965565,7277.907231
20534.585917,7328.038826,-4515.256246,5515.887586
20534.586250,9252.574275,-5847.626942,9576.193725
20534.586583,4071.132681,-7105.977043,3064.381992
20534.586916,4811.338623,-7550.100608,919.314598
20534.587249,148.041188,-10362.883188,-2911.162892
20534.587582,-3552.988522,-10288.862594,-6818.249932
20534.587916,-5403.503377,-12213.398043,-10725.336972
20534.588249,-4737.318029,-15248.242405,-4366.744339
20534.588582,-2442.679609,-10807.006753,-2681.334243
20534.588915,1702.473667,-7031.956449,1532.190996
20534.589248,4589.276840,-7994.224174,7277.907231
20534.589581,2960.823768,-5773.606348,7354.516781
20534.589914,4589.276840,-5847.626942,5898.935335
20534.590248,1332.370696,-8808.450710,4443.353888
20534.590581,-2072.576638,-8364.327145,919.314598
20534.590914,-5699.585753,-8956.491898,-4290.134789
20534.591247,-3627.009116,-14211.954086,-2834.553343
20534.591580,-4515.256246,-8956.491898,-4749.792088
20534.591913,-4737.318029,-9548.656652,-3064.381992
20534.592246,-2368.659014,-8068.244768,-2145.067394
20534.592580,-3627.009116,-9918.759623,-842.705048
20534.592913,-1850.514855,-7920.203579,-612.876398
20534.593246,1480.411884,-8142.265362,3524.039291
20534.593579,2294.638420,-7105.977043,5439.278036
20534.593912,-2368.659014,-9548.656652,4826.401637
20534.594245,-1258.350101,-8438.347739,612.876398
20534.594579,-1184.329507,-7179.997637,2451.505594
20534.594912,2960.823768,-8586.388927,4213.525239
20534.595245,1332.370696,-7846.182985,0.000000
20534.595578,-1554.432478,-9622.677246,-2911.162892
20534.595911,-3330.926739,-10214.842000,-4749.792088
20534.596244,-1258.350101,-10140.821405,-3370.820191
20534.596577,-74.020594,-11695.253884,-1608.800546
20534.596911,-2960.823768,-11103.089130,-1225.752797
20534.597244,-2072.576638,-11251.130318,766.095498
20534.597577,666.185348,-9178.553681,3600.648841
20534.597910,4811.338623,-6513.812290,6281.983084
20534.598243,8216.285956,-6217.729913,7890.783629
20534.598576,4737.318029,-5403.503377,3677.258390
20534.598910,4219.173869,-8882.471304,1455.581446
20534.599243,0.000000,-7772.162391,-3064.381992
20534.599576,-1776.494261,-8364.327145,-5362.668486
20534.599909,-1850.514855,-13027.624579,-5745.716235
20534.600242,-3552.988522,-13249.686362,-5362.668486
20534.600575,-3997.112087,-13397.727550,-3907.087040
20534.600908,814.226536,-10955.047942,919.314598
20534.601242,4367.215058,-6513.812290,4826.401637
20534.601575,7105.977043,-6883.915261,10189.070123
20534.601908,9400.615463,-8290.306550,8197.221829
20534.602241,4737.318029,-6291.750507,4903.011187
20534.602574,5033.400406,-7328.038826,3677.258390
20534.602907,1702.473667,-8586.388927,-3447.429741
20534.603240,-3997.112087,-12287.418637,-5439.278036
20534.603574,-6513.812290,-11917.315666,-7507.735880
20534.603907,-5107.421000,-14211.954086,-4979.620737
20534.604240,-1184.329507,-7476.080014,-2451.505594
20534.604573,2664.741391,-10658.965565,4826.401637
20534.604906,2590.720797,-5995.668130,1762.019645
20534.605239,2886.803174,-5403.503377,3064.381992
20534.605573,4811.338623,-9474.636058,4826.401637
20534.605906,2368.659014,-7179.997637,2604.724693
20534.606239,814.226536,-10807.006753,1455.581446
20534.606572,814.226536,-10214.842000,76.609550
20534.606905,888.247130,-9770.718434,766.095498
20534.607238,2368.659014,-9104.533087,2145.067394
20534.607571,2294.638420,-9474.636058,-1302.362347
20534.607905,-2812.782580,-7772.162391,-1838.629195
20534.608238,666.185348,-8882.471304,-306.438199
20534.608571,-148.041188,-12435.459826,-76.609550
20534.608904,0.000000,-8660.409521,-1225.752797
20534.609237,-814.226536,-10510.924376,-306.438199
20534.609570,-518.144159,-10658.965565,1302.362347
20534.609904,1776.494261,-7772.162391,2451.505594
20534.610237,3627.009116,-9474.636058,6128.763984
20534.610570,4885.359217,-3701.029710,3524.039291
20534.610903,2368.659014,-8956.491898,2987.772442
20534.611236,-296.082377,-8216.285956,-2374.896044
20534.611569,-666.185348,-9918.759623,-3447.429741
20534.611902,-5921.647536,-9548.656652,-3677.258390
20534.612236,-1924.535449,-12879.583391,-3447.429741
20534.612569,-7846.182985,-11843.295072,-5286.058936
20534.612902,-4737.318029,-9548.656652,-2451.505594
20534.613235,1110.308913,-9474.636058,3600.648841
20534.613568,2368.659014,-6735.874072,6665.030833
20534.613901,5033.400406,-5847.626942,6894.859482
20534.614234,2072.576638,-7179.997637,5439.278036
20534.614568,1776.494261,-6587.832884,3064.381992
20534.614901,-74.020594,-9474.636058,0.000000
20534.615234,-2442.679609,-11843.295072,-6205.373534
20534.615567,-9474.636058,-11325.150913,-6588.421283
20534.615900,-8290.306550,-13249.686362,-4519.963438
20534.616233,-2960.823768,-9548.656652,-995.924147
20534.616567,-2220.617826,-7920.203579,2451.505594
20534.616900,1184.329507,-6217.729913,3217.601092
20534.617233,1258.350101,-7031.956449,3294.210641
20534.617566,4663.297435,-7698.141797,4826.401637
20534.617899,2368.659014,-5995.668130,2451.505594
20534.618233,2294.638420,-8882.471304,-76.609550
20534.618566,-2960.823768,-9548.656652,0.000000
20534.618899,-1258.350101,-11547.212695,-2451.505594
20534.619232,1702.473667,-14211.954086,-76.609550
20534.619566,0.000000,-7179.997637,-1225.752797
20534.619899,0.000000,-8956.491898,1378.971896
20534.620232,-148.041188,-8586.388927,-995.924147
20534.620565,1628.453072,-6439.791695,-1072.533697
20534.620898,3182.885551,-11843.295072,3600.648841
20534.621232,2960.823768,-4811.338623,1838.629195
20534.621565,0.000000,-11621.233289,4826.401637
20534.621898,-666.185348,-9400.615463,-2451.505594
20534.622231,592.164754,-8364.327145,612.876398
20534.622564,2886.803174,-9104.533087,2145.067394
20534.622898,8290.306550,-5107.421000,4519.963438
20534.623231,3627.009116,-8882.471304,1532.190996
20534.623564,2294.638420,-8512.368333,-2604.724693
20534.623897,1110.308913,-10362.883188,-3140.991542
20534.624231,0.000000,-11621.233289,-1915.238745
20534.624564,-370.102971,-9770.718434,-4979.620737
20534.624897,-3627.009116,-9992.780217,-6128.763984
20534.625230,0.000000,-8364.327145,612.876398
20534.625563,4367.215058,-7698.141797,4903.011187
20534.625897,7254.018232,-6069.688724,6741.640382
20534.626230,6217.729913,-7105.977043,6588.421283
20534.626563,4811.338623,-6735.874072,3294.210641
20534.626896,4663.297435,-8586.388927,536.266849
20534.627229,-592.164754,-10881.027347,-2068.457845
20534.627563,-3478.967927,-10140.821405,-6894.859482
20534.627896,-7772.162391,-14063.912898,-7201.297681
20534.628229,-7105.977043,-12509.480420,-4903.011187
20534.628562,-3627.009116,-11547.212695,-1302.362347
20534.628896,-1776.494261,-5995.668130,0.000000
20534.629229,3552.988522,-7698.141797,7277.907231
20534.629562,1998.556043,-6217.729913,4979.620737
20534.629895,1406.391290,-4811.338623,4290.134789
20534.630228,518.144159,-8586.388927,3294.210641
20534.630562,0.000000,-7772.162391,0.000000
20534.630895,-4219.173869,-11843.295072,-2604.724693
20534.631228,-4811.338623,-14211.954086,-4366.744339
20534.631561,-3923.091493,-11843.295072,-3447.429741
20534.631894,-4145.153275,-9548.656652,1072.533697
20534.632228,0.000000,-7179.997637,3140.991542
20534.632561,-666.185348,-8290.306550,1149.143247
20534.632894,-1184.329507,-7179.997637,2451.505594
20534.633227,370.102971,-7994.224174,2374.896044
20534.633561,0.000000,-7031.956449,1685.410096
20534.633894,-1850.514855,-8512.368333,0.000000
20534.634227,-3108.864956,-11103.089130,-536.266849
20534.634560,-222.061783,-7698.141797,-2451.505594
20534.634893,296.082377,-9548.656652,4519.963438
20534.635227,1702.473667,-5699.585753,0.000000
20534.635560,-1184.329507,-7179.997637,-2145.067394
20534.635893,-1850.514855,-11251.130318,-2528.115143
20534.636226,592.164754,-8364.327145,-1302.362347
20534.636559,444.123565,-9400.615463,-1378.971896
20534.636893,518.144159,-9770.718434,-995.924147
20534.637226,-2072.576638,-10140.821405,0.000000
20534.637559,518.144159,-9548.656652,0.000000
20534.637892,7031.956449,-11251.130318,4826.401637
20534.638226,4367.215058,-7179.997637,4903.011187
20534.638559,6513.812290,-6883.915261,4903.011187
20534.638892,2664.741391,-7179.997637,1302.362347
20534.639225,3701.029710,-8808.450710,-76.609550
20534.639558,1480.411884,-8660.409521,-2145.067394
20534.639892,-1702.473667,-11769.274478,-4673.182538
20534.640225,-1258.350101,-12435.459826,-4979.620737
20534.640558,-7105.977043,-11917.315666,-2834.553343
20534.640891,1554.432478,-9474.636058,-995.924147
20534.641224,5255.462188,-5107.421000,2451.505594
20534.641558,8290.306550,-7624.121203,7890.783629
20534.641891,7105.977043,-4811.338623,3677.258390
20534.642224,5995.668130,-8808.450710,3370.820191
20534.642557,6809.894666,-8364.327145,2451.505594
20534.642890,3404.947333,-9696.697840,-306.438199
20534.643224,1110.308913,-13027.624579,-2528.115143
20534.643557,-3256.906145,-11917.315666,-5362.668486
20534.643890,-2738.761985,-13767.830521,-3140.991542
20534.644223,962.267725,-9326.594869,-766.095498
20534.644557,814.226536,-8586.388927,689.485948
20534.644890,1702.473667,-8882.471304,2145.067394
20534.645223,1776.494261,-5995.668130,1225.752797
20534.645556,5625.565159,-8290.306550,6665.030833
20534.645889,3478.967927,-6365.771101,3064.381992
20534.646223,-1480.411884,-8586.388927,766.095498
20534.646556,-518.144159,-11695.253884,-383.047749
20534.646889,-2294.638420,-11325.150913,689.485948
20534.647222,296.082377,-8586.388927,-842.705048
20534.647555,-2294.638420,-10362.883188,-1762.019645
20534.647889,-1850.514855,-9474.636058,-3294.210641
20534.648222,-4737.318029,-9548.656652,-1225.752797
20534.648555,-2072.576638,-10288.862594,-76.609550
20534.648888,-666.185348,-7994.224174,-1762.019645
20534.649222,-4737.318029,-10140.821405,2451.505594
20534.649555,-1850.514855,-8586.388927,76.609550
20534.649888,-1332.370696,-8882.471304,3753.867940
20534.650221,888.247130,-7624.121203,5515.887586
20534.650554,1258.350101,-5995.668130,5439.278036
20534.650888,0.000000,-5403.503377,1838.629195
20534.651221,-2368.659014,-11029.068536,1455.581446
20534.651554,-2442.679609,-9326.594869,-3907.087040
20534.651887,-5551.544565,-10288.862594,-6741.640382
20534.652220,-5477.523971,-13027.624579,-4979.620737
20534.652554,-8216.285956,-11769.274478,-5209.449386
20534.652887,-5699.585753,-11251.130318,-2528.115143
20534.653220,592.164754,-8364.327145,3830.477490
20534.653553,3552.988522,-5995.668130,6665.030833
20534.653887,5329.482782,-4811.338623,7660.954980
20534.654220,7031.956449,-9474.636058,6052.154434
20534.654553,3552.988522,-5403.503377,3677.258390
20534.654886,4071.132681,-9474.636058,2987.772442
20534.655219,1702.473667,-14211.954086,-3140.991542
20534.655553,-5921.647536,-11325.150913,-8580.269578
20534.655886,-5403.503377,-14804.118840,-7124.688131
20534.656219,-666.185348,-11621.233289,-1991.848295
20534.656552,2886.803174,-8290.306550,2604.724693
20534.656885,4145.153275,-7179.997637,3064.381992
20534.657219,6883.915261,-4663.297435,5209.449386
20534.657552,5625.565159,-6513.812290,5515.887586
20534.657885,7550.100608,-5847.626942,4136.915689
20534.658218,4663.297435,-8882.471304,1149.143247
20534.658552,0.000000,-9548.656652,-2451.505594
20534.658885,0.000000,-12435.459826,-2068.457845
20534.659218,-1480.411884,-10732.986159,-5822.325785
20534.659551,2368.659014,-9548.656652,-1225.752797
20534.659884,4515.256246,-9178.553681,-76.609550
20534.660218,3478.967927,-9326.594869,-76.609550
20534.660551,1110.308913,-9030.512492,-306.438199
20534.660884,2738.761985,-9474.636058,689.485948
20534.661217,2368.659014,-6587.832884,1838.629195
20534.661550,3775.050304,-8290.306550,0.000000
20534.661884,4071.132681,-9474.636058,-76.609550
20534.662217,0.000000,-11029.068536,2451.505594
20534.662550,2368.659014,-8956.491898,4979.620737
20534.662883,888.247130,-7179.997637,1532.190996
20534.663217,0.000000,-8364.327145,612.876398
20534.663550,-1776.494261,-8660.409521,-2528.115143
20534.663883,-1702.473667,-10658.965565,-2221.676944
20534.664216,-1850.514855,-10066.800811,-1915.238745
20534.664549,-7179.997637,-10140.821405,-6128.763984
20534.664883,-5995.668130,-13027.624579,-4979.620737
20534.665216,-6809.894666,-9844.739029,0.000000
20534.665549,1110.308913,-8882.471304,6052.154434
20534.665882,2664.741391,-4959.379811,6741.640382
20534.666215,1850.514855,-7105.977043,5439.278036
20534.666549,0.000000,-5995.668130,3600.648841
20534.666882,-1554.432478,-8808.450710,1455.581446
20534.667215,-666.185348,-9474.636058,-1302.362347
20534.667548,-8882.471304,-11029.068536,-4290.134789
20534.667882,-8660.409521,-10140.821405,-9039.926876
20534.668215,-9474.636058,-11325.150913,-4903.011187
20534.668548,-3034.844362,-10955.047942,-76.609550
20534.668881,-74.020594,-7105.977043,2987.772442
20534.669214,2738.761985,-6661.853478,6511.811733
20534.669548,2812.782580,-5181.441594,5209.449386
20534.669881,2294.638420,-7328.038826,3140.991542
20534.670214,2664.741391,-7994.224174,2604.724693
20534.670547,2294.638420,-10362.883188,1762.019645
20534.670880,-2812.782580,-8364.327145,-3677.258390
20534.671214,-2368.659014,-13101.645173,-4290.134789
20534.671547,-2368.659014,-11843.295072,-1302.362347
20534.671880,1110.308913,-9474.636058,-2221.676944
20534.672213,3478.967927,-8734.430116,536.266849
20534.672547,2368.659014,-8660.409521,1225.752797
20534.672880,2590.720797,-8142.265362,1685.410096
20534.673213,5181.441594,-7698.141797,3447.429741
20534.673546,7031.956449,-7698.141797,3294.210641
20534.673879,4663.297435,-9400.615463,2068.457845
20534.674213,1850.514855,-11399.171507,995.924147
20534.674546,2220.617826,-10732.986159,612.876398
20534.674879,1776.494261,-6587.832884,0.000000
20534.675212,5847.626942,-9474.636058,1149.143247
20534.675545,1702.473667,-6365.771101,-3217.601092
20534.675879,0.000000,-9548.656652,-919.314598
20534.676212,1554.432478,-9474.636058,-3140.991542
20534.676545,-74.020594,-9622.677246,-3447.429741
20534.676878,-1036.288319,-10066.800811,-2528.115143
20534.677212,-2368.659014,-10288.862594,-919.314598
20534.677545,1554.432478,-9178.553681,1225.752797
20534.677878,3849.070898,-8364.327145,5822.325785
20534.678211,7402.059420,-8882.471304,7890.783629
20534.678544,3552.988522,-5403.503377,3983.696590
20534.678878,2368.659014,-8660.409521,4519.963438
20534.679211,1702.473667,-10362.883188,-2221.676944
20534.679544,-2960.823768,-9548.656652,-3677.258390
20534.679877,-4293.194464,-11399.171507,-5669.106685
20534.680210,-4885.359217,-11621.233289,-5286.058936
20534.680544,-4885.359217,-11621.233289,-2834.553343
20534.680877,-1850.514855,-11547.212695,1762.019645
20534.681210,1702.473667,-9474.636058,4826.401637
20534.681543,148.041188,-4219.173869,6128.763984
20534.681877,1184.329507,-6217.729913,7277.907231
20534.682210,2294.638420,-6957.935855,1915.238745
20534.682543,2368.659014,-8364.327145,2757.943793
20534.682876,-1184.329507,-8956.491898,-1225.752797
20534.683209,-3997.112087,-13693.809927,-3370.820191
20534.683543,-5625.565159,-12583.501014,-4519.963438
20534.683876,-4663.297435,-11917.315666,-2374.896044
20534.684209,2294.638420,-7105.977043,-536.266849
20534.684542,-2368.659014,-7179.997637,2451.505594
20534.684875,-518.144159,-6735.874072,1149.143247
20534.685209,222.061783,-7105.977043,1762.019645
20534.685542,1184.329507,-7105.977043,4213.525239
20534.685875,1776.494261,-7179.997637,2757.943793
20534.686208,-2294.638420,-10214.842000,766.095498
20534.686542,-1480.411884,-9400.615463,-306.438199
20534.686875,-1480.411884,-10436.903782,1225.752797
20534.687208,962.267725,-7476.080014,0.000000
20534.687541,1702.473667,-9474.636058,1378.971896
20534.687874,-74.020594,-10658.965565,-2528.115143
20534.688208,-1776.494261,-8956.491898,-1838.629195
20534.688541,-888.247130,-10066.800811,-76.609550
20534.688874,-1110.308913,-9252.574275,-1838.629195
20534.689207,-962.267725,-10066.800811,-229.828649
20534.689540,-1036.288319,-9844.739029,612.876398
20534.689874,1184.329507,-9400.615463,3064.381992
20534.690207,4293.194464,-8364.327145,5975.544884
20534.690540,5773.606348,-4959.379811,4826.401637
20534.690873,5255.462188,-8586.388927,3600.648841
20534.691207,2664.741391,-8364.327145,0.000000
20534.691540,592.164754,-9548.656652,-2987.772442
20534.691873,-1554.432478,-9474.636058,-6818.249932
20534.692206,-3552.988522,-11325.150913,-4290.134789
20534.692539,-3627.009116,-12583.501014,-6511.811733
20534.692873,-3182.885551,-11917.315666,-1225.752797
20534.693206,0.000000,-9844.739029,2528.115143
20534.693539,3701.029710,-6439.791695,6435.202183
20534.693872,5255.462188,-5329.482782,6511.811733
20534.694205,5921.647536,-5255.462188,6281.983084
20534.694539,5033.400406,-7328.038826,4903.011187
20534.694872,3478.967927,-7105.977043,1149.143247
20534.695205,-3552.988522,-11325.150913,-689.485948
20534.695538,-6291.750507,-11695.253884,-9652.803275
20534.695872,-8068.244768,-13175.665768,-8580.269578
20534.696205,-5329.482782,-12953.603985,-3830.477490
20534.696538,222.061783,-9548.656652,1072.533697
20534.696871,370.102971,-7994.224174,2757.943793
20534.697204,3701.029710,-6143.709319,5515.887586
20534.697538,3478.967927,-5329.482782,6052.154434
20534.697871,2368.659014,-6291.750507,6128.763984
20534.698204,4367.215058,-8290.306550,4519.963438
20534.698537,-74.020594,-8216.285956,-2298.286494
20534.698870,-3256.906145,-11029.068536,-2145.067394
20534.699204,-2442.679609,-12213.398043,-2834.553343
20534.699537,-2146.597232,-10214.842000,-2604.724693
20534.699870,-1036.288319,-10362.883188,-76.609550
20534.700203,-1480.411884,-8882.471304,-1455.581446
20534.700536,-2664.741391,-7772.162391,-2451.505594
20534.700870,0.000000,-8364.327145,2834.553343
20534.701203,1998.556043,-7402.059420,995.924147
20534.701536,296.082377,-7772.162391,2451.505594
20534.701869,0.000000,-9844.739029,3064.381992
20534.702203,962.267725,-9622.677246,766.095498
20534.702536,3330.926739,-7402.059420,3140.991542
20534.702869,3997.112087,-7624.121203,2987.772442
20534.703202,2590.720797,-8216.285956,-612.876398
20534.703535,-1776.494261,-9548.656652,-3447.429741
20534.703869,-74.020594,-11843.295072,-4060.306139
20534.704202,-1184.329507,-10436.903782,-1991.848295
20534.704535,-3108.864956,-10955.047942,-4060.306139
20534.704868,-3627.009116,-12435.459826,-3753.867940
20534.705201,-2442.679609,-7476.080014,0.000000
20534.705535,2960.823768,-7698.141797,7431.126331
20534.705868,7031.956449,-5921.647536,8503.660028
20534.706201,4737.318029,-3923.091493,7967.393179
20534.706534,4145.153275,-6291.750507,5209.449386
20534.706868,3182.885551,-9178.553681,1455.581446
20534.707201,444.123565,-10658.965565,-2834.553343
20534.707534,-4959.379811,-12361.439231,-7354.516781
20534.707867,-5995.668130,-14211.954086,-8656.879127
20534.708200,-7994.224174,-12657.521608,-5286.058936
20534.708534,-1258.350101,-9622.677246,-3677.258390
20534.708867,0.000000,-8364.327145,3600.648841
20534.709200,4737.318029,-5403.503377,7814.174080
20534.709533,6439.791695,-6217.729913,7277.907231
20534.709866,4885.359217,-5921.647536,5745.716235
20534.710200,4219.173869,-7624.121203,4366.744339
20534.710533,1998.556043,-7402.059420,0.000000
20534.710866,-962.267725,-11029.068536,-2145.067394
20534.711199,-2368.659014,-13027.624579,-2681.334243
20534.711533,-5921.647536,-13101.645173,-6128.763984
20534.711866,-2368.659014,-10436.903782,-995.924147
20534.712199,-666.185348,-9252.574275,-1685.410096
20534.712532,-1776.494261,-6587.832884,0.000000
20534.712865,-74.020594,-8290.306550,689.485948
20534.713199,518.144159,-8512.368333,2987.772442
20534.713532,2664.741391,-5107.421000,4290.134789
20534.713865,-444.123565,-7994.224174,3064.381992
20534.714198,814.226536,-9474.636058,-76.609550
20534.714531,0.000000,-11103.089130,2987.772442
20534.714865,1110.308913,-9474.636058,-76.609550
20534.715198,592.164754,-7179.997637,0.000000
20534.715531,0.000000,-9548.656652,-1225.752797
20534.715864,-1110.308913,-9696.697840,-3524.039291
20534.716198,-74.020594,-10955.047942,-1991.848295
20534.716531,296.082377,-9844.739029,-1762.019645
20534.716864,-2812.782580,-11251.130318,-2528.115143
20534.717197,-1184.329507,-8660.409521,0.000000
20534.717530,2368.659014,-11103.089130,4826.401637
20534.717863,4071.132681,-5995.668130,5515.887586
20534.718197,2960.823768,-4811.338623,7354.516781
20534.718530,6217.729913,-7031.956449,5745.716235
20534.718863,2960.823768,-5403.503377,1991.848295
20534.719196,3923.091493,-7994.224174,-689.485948
20534.719529,1110.308913,-10658.965565,-4060.306139
20534.719862,-3330.926739,-10732.986159,-8273.831378
20534.720196,-5921.647536,-12509.480420,-8580.269578
20534.720529,-4219.173869,-14063.912898,-6128.763984
20534.720862,888.247130,-13101.645173,383.047749
20534.721195,4737.318029,-8512.368333,6128.763984
20534.721528,8808.450710,-6513.812290,10955.165621
20534.721861,4959.379811,-3627.009116,4903.011187
20534.722195,5329.482782,-6291.750507,6128.763984
20534.722528,7031.956449,-8290.306550,4673.182538
20534.722861,444.123565,-7179.997637,0.000000
20534.723194,-4737.318029,-10140.821405,-3140.991542
20534.723527,-7624.121203,-12657.521608,-7660.954980
20534.723860,-5551.544565,-12583.501014,-4443.353888
20534.724194,-3034.844362,-9992.780217,-1455.581446
20534.724527,-1554.432478,-8290.306550,-689.485948
20534.724860,-1258.350101,-6143.709319,-2145.067394
20534.725193,888.247130,-9474.636058,4213.525239
20534.725526,4663.297435,-9474.636058,6052.154434
20534.725859,1850.514855,-5033.400406,3677.258390
20534.726193,-74.020594,-10658.965565,3294.210641
20534.726526,-2368.659014,-9548.656652,229.828649
20534.726859,-3108.864956,-10732.986159,-766.095498
20534.727192,-962.267725,-9474.636058,-536.266849
20534.727525,-2368.659014,-7772.162391,-2451.505594
20534.727858,-3627.009116,-8364.327145,-6128.763984
20534.728192,-1036.288319,-11103.089130,-383.047749
20534.728525,-222.061783,-10658.965565,-689.485948
20534.728858,-74.020594,-7698.141797,-383.047749
20534.729191,-2960.823768,-9548.656652,0.000000
20534.729524,-666.185348,-8734.430116,919.314598
20534.729857,740.205942,-8512.368333,3677.258390
20534.730191,2960.823768,-8660.409521,5898.935335
20534.730524,5847.626942,-5625.565159,4826.401637
20534.730857,2368.659014,-8068.244768,4213.525239
20534.731190,3478.967927,-9474.636058,-76.609550
20534.731523,-1850.514855,-9548.656652,-4290.134789
20534.731856,-2664.741391,-10288.862594,-4903.011187
20534.732190,-1850.514855,-12731.542202,-3140.991542
20534.732523,-4737.318029,-11621.233289,-4903.011187
20534.732856,-2664.741391,-11843.295072,-995.924147
20534.733189,2072.576638,-9252.574275,4366.744339
20534.733522,5921.647536,-3627.009116,6741.640382
20534.733855,8808.450710,-7105.977043,6665.030833
20534.734189,3849.070898,-5403.503377,4903.011187
20534.734522,7402.059420,-9030.512492,4826.401637
20534.734855,3478.967927,-10658.965565,-76.609550
20534.735188,2368.659014,-10436.903782,-2221.676944
20534.735521,-4737.318029,-11917.315666,-5975.544884
20534.735854,-4441.235652,-14063.912898,-6665.030833
20534.736188,-1554.432478,-12731.542202,-3140.991542
20534.736521,0.000000,-8364.327145,0.000000
20534.736854,3478.967927,-7698.141797,2834.553343
20534.737187,4663.297435,-6365.771101,4826.401637
20534.737520,4811.338623,-5773.606348,5898.935335
20534.737853,5033.400406,-6365.771101,4826.401637
20534.738187,1850.514855,-7179.997637,1225.752797
20534.738520,-814.226536,-10658.965565,-76.609550
20534.738853,-4219.173869,-10732.986159,-4903.011187
20534.739186,-3256.906145,-13175.665768,-1915.238745
20534.739519,-296.082377,-10955.047942,-919.314598
20534.739852,-222.061783,-7179.997637,0.000000
20534.740186,444.123565,-7994.224174,-76.609550
20534.740519,-666.185348,-9474.636058,-76.609550
20534.740852,222.061783,-8660.409521,306.438199
20534.741185,0.000000,-8068.244768,2451.505594
20534.741518,-74.020594,-8290.306550,-76.609550
20534.741851,-2368.659014,-9104.533087,0.000000
20534.742185,-74.020594,-13027.624579,1762.019645
20534.742518,962.267725,-7105.977043,2987.772442
20534.742851,592.164754,-6883.915261,5056.230287
20534.743184,370.102971,-8586.388927,842.705048
20534.743517,-3182.885551,-9326.594869,-2528.115143
20534.743850,-3404.947333,-10140.821405,-2987.772442
20534.744184,-666.185348,-10658.965565,-2528.115143
20534.744517,-3034.844362,-11251.130318,-5286.058936
20534.744850,-6513.812290,-11917.315666,-1915.238745
20534.745183,-3034.844362,-13027.624579,-76.609550
20534.745516,592.164754,-6587.832884,4903.011187
20534.745850,6661.853478,-6513.812290,8197.221829
20534.746183,4885.359217,-6143.709319,6894.859482
20534.746516,4145.153275,-6439.791695,4060.306139
20534.746849,2590.720797,-8290.306550,1072.533697
20534.747182,1480.411884,-9326.594869,-1991.848295
20534.747515,-3552.988522,-9548.656652,-8580.269578
20534.747849,-3775.050304,-15396.283594,-6205.373534
20534.748182,-3775.050304,-12361.439231,-6971.469032
20534.748515,-518.144159,-9548.656652,-2451.505594
20534.748848,4367.215058,-9474.636058,3600.648841
20534.749181,5329.482782,-6291.750507,6435.202183
20534.749514,6291.750507,-5773.606348,6128.763984
20534.749848,5921.647536,-5921.647536,5362.668486
20534.750181,5847.626942,-7105.977043,3294.210641
20534.750514,3330.926739,-8808.450710,995.924147
20534.750847,-444.123565,-11473.192101,-1762.019645
20534.751180,-2664.741391,-12435.459826,-4290.134789
20534.751513,-2960.823768,-12213.398043,-3064.381992
20534.751847,2220.617826,-10955.047942,-383.047749
20534.752180,1702.473667,-7476.080014,-2451.505594
20534.752513,0.000000,-8364.327145,0.000000
20534.752846,740.205942,-9474.636058,536.266849
20534.753179,2368.659014,-7772.162391,2451.505594
20534.753512,3627.009116,-7254.018232,4366.744339
20534.753846,1332.370696,-8068.244768,2451.505594
20534.754179,-222.061783,-11103.089130,842.705048
20534.754512,518.144159,-11251.130318,1149.143247
20534.754845,148.041188,-7772.162391,2757.943793
20534.755178,1702.473667,-6587.832884,0.000000
20534.755511,-1480.411884,-9326.594869,-229.828649
20534.755845,-3552.988522,-10140.821405,-1532.190996
20534.756178,-666.185348,-9474.636058,-1302.362347
20534.756511,-1702.473667,-9474.636058,-1608.800546
20534.756844,-2812.782580,-9400.615463,-2298.286494
20534.757177,-3923.091493,-10658.965565,-76.609550
20534.757510,-1554.432478,-8734.430116,1915.238745
20534.757844,2220.617826,-9770.718434,6052.154434
20534.758177,2368.659014,-5995.668130,3677.258390
20534.758510,4663.297435,-8290.306550,4826.401637
20534.758843,1110.308913,-8364.327145,689.485948
20534.759176,0.000000,-8660.409521,-2068.457845
20534.759509,-3034.844362,-11251.130318,-3753.867940
20534.759843,-3923.091493,-9844.739029,-4596.572988
20534.760176,-5625.565159,-10288.862594,-4213.525239
20534.760509,-5033.400406,-11325.150913,-2298.286494
20534.760842,-1258.350101,-9474.636058,-76.609550
20534.761175,592.164754,-6735.874072,6205.373534
20534.761508,4737.318029,-6143.709319,8427.050478
20534.761842,4071.132681,-5181.441594,3370.820191
20534.762175,2368.659014,-6291.750507,3677.258390
20534.762508,3182.885551,-6809.894666,919.314598
20534.762841,518.144159,-9326.594869,-1302.362347
20534.763174,-2960.823768,-11917.315666,-4903.011187
20534.763507,-4959.379811,-13323.706956,-6205.373534
20534.763841,-4737.318029,-11917.315666,-4903.011187
20534.764174,1628.453072,-11251.130318,2374.896044
20534.764507,2294.638420,-6661.853478,1149.143247
20534.764840,2294.638420,-4959.379811,0.000000
20534.765173,2960.823768,-7179.997637,4903.011187
20534.765506,5551.544565,-5699.585753,4749.792088
20534.765840,5255.462188,-7105.977043,3830.477490
20534.766173,1702.473667,-10436.903782,919.314598
20534.766506,-592.164754,-10436.903782,-2298.286494
20534.766839,-666.185348,-11029.068536,-2451.505594
20534.767172,2146.597232,-10658.965565,-1149.143247
20534.767505,592.164754,-8734.430116,-1225.752797
20534.767839,222.061783,-9474.636058,-1991.848295
20534.768172,2294.638420,-9474.636058,-76.609550
20534.768505,-74.020594,-9326.594869,-1838.629195
20534.768838,-1184.329507,-9474.636058,0.000000
20534.769171,-666.185348,-11547.212695,-689.485948
20534.769504,-4441.235652,-9548.656652,919.314598
20534.769838,0.000000,-7179.997637,3753.867940
20534.770171,3256.906145,-8512.368333,6281.983084
20534.770504,5921.647536,-4737.318029,6971.469032
20534.770837,3552.988522,-6069.688724,3677.258390
20534.771170,74.020594,-9474.636058,-1608.800546
20534.771503,-74.020594,-8660.409521,-4903.011187
20534.771837,-3552.988522,-12509.480420,-4519.963438
20534.772170,-1258.350101,-15026.180623,-3140.991542
20534.772503,-6587.832884,-10732.986159,-7048.078582
20534.772836,-3627.009116,-13915.871710,-1302.362347
20534.773169,592.164754,-9104.533087,5132.839837
20534.773502,4293.194464,-5107.421000,7967.393179
20534.773836,4293.194464,-3923.091493,8350.440928
20534.774169,1184.329507,-3627.009116,4903.011187
20534.774502,2294.638420,-4811.338623,0.000000
20534.774835,3182.885551,-9474.636058,-76.609550
20534.775168,-3108.864956,-8364.327145,-3064.381992
20534.775501,-7105.977043,-12805.562797,-5745.716235
20534.775835,-8586.388927,-12805.562797,-9422.974625
20534.776168,-4589.276840,-13175.665768,-4060.306139
20534.776501,-962.267725,-10066.800811,229.828649
20534.776834,2368.659014,-6957.935855,2528.115143
20534.777167,5255.462188,-8586.388927,6052.154434
20534.777500,4145.153275,-4811.338623,6741.640382
20534.777834,7031.956449,-9474.636058,7277.907231
20534.778167,4071.132681,-6735.874072,1225.752797
20534.778500,2294.638420,-10658.965565,-76.609550
20534.778833,-1184.329507,-11177.109724,-3064.381992
20534.779166,-370.102971,-12139.377449,-2834.553343
20534.779499,-666.185348,-10362.883188,-2374.896044
20534.779833,0.000000,-10140.821405,-1302.362347
20534.780166,518.144159,-8586.388927,-2374.896044
20534.780499,1554.432478,-11251.130318,-76.609550
20534.780832,1702.473667,-7476.080014,0.000000
20534.781165,0.000000,-7179.997637,1225.752797
20534.781498,2294.638420,-8882.471304,-76.609550
20534.781832,-296.082377,-9548.656652,612.876398
20534.782165,1628.453072,-10140.821405,3370.820191
20534.782498,4441.235652,-7179.997637,4903.011187
20534.782831,5551.544565,-6217.729913,4136.915689
20534.783164,3182.885551,-7994.224174,306.438199
20534.783497,148.041188,-10066.800811,-1915.238745
20534.783831,-888.247130,-10510.924376,-2987.772442
20534.784164,-666.185348,-10214.842000,-3753.867940
20534.784497,-3478.967927,-11399.171507,-4366.744339
20534.784830,-3627.009116,-11251.130318,-4979.620737
20534.785163,-2368.659014,-11103.089130,2451.505594
20534.785497,3034.844362,-9474.636058,5745.716235
20534.785830,2960.823768,-4219.173869,7354.516781
20534.786163,3552.988522,-7179.997637,6281.983084
20534.786496,4071.132681,-5477.523971,2681.334243
20534.786829,1924.535449,-7846.182985,1302.362347
20534.787162,1554.432478,-10214.842000,-1225.752797
20534.787496,-2072.576638,-10658.965565,-4519.963438
20534.787829,-8290.306550,-11917.315666,-7354.516781
20534.788162,-5625.565159,-14804.118840,-3753.867940
20534.788495,-4219.173869,-13619.789333,-1915.238745
20534.788828,-74.020594,-6957.935855,0.000000
20534.789161,3478.967927,-8290.306550,7277.907231
20534.789495,1850.514855,-4219.173869,4903.011187
20534.789828,2442.679609,-6291.750507,4979.620737
20534.790161,2442.679609,-7698.141797,5362.668486
20534.790494,1628.453072,-6143.709319,995.924147
20534.790827,-2368.659014,-9696.697840,-1225.752797
20534.791160,-1332.370696,-14211.954086,-4979.620737
20534.791494,-5181.441594,-11917.315666,-5515.887586
20534.791827,-5921.647536,-10732.986159,0.000000
20534.792160,-1184.329507,-9030.512492,-995.924147
20534.792493,-1776.494261,-8364.327145,306.438199
20534.792826,1332.370696,-7550.100608,1378.971896
20534.793159,2960.823768,-7624.121203,4519.963438
20534.793493,4219.173869,-5995.668130,4213.525239
20534.793826,2294.638420,-8290.306550,2374.896044
20534.794159,-74.020594,-11843.295072,-689.485948
20534.794492,0.000000,-9548.656652,1225.752797
20534.794825,3330.926739,-10066.800811,2374.896044
20534.795158,4071.132681,-7105.977043,-2221.676944
20534.795492,296.082377,-9548.656652,-383.047749
20534.795825,0.000000,-10584.944971,-2911.162892
20534.796158,1554.432478,-10584.944971,-1838.629195
20534.796491,0.000000,-9548.656652,-1225.752797
20534.796824,-814.226536,-11177.109724,-383.047749
20534.797157,-1924.535449,-8808.450710,-1072.533697
20534.797491,1110.308913,-8734.430116,2681.334243
20534.797824,4959.379811,-6439.791695,5669.106685
20534.798157,4737.318029,-4811.338623,6128.763984
20534.798490,2960.823768,-4811.338623,4903.011187
20534.798823,4663.297435,-8290.306550,-76.609550
20534.799156,0.000000,-9548.656652,-4596.572988
20534.799490,0.000000,-10732.986159,-3294.210641
20534.799823,-4515.256246,-11399.171507,-6818.249932
20534.800156,-5329.482782,-13249.686362,-5209.449386
20534.800489,-5551.544565,-12805.562797,-4443.353888
20534.800822,-1036.288319,-10066.800811,459.657299
20534.801155,4737.318029,-6735.874072,7354.516781
20534.801489,6439.791695,-3330.926739,8273.831378
20534.801822,7031.956449,-5921.647536,4826.401637
20534.802155,2072.576638,-6587.832884,3677.258390
20534.802488,1184.329507,-6587.832884,3524.039291
20534.802821,-370.102971,-9992.780217,-1072.533697
20534.803154,-3552.988522,-12953.603985,-4673.182538
20534.803488,-7179.997637,-12139.377449,-7584.345430
20534.803821,-6957.935855,-14508.036463,-5132.839837
20534.804154,-2220.617826,-10362.883188,-1302.362347
20534.804487,-3552.988522,-8660.409521,1225.752797
20534.804820,518.144159,-8290.306550,1149.143247
20534.805153,1110.308913,-5255.462188,3983.696590
20534.805487,4441.235652,-6957.935855,7354.516781
20534.805820,4071.132681,-7105.977043,4826.401637
20534.806153,-518.144159,-10658.965565,689.485948
20534.806486,-1702.473667,-9992.780217,-1685.410096
20534.806819,-2590.720797,-12435.459826,-1378.971896
20534.807152,0.000000,-10732.986159,0.000000
20534.807486,-74.020594,-10510.924376,-76.609550
20534.807819,-2960.823768,-7772.162391,0.000000
20534.808152,-3552.988522,-7772.162391,0.000000
20534.808485,-74.020594,-10658.965565,-76.609550
20534.808818,-592.164754,-5699.585753,-2451.505594
20534.809151,-1258.350101,-9326.594869,-306.438199
20534.809485,0.000000,-7031.956449,766.095498
20534.809818,1406.391290,-9474.636058,2681.334243
20534.810151,3849.070898,-8364.327145,5209.449386
20534.810484,5551.544565,-6217.729913,2681.334243
20534.810817,2368.659014,-8364.327145,3830.477490
20534.811150,3330.926739,-10362.883188,-76.609550
20534.811484,1110.308913,-9770.718434,-4749.792088
20534.811817,0.000000,-9548.656652,-3677.258390
20534.812150,-666.185348,-11251.130318,-4903.011187
20534.812483,-4367.215058,-11769.274478,-4443.353888
20534.812816,-2886.803174,-10881.027347,-2374.896044
20534.813149,1628.453072,-9252.574275,3677.258390
20534.813483,7031.956449,-4737.318029,5975.544884
20534.813816,7624.121203,-4737.318029,7277.907231
20534.814149,4145.153275,-5403.503377,4596.572988
20534.814482,3552.988522,-7179.997637,1685.410096
20534.814815,1776.494261,-10140.821405,612.876398
20534.815148,1110.308913,-11843.295072,-4213.525239
20534.815482,-5921.647536,-10140.821405,-9806.022374
20534.815815,-6513.812290,-15470.304188,-4979.620737
20534.816148,-2442.679609,-13027.624579,-3064.381992
20534.816481,-1036.288319,-7179.997637,0.000000
20534.816814,2886.803174,-7105.977043,3830.477490
20534.817147,3849.070898,-4737.318029,5745.716235
20534.817480,4145.153275,-5847.626942,5822.325785
20534.817813,6439.791695,-7698.141797,5439.278036
20534.818146,4071.132681,-9178.553681,1149.143247
20534.818479,-2368.659014,-10140.821405,-76.609550
20534.818812,-1258.350101,-14211.954086,-3753.867940
20534.819145,-5255.462188,-13101.645173,-4903.011187
20534.819478,-2368.659014,-10732.986159,-766.095498
20534.819811,-3182.885551,-8660.409521,-1532.190996
20534.820144,-814.226536,-8734.430116,-306.438199
20534.820477,-962.267725,-7328.038826,459.657299
20534.820810,0.000000,-7772.162391,3064.381992
20534.821143,0.000000,-5403.503377,4903.011187
20534.821476,2146.597232,-8734.430116,2987.772442
20534.821809,-444.123565,-9474.636058,-76.609550
20534.822142,-2368.659014,-10140.821405,3370.820191
20534.822475,2294.638420,-10658.965565,2987.772442
20534.822808,2146.597232,-6735.874072,842.705048
20534.823141,148.041188,-9400.615463,-689.485948
20534.823474,-814.226536,-9326.594869,-4060.306139
20534.823807,-2368.659014,-10732.986159,-3064.381992
20534.824140,-74.020594,-10362.883188,-4060.306139
20534.824473,-2220.617826,-11473.192101,-1225.752797
20534.824806,-666.185348,-11251.130318,-2528.115143
20534.825139,0.000000,-9548.656652,3370.820191
20534.825472,2368.659014,-7476.080014,5209.449386
20534.825805,7105.977043,-4811.338623,7584.345430
20534.826138,5699.585753,-6217.729913,5362.668486
20534.826471,4441.235652,-6883.915261,2145.067394
20534.826804,3478.967927,-10658.965565,-689.485948
20534.827137,-2368.659014,-10732.986159,-3677.258390
20534.827470,-74.020594,-11843.295072,-5592.497135
20534.827803,-5403.503377,-13619.789333,-7737.564530
20534.828136,-4737.318029,-11325.150913,-4903.011187
20534.828469,-3552.988522,-11917.315666,0.000000
20534.828802,1184.329507,-7328.038826,2451.505594
20534.829135,4367.215058,-5921.647536,6358.592633
20534.829468,5255.462188,-4737.318029,6665.030833
20534.829801,6735.874072,-7105.977043,6052.154434
20534.830134,3256.906145,-7179.997637,4290.134789
20534.830467,2886.803174,-7846.182985,0.000000
20534.830800,-2368.659014,-11991.336260,-2757.943793
20534.831133,-4737.318029,-14211.954086,-5822.325785
20534.831466,-2812.782580,-14211.954086,-3753.867940
20534.831799,-2664.741391,-10732.986159,-1838.629195
20534.832132,0.000000,-6587.832884,1838.629195
20534.832465,2146.597232,-9474.636058,1762.019645
20534.832798,0.000000,-5995.668130,1532.190996
20534.833131,2368.659014,-8364.327145,5745.716235
20534.833464,2146.597232,-6143.709319,3447.429741
20534.833797,592.164754,-7402.059420,1455.581446
20534.834130,-2664.741391,-10362.883188,0.000000
20534.834463,-666.185348,-10510.924376,-689.485948
20534.834796,-962.267725,-8364.327145,1225.752797
20534.835129,2294.638420,-9474.636058,1149.143247
20534.835462,-370.102971,-7476.080014,-3677.258390
20534.835795,-2072.576638,-9548.656652,-1838.629195
20534.836128,-74.020594,-12435.459826,-2528.115143
20534.836461,-1998.556043,-9992.780217,-1302.362347
20534.836794,-3997.112087,-10732.986159,-1378.971896
20534.837127,-3404.947333,-9474.636058,0.000000
20534.837460,-2812.782580,-5995.668130,1225.752797
20534.837793,0.000000,-5403.503377,6128.763984
20534.838126,7031.956449,-5921.647536,6358.592633
20534.838459,2664.741391,-3034.844362,2145.067394
20534.838792,2368.659014,-8364.327145,2374.896044
20534.839125,1110.308913,-8808.450710,-3064.381992
20534.839458,-888.247130,-10881.027347,-3830.477490
20534.839791,-3627.009116,-11621.233289,-6435.202183
20534.840124,-4071.132681,-13915.871710,-6205.373534
20534.840457,-4145.153275,-12509.480420,-3064.381992
20534.840790,518.144159,-11843.295072,4213.525239
20534.841123,5847.626942,-7105.977043,5745.716235
20534.841456,4737.318029,-4219.173869,7967.393179
20534.841789,7105.977043,-5625.565159,8503.660028
20534.842122,4663.297435,-4515.256246,2757.943793
20534.842455,3552.988522,-8142.265362,2451.505594
20534.842788,148.041188,-9252.574275,-1072.533697
20534.843121,-4737.318029,-12213.398043,-6435.202183
20534.843454,-5921.647536,-13397.727550,-7814.174080
20534.843787,-4515.256246,-14211.954086,-4673.182538
20534.844120,-370.102971,-10362.883188,-383.047749
20534.844453,2220.617826,-6735.874072,2145.067394
20534.844786,3182.885551,-7105.977043,2987.772442
20534.845119,2960.823768,-4811.338623,3064.381992
20534.845452,1332.370696,-5995.668130,5515.887586
20534.845785,4367.215058,-8882.471304,4826.401637
20534.846118,-74.020594,-9474.636058,-76.609550
20534.846451,-1258.350101,-9326.594869,-1608.800546
20534.846784,814.226536,-11251.130318,-842.705048
20534.847117,148.041188,-11029.068536,1225.752797
20534.847450,1036.288319,-9474.636058,-306.438199
20534.847783,-740.205942,-9400.615463,-1225.752797
20534.848116,-74.020594,-11251.130318,-2528.115143
20534.848449,0.000000,-10140.821405,1149.143247
20534.848782,1110.308913,-9474.636058,-995.924147
20534.849115,-1924.535449,-8290.306550,-689.485948
20534.849448,-2072.576638,-8956.491898,2068.457845
20534.849781,222.061783,-8364.327145,1685.410096
20534.850114,3775.050304,-9030.512492,5439.278036
20534.850447,3849.070898,-5107.421000,5056.230287
20534.850780,2886.803174,-7920.203579,2374.896044
20534.851113,-2146.597232,-7179.997637,-3447.429741
20534.851446,-222.061783,-11547.212695,-2528.115143
20534.851779,-1258.350101,-11251.130318,-5286.058936
20534.852112,-4145.153275,-11029.068536,-2681.334243
20534.852445,-4219.173869,-12731.542202,-3753.867940
20534.852778,-6217.729913,-11917.315666,-2451.505594
20534.853111,-74.020594,-9474.636058,3294.210641
20534.853444,3849.070898,-6365.771101,7277.907231
20534.853777,5551.544565,-4737.318029,7201.297681
20534.854110,2664.741391,-5699.585753,4903.011187
20534.854443,4071.132681,-7105.977043,1149.143247
20534.854776,1776.494261,-6587.832884,0.000000
20534.855109,0.000000,-11399.171507,-995.924147
20534.855442,-3034.844362,-11843.295072,-8656.879127
20534.855775,-7402.059420,-15322.262999,-6511.811733
20534.856108,-5329.482782,-12953.603985,-4443.353888
20534.856441,-2368.659014,-9696.697840,0.000000
20534.856774,3182.885551,-6365.771101,3907.087040
20534.857107,6439.791695,-6217.729913,7890.783629
20534.857440,7031.956449,-3034.844362,4903.011187
20534.857773,5921.647536,-7994.224174,7277.907231
20534.858106,5847.626942,-9474.636058,3600.648841
20534.858439,-74.020594,-8068.244768,-2604.724693
20534.858772,-1184.329507,-13323.706956,-2834.553343
20534.859105,-3627.009116,-14656.077652,-4673.182538
20534.859438,-1332.370696,-11177.109724,-4366.744339
20534.859770,0.000000,-9844.739029,-995.924147
20534.860103,3701.029710,-9104.533087,1762.019645
20534.860436,2294.638420,-7179.997637,1685.410096
20534.860769,2812.782580,-7846.182985,2528.115143
20534.861102,3923.091493,-6957.935855,2911.162892
20534.861435,296.082377,-6587.832884,0.000000
20534.861768,1184.329507,-10436.903782,2681.334243
20534.862101,1702.473667,-11547.212695,1762.019645
20534.862434,1480.411884,-7772.162391,1838.629195
20534.862767,5033.400406,-9474.636058,3294.210641
20534.863100,2294.638420,-9474.636058,-689.485948
20534.863433,-296.082377,-10658.965565,-2604.724693
20534.863766,-2368.659014,-10362.883188,-3983.696590
20534.864099,518.144159,-10658.965565,-2221.676944
20534.864432,-3849.070898,-10732.986159,-2145.067394
20534.864765,-2812.782580,-11029.068536,842.705048
20534.865098,-2442.679609,-8290.306550,-766.095498
20534.865431,1184.329507,-8364.327145,4903.011187
20534.865764,5551.544565,-7105.977043,7277.907231
20534.866097,2368.659014,-4811.338623,3677.258390
20534.866430,2886.803174,-7031.956449,2374.896044
20534.866763,0.000000,-9474.636058,-76.609550
20534.867096,-2072.576638,-11177.109724,-2451.505594
20534.867429,-3330.926739,-11251.130318,-4060.306139
20534.867762,-7698.141797,-12583.501014,-5056.230287
20534.868095,-7476.080014,-10732.986159,-7354.516781
20534.868428,-4589.276840,-12731.542202,-76.609550
20534.868761,1702.473667,-8586.388927,4826.401637
20534.869094,4663.297435,-5921.647536,8503.660028
20534.869427,4071.132681,-5181.441594,5898.935335
20534.869760,2886.803174,-6661.853478,4519.963438
20534.870093,2220.617826,-7772.162391,3524.039291
20534.870426,0.000000,-5551.544565,-1532.190996
20534.870759,-1332.370696,-12435.459826,-1915.238745
20534.871092,-6513.812290,-11917.315666,-6128.763984
20534.871425,-3923.091493,-12879.583391,-4213.525239
20534.871758,-666.185348,-9992.780217,-2145.067394
20534.872091,0.000000,-7328.038826,0.000000
20534.872424,1332.370696,-6883.915261,1685.410096
20534.872757,3478.967927,-7920.203579,2298.286494
20534.873090,5107.421000,-8290.306550,3983.696590
20534.873423,3552.988522,-7772.162391,3983.696590
20534.873756,1702.473667,-8734.430116,-2757.943793
20534.874089,-888.247130,-13027.624579,1149.143247
20534.874422,-74.020594,-13027.624579,-76.609550
20534.874755,2368.659014,-7179.997637,1838.629195
20534.875088,2146.597232,-6143.709319,459.657299
20534.875421,1332.370696,-7179.997637,-612.876398
20534.875754,-518.144159,-9326.594869,-2145.067394
20534.876087,222.061783,-8808.450710,-2374.896044
20534.876420,0.000000,-9548.656652,-2145.067394
20534.876753,-666.185348,-9918.759623,-2757.943793
20534.877086,296.082377,-9474.636058,-1149.143247
20534.877419,370.102971,-10510.924376,842.705048
20534.877752,4367.215058,-10066.800811,4826.401637
20534.878085,4737.318029,-5995.668130,6128.763984
20534.878418,6291.750507,-7402.059420,3983.696590
20534.878751,1480.411884,-5995.668130,1838.629195
20534.879084,2146.597232,-11843.295072,-689.485948
20534.879417,-666.185348,-10362.883188,-3140.991542
20534.879750,-4737.318029,-10140.821405,-4136.915689
20534.880083,-5625.565159,-11917.315666,-6052.154434
20534.880416,-7476.080014,-12139.377449,-4903.011187
20534.880749,-3923.091493,-10510.924376,-689.485948
20534.881082,2294.638420,-8290.306550,6052.154434
20534.881415,5255.462188,-4441.235652,5669.106685
20534.881748,3256.906145,-4811.338623,4903.011187
20534.882081,3775.050304,-8882.471304,5439.278036
20534.882414,518.144159,-8438.347739,1838.629195
20534.882747,-888.247130,-9548.656652,-76.609550
20534.883080,-6439.791695,-12213.398043,-5439.278036
20534.883413,-7846.182985,-11621.233289,-8273.831378
20534.883746,-5773.606348,-13767.830521,-3753.867940
20534.884079,-962.267725,-9474.636058,842.705048
20534.884412,-74.020594,-4811.338623,0.000000
20534.884745,1776.494261,-7402.059420,4826.401637
20534.885078,4663.297435,-9178.553681,6971.469032
20534.885411,4071.132681,-6883.915261,3524.039291
20534.885744,4367.215058,-8882.471304,2987.772442
20534.886077,0.000000,-9030.512492,76.609550
20534.886410,-2664.741391,-11621.233289,-2451.505594
20534.886743,-1184.329507,-11251.130318,-1378.971896
20534.887076,-1184.329507,-10732.986159,-1072.533697
20534.887409,0.000000,-8956.491898,0.000000
20534.887742,-74.020594,-10658.965565,-383.047749
20534.888075,-666.185348,-7698.141797,-2987.772442
20534.888408,-2368.659014,-7772.162391,2451.505594
20534.888741,4071.132681,-7698.141797,-76.609550
20534.889074,1776.494261,-7179.997637,2451.505594
20534.889407,740.205942,-9474.636058,1378.971896
20534.889740,2146.597232,-10436.903782,1762.019645
20534.890073,2368.659014,-9548.656652,3140.991542
20534.890406,4737.318029,-7920.203579,3907.087040
20534.890739,3404.947333,-7920.203579,1302.362347
20534.891072,666.185348,-10288.862594,-2221.676944
20534.891405,-74.020594,-12435.459826,-689.485948
20534.891738,-74.020594,-12435.459826,-2528.115143
20534.892071,-3330.926739,-8956.491898,-4290.134789
20534.892404,-4145.153275,-12435.459826,-76.609550
20534.892737,-2442.679609,-10362.883188,-76.609550
20534.893070,1776.494261,-9178.553681,6128.763984
20534.893403,3849.070898,-5255.462188,7354.516781
20534.893736,4663.297435,-5329.482782,5286.058936
20534.894069,3997.112087,-5699.585753,3907.087040
20534.894402,1998.556043,-9030.512492,1455.581446
20534.894735,1776.494261,-8364.327145,-766.095498
20534.895068,-3034.844362,-11029.068536,-6128.763984
20534.895401,-4589.276840,-14804.118840,-6818.249932
20534.895734,-5107.421000,-14211.954086,-6205.373534
20534.896067,-3627.009116,-12731.542202,-1302.362347
20534.896400,3478.967927,-7994.224174,3447.429741
20534.896733,4293.194464,-5255.462188,7048.078582
20534.897066,6513.812290,-3701.029710,7737.564530
20534.897399,4959.379811,-4737.318029,5669.106685
20534.897732,4663.297435,-8734.430116,4213.525239
20534.898065,1480.411884,-9030.512492,2374.896044
20534.898398,-1258.350101,-11251.130318,-5592.497135
20534.898731,-4145.153275,-11325.150913,-4903.011187
20534.899064,-4737.318029,-13101.645173,-4596.572988
20534.899397,1110.308913,-11029.068536,-2298.286494
20534.899730,2294.638420,-10066.800811,1455.581446
20534.900063,2516.700203,-7179.997637,2145.067394
20534.900396,888.247130,-7624.121203,1149.143247
20534.900729,2368.659014,-7179.997637,1532.190996
20534.901062,5181.441594,-8882.471304,4826.401637
20534.901395,1702.473667,-9474.636058,2374.896044
20534.901728,-2368.659014,-7179.997637,306.438199
20534.902061,-74.020594,-13027.624579,2987.772442
20534.902394,592.164754,-8956.491898,2604.724693
20534.902727,1776.494261,-7994.224174,1378.971896
20534.903060,-1258.350101,-9252.574275,-1915.238745
20534.903393,-1776.494261,-9548.656652,-3217.601092
20534.903726,-2368.659014,-10140.821405,-1225.752797
20534.904059,-74.020594,-9474.636058,-1915.238745
20534.904392,-5181.441594,-8956.491898,-2451.505594
20534.904725,-3627.009116,-14211.954086,-1302.362347
20534.905058,-3034.844362,-9548.656652,612.876398
20534.905391,296.082377,-8660.409521,5669.106685
20534.905724,3627.009116,-6217.729913,7124.688131
20534.906057,4737.318029,-4737.318029,6665.030833
20534.906390,2590.720797,-6587.832884,3677.258390
20534.906723,1258.350101,-7179.997637,1225.752797
20534.907056,222.061783,-10955.047942,-1762.019645
20534.907389,-2960.823768,-11769.274478,-5209.449386
20534.907722,-6883.915261,-13767.830521,-7354.516781
20534.908055,-7179.997637,-14211.954086,-6205.373534
20534.908388,-5033.400406,-9844.739029,-2451.505594
20534.908721,888.247130,-8808.450710,5975.544884
20534.909054,6439.791695,-5921.647536,6665.030833
20534.909387,3478.967927,-3627.009116,6128.763984
20534.909720,5255.462188,-6883.915261,7277.907231
20534.910053,4293.194464,-6957.935855,4366.744339
20534.910386,2368.659014,-8734.430116,1149.143247
20534.910719,-1406.391290,-12361.439231,-3217.601092
20534.911052,-6513.812290,-10732.986159,-8427.050478
20534.911385,-6587.832884,-13101.645173,-6741.640382
20534.911718,-74.020594,-11251.130318,-1915.238745
20534.912051,1998.556043,-9474.636058,-76.609550
20534.912384,296.082377,-6587.832884,1838.629195
20534.912717,2294.638420,-6513.812290,2374.896044
20534.913050,3404.947333,-8438.347739,5286.058936
20534.913383,5107.421000,-5329.482782,4136.915689
20534.913716,1776.494261,-8808.450710,1838.629195
20534.914049,2368.659014,-10658.965565,612.876398
20534.914382,0.000000,-9844.739029,612.876398
20534.914715,4663.297435,-11843.295072,-76.609550
20534.915048,0.000000,-8660.409521,0.000000
20534.915381,0.000000,-8364.327145,-2298.286494
20534.915714,592.164754,-9252.574275,-2451.505594
20534.916047,1332.370696,-9474.636058,-995.924147
20534.916380,1776.494261,-9400.615463,383.047749
20534.916713,-222.061783,-9326.594869,459.657299
20534.917046,-74.020594,-9474.636058,1149.143247
20534.917379,0.000000,-9548.656652,3140.991542
20534.917712,1998.556043,-10658.965565,2374.896044
20534.918045,2368.659014,-6291.750507,6281.983084
20534.918378,4071.132681,-6217.729913,1378.971896
20534.918711,2812.782580,-7920.203579,1762.019645
20534.919044,-74.020594,-9770.718434,-2451.505594
20534.919377,-1554.432478,-11251.130318,-2911.162892
20534.919710,-3034.844362,-10658.965565,-4366.744339
20534.920043,-7105.977043,-10140.821405,-6128.763984
20534.920376,-4811.338623,-14211.954086,-4060.306139
20534.920709,-4737.318029,-9548.656652,1838.629195
20534.921042,4071.132681,-9474.636058,8503.660028
20534.921375,4071.132681,-2738.761985,7354.516781
20534.921708,3182.885551,-5255.462188,6358.592633
20534.922042,2812.782580,-7105.977043,4213.525239
20534.922375,2294.638420,-8142.265362,1608.800546
20534.922708,0.000000,-11103.089130,-995.924147
20534.923041,-7698.141797,-10140.821405,-7967.393179
20534.923374,-6587.832884,-15248.242405,-7431.126331
20534.923707,-5921.647536,-13619.789333,-4366.744339
20534.924040,-1850.514855,-10658.965565,76.609550
20534.924373,740.205942,-7550.100608,2528.115143
20534.924706,296.082377,-4811.338623,3064.381992
20534.925039,2664.741391,-6809.894666,7277.907231
20534.925372,2886.803174,-5033.400406,2757.943793
20534.925706,2368.659014,-7031.956449,4826.401637
20534.926039,2960.823768,-8882.471304,2374.896044
20534.926372,-2442.679609,-10436.903782,-3370.820191
20534.926705,-1998.556043,-11621.233289,-3140.991542
20534.927038,-2812.782580,-12805.562797,-2451.505594
20534.927371,-444.123565,-10140.821405,-1378.971896
20534.927704,-1776.494261,-8660.409521,0.000000
20534.928037,-74.020594,-8290.306550,-1608.800546
20534.928370,0.000000,-7179.997637,0.000000
20534.928703,1776.494261,-8364.327145,4519.963438
20534.929036,4663.297435,-7105.977043,3294.210641
20534.929369,0.000000,-7476.080014,3370.820191
20534.929703,740.205942,-9030.512492,919.314598
20534.930036,2146.597232,-10658.965565,2987.772442
20534.930369,3404.947333,-7624.121203,2987.772442
20534.930702,5181.441594,-8290.306550,2374.896044
20534.931035,2886.803174,-11251.130318,-3140.991542
20534.931368,-1184.329507,-10436.903782,-3370.820191
20534.931701,0.000000,-9548.656652,-153.219100
20534.932034,814.226536,-9918.759623,-3294.210641
20534.932367,-1480.411884,-10955.047942,-2068.457845
20534.932700,-1258.350101,-10807.006753,-383.047749
20534.933033,4219.173869,-7994.224174,4826.401637
20534.933367,7698.141797,-5847.626942,7737.564530
20534.933700,6883.915261,-6365.771101,6052.154434
20534.934033,5625.565159,-4219.173869,1302.362347
20534.934366,2368.659014,-10140.821405,2681.334243
20534.934699,4663.297435,-9474.636058,-1302.362347
20534.935032,-2146.597232,-9548.656652,-8580.269578
20534.935365,-3552.988522,-14508.036463,-6818.249932
20534.935698,-5551.544565,-14211.954086,-5822.325785
20534.936031,-1110.308913,-11251.130318,-1302.362347
20534.936364,1850.514855,-10881.027347,3907.087040
20534.936697,5847.626942,-4737.318029,6358.592633
20534.937030,5033.400406,-5107.421000,7660.954980
20534.937364,4145.153275,-4293.194464,4366.744339
20534.937697,6291.750507,-7550.100608,4979.620737
20534.938030,592.164754,-9548.656652,1225.752797
20534.938363,-148.041188,-11843.295072,-76.609550
20534.938696,-7179.997637,-12287.418637,-8273.831378
20534.939029,-6809.894666,-13693.809927,-6741.640382
20534.939362,-3108.864956,-12731.542202,-689.485948
20534.939695,-2368.659014,-8364.327145,0.000000
20534.940028,-1184.329507,-7105.977043,1762.019645
20534.940361,-2590.720797,-7031.956449,2145.067394
20534.940694,666.185348,-6291.750507,4290.134789
20534.941028,2294.638420,-7105.977043,5439.278036
20534.941361,-1924.535449,-5995.668130,2068.457845
20534.941694,-3627.009116,-10066.800811,-3753.867940
20534.942027,-6365.771101,-11917.315666,-612.876398
20534.942360,-888.247130,-12657.521608,2374.896044
20534.942693,2294.638420,-9030.512492,2681.334243
20534.943026,-1628.453072,-8882.471304,766.095498
20534.943359,-2072.576638,-8512.368333,-1149.143247
20534.943692,-2146.597232,-9400.615463,-612.876398
20534.944025,-2072.576638,-9622.677246,-536.266849
20534.944358,-3256.906145,-8660.409521,-76.609550
20534.944691,-6809.894666,-9548.656652,-3677.258390
20534.945025,-2072.576638,-10066.800811,1149.143247
20534.945358,-962.267725,-7179.997637,1225.752797
20534.945691,2590.720797,-6883.915261,3907.087040
20534.946024,6439.791695,-7105.977043,4826.401637
20534.946357,4663.297435,-7994.224174,4213.525239
20534.946690,4219.173869,-8068.244768,1762.019645
20534.947023,1998.556043,-11177.109724,-766.095498
20534.947356,518.144159,-11843.295072,-3753.867940
20534.947689,-5921.647536,-12805.562797,-4290.134789
20534.948022,-1332.370696,-11843.295072,-3140.991542
20534.948355,-1850.514855,-11843.295072,-2757.943793
20534.948689,3552.988522,-5995.668130,4903.011187
20534.949022,7624.121203,-4737.318029,7507.735880
20534.949355,5699.585753,-4959.379811,6052.154434
20534.949688,7328.038826,-5477.523971,4366.744339
20534.950021,5551.544565,-8882.471304,2528.115143
20534.950354,5255.462188,-7179.997637,-1838.629195
20534.950687,1924.535449,-14211.954086,-2528.115143
20534.951020,-2442.679609,-11917.315666,-8580.269578
20534.951353,-3552.988522,-11917.315666,-4903.011187
20534.951686,1184.329507,-11029.068536,306.438199
20534.952019,2294.638420,-8364.327145,1225.752797
20534.952352,2886.803174,-6957.935855,1608.800546
20534.952686,3478.967927,-6735.874072,3064.381992
20534.953019,5847.626942,-7031.956449,5822.325785
20534.953352,6439.791695,-3627.009116,3830.477490
20534.953685,1850.514855,-9030.512492,2374.896044
20534.954018,-1480.411884,-10436.903782,-1991.848295
20534.954351,-3478.967927,-12509.480420,-2451.505594
20534.954684,-74.020594,-13915.871710,-76.609550
20534.955017,-370.102971,-7476.080014,-2145.067394
20534.955350,-1776.494261,-9252.574275,-2451.505594
20534.955683,-1036.288319,-10658.965565,-1302.362347
20534.956016,-2442.679609,-9104.533087,-1838.629195
20534.956350,-3552.988522,-7772.162391,1225.752797
20534.956683,-4071.132681,-9104.533087,1225.752797
20534.957016,-4219.173869,-8660.409521,1838.629195
20534.957349,-3923.091493,-8882.471304,1608.800546
20534.957682,-666.185348,-8882.471304,4213.525239
20534.958015,2294.638420,-6513.812290,2681.334243
20534.958348,0.000000,-6883.915261,6052.154434
20534.958681,-74.020594,-9474.636058,2374.896044
20534.959014,-3627.009116,-9474.636058,-3447.429741
20534.959347,-3627.009116,-12361.439231,-2681.334243
20534.959680,-5477.523971,-10510.924376,-5209.449386
20534.960013,-7179.997637,-11695.253884,-5439.278036
20534.960347,-6957.935855,-11325.150913,-4136.915689
20534.960680,-3849.070898,-9548.656652,2145.067394
20534.961013,3330.926739,-4811.338623,3064.381992
20534.961346,6439.791695,-7105.977043,9116.536426
20534.961679,3775.050304,-3997.112087,4596.572988
20534.962012,1480.411884,-5403.503377,3677.258390
20534.962345,2368.659014,-7179.997637,536.266849
20534.962678,2368.659014,-9622.677246,-1532.190996
20534.963011,-2368.659014,-10881.027347,-5898.935335
20534.963344,-4811.338623,-14063.912898,-7507.735880
20534.963677,-1924.535449,-13915.871710,-4136.915689
20534.964011,-1628.453072,-10732.986159,153.219100
20534.964344,5847.626942,-9474.636058,4826.401637
20534.964677,5847.626942,-5773.606348,4290.134789
20534.965010,5921.647536,-4811.338623,4903.011187
20534.965343,7698.141797,-5477.523971,5209.449386
20534.965676,6291.750507,-7105.977043,2451.505594
20534.966009,4219.173869,-8734.430116,536.266849
20534.966342,-2146.597232,-11917.315666,-3064.381992
20534.966675,-74.020594,-11843.295072,-5592.497135
20534.967008,-1184.329507,-14137.933492,-1302.362347
20534.967341,1110.308913,-8660.409521,-3370.820191
20534.967675,2294.638420,-7994.224174,-2451.505594
20534.968008,2220.617826,-10658.965565,-76.609550
20534.968341,3849.070898,-9178.553681,0.000000
20534.968674,5107.421000,-7698.141797,4826.401637
20534.969007,5625.565159,-7105.977043,4136.915689
20534.969340,1776.494261,-8290.306550,1149.143247
20534.969673,814.226536,-11843.295072,1149.143247
20534.970006,2368.659014,-9696.697840,3140.991542
20534.970339,3478.967927,-9474.636058,2987.772442
20534.970672,2516.700203,-8586.388927,842.705048
20534.971005,-2294.638420,-9918.759623,-3140.991542
20534.971338,-1554.432478,-9474.636058,-3140.991542
20534.971672,-2368.659014,-10140.821405,-2451.505594
20534.972005,-2220.617826,-11251.130318,-1608.800546
20534.972338,-4219.173869,-10066.800811,-3064.381992
20534.972671,-5921.647536,-9548.656652,306.438199
20534.973004,1110.308913,-8882.471304,3294.210641
20534.973337,4145.153275,-7105.977043,7584.345430
20534.973670,4737.318029,-5699.585753,7277.907231
20534.974003,3404.947333,-5255.462188,2834.553343
20534.974336,0.000000,-7476.080014,0.000000
20534.974669,740.205942,-13027.624579,-1302.362347
20534.975002,-3404.947333,-8956.491898,-6128.763984
20534.975336,-7105.977043,-11917.315666,-5056.230287
20534.975669,-3923.091493,-14211.954086,-3753.867940
20534.976002,-6365.771101,-11325.150913,-2451.505594
20534.976335,-1036.288319,-9918.759623,2681.334243
20534.976668,1776.494261,-5921.647536,5898.935335
20534.977001,2368.659014,-4737.318029,6052.154434
20534.977334,2368.659014,-4811.338623,5669.106685
20534.977667,4071.132681,-9474.636058,4826.401637
20534.978000,296.082377,-5995.668130,1838.629195
20534.978333,-1184.329507,-11325.150913,-76.609550
20534.978666,-4811.338623,-11843.295072,-7354.516781
20534.978999,-7105.977043,-13249.686362,-4749.792088
20534.979333,-3849.070898,-12583.501014,-2374.896044
20534.979666,1406.391290,-7254.018232,153.219100
20534.979999,518.144159,-8290.306550,1149.143247
20534.980332,2294.638420,-8290.306550,2374.896044
20534.980665,3182.885551,-7105.977043,2374.896044
20534.980998,2960.823768,-5403.503377,4903.011187
20534.981331,5255.462188,-7698.141797,2987.772442
20534.981664,-370.102971,-9548.656652,-2068.457845
20534.981997,0.000000,-10436.903782,536.266849
20534.982330,518.144159,-11325.150913,766.095498
20534.982663,3849.070898,-8882.471304,1608.800546
20534.982997,1036.288319,-8290.306550,-1225.752797
20534.983330,-74.020594,-11547.212695,-1915.238745
20534.983663,1554.432478,-9178.553681,-1762.019645
20534.983996,-444.123565,-10362.883188,-76.609550
20534.984329,1628.453072,-7105.977043,-689.485948
20534.984662,-4145.153275,-9548.656652,0.000000
20534.984995,-1776.494261,-7179.997637,1838.629195
20534.985328,4663.297435,-8882.471304,3140.991542
20534.985661,4737.318029,-7772.162391,7354.516781
20534.985994,7550.100608,-5921.647536,5439.278036
20534.986327,518.144159,-8364.327145,153.219100
20534.986660,1332.370696,-9252.574275,-2451.505594
20534.986994,-2516.700203,-11103.089130,-4903.011187
20534.987327,-1850.514855,-11621.233289,-5515.887586
20534.987660,-3552.988522,-10140.821405,-3677.258390
20534.987993,-4811.338623,-12731.542202,-3370.820191
20534.988326,-74.020594,-11843.295072,-689.485948
20534.988659,2294.638420,-7698.141797,5898.935335
20534.988992,4737.318029,-4811.338623,9806.022374
20534.989325,3701.029710,-4219.173869,6128.763984
20534.989658,3108.864956,-6069.688724,2451.505594
20534.989991,2738.761985,-7550.100608,2374.896044
20534.990324,666.185348,-9844.739029,459.657299
20534.990658,-2738.761985,-11843.295072,-5286.058936
20534.990991,-8586.388927,-12509.480420,-8427.050478
20534.991324,-8734.430116,-11917.315666,-9806.022374
20534.991657,-4145.153275,-11621.233289,-229.828649
20534.991990,-74.020594,-7698.141797,1149.143247
20534.992323,518.144159,-6217.729913,1762.019645
20534.992656,3182.885551,-5921.647536,4519.963438
20534.992989,4885.359217,-6957.935855,6511.811733
20534.993322,3997.112087,-6735.874072,5898.935335
20534.993655,0.000000,-8438.347739,842.705048
20534.993988,-2442.679609,-11251.130318,-3140.991542
20534.994321,-5921.647536,-11917.315666,-2451.505594
20534.994655,592.164754,-13471.748144,-76.609550
20534.994988,1702.473667,-9474.636058,-1608.800546
20534.995321,-2368.659014,-8364.327145,0.000000
20534.995654,0.000000,-9030.512492,1149.143247
20534.995987,-1110.308913,-9030.512492,0.000000
20534.996320,1110.308913,-8734.430116,842.705048
20534.996653,0.000000,-7920.203579,1455.581446
20534.996986,-2072.576638,-7772.162391,0.000000
20534.997319,962.267725,-11251.130318,2374.896044
20534.997652,1998.556043,-10066.800811,3983.696590
20534.997985,2368.659014,-6587.832884,6741.640382
20534.998319,5551.544565,-8290.306550,3983.696590
20534.998652,592.164754,-9104.533087,-2145.067394
20534.998985,-1110.308913,-9622.677246,-4136.915689
20534.999318,-1258.350101,-11695.253884,-2987.772442
20534.999651,-1480.411884,-8660.409521,-4596.572988
20534.999984,-3701.029710,-10732.986159,-3983.696590
20535.000317,-1850.514855,-10362.883188,-2221.676944
20535.000650,2220.617826,-11251.130318,4826.401637
20535.000983,5181.441594,-7031.956449,6741.640382
20535.001316,6883.915261,-8290.306550,7277.907231
20535.001649,2368.659014,-5995.668130,3677.258390
20535.001983,3701.029710,-8882.471304,4826.401637
20535.002316,2886.803174,-9474.636058,-76.609550
20535.002649,0.000000,-8364.327145,-1532.190996
20535.002982,-5921.647536,-10140.821405,-4979.620737
20535.003315,-7772.162391,-11917.315666,-7660.954980
20535.003648,-5551.544565,-12065.356855,-5209.449386
20535.003981,-3256.906145,-10732.986159,306.438199
20535.004314,1406.391290,-5329.482782,1455.581446
20535.004647,1702.473667,-3923.091493,3677.258390
20535.004980,2960.823768,-6291.750507,4366.744339
20535.005313,7031.956449,-9474.636058,4826.401637
20535.005646,3108.864956,-7179.997637,3830.477490
20535.005980,2960.823768,-7179.997637,1149.143247
20535.006313,-1702.473667,-10955.047942,-2298.286494
20535.006646,-2738.761985,-13249.686362,-4903.011187
20535.006979,-1332.370696,-12731.542202,-1915.238745
20535.007312,370.102971,-10658.965565,306.438199
20535.007645,0.000000,-7179.997637,1455.581446
20535.007978,-666.185348,-6513.812290,-2834.553343
20535.008311,-1776.494261,-7179.997637,0.000000
20535.008644,1184.329507,-6143.709319,3677.258390
20535.008977,1480.411884,-8438.347739,1225.752797
20535.009310,222.061783,-7920.203579,536.266849
20535.009644,518.144159,-9918.759623,1378.971896
20535.009977,2886.803174,-10140.821405,2757.943793
20535.010310,5847.626942,-8586.388927,2681.334243
20535.010643,3552.988522,-8956.491898,1762.019645
20535.010976,-740.205942,-9474.636058,-4979.620737
20535.011309,-2368.659014,-10140.821405,-4596.572988
20535.011642,3478.967927,-13027.624579,-1302.362347
20535.011975,1998.556043,-10362.883188,-1302.362347
20535.012308,-1110.308913,-12139.377449,-1532.190996
20535.012641,-1110.308913,-10140.821405,-306.438199
20535.012974,2442.679609,-9400.615463,4903.011187
20535.013307,3849.070898,-5403.503377,7354.516781
20535.013641,8216.285956,-7105.977043,6052.154434
20535.013974,1184.329507,-6291.750507,4290.134789
20535.014307,0.000000,-7772.162391,3064.381992
20535.014640,-74.020594,-8586.388927,-4136.915689
20535.014973,-1554.432478,-9474.636058,-3140.991542
20535.015306,-7179.997637,-11325.150913,-6894.859482
20535.015639,-7994.224174,-12435.459826,-7431.126331
20535.015972,-8068.244768,-13175.665768,-4060.306139
20535.016305,-3552.988522,-9844.739029,2528.115143
20535.016638,4071.132681,-5329.482782,6052.154434
20535.016971,2738.761985,-4589.276840,7277.907231
20535.017305,4219.173869,-5255.462188,5286.058936
20535.017638,2664.741391,-8290.306550,5056.230287
20535.017971,1924.535449,-5403.503377,459.657299
20535.018304,-444.123565,-11547.212695,-1302.362347
20535.018637,-6587.832884,-12509.480420,-8580.269578
20535.018970,-6291.750507,-15396.283594,-6205.373534
20535.019303,-3923.091493,-13915.871710,-1455.581446
20535.019636,-1184.329507,-7476.080014,0.000000
20535.019969,-222.061783,-6883.915261,612.876398
20535.020302,740.205942,-8142.265362,2681.334243
20535.020635,2368.659014,-7105.977043,5286.058936
20535.020969,2368.659014,-6587.832884,7354.516781
20535.021302,3478.967927,-6809.894666,1149.143247
20535.021635,-1850.514855,-8290.306550,-689.485948
20535.021968,-3552.988522,-9252.574275,536.266849
20535.022301,1702.473667,-11251.130318,-76.609550
20535.022634,0.000000,-8364.327145,153.219100
20535.022967,1702.473667,-11251.130318,-2528.115143
20535.023300,-3330.926739,-9548.656652,-4903.011187
20535.023633,-74.020594,-10436.903782,-3447.429741
20535.023967,2294.638420,-11251.130318,-76.609550
20535.024300,4663.297435,-8882.471304,-1915.238745
20535.024633,592.164754,-9696.697840,2374.896044
20535.024966,4663.297435,-11843.295072,4213.525239
20535.025299,4811.338623,-8364.327145,4903.011187
20535.025632,8512.368333,-9326.594869,8197.221829
20535.025965,7031.956449,-5995.668130,4519.963438
20535.026298,3997.112087,-8438.347739,1455.581446
20535.026631,2146.597232,-9400.615463,-2681.334243
20535.026965,962.267725,-10584.944971,-3753.867940
20535.027298,-2664.741391,-9548.656652,-6741.640382
20535.027631,-4441.235652,-11917.315666,-4366.744339
20535.027964,-4959.379811,-12879.583391,-4979.620737
20535.028297,-3034.844362,-9548.656652,-2451.505594
20535.028630,4219.173869,-7772.162391,5898.935335
20535.028963,5847.626942,-3701.029710,7967.393179
20535.029296,6069.688724,-4589.276840,5592.497135
20535.029629,3775.050304,-7105.977043,3983.696590
20535.029962,3478.967927,-7994.224174,1455.581446
20535.030296,2220.617826,-9548.656652,-1149.143247
20535.030629,-3997.112087,-13323.706956,-6052.154434
20535.030962,-7105.977043,-13693.809927,-8197.221829
20535.031295,-7105.977043,-15766.386565,-3983.696590
20535.031628,-888.247130,-11621.233289,2068.457845
20535.031961,-74.020594,-7105.977043,2374.896044
20535.032294,888.247130,-3034.844362,2451.505594
20535.032627,2368.659014,-4811.338623,6818.249932
20535.032960,3108.864956,-5995.668130,6281.983084
