#time,accel_x,accel_y,accel_z
22409.001448,4885.359217,-7328.038826,459.657299
22409.001782,8808.450710,-10066.800811,3294.210641
22409.002116,9178.553681,-9770.718434,3830.477490
22409.002450,9918.759623,-8586.388927,3217.601092
22409.002783,9992.780217,-8660.409521,2681.334243
22409.003117,9992.780217,-9474.636058,1149.143247
22409.003451,5329.482782,-8956.491898,0.000000
22409.003785,8808.450710,-13027.624579,-1302.362347
22409.004118,7031.956449,-7624.121203,-3677.258390
22409.004452,7105.977043,-9548.656652,0.000000
22409.004786,9400.615463,-8882.471304,-2451.505594
22409.005120,10732.986159,-9770.718434,2068.457845
22409.005454,12213.398043,-8068.244768,3677.258390
22409.005787,12361.439231,-8364.327145,3600.648841
22409.006121,9548.656652,-9548.656652,1378.971896
22409.006455,5921.647536,-11325.150913,3677.258390
22409.006789,4071.132681,-11843.295072,-383.047749
22409.007122,1998.556043,-8364.327145,-4290.134789
22409.007456,2294.638420,-13027.624579,-76.609550
22409.007790,1110.308913,-5995.668130,0.000000
22409.008124,4663.297435,-5329.482782,1532.190996
22409.008458,5403.503377,-5847.626942,2374.896044
22409.008791,7624.121203,-5625.565159,2374.896044
22409.009125,8586.388927,-7179.997637,3064.381992
22409.009459,13989.892304,-9104.533087,4213.525239
22409.009793,10288.862594,-8586.388927,-1378.971896
22409.010126,8586.388927,-9548.656652,-4903.011187
22409.010460,9400.615463,-13619.789333,-1455.581446
22409.010794,7254.018232,-11325.150913,-3064.381992
22409.011128,7179.997637,-13027.624579,-3294.210641
22409.011462,4811.338623,-12805.562797,-2528.115143
22409.011795,5995.668130,-10732.986159,612.876398
22409.012129,10066.800811,-7476.080014,2757.943793
22409.012463,11547.212695,-5403.503377,5362.668486
22409.012797,11695.253884,-4589.276840,5439.278036
22409.013130,11843.295072,-7179.997637,5822.325785
22409.013464,10584.944971,-7105.977043,3447.429741
22409.013798,8808.450710,-9474.636058,229.828649
22409.014132,4737.318029,-11547.212695,-1302.362347
22409.014466,5847.626942,-12435.459826,-3140.991542
22409.014799,4515.256246,-8364.327145,-3677.258390
22409.015133,8216.285956,-9178.553681,-1302.362347
22409.015467,7772.162391,-9326.594869,76.609550
22409.015801,9104.533087,-8068.244768,0.000000
22409.016134,9548.656652,-7105.977043,-689.485948
22409.016468,9474.636058,-8364.327145,-1838.629195
22409.016802,11769.274478,-7624.121203,-4903.011187
22409.017136,13249.686362,-11843.295072,-76.609550
22409.017470,10584.944971,-11547.212695,459.657299
22409.017803,7402.059420,-10140.821405,2757.943793
22409.018137,9548.656652,-10288.862594,2451.505594
22409.018471,14211.954086,-8882.471304,5898.935335
22409.018805,15248.242405,-5477.523971,5975.544884
22409.019138,15840.407159,-5551.544565,4519.963438
22409.019472,13545.768739,-9474.636058,1762.019645
22409.019806,8512.368333,-5403.503377,-4290.134789
22409.020140,12953.603985,-14211.954086,-4979.620737
22409.020473,7550.100608,-10140.821405,-5515.887586
22409.020807,5033.400406,-13767.830521,-7354.516781
22409.021141,6883.915261,-13027.624579,-3370.820191
22409.021475,10658.965565,-10140.821405,1149.143247
22409.021809,14063.912898,-7179.997637,4596.572988
22409.022142,15914.427753,-7179.997637,6665.030833
22409.022476,14804.118840,-8364.327145,7048.078582
22409.022810,11843.295072,-7476.080014,8273.831378
22409.023144,13545.768739,-6735.874072,2987.772442
22409.023477,14137.933492,-4885.359217,1225.752797
22409.023811,9474.636058,-8956.491898,-383.047749
22409.024145,8808.450710,-9474.636058,-5592.497135
22409.024479,6143.709319,-13027.624579,-7431.126331
22409.024813,3404.947333,-12953.603985,-6665.030833
22409.025146,4737.318029,-10881.027347,-4060.306139
22409.025480,6735.874072,-10807.006753,-459.657299
22409.025814,14730.098246,-9474.636058,6665.030833
22409.026148,11843.295072,-4811.338623,7967.393179
22409.026481,16506.592507,-7105.977043,9116.536426
22409.026815,12953.603985,-8290.306550,4979.620737
22409.027149,10066.800811,-7772.162391,3677.258390
22409.027483,11769.274478,-8290.306550,-76.609550
22409.027817,10510.924376,-7846.182985,-2145.067394
22409.028150,7476.080014,-8364.327145,-5669.106685
22409.028484,5107.421000,-9770.718434,-7967.393179
22409.028818,5847.626942,-13027.624579,-7431.126331
22409.029152,4737.318029,-12139.377449,-4366.744339
22409.029485,9696.697840,-10066.800811,1302.362347
22409.029819,13323.706956,-7476.080014,6052.154434
22409.030153,10658.965565,-7476.080014,4903.011187
22409.030487,13323.706956,-8734.430116,6665.030833
22409.030821,14137.933492,-9474.636058,6665.030833
22409.031154,12435.459826,-5403.503377,6128.763984
22409.031488,13249.686362,-10658.965565,1149.143247
22409.031822,3478.967927,-8660.409521,-6128.763984
22409.032156,2368.659014,-9474.636058,-7431.126331
22409.032489,4811.338623,-9696.697840,-6128.763984
22409.032823,9178.553681,-7105.977043,-3830.477490
22409.033157,10066.800811,-9918.759623,-76.609550
22409.033491,11473.192101,-10362.883188,2374.896044
22409.033825,9548.656652,-11029.068536,2451.505594
22409.034158,11843.295072,-8364.327145,4903.011187
22409.034492,18875.251521,-11547.212695,6665.030833
22409.034826,13619.789333,-7179.997637,5209.449386
22409.035160,11917.315666,-9622.677246,3830.477490
22409.035493,11177.109724,-9770.718434,536.266849
22409.035827,9474.636058,-9918.759623,842.705048
22409.036161,6439.791695,-5921.647536,-1915.238745
22409.036495,8216.285956,-11251.130318,-2528.115143
22409.036828,2368.659014,-7179.997637,-2451.505594
22409.037162,7031.956449,-9474.636058,-2528.115143
22409.037496,8808.450710,-6365.771101,-2221.676944
22409.037830,9400.615463,-10658.965565,4213.525239
22409.038164,9918.759623,-6587.832884,459.657299
22409.038497,8660.409521,-11843.295072,2221.676944
22409.038831,12657.521608,-4737.318029,1762.019645
22409.039165,13027.624579,-8364.327145,4903.011187
22409.039499,13989.892304,-7698.141797,919.314598
22409.039832,8290.306550,-10732.986159,1225.752797
22409.040166,7328.038826,-10066.800811,-2221.676944
22409.040500,9252.574275,-7402.059420,-6128.763984
22409.040834,7105.977043,-10140.821405,-3447.429741
22409.041168,8216.285956,-10955.047942,-1302.362347
22409.041501,9474.636058,-7328.038826,-1149.143247
22409.041835,10436.903782,-10140.821405,2298.286494
22409.042169,16210.510130,-7402.059420,4213.525239
22409.042503,11843.295072,-9548.656652,7967.393179
22409.042836,15914.427753,-7698.141797,7277.907231
22409.043170,11177.109724,-10066.800811,995.924147
22409.043504,6217.729913,-7328.038826,0.000000
22409.043838,4737.318029,-10732.986159,-2757.943793
22409.044172,4515.256246,-10214.842000,-1762.019645
22409.044505,4071.132681,-11621.233289,-2221.676944
22409.044839,1110.308913,-10955.047942,-3140.991542
22409.045173,2294.638420,-10066.800811,-689.485948
22409.045507,2960.823768,-7476.080014,1685.410096
22409.045840,11621.233289,-6143.709319,7124.688131
22409.046174,7105.977043,-4219.173869,4596.572988
22409.046508,9474.636058,-8068.244768,5209.449386
22409.046842,8290.306550,-8290.306550,5209.449386
22409.047176,3627.009116,-6661.853478,-1608.800546
22409.047509,4737.318029,-7179.997637,-6128.763984
22409.047843,-74.020594,-20133.601622,-2528.115143
22409.048177,1998.556043,-6143.709319,-7201.297681
22409.048511,-74.020594,-15396.283594,-383.047749
22409.048844,4441.235652,-7179.997637,536.266849
22409.049178,2960.823768,-9622.677246,1762.019645
22409.049512,4737.318029,-8438.347739,5286.058936
22409.049846,9400.615463,-3552.988522,2374.896044
22409.050180,0.000000,-10140.821405,4903.011187
22409.050513,3552.988522,-7772.162391,4826.401637
22409.050847,4663.297435,-4737.318029,0.000000
22409.051181,4737.318029,-11029.068536,3064.381992
22409.051515,11177.109724,-2960.823768,153.219100
22409.051848,1332.370696,-13693.809927,-1532.190996
22409.052182,2886.803174,-7105.977043,-6052.154434
22409.052516,-74.020594,-13027.624579,-5898.935335
22409.052850,-2220.617826,-16062.468941,-2451.505594
22409.053183,4737.318029,-5403.503377,-76.609550
22409.053517,-1850.514855,-14730.098246,-1915.238745
22409.053851,5921.647536,-4811.338623,6128.763984
22409.054185,4071.132681,-13027.624579,7890.783629
22409.054519,9474.636058,-4811.338623,8580.269578
22409.054852,8216.285956,-5625.565159,7277.907231
22409.055186,-222.061783,-10140.821405,1532.190996
22409.055520,5329.482782,-2516.700203,-1302.362347
22409.055854,-3256.906145,-12287.418637,-1225.752797
22409.056187,2294.638420,-9030.512492,-1302.362347
22409.056521,-5995.668130,-10510.924376,-6741.640382
22409.056855,0.000000,-10732.986159,-4903.011187
22409.057189,-1850.514855,-11843.295072,-76.609550
22409.057523,0.000000,-9548.656652,0.000000
22409.057856,1702.473667,-8290.306550,3217.601092
22409.058190,222.061783,-9030.512492,3294.210641
22409.058524,8734.430116,-5403.503377,1302.362347
22409.058858,3701.029710,-13841.851115,7354.516781
22409.059191,8808.450710,-3923.091493,2068.457845
22409.059525,2368.659014,-11029.068536,1608.800546
22409.059859,296.082377,-8956.491898,-2451.505594
22409.060193,-666.185348,-11251.130318,-4979.620737
22409.060527,1702.473667,-5551.544565,-2451.505594
22409.060860,2368.659014,-11769.274478,-153.219100
22409.061194,-74.020594,-11843.295072,-76.609550
22409.061528,-74.020594,-12287.418637,0.000000
22409.061862,1110.308913,-9474.636058,2374.896044
22409.062195,2590.720797,-8512.368333,2451.505594
22409.062529,3108.864956,-6883.915261,3294.210641
22409.062863,2590.720797,-8364.327145,3677.258390
22409.063197,-2368.659014,-7179.997637,1225.752797
22409.063531,2294.638420,-7624.121203,-3294.210641
22409.063864,1184.329507,-10658.965565,2068.457845
22409.064198,-666.185348,-9918.759623,-2068.457845
22409.064532,-4293.194464,-8364.327145,-8580.269578
22409.064866,-5625.565159,-13471.748144,612.876398
22409.065199,-5625.565159,-7920.203579,-1991.848295
22409.065533,3478.967927,-7254.018232,2528.115143
22409.065867,888.247130,-6883.915261,5822.325785
22409.066201,1702.473667,-9474.636058,2068.457845
22409.066535,-1628.453072,-11029.068536,3677.258390
22409.066868,-1258.350101,-9474.636058,-76.609550
22409.067202,222.061783,-5403.503377,-1072.533697
22409.067536,2294.638420,-7994.224174,4826.401637
22409.067870,2886.803174,-7994.224174,-2221.676944
22409.068203,-6809.894666,-15914.427753,-995.924147
22409.068537,-4145.153275,-6291.750507,-4903.011187
22409.068871,-370.102971,-12657.521608,689.485948
22409.069205,0.000000,-7031.956449,-229.828649
22409.069538,3552.988522,-8364.327145,2681.334243
22409.069872,-3923.091493,-7476.080014,-2451.505594
22409.070206,-1776.494261,-9548.656652,0.000000
22409.070540,3997.112087,-8882.471304,4519.963438
22409.070874,4663.297435,-9474.636058,5439.278036
22409.071207,4959.379811,-6661.853478,4213.525239
22409.071541,-1924.535449,-8364.327145,-1225.752797
22409.071875,1110.308913,-11177.109724,-2221.676944
22409.072209,-1258.350101,-8734.430116,229.828649
22409.072542,-74.020594,-11843.295072,-1608.800546
22409.072876,-3552.988522,-7179.997637,-1838.629195
22409.073210,-2886.803174,-11473.192101,-2528.115143
22409.073544,2886.803174,-11251.130318,-1302.362347
22409.073878,4441.235652,-6069.688724,4136.915689
22409.074211,2738.761985,-7698.141797,1378.971896
22409.074545,592.164754,-11473.192101,3370.820191
22409.074879,1110.308913,-6957.935855,1225.752797
22409.075213,1110.308913,-9992.780217,-459.657299
22409.075546,5255.462188,-9178.553681,2068.457845
22409.075880,296.082377,-8364.327145,1762.019645
22409.076214,-1184.329507,-7179.997637,0.000000
22409.076548,-666.185348,-9992.780217,-229.828649
22409.076882,0.000000,-6883.915261,-3677.258390
22409.077215,-962.267725,-13027.624579,-1915.238745
22409.077549,-4737.318029,-7328.038826,-6128.763984
22409.077883,-2368.659014,-7772.162391,-919.314598
22409.078217,2072.576638,-8290.306550,3600.648841
22409.078550,4071.132681,-7179.997637,4290.134789
22409.078884,6439.791695,-7031.956449,5439.278036
22409.079218,-888.247130,-12213.398043,2451.505594
22409.079552,1258.350101,-8512.368333,-1072.533697
22409.079886,6439.791695,-7994.224174,2374.896044
22409.080219,1702.473667,-11843.295072,-1302.362347
22409.080553,-2368.659014,-9548.656652,-1838.629195
22409.080887,-1850.514855,-11843.295072,-1915.238745
22409.081221,-5995.668130,-14285.974681,-5362.668486
22409.081554,0.000000,-5403.503377,842.705048
22409.081888,-1702.473667,-9548.656652,1225.752797
22409.082222,2368.659014,-6291.750507,3907.087040
22409.082556,5181.441594,-4219.173869,5209.449386
22409.082889,-1258.350101,-12435.459826,3600.648841
22409.083223,3478.967927,-4441.235652,1149.143247
22409.083557,0.000000,-11473.192101,2834.553343
22409.083891,3775.050304,-10658.965565,1149.143247
22409.084225,-4145.153275,-9548.656652,-2451.505594
22409.084558,-2442.679609,-8734.430116,-2528.115143
22409.084892,-3034.844362,-9918.759623,-5669.106685
22409.085226,-2072.576638,-9844.739029,-536.266849
22409.085560,-2294.638420,-10140.821405,-1072.533697
22409.085893,-1776.494261,-10436.903782,1532.190996
22409.086227,1332.370696,-6587.832884,3064.381992
22409.086561,0.000000,-6587.832884,6511.811733
22409.086895,4663.297435,-7994.224174,6358.592633
22409.087229,1184.329507,-1258.350101,3370.820191
22409.087562,2960.823768,-7476.080014,0.000000
22409.087896,370.102971,-11251.130318,76.609550
22409.088230,-2368.659014,-8660.409521,-6281.983084
22409.088564,-7698.141797,-16580.613101,-7048.078582
22409.088897,-3034.844362,-9474.636058,-4979.620737
22409.089231,-4145.153275,-11917.315666,-1991.848295
22409.089565,1702.473667,-7254.018232,1072.533697
22409.089899,4663.297435,-7105.977043,3294.210641
22409.090233,0.000000,-10436.903782,5822.325785
22409.090566,6513.812290,-7402.059420,3907.087040
22409.090900,2812.782580,-12213.398043,4903.011187
22409.091234,7328.038826,-7402.059420,10035.851024
22409.091568,1850.514855,-3701.029710,2145.067394
22409.091901,-666.185348,-13027.624579,-1608.800546
22409.092234,-4737.318029,-6661.853478,-5439.278036
22409.092567,-5699.585753,-14434.015869,-5515.887586
22409.092900,-370.102971,-7698.141797,-3447.429741
22409.093234,-1110.308913,-11843.295072,-2068.457845
22409.093567,-1850.514855,-9474.636058,-2528.115143
22409.093900,-3552.988522,-9548.656652,0.000000
22409.094233,5033.400406,-7698.141797,3600.648841
22409.094566,3108.864956,-8364.327145,6741.640382
22409.094899,4737.318029,-5995.668130,7354.516781
22409.095233,2294.638420,-11547.212695,3600.648841
22409.095566,666.185348,-10214.842000,0.000000
22409.095899,518.144159,-10362.883188,-76.609550
22409.096232,-814.226536,-7179.997637,-1532.190996
22409.096565,-666.185348,-7698.141797,-3447.429741
22409.096898,-4737.318029,-11695.253884,-76.609550
22409.097232,-3034.844362,-11843.295072,-1608.800546
22409.097565,-3627.009116,-7846.182985,-3524.039291
22409.097898,-592.164754,-11843.295072,3677.258390
22409.098231,2590.720797,-4515.256246,4136.915689
22409.098564,4663.297435,-3256.906145,153.219100
22409.098898,3108.864956,-11251.130318,4826.401637
22409.099231,2368.659014,-11029.068536,2451.505594
22409.099564,1776.494261,-7772.162391,0.000000
22409.099897,1406.391290,-16580.613101,-76.609550
22409.100230,-3034.844362,-8142.265362,-7354.516781
22409.100563,-6513.812290,-12509.480420,-2451.505594
22409.100897,-3034.844362,-10658.965565,-3140.991542
22409.101230,-1184.329507,-9696.697840,536.266849
22409.101563,-1184.329507,-7920.203579,1991.848295
22409.101896,3034.844362,-5699.585753,3447.429741
22409.102229,3478.967927,-7105.977043,5439.278036
22409.102562,9400.615463,-3849.070898,4213.525239
22409.102896,1702.473667,-11843.295072,2987.772442
22409.103229,3552.988522,-5995.668130,1991.848295
22409.103562,1554.432478,-13027.624579,-2528.115143
22409.103895,-74.020594,-8364.327145,-3677.258390
22409.104228,-3552.988522,-13175.665768,-4979.620737
22409.104561,-3849.070898,-12583.501014,-2221.676944
22409.104895,-4441.235652,-9992.780217,-2987.772442
22409.105228,-2368.659014,-12435.459826,-383.047749
22409.105561,-1850.514855,-8290.306550,2374.896044
22409.105894,-4811.338623,-6291.750507,2681.334243
22409.106227,4663.297435,-2812.782580,3907.087040
22409.106561,4441.235652,-3701.029710,8503.660028
22409.106894,5329.482782,-5403.503377,4290.134789
22409.107227,4737.318029,-5403.503377,3370.820191
22409.107560,1702.473667,-11843.295072,-3447.429741
22409.107893,0.000000,-10140.821405,-6128.763984
22409.108226,-4737.318029,-15692.365970,-6435.202183
22409.108560,-2294.638420,-16432.571912,-5286.058936
22409.108893,-7994.224174,-14063.912898,-2834.553343
22409.109226,-5181.441594,-9252.574275,-5515.887586
22409.109559,222.061783,-12657.521608,3140.991542
22409.109892,3478.967927,-5625.565159,9729.412825
22409.110225,6809.894666,-3330.926739,9959.241474
22409.110559,-74.020594,-4071.132681,5209.449386
22409.110892,1776.494261,-4663.297435,383.047749
22409.111225,-74.020594,-13027.624579,2374.896044
22409.111558,6439.791695,-1776.494261,-76.609550
22409.111891,-592.164754,-14656.077652,-1608.800546
22409.112225,-1850.514855,-8956.491898,-5515.887586
22409.112558,-6957.935855,-17024.736666,-6511.811733
22409.112891,-5255.462188,-13693.809927,-4903.011187
22409.113224,3478.967927,-9474.636058,-76.609550
22409.113557,-4145.153275,-10732.986159,-4903.011187
22409.113890,2664.741391,-6291.750507,5439.278036
22409.114224,-1258.350101,-8882.471304,6052.154434
22409.114557,5921.647536,-1554.432478,6128.763984
22409.114890,4071.132681,-5995.668130,8733.488677
22409.115223,4663.297435,-6217.729913,842.705048
22409.115556,4367.215058,-3108.864956,2221.676944
22409.115889,-888.247130,-8956.491898,-3677.258390
22409.116223,1924.535449,-6587.832884,-6435.202183
22409.116556,-5329.482782,-18949.272115,-2834.553343
22409.116889,2294.638420,-11695.253884,-3140.991542
22409.117222,-7179.997637,-13693.809927,-4903.011187
22409.117555,-74.020594,-11547.212695,-1915.238745
22409.117888,-3552.988522,-10658.965565,-153.219100
22409.118222,-74.020594,-8956.491898,1225.752797
22409.118555,3182.885551,-5847.626942,5822.325785
22409.118888,3404.947333,-4441.235652,6818.249932
22409.119221,8290.306550,-5477.523971,10878.556072
22409.119554,4663.297435,-4737.318029,3140.991542
22409.119888,1776.494261,-7476.080014,2604.724693
22409.120221,-2368.659014,-8364.327145,-3447.429741
22409.120554,4071.132681,-14211.954086,-5592.497135
22409.120887,-4145.153275,-15470.304188,-4596.572988
22409.121220,1702.473667,-10955.047942,-2757.943793
22409.121553,-5773.606348,-15840.407159,-3907.087040
22409.121887,-4737.318029,-11399.171507,-2374.896044
22409.122220,-2368.659014,-8364.327145,842.705048
22409.122553,-296.082377,-10436.903782,6971.469032
22409.122886,7105.977043,888.247130,8273.831378
22409.123219,-1702.473667,-8882.471304,9499.584175
22409.123552,4367.215058,2294.638420,5592.497135
22409.123886,-2368.659014,-7476.080014,5822.325785
22409.124219,6291.750507,-3552.988522,1762.019645
22409.124552,-74.020594,-5995.668130,-10725.336972
22409.124885,-6513.812290,-17246.798449,-9039.926876
22409.125218,-370.102971,-11843.295072,-11721.261119
22409.125552,-6809.894666,-22502.260637,-3064.381992
22409.125885,3034.844362,-8290.306550,-2451.505594
22409.126218,-2220.617826,-16580.613101,2911.162892
22409.126551,2368.659014,-5107.421000,6128.763984
22409.126884,2664.741391,-7772.162391,8503.660028
22409.127217,4663.297435,-6957.935855,8580.269578
22409.127551,4737.318029,-74.020594,7967.393179
22409.127884,1776.494261,-7772.162391,7890.783629
22409.128217,2960.823768,-74.020594,0.000000
22409.128550,-6513.812290,-10658.965565,-3753.867940
22409.128883,-2368.659014,-8512.368333,-7967.393179
22409.129216,-3404.947333,-8660.409521,-9499.584175
22409.129550,-3627.009116,-18949.272115,-4979.620737
22409.129883,-1776.494261,-7624.121203,-3753.867940
22409.130216,-2442.679609,-14804.118840,-3064.381992
22409.130549,1184.329507,-9844.739029,2451.505594
22409.130882,2960.823768,-9104.533087,7277.907231
22409.131216,7031.956449,-9474.636058,6052.154434
22409.131549,5107.421000,-11103.089130,7431.126331
22409.131882,5625.565159,-5181.441594,8044.002729
22409.132215,2812.782580,-6587.832884,4290.134789
22409.132548,296.082377,-1258.350101,0.000000
22409.132881,-1258.350101,-11547.212695,-2528.115143
22409.133215,-4737.318029,-7179.997637,-7354.516781
22409.133548,1480.411884,-11103.089130,-2528.115143
22409.133881,-7179.997637,-13989.892304,-8120.612279
22409.134214,0.000000,-8438.347739,0.000000
22409.134547,-3849.070898,-10881.027347,1608.800546
22409.134880,6069.688724,-5551.544565,4519.963438
22409.135214,592.164754,-10288.862594,2374.896044
22409.135547,2664.741391,-9252.574275,3217.601092
22409.135880,5847.626942,-5995.668130,0.000000
22409.136213,2368.659014,-14137.933492,3294.210641
22409.136546,8216.285956,-7105.977043,4826.401637
22409.136879,-5625.565159,-9844.739029,0.000000
22409.137213,2516.700203,-7179.997637,-1302.362347
22409.137546,-5921.647536,-11177.109724,-4519.963438
22409.137879,-1332.370696,-9400.615463,-3524.039291
22409.138212,740.205942,-5033.400406,1149.143247
22409.138545,2960.823768,-13323.706956,4596.572988
22409.138879,5255.462188,-3034.844362,2451.505594
22409.139212,-3330.926739,-15174.221811,4213.525239
22409.139545,3034.844362,-2886.803174,-3677.258390
22409.139878,-1850.514855,-13027.624579,2757.943793
22409.140211,592.164754,-9918.759623,0.000000
22409.140544,1110.308913,-6365.771101,229.828649
22409.140878,-9474.636058,-11917.315666,-1838.629195
22409.141211,2146.597232,-7105.977043,-1302.362347
22409.141544,-3182.885551,-8290.306550,-995.924147
22409.141877,2368.659014,-5995.668130,919.314598
22409.142210,296.082377,-13915.871710,1608.800546
22409.142543,1776.494261,-8660.409521,2911.162892
22409.142877,3552.988522,-8216.285956,2221.676944
22409.143210,-74.020594,-10658.965565,1762.019645
22409.143543,4737.318029,-5995.668130,612.876398
22409.143876,296.082377,-12435.459826,3677.258390
22409.144209,4071.132681,-10658.965565,-689.485948
22409.144543,-5255.462188,-10807.006753,-4290.134789
22409.144876,-1258.350101,-11547.212695,-1915.238745
22409.145209,-5625.565159,-10140.821405,1455.581446
22409.145542,-1036.288319,-3034.844362,76.609550
22409.145875,-4515.256246,-10140.821405,-2451.505594
22409.146208,-2368.659014,-6587.832884,306.438199
22409.146542,0.000000,-5995.668130,3370.820191
22409.146875,2294.638420,-10066.800811,1455.581446
22409.147208,4737.318029,-4811.338623,1532.190996
22409.147541,2368.659014,-10658.965565,3600.648841
22409.147874,6291.750507,-6587.832884,2451.505594
22409.148207,2590.720797,-11029.068536,-1225.752797
22409.148541,3182.885551,-11843.295072,-3753.867940
22409.148874,-666.185348,-11991.336260,-1838.629195
22409.149207,-74.020594,-11843.295072,-2528.115143
22409.149540,-2516.700203,-14952.160028,-76.609550
22409.149873,-1258.350101,-9474.636058,-76.609550
22409.150206,-3552.988522,-5551.544565,-2145.067394
22409.150540,2294.638420,-10658.965565,7277.907231
22409.150873,6069.688724,-4071.132681,7507.735880
22409.151206,1332.370696,-7179.997637,5132.839837
22409.151539,5033.400406,-2146.597232,5592.497135
22409.151872,1776.494261,-8586.388927,459.657299
22409.152206,592.164754,-11621.233289,0.000000
22409.152539,2294.638420,-8734.430116,-6818.249932
22409.152872,-4737.318029,-13101.645173,-8580.269578
22409.153205,-3552.988522,-13249.686362,-6205.373534
22409.153538,-1850.514855,-14878.139434,-4749.792088
22409.153871,-1258.350101,-14285.974681,1149.143247
22409.154205,-3997.112087,-10066.800811,-612.876398
22409.154538,-518.144159,-7179.997637,4826.401637
22409.154871,2960.823768,-3627.009116,9729.412825
22409.155204,9474.636058,-962.267725,12257.527968
22409.155537,5847.626942,-4367.215058,9269.755526
22409.155870,2960.823768,-3330.926739,1225.752797
22409.156204,2294.638420,-11103.089130,2221.676944
22409.156537,-2738.761985,-10881.027347,-5515.887586
22409.156870,-1776.494261,-10066.800811,-9576.193725
22409.157203,-7179.997637,-18949.272115,-10495.508323
22409.157536,-5551.544565,-11325.150913,-9806.022374
22409.157870,-4959.379811,-15396.283594,-2451.505594
22409.158203,-1258.350101,-9104.533087,1915.238745
22409.158536,2072.576638,-4219.173869,0.000000
22409.158869,-592.164754,-12435.459826,6511.811733
22409.159202,7698.141797,-592.164754,8273.831378
22409.159535,2294.638420,-10436.903782,9269.755526
22409.159869,8290.306550,-2738.761985,9806.022374
22409.160202,3478.967927,-5551.544565,0.000000
22409.160535,2294.638420,-6587.832884,0.000000
22409.160868,-592.164754,-8734.430116,-6205.373534
22409.161201,-4811.338623,-17764.942608,-7737.564530
22409.161534,-3552.988522,-11621.233289,-7890.783629
22409.161868,-5403.503377,-16062.468941,-4443.353888
22409.162201,-1554.432478,-8734.430116,-1608.800546
22409.162534,888.247130,-9770.718434,2145.067394
22409.162867,3478.967927,-9178.553681,7277.907231
22409.163200,2738.761985,1702.473667,2451.505594
22409.163534,1998.556043,-12731.542202,8886.707777
22409.163867,4663.297435,-4737.318029,5745.716235
22409.164200,-2368.659014,-5995.668130,306.438199
22409.164533,1702.473667,-7105.977043,-995.924147
22409.164866,-2960.823768,-9844.739029,-3983.696590
22409.165199,-1628.453072,-13471.748144,-5362.668486
22409.165533,222.061783,-10732.986159,-3140.991542
22409.165866,-4219.173869,-12731.542202,-5592.497135
22409.166199,0.000000,-9548.656652,0.000000
22409.166532,-74.020594,-12287.418637,-76.609550
22409.166865,4959.379811,-9474.636058,4826.401637
22409.167198,2368.659014,-3034.844362,3677.258390
22409.167532,5255.462188,-9178.553681,5439.278036
22409.167865,2738.761985,-7105.977043,5898.935335
22409.168198,1776.494261,-7105.977043,3907.087040
22409.168531,1184.329507,-8956.491898,3064.381992
22409.168864,-4219.173869,-7698.141797,-4366.744339
22409.169197,-5329.482782,-11029.068536,-4979.620737
22409.169531,-5477.523971,-9548.656652,-4979.620737
22409.169864,-2368.659014,-10807.006753,-5439.278036
22409.170197,-2072.576638,-9696.697840,766.095498
22409.170530,1406.391290,-10362.883188,2068.457845
22409.170863,592.164754,-5403.503377,2451.505594
22409.171197,2960.823768,-7772.162391,5745.716235
22409.171530,4663.297435,-9178.553681,-919.314598
22409.171863,888.247130,-15470.304188,4903.011187
22409.172196,8956.491898,-2294.638420,4979.620737
22409.172529,1924.535449,-11251.130318,1762.019645
22409.172862,3849.070898,-2886.803174,-1149.143247
22409.173196,-4811.338623,-17468.860231,-3140.991542
22409.173529,-1406.391290,-8290.306550,-7431.126331
22409.173862,-2368.659014,-13101.645173,1225.752797
22409.174195,-3923.091493,-13027.624579,-1302.362347
22409.174528,4367.215058,-6513.812290,3600.648841
22409.174861,-3627.009116,-10362.883188,4519.963438
22409.175195,4293.194464,-4515.256246,459.657299
22409.175528,2442.679609,-7920.203579,4903.011187
22409.175861,3256.906145,-7476.080014,3753.867940
22409.176194,1776.494261,-2442.679609,612.876398
22409.176527,-74.020594,-13619.789333,842.705048
22409.176861,-3552.988522,-9844.739029,-2604.724693
22409.177194,-1554.432478,-12731.542202,-3140.991542
22409.177527,-3256.906145,-12287.418637,-3294.210641
22409.177860,-4737.318029,-11325.150913,-3524.039291
22409.178193,-2664.741391,-6439.791695,1455.581446
22409.178526,74.020594,-8068.244768,2528.115143
22409.178860,4589.276840,-7994.224174,6971.469032
22409.179193,6439.791695,-7105.977043,10955.165621
22409.179526,0.000000,-8956.491898,1225.752797
22409.179859,6439.791695,-5329.482782,6052.154434
22409.180192,-74.020594,-6439.791695,-5822.325785
22409.180525,1480.411884,-13249.686362,1149.143247
22409.180859,-1258.350101,-10658.965565,-3983.696590
22409.181192,-4663.297435,-13915.871710,-6052.154434
22409.181525,-1998.556043,-9474.636058,-3217.601092
22409.181858,-2960.823768,-11325.150913,-1302.362347
22409.182191,-3108.864956,-11103.089130,-689.485948
22409.182524,1184.329507,-7476.080014,5592.497135
22409.182858,1702.473667,-7254.018232,3677.258390
22409.183191,3108.864956,-2738.761985,6128.763984
22409.183524,5847.626942,-8290.306550,-76.609550
22409.183857,4071.132681,-11251.130318,2068.457845
22409.184190,1184.329507,-10436.903782,2068.457845
22409.184524,2590.720797,-10140.821405,842.705048
22409.184857,222.061783,-11843.295072,-3753.867940
22409.185190,-2072.576638,-14582.057057,-3983.696590
22409.185523,0.000000,-11769.274478,-383.047749
22409.185856,370.102971,-8512.368333,-3064.381992
22409.186189,-74.020594,-10066.800811,383.047749
22409.186523,-518.144159,-8512.368333,459.657299
22409.186856,814.226536,-8882.471304,2834.553343
22409.187189,3552.988522,-4811.338623,6971.469032
22409.187522,2368.659014,-9104.533087,6052.154434
22409.187855,4071.132681,-3182.885551,2757.943793
22409.188188,-2072.576638,-10732.986159,1991.848295
22409.188522,1406.391290,-10362.883188,-76.609550
22409.188855,-1924.535449,-9030.512492,-2681.334243
22409.189188,-3775.050304,-8660.409521,-6588.421283
22409.189521,-2442.679609,-12583.501014,-4979.620737
22409.189854,-3849.070898,-13101.645173,-2451.505594
22409.190188,1184.329507,-9992.780217,1455.581446
22409.190521,-1258.350101,-9104.533087,536.266849
22409.190854,7031.956449,-3923.091493,2451.505594
22409.191187,4293.194464,-7179.997637,5669.106685
22409.191520,6439.791695,-7624.121203,4903.011187
22409.191853,4293.194464,-6217.729913,3140.991542
22409.192186,0.000000,-12509.480420,3064.381992
22409.192519,592.164754,-9252.574275,1378.971896
22409.192852,-2368.659014,-11843.295072,-1838.629195
22409.193186,-1036.288319,-12805.562797,-76.609550
22409.193519,-5107.421000,-9548.656652,-3677.258390
22409.193852,-3627.009116,-5921.647536,-6205.373534
22409.194185,-7105.977043,-8068.244768,-3600.648841
22409.194518,-1850.514855,-12435.459826,-76.609550
22409.194851,1702.473667,-1850.514855,612.876398
22409.195184,0.000000,-12731.542202,5592.497135
22409.195517,5403.503377,-3108.864956,1608.800546
22409.195850,592.164754,-9548.656652,2451.505594
22409.196183,4663.297435,-9400.615463,2987.772442
22409.196516,592.164754,-8364.327145,3830.477490
22409.196849,-666.185348,-14211.954086,-1302.362347
22409.197182,-2368.659014,-10362.883188,-3140.991542
22409.197515,-5551.544565,-10066.800811,-1915.238745
22409.197848,-3701.029710,-12065.356855,-2681.334243
22409.198182,-5255.462188,-7031.956449,-995.924147
22409.198515,-1258.350101,-5551.544565,153.219100
22409.198848,3552.988522,-4737.318029,6435.202183
22409.199181,0.000000,-6587.832884,4903.011187
22409.199514,4071.132681,-2368.659014,2374.896044
22409.199847,-74.020594,-9474.636058,-3217.601092
22409.200180,1184.329507,-10807.006753,919.314598
22409.200513,148.041188,-11103.089130,-76.609550
22409.200846,-3330.926739,-12805.562797,-8273.831378
22409.201179,-370.102971,-12139.377449,-3600.648841
22409.201512,-3034.844362,-13471.748144,-3753.867940
22409.201845,5625.565159,-13027.624579,5515.887586
22409.202178,0.000000,-5107.421000,3830.477490
22409.202511,3478.967927,-7402.059420,1762.019645
22409.202844,1184.329507,-9252.574275,6511.811733
22409.203178,6143.709319,-4441.235652,4826.401637
22409.203511,740.205942,-10584.944971,3677.258390
22409.203844,3404.947333,-2442.679609,612.876398
22409.204177,1776.494261,-10510.924376,1762.019645
22409.204510,1258.350101,-5699.585753,-1838.629195
22409.204843,2294.638420,-11103.089130,-2834.553343
22409.205176,-2294.638420,-15100.201217,-5132.839837
22409.205509,592.164754,-10140.821405,-4060.306139
22409.205842,-5921.647536,-16432.571912,-4903.011187
22409.206175,0.000000,-7402.059420,-1915.238745
22409.206508,-5403.503377,-11843.295072,-2528.115143
22409.206841,1776.494261,-7179.997637,5669.106685
22409.207174,3478.967927,-9474.636058,8503.660028
22409.207507,6439.791695,-2442.679609,7354.516781
22409.207840,4737.318029,-3627.009116,7354.516781
22409.208174,4663.297435,-7105.977043,1762.019645
22409.208507,4145.153275,-8364.327145,1991.848295
22409.208840,-518.144159,-12879.583391,-2451.505594
22409.209173,1850.514855,-9696.697840,-6281.983084
22409.209506,-7476.080014,-13323.706956,-7967.393179
22409.209839,-4737.318029,-12509.480420,-4596.572988
22409.210172,-3923.091493,-14211.954086,-76.609550
22409.210505,-3627.009116,-9474.636058,-4366.744339
22409.210838,-74.020594,-9326.594869,4826.401637
22409.211171,-1776.494261,-6587.832884,7354.516781
22409.211504,1850.514855,-3330.926739,8120.612279
22409.211837,-1406.391290,-6513.812290,5439.278036
22409.212170,3034.844362,-4219.173869,4596.572988
22409.212503,2442.679609,-5107.421000,2451.505594
22409.212836,5847.626942,-13619.789333,4826.401637
22409.213170,-962.267725,-6291.750507,-4903.011187
22409.213503,-6957.935855,-13989.892304,-9806.022374
22409.213836,-3034.844362,-17172.777854,-7431.126331
22409.214169,-5477.523971,-14285.974681,-6128.763984
22409.214502,-1628.453072,-11917.315666,-459.657299
22409.214835,0.000000,-9992.780217,2834.553343
22409.215168,2072.576638,-4293.194464,3830.477490
22409.215501,5921.647536,-6587.832884,7967.393179
22409.215834,5107.421000,-6291.750507,8427.050478
22409.216167,6809.894666,-3552.988522,6052.154434
22409.216500,666.185348,-9104.533087,2451.505594
22409.216833,518.144159,-7105.977043,-2221.676944
22409.217166,-3923.091493,-7994.224174,-6741.640382
22409.217499,-2960.823768,-13101.645173,-3140.991542
22409.217832,-666.185348,-13619.789333,-5592.497135
22409.218166,-962.267725,-11991.336260,-4903.011187
22409.218499,-1258.350101,-11843.295072,-3140.991542
22409.218832,2738.761985,-7772.162391,1455.581446
22409.219165,888.247130,-9548.656652,3677.258390
22409.219498,3330.926739,-8216.285956,3140.991542
22409.219831,2516.700203,-9548.656652,5209.449386
22409.220164,4663.297435,-9474.636058,4903.011187
22409.220497,8068.244768,-7105.977043,6971.469032
22409.220830,1702.473667,-4885.359217,1838.629195
22409.221163,-2960.823768,-7772.162391,-4903.011187
22409.221496,-888.247130,-10436.903782,-2451.505594
22409.221829,-2442.679609,-12657.521608,-2374.896044
22409.222162,-444.123565,-9770.718434,-4826.401637
22409.222495,-3478.967927,-9770.718434,-1838.629195
22409.222828,-1258.350101,-12435.459826,-689.485948
22409.223162,3404.947333,-2738.761985,306.438199
22409.223495,2886.803174,-14211.954086,5439.278036
22409.223828,3404.947333,-4219.173869,1838.629195
22409.224161,2294.638420,-9104.533087,6128.763984
22409.224494,2294.638420,-11843.295072,2374.896044
22409.224827,0.000000,-10436.903782,229.828649
22409.225160,-2368.659014,-9474.636058,-1225.752797
22409.225493,74.020594,-8364.327145,-2987.772442
22409.225826,-2294.638420,-10510.924376,-689.485948
22409.226159,0.000000,-8956.491898,2374.896044
22409.226492,-6291.750507,-9548.656652,-2145.067394
22409.226825,0.000000,-4811.338623,-2451.505594
22409.227158,-2146.597232,-14804.118840,3600.648841
22409.227491,4071.132681,-2368.659014,4826.401637
22409.227824,2294.638420,-7550.100608,536.266849
22409.228158,888.247130,-10658.965565,4596.572988
22409.228491,1036.288319,-5107.421000,-689.485948
22409.228824,-1184.329507,-12213.398043,459.657299
22409.229157,-74.020594,-9474.636058,-2528.115143
22409.229490,-8290.306550,-13101.645173,-3677.258390
22409.229823,-1850.514855,-8882.471304,-1302.362347
22409.230156,-2442.679609,-11843.295072,-2987.772442
22409.230489,0.000000,-8364.327145,3370.820191
22409.230822,1702.473667,-7105.977043,2681.334243
22409.231155,3404.947333,-4589.276840,5286.058936
22409.231488,1850.514855,-6439.791695,2528.115143
22409.231821,2738.761985,-10288.862594,1455.581446
22409.232154,4663.297435,-9326.594869,3447.429741
22409.232487,666.185348,-7846.182985,-2221.676944
22409.232820,74.020594,-14063.912898,-2528.115143
22409.233154,-1110.308913,-9104.533087,-1608.800546
22409.233487,-5921.647536,-13101.645173,-3677.258390
22409.233820,-1850.514855,-7994.224174,-5439.278036
22409.234153,-2960.823768,-11917.315666,-4903.011187
22409.234486,-2960.823768,-13693.809927,3294.210641
22409.234819,5255.462188,-3552.988522,7048.078582
22409.235152,0.000000,-4219.173869,4903.011187
22409.235485,3923.091493,-5181.441594,4596.572988
22409.235818,4219.173869,-6069.688724,2528.115143
22409.236151,4663.297435,-9992.780217,3753.867940
22409.236484,3478.967927,-10658.965565,-76.609550
22409.236817,2294.638420,-11843.295072,-2528.115143
22409.237150,-3552.988522,-12805.562797,-4290.134789
22409.237483,0.000000,-10732.986159,-1762.019645
22409.237816,-1258.350101,-13915.871710,-1915.238745
22409.238150,-2960.823768,-7476.080014,-3524.039291
22409.238483,-2886.803174,-10510.924376,1072.533697
22409.238816,-2368.659014,-5995.668130,-919.314598
22409.239149,3552.988522,-7328.038826,5898.935335
22409.239482,3034.844362,-7105.977043,5898.935335
22409.239815,5847.626942,-6217.729913,842.705048
22409.240148,5329.482782,-6439.791695,7890.783629
22409.240481,5255.462188,-7105.977043,842.705048
22409.240814,6143.709319,-5995.668130,0.000000
22409.241147,-74.020594,-15988.448347,-2528.115143
22409.241480,-592.164754,-9992.780217,-8963.317327
22409.241813,-6439.791695,-17246.798449,-5822.325785
22409.242146,-2442.679609,-13249.686362,-3447.429741
22409.242479,-4145.153275,-8512.368333,306.438199
22409.242812,-4959.379811,-8660.409521,0.000000
22409.243146,2368.659014,-4811.338623,7277.907231
22409.243479,-1258.350101,-7105.977043,5286.058936
22409.243812,6217.729913,-74.020594,7354.516781
22409.244145,-2368.659014,-7179.997637,4903.011187
22409.244478,2442.679609,-5329.482782,2528.115143
22409.244811,1850.514855,-7105.977043,-76.609550
22409.245144,518.144159,-13619.789333,-6358.592633
22409.245477,-1850.514855,-17172.777854,-4060.306139
22409.245810,-5921.647536,-13101.645173,-4979.620737
22409.246143,-1258.350101,-15100.201217,-5898.935335
22409.246476,-2442.679609,-10140.821405,-2451.505594
22409.246809,1110.308913,-9474.636058,-76.609550
22409.247142,0.000000,-6587.832884,4903.011187
22409.247475,3627.009116,-4811.338623,6894.859482
22409.247808,2368.659014,-6883.915261,8350.440928
22409.248142,4293.194464,-4367.215058,8963.317327
22409.248475,2294.638420,-5625.565159,2374.896044
22409.248808,-1776.494261,-9548.656652,1302.362347
22409.249141,-2146.597232,-7550.100608,-2528.115143
22409.249474,-4293.194464,-9992.780217,-5669.106685
22409.249807,-3701.029710,-10510.924376,-9806.022374
22409.250140,-1554.432478,-17764.942608,-6205.373534
22409.250473,-2368.659014,-11917.315666,-4290.134789
22409.250806,1850.514855,-10362.883188,2987.772442
22409.251139,3478.967927,-10066.800811,919.314598
22409.251472,3552.988522,-4811.338623,6741.640382
22409.251805,4663.297435,-9474.636058,6358.592633
22409.252138,6217.729913,-5551.544565,7660.954980
22409.252471,3701.029710,-5847.626942,4443.353888
22409.252804,-962.267725,-12361.439231,3064.381992
22409.253138,666.185348,-3923.091493,-1915.238745
22409.253471,-2368.659014,-11769.274478,-1915.238745
22409.253804,2294.638420,-10658.965565,-2528.115143
22409.254137,-3627.009116,-7772.162391,-4596.572988
22409.254470,-3552.988522,-12361.439231,-3983.696590
22409.254803,-2146.597232,-10140.821405,-3830.477490
22409.255136,-1036.288319,-9252.574275,1838.629195
22409.255469,3034.844362,-5699.585753,2604.724693
22409.255802,2590.720797,-7994.224174,2298.286494
22409.256135,1184.329507,-11917.315666,3064.381992
22409.256468,6069.688724,-8290.306550,4826.401637
22409.256801,2886.803174,-9548.656652,3983.696590
22409.257134,1258.350101,-7179.997637,0.000000
22409.257467,-1850.514855,-14211.954086,-2528.115143
22409.257800,-2368.659014,-11029.068536,995.924147
22409.258134,2738.761985,-6809.894666,-1149.143247
22409.258467,-1258.350101,-10436.903782,1838.629195
22409.258800,-1184.329507,-5847.626942,-1838.629195
22409.259133,-222.061783,-8586.388927,2068.457845
22409.259466,-2738.761985,-10658.965565,-76.609550
22409.259799,0.000000,-5995.668130,1608.800546
22409.260132,-666.185348,-9178.553681,1225.752797
22409.260465,1184.329507,-2738.761985,0.000000
22409.260798,1184.329507,-11029.068536,3600.648841
22409.261131,0.000000,-9326.594869,-2145.067394
22409.261464,-296.082377,-10140.821405,-1991.848295
22409.261797,-2220.617826,-14952.160028,-2528.115143
22409.262130,2886.803174,-11251.130318,4213.525239
22409.262463,1110.308913,-9622.677246,2451.505594
22409.262796,2664.741391,-7846.182985,3600.648841
22409.263130,740.205942,-5921.647536,1608.800546
22409.263463,296.082377,-7772.162391,2451.505594
22409.263796,592.164754,-4219.173869,3370.820191
22409.264129,3034.844362,-8290.306550,2374.896044
22409.264462,-1924.535449,-9474.636058,-3753.867940
22409.264795,-6513.812290,-9696.697840,-306.438199
22409.265128,-518.144159,-8512.368333,-2681.334243
22409.265461,296.082377,-11325.150913,-689.485948
22409.265794,-370.102971,-10288.862594,2145.067394
22409.266127,-4959.379811,-10658.965565,-3830.477490
22409.266460,-5921.647536,-11843.295072,-306.438199
22409.266793,-1258.350101,-6735.874072,-2145.067394
22409.267126,2294.638420,-8290.306550,536.266849
22409.267459,2664.741391,-7328.038826,7814.174080
22409.267792,4737.318029,-7179.997637,2911.162892
22409.268126,2368.659014,-11103.089130,4290.134789
22409.268459,7031.956449,-6513.812290,4826.401637
22409.268792,4737.318029,-8956.491898,3524.039291
22409.269125,2368.659014,-11843.295072,842.705048
22409.269458,-1406.391290,-12435.459826,-5286.058936
22409.269791,-4737.318029,-11029.068536,-3370.820191
22409.270124,-3627.009116,-10066.800811,-5286.058936
22409.270457,-4441.235652,-8512.368333,-1225.752797
22409.270790,-1998.556043,-9474.636058,1762.019645
22409.271123,-2442.679609,-4737.318029,-76.609550
22409.271456,1406.391290,-4885.359217,1532.190996
22409.271789,1924.535449,-9548.656652,5286.058936
22409.272122,5107.421000,-6217.729913,2987.772442
22409.272455,5847.626942,-8882.471304,1762.019645
22409.272788,2886.803174,-15396.283594,7277.907231
22409.273122,5329.482782,-4811.338623,689.485948
22409.273455,2294.638420,-18949.272115,2374.896044
22409.273788,962.267725,-5995.668130,-6741.640382
22409.274121,-4737.318029,-12509.480420,-4903.011187
22409.274454,-2590.720797,-9622.677246,-2681.334243
22409.274787,2220.617826,-7550.100608,-459.657299
22409.275120,-3701.029710,-10436.903782,459.657299
22409.275453,1332.370696,-4071.132681,3830.477490
22409.275786,1998.556043,-4219.173869,1072.533697
22409.276119,3849.070898,-7772.162391,4136.915689
22409.276452,2294.638420,-10955.047942,6665.030833
22409.276785,-666.185348,-5107.421000,-4290.134789
22409.277118,-2960.823768,-10732.986159,0.000000
22409.277451,370.102971,-10955.047942,-4903.011187
22409.277784,-1776.494261,-12509.480420,-3830.477490
22409.278118,-2516.700203,-10881.027347,-1685.410096
22409.278451,-518.144159,-10881.027347,-4903.011187
22409.278784,-1258.350101,-9918.759623,689.485948
22409.279117,2886.803174,-7254.018232,2528.115143
22409.279450,5329.482782,-4885.359217,6818.249932
22409.279783,1702.473667,-7402.059420,5669.106685
22409.280116,2738.761985,-6291.750507,3294.210641
22409.280449,3182.885551,-7550.100608,2451.505594
22409.280782,0.000000,-9548.656652,0.000000
22409.281115,-888.247130,-11695.253884,-1302.362347
22409.281448,-5403.503377,-11251.130318,-5056.230287
22409.281781,-5773.606348,-9844.739029,-3677.258390
22409.282114,-4737.318029,-10732.986159,-5822.325785
22409.282447,-3404.947333,-14137.933492,-1378.971896
22409.282780,-3330.926739,-9474.636058,-2834.553343
22409.283113,1998.556043,-8882.471304,-76.609550
22409.283447,3478.967927,-6661.853478,7048.078582
22409.283780,7105.977043,-2072.576638,6971.469032
22409.284113,6439.791695,-11843.295072,9729.412825
22409.284446,4367.215058,-4663.297435,919.314598
22409.284779,3923.091493,-10436.903782,3294.210641
22409.285112,0.000000,-11029.068536,919.314598
22409.285445,1554.432478,-9918.759623,-4979.620737
22409.285778,-6587.832884,-15100.201217,-7814.174080
22409.286111,-4737.318029,-11325.150913,-5898.935335
22409.286444,-3182.885551,-9252.574275,-7354.516781
22409.286777,-2220.617826,-12731.542202,-76.609550
22409.287110,1554.432478,-4515.256246,3064.381992
22409.287443,-1258.350101,-3627.009116,1225.752797
22409.287776,4737.318029,-3627.009116,7277.907231
22409.288109,5329.482782,-5033.400406,6511.811733
22409.288443,5847.626942,-9622.677246,6358.592633
22409.288776,4441.235652,-4293.194464,3753.867940
22409.289109,-74.020594,-11177.109724,-2068.457845
22409.289442,-2368.659014,-10140.821405,-7354.516781
22409.289775,-666.185348,-17764.942608,-6511.811733
22409.290108,-74.020594,-15470.304188,-5209.449386
22409.290441,-2960.823768,-11917.315666,-2451.505594
22409.290774,-2960.823768,-9992.780217,-1225.752797
22409.291107,-4367.215058,-11547.212695,919.314598
22409.291440,1998.556043,-4737.318029,8350.440928
22409.291773,3849.070898,-2220.617826,7890.783629
22409.292106,4071.132681,-2960.823768,6741.640382
22409.292439,5921.647536,-6513.812290,6665.030833
22409.292772,1406.391290,-5107.421000,4290.134789
22409.293105,592.164754,-2738.761985,-1838.629195
22409.293438,-814.226536,-13619.789333,-6818.249932
22409.293771,-1258.350101,-15396.283594,-10418.898773
22409.294104,-4811.338623,-18949.272115,-8656.879127
22409.294437,-2442.679609,-14285.974681,-8120.612279
22409.294770,-3627.009116,-13915.871710,-2145.067394
22409.295103,2368.659014,-7402.059420,842.705048
22409.295436,3775.050304,-11103.089130,8197.221829
22409.295769,4737.318029,-4219.173869,9729.412825
22409.296102,4959.379811,-3923.091493,8810.098227
22409.296435,3108.864956,-4589.276840,7354.516781
22409.296768,2886.803174,-3849.070898,2834.553343
22409.297101,592.164754,-9030.512492,3064.381992
22409.297434,-370.102971,-11251.130318,-4366.744339
22409.297767,-4737.318029,-9548.656652,-8580.269578
22409.298100,-3849.070898,-14582.057057,-6741.640382
22409.298433,-3034.844362,-10658.965565,-5898.935335
22409.298766,-4737.318029,-10807.006753,-7277.907231
22409.299099,-3108.864956,-12361.439231,-1378.971896
22409.299432,2294.638420,-8882.471304,3983.696590
22409.299765,2368.659014,-4811.338623,8580.269578
22409.300098,7031.956449,-4737.318029,8503.660028
22409.300431,-4219.173869,-8882.471304,1762.019645
22409.300764,1184.329507,-4811.338623,7354.516781
22409.301097,3478.967927,-14211.954086,2374.896044
22409.301430,7254.018232,-3627.009116,1838.629195
22409.301763,-3552.988522,-14656.077652,-2681.334243
22409.302096,-814.226536,-9326.594869,-5822.325785
22409.302429,-2664.741391,-12213.398043,-5439.278036
22409.302762,-1776.494261,-15914.427753,-2987.772442
22409.303095,5847.626942,-9474.636058,-689.485948
22409.303428,-5625.565159,-7772.162391,0.000000
22409.303761,592.164754,-8364.327145,5745.716235
22409.304094,1702.473667,-7994.224174,7201.297681
22409.304427,4885.359217,-4589.276840,10342.289223
22409.304760,1924.535449,-3627.009116,6128.763984
22409.305093,666.185348,-9252.574275,-1608.800546
22409.305426,-1110.308913,-10658.965565,-842.705048
22409.305759,-2442.679609,-10066.800811,-3140.991542
22409.306092,0.000000,-7179.997637,-7354.516781
22409.306425,-2960.823768,-13989.892304,-2528.115143
22409.306758,2146.597232,-12287.418637,-689.485948
22409.307091,3478.967927,-8364.327145,-2987.772442
22409.307424,5329.482782,-11695.253884,1762.019645
22409.307757,1850.514855,-10140.821405,4136.915689
22409.308090,4219.173869,-6587.832884,3294.210641
22409.308423,3997.112087,-8956.491898,7048.078582
22409.308756,1110.308913,-8586.388927,1302.362347
22409.309089,518.144159,-6439.791695,2681.334243
22409.309422,-2590.720797,-8142.265362,-1915.238745
22409.309755,-2664.741391,-10955.047942,-2681.334243
22409.310087,-2960.823768,-9252.574275,-1838.629195
22409.310420,-2368.659014,-9548.656652,-76.609550
22409.310753,-74.020594,-5329.482782,-4673.182538
22409.311086,-2368.659014,-10140.821405,-3370.820191
22409.311419,0.000000,-9252.574275,1685.410096
22409.311752,2368.659014,-8364.327145,3983.696590
22409.312085,1332.370696,-10214.842000,1608.800546
22409.312418,2516.700203,-11991.336260,2834.553343
22409.312751,2590.720797,-8216.285956,1225.752797
22409.313084,3478.967927,-11843.295072,5439.278036
22409.313417,0.000000,-7179.997637,1608.800546
22409.313750,-2442.679609,-10881.027347,-3677.258390
22409.314083,-4737.318029,-12509.480420,-76.609550
22409.314416,-4737.318029,-10288.862594,1149.143247
22409.314749,-74.020594,-6513.812290,1608.800546
22409.315082,0.000000,-4737.318029,4826.401637
22409.315415,1406.391290,-6661.853478,3753.867940
22409.315748,1850.514855,-5995.668130,4749.792088
22409.316081,-3552.988522,-8216.285956,-1302.362347
22409.316414,-74.020594,-9252.574275,-4366.744339
22409.316747,-5921.647536,-13101.645173,-4903.011187
22409.317080,-1184.329507,-11473.192101,-1762.019645
22409.317413,-962.267725,-11917.315666,-2298.286494
22409.317746,-4737.318029,-9548.656652,-3370.820191
22409.318079,2886.803174,-9474.636058,1302.362347
22409.318412,740.205942,-7179.997637,5439.278036
22409.318745,12287.418637,-3182.885551,4826.401637
22409.319078,1332.370696,-12805.562797,4290.134789
22409.319411,2886.803174,-7105.977043,1149.143247
22409.319744,5329.482782,-7105.977043,1762.019645
22409.320077,5255.462188,-13027.624579,2374.896044
22409.320410,3256.906145,-6587.832884,-2451.505594
22409.320743,2368.659014,-11325.150913,0.000000
22409.321076,-2886.803174,-11325.150913,-6435.202183
22409.321409,1554.432478,-12953.603985,-3217.601092
22409.321742,518.144159,-11399.171507,612.876398
22409.322075,1554.432478,-8882.471304,1608.800546
22409.322408,-2368.659014,-4811.338623,0.000000
22409.322741,-962.267725,-11843.295072,-76.609550
22409.323074,444.123565,-6587.832884,3064.381992
22409.323407,0.000000,-3627.009116,5439.278036
22409.323740,4663.297435,-7994.224174,1608.800546
22409.324073,592.164754,-9548.656652,2757.943793
22409.324406,1110.308913,-10362.883188,-1838.629195
22409.324739,5847.626942,-10658.965565,1991.848295
22409.325072,2960.823768,-9474.636058,76.609550
22409.325405,-1184.329507,-9548.656652,0.000000
22409.325738,-666.185348,-10584.944971,-6205.373534
22409.326071,-2072.576638,-16284.530724,-1915.238745
22409.326404,-4145.153275,-12435.459826,-2451.505594
22409.326737,-4811.338623,-10510.924376,-2834.553343
22409.327070,-5699.585753,-8068.244768,0.000000
22409.327403,888.247130,-6809.894666,9116.536426
22409.327736,2886.803174,-1184.329507,7354.516781
22409.328069,1776.494261,-2220.617826,7967.393179
22409.328402,-1258.350101,-7550.100608,2987.772442
22409.328735,-1480.411884,-10140.821405,0.000000
22409.329068,370.102971,-8882.471304,2068.457845
22409.329401,-740.205942,-7994.224174,-1991.848295
22409.329734,-3552.988522,-8660.409521,-9499.584175
22409.330067,-7772.162391,-12213.398043,-9806.022374
22409.330400,-1258.350101,-14211.954086,-7431.126331
22409.330733,-1850.514855,-15988.448347,-2528.115143
22409.331066,1776.494261,-8660.409521,2757.943793
22409.331399,-1406.391290,-11843.295072,3600.648841
22409.331732,4737.318029,-5477.523971,11184.994271
22409.332065,5181.441594,-3627.009116,9576.193725
22409.332398,5921.647536,-2960.823768,9806.022374
22409.332731,5033.400406,-6439.791695,3983.696590
22409.333064,2072.576638,-5403.503377,1532.190996
22409.333397,-1258.350101,-11843.295072,-4979.620737
22409.333730,-3552.988522,-11029.068536,-7354.516781
22409.334063,-6217.729913,-14063.912898,-8044.002729
22409.334396,-7402.059420,-11917.315666,-11031.775171
22409.334729,-962.267725,-12213.398043,-4060.306139
22409.335062,-222.061783,-9030.512492,383.047749
22409.335395,814.226536,-7994.224174,1149.143247
22409.335728,1702.473667,-5921.647536,2374.896044
22409.336061,5921.647536,-7772.162391,10265.679673
22409.336394,5847.626942,-5921.647536,7584.345430
22409.336727,7105.977043,-7179.997637,9193.145976
22409.337060,3478.967927,-11547.212695,4213.525239
22409.337393,4663.297435,-4737.318029,-2834.553343
22409.337726,1702.473667,-14063.912898,-3983.696590
22409.338058,4663.297435,-14804.118840,995.924147
22409.338391,-370.102971,-10362.883188,-4366.744339
22409.338724,-6513.812290,-12509.480420,-6128.763984
22409.339057,-5403.503377,-13027.624579,-7431.126331
22409.339390,-3552.988522,-7179.997637,306.438199
22409.339723,2886.803174,-10362.883188,8197.221829
22409.340056,3775.050304,-1554.432478,5209.449386
22409.340389,-2442.679609,-7698.141797,5898.935335
22409.340722,-1554.432478,-5699.585753,3447.429741
22409.341055,2960.823768,-4737.318029,5132.839837
22409.341388,3256.906145,-5255.462188,1991.848295
22409.341721,1184.329507,-10732.986159,-2451.505594
22409.342054,2146.597232,-10658.965565,-6511.811733
22409.342387,-1184.329507,-14137.933492,-3524.039291
22409.342720,148.041188,-11029.068536,-5362.668486
22409.343053,-444.123565,-15766.386565,-2374.896044
22409.343386,-5625.565159,-11325.150913,-3677.258390
22409.343719,4071.132681,-8882.471304,3600.648841
22409.344052,-666.185348,-7031.956449,4903.011187
22409.344385,1776.494261,-3034.844362,6052.154434
22409.344718,-74.020594,-11843.295072,8503.660028
22409.345051,1110.308913,-2442.679609,6128.763984
22409.345384,740.205942,-4737.318029,4519.963438
22409.345717,2812.782580,-4811.338623,1838.629195
22409.346050,-6587.832884,-15618.345376,-3217.601092
22409.346383,-4737.318029,-6883.915261,-9039.926876
22409.346716,-3627.009116,-13915.871710,-7814.174080
22409.347049,-5921.647536,-14285.974681,-4903.011187
22409.347382,1184.329507,-8808.450710,-76.609550
22409.347715,-5995.668130,-14211.954086,536.266849
22409.348048,5921.647536,-2590.720797,4136.915689
22409.348381,1702.473667,-10881.027347,4979.620737
22409.348714,10732.986159,-6735.874072,12487.356617
22409.349047,3108.864956,-4219.173869,5822.325785
22409.349380,3478.967927,-8882.471304,2987.772442
22409.349713,-2442.679609,-10362.883188,-5286.058936
22409.350046,-3552.988522,-9548.656652,-3907.087040
22409.350379,-1258.350101,-15396.283594,-2528.115143
22409.350712,-4589.276840,-7772.162391,-6128.763984
22409.351045,-74.020594,-11843.295072,-3753.867940
22409.351378,-3849.070898,-9992.780217,1149.143247
22409.351711,1036.288319,-6735.874072,766.095498
22409.352044,518.144159,-8734.430116,2757.943793
22409.352377,5625.565159,-4219.173869,6128.763984
22409.352710,7105.977043,-7476.080014,1225.752797
22409.353043,5329.482782,-12805.562797,8503.660028
22409.353376,6735.874072,-5625.565159,-842.705048
22409.353709,-518.144159,-13397.727550,0.000000
22409.354042,1702.473667,-11547.212695,-3753.867940
22409.354375,-4219.173869,-13249.686362,-4826.401637
22409.354708,-2368.659014,-11843.295072,-2604.724693
22409.355041,-2516.700203,-8142.265362,-306.438199
22409.355374,-2960.823768,-7328.038826,919.314598
22409.355707,-2368.659014,-5551.544565,6435.202183
22409.356040,3701.029710,-296.082377,6665.030833
22409.356373,5181.441594,-7105.977043,6665.030833
22409.356706,3182.885551,-11251.130318,6665.030833
22409.357039,5847.626942,-4737.318029,-76.609550
22409.357372,-3034.844362,-10732.986159,-6128.763984
22409.357705,4737.318029,-12213.398043,-919.314598
22409.358038,-4515.256246,-16580.613101,-4366.744339
22409.358371,-1924.535449,-14211.954086,-3753.867940
22409.358704,-1036.288319,-8290.306550,-5439.278036
22409.359037,-4737.318029,-17690.922014,229.828649
22409.359370,8216.285956,-6439.791695,7967.393179
22409.359703,4219.173869,-4145.153275,9806.022374
22409.360036,4737.318029,-1554.432478,6281.983084
22409.360369,0.000000,-4811.338623,4903.011187
22409.360702,1110.308913,-11251.130318,-689.485948
22409.361035,-740.205942,-10362.883188,-1302.362347
22409.361368,-1406.391290,-7105.977043,-3140.991542
22409.361701,-1850.514855,-12435.459826,-6818.249932
22409.362034,-5033.400406,-13915.871710,-3217.601092
22409.362367,-4663.297435,-9104.533087,-4519.963438
22409.362700,-2812.782580,-11029.068536,1378.971896
22409.363033,2294.638420,-4737.318029,1149.143247
22409.363366,2368.659014,-10140.821405,2451.505594
22409.363699,740.205942,-14211.954086,9729.412825
22409.364032,3775.050304,-74.020594,1532.190996
22409.364365,0.000000,-11917.315666,7048.078582
22409.364698,3182.885551,-5995.668130,0.000000
22409.365031,2590.720797,-7105.977043,383.047749
22409.365364,-3923.091493,-12361.439231,-3753.867940
22409.365696,-74.020594,-10214.842000,-4519.963438
22409.366029,-6661.853478,-12509.480420,-4903.011187
22409.366362,-1628.453072,-13027.624579,-1302.362347
22409.366695,-74.020594,-5921.647536,-689.485948
22409.367028,-5921.647536,-11917.315666,-612.876398
22409.367361,2886.803174,-9474.636058,4826.401637
22409.367694,0.000000,-4515.256246,2451.505594
22409.368027,2368.659014,-7772.162391,2145.067394
22409.368360,5181.441594,-7698.141797,5132.839837
22409.368693,1850.514855,-7476.080014,1991.848295
22409.369026,2368.659014,-10436.903782,3370.820191
22409.369359,2294.638420,-7698.141797,-4979.620737
22409.369692,1184.329507,-14285.974681,-4136.915689
22409.370025,-3552.988522,-14878.139434,1838.629195
22409.370358,5847.626942,-7105.977043,-76.609550
22409.370691,-2960.823768,-11769.274478,-76.609550
22409.371024,1184.329507,-7031.956449,1532.190996
22409.371357,-3701.029710,-7994.224174,-536.266849
22409.371690,0.000000,-8512.368333,4060.306139
22409.372023,2960.823768,-2738.761985,3140.991542
22409.372356,0.000000,-8734.430116,842.705048
22409.372689,3478.967927,-8290.306550,1302.362347
22409.373022,1776.494261,-9252.574275,842.705048
22409.373355,2294.638420,-11251.130318,-2757.943793
22409.373688,592.164754,-11917.315666,4903.011187
22409.374021,-666.185348,-11251.130318,-1302.362347
22409.374354,-2442.679609,-12139.377449,-6435.202183
22409.374687,0.000000,-10510.924376,-153.219100
22409.375020,1110.308913,-8290.306550,-1608.800546
22409.375353,1332.370696,-8956.491898,3370.820191
22409.375686,1554.432478,-8142.265362,4443.353888
22409.376019,1924.535449,-5625.565159,2221.676944
22409.376352,1184.329507,-6291.750507,3064.381992
22409.376685,2368.659014,-5403.503377,1225.752797
22409.377018,1702.473667,-12435.459826,-1762.019645
22409.377351,3552.988522,-6587.832884,1225.752797
22409.377684,-1554.432478,-15100.201217,-2834.553343
22409.378017,-3404.947333,-11325.150913,-4903.011187
22409.378350,-4441.235652,-11325.150913,-3064.381992
22409.378683,-3182.885551,-9474.636058,-3140.991542
22409.379016,-1480.411884,-7624.121203,153.219100
22409.379349,-1258.350101,-11547.212695,3600.648841
22409.379682,-1776.494261,-5107.421000,6052.154434
22409.380015,-74.020594,-3627.009116,1532.190996
22409.380348,3552.988522,-7550.100608,7507.735880
22409.380681,3478.967927,-10658.965565,6052.154434
22409.381014,1998.556043,-9252.574275,919.314598
22409.381347,814.226536,-9770.718434,-1685.410096
22409.381680,814.226536,-10955.047942,-229.828649
22409.382013,2368.659014,-12287.418637,-1302.362347
22409.382346,0.000000,-9548.656652,-1838.629195
22409.382679,-3182.885551,-11547.212695,-4979.620737
22409.383012,-4737.318029,-8364.327145,-5669.106685
22409.383345,-6513.812290,-11917.315666,-2681.334243
22409.383678,2294.638420,-6809.894666,2374.896044
22409.384011,-74.020594,-9030.512492,3447.429741
22409.384344,2368.659014,-3627.009116,5439.278036
22409.384677,814.226536,-7105.977043,4903.011187
22409.385010,3478.967927,-8290.306550,6894.859482
22409.385343,7105.977043,-3775.050304,3677.258390
22409.385676,-74.020594,-10362.883188,-3217.601092
22409.386009,2960.823768,-9548.656652,-2681.334243
22409.386342,-74.020594,-15988.448347,-3753.867940
22409.386675,-1924.535449,-14285.974681,0.000000
22409.387008,592.164754,-3552.988522,-4673.182538
22409.387341,-2072.576638,-13841.851115,0.000000
22409.387674,2146.597232,-6883.915261,-1608.800546
22409.388007,2590.720797,-8290.306550,1762.019645
22409.388340,592.164754,-10436.903782,5209.449386
22409.388673,4663.297435,-1406.391290,3677.258390
22409.389006,296.082377,-10436.903782,4060.306139
22409.389339,5773.606348,-8290.306550,3524.039291
22409.389672,74.020594,-9400.615463,766.095498
22409.390005,-3256.906145,-7476.080014,-4903.011187
22409.390338,-2738.761985,-12731.542202,-4749.792088
22409.390671,-8290.306550,-10732.986159,-4290.134789
22409.391004,3330.926739,-8882.471304,-2528.115143
22409.391337,-1406.391290,-11251.130318,2374.896044
22409.391667,-2960.823768,-5403.503377,612.876398
22409.392000,-2368.659014,-9104.533087,2298.286494
22409.392333,4145.153275,-5699.585753,3524.039291
22409.392666,4589.276840,-11473.192101,3907.087040
22409.392999,4663.297435,-13027.624579,4826.401637
22409.393331,-2590.720797,-11029.068536,306.438199
22409.393664,1258.350101,-7624.121203,4290.134789
22409.393997,-74.020594,-10658.965565,-76.609550
22409.394330,666.185348,-8364.327145,306.438199
22409.394663,-296.082377,-7105.977043,-1302.362347
22409.394996,-8290.306550,-11029.068536,-2451.505594
22409.395329,-1850.514855,-9696.697840,-2374.896044
22409.395661,-5625.565159,-6809.894666,1455.581446
22409.395994,3034.844362,-1184.329507,536.266849
22409.396327,-2442.679609,-9548.656652,0.000000
22409.396660,6439.791695,-7994.224174,1762.019645
22409.396993,0.000000,-9770.718434,-995.924147
22409.397326,1332.370696,-8364.327145,1532.190996
22409.397659,3182.885551,-6513.812290,-2834.553343
22409.397992,1480.411884,-11917.315666,689.485948
22409.398324,5107.421000,-12805.562797,766.095498
22409.398657,888.247130,-10140.821405,5286.058936
22409.398990,1924.535449,-7772.162391,0.000000
22409.399323,-2072.576638,-11473.192101,4826.401637
22409.399656,-74.020594,-5625.565159,-2528.115143
22409.399989,296.082377,-6587.832884,306.438199
22409.400322,6217.729913,-6883.915261,9729.412825
22409.400655,1998.556043,-6513.812290,-2681.334243
22409.400987,-1332.370696,-11843.295072,995.924147
22409.401320,-2368.659014,-9548.656652,-2068.457845
22409.401653,-2294.638420,-13027.624579,-2528.115143
22409.401986,0.000000,-7179.997637,-3370.820191
22409.402319,-4811.338623,-15914.427753,-995.924147
22409.402652,-2738.761985,-9400.615463,-1149.143247
22409.402985,2220.617826,-4441.235652,1149.143247
22409.403318,1406.391290,-8882.471304,2681.334243
22409.403650,1332.370696,-7105.977043,4673.182538
22409.403983,1184.329507,-7179.997637,2451.505594
22409.404316,3552.988522,-14804.118840,4826.401637
22409.404649,3478.967927,-8290.306550,1149.143247
22409.404982,4663.297435,-9326.594869,-76.609550
22409.405315,4071.132681,-10362.883188,1149.143247
22409.405648,666.185348,-9252.574275,-306.438199
22409.405980,-962.267725,-10807.006753,-1378.971896
22409.406313,-5699.585753,-9844.739029,-4596.572988
22409.406646,-3404.947333,-12213.398043,-995.924147
22409.406979,-7105.977043,-7476.080014,1991.848295
22409.407312,-1850.514855,-7994.224174,-76.609550
22409.407645,-4145.153275,-4811.338623,-2451.505594
22409.407978,-1776.494261,-8956.491898,0.000000
22409.408311,2886.803174,-7105.977043,3447.429741
22409.408643,4219.173869,-8660.409521,0.000000
22409.408976,7105.977043,-12879.583391,4903.011187
22409.409309,4737.318029,-8068.244768,7737.564530
22409.409642,3034.844362,-7402.059420,229.828649
22409.409975,3478.967927,-11843.295072,3600.648841
22409.410308,-2442.679609,-9770.718434,-5822.325785
22409.410641,0.000000,-6587.832884,-2145.067394
22409.410974,-2664.741391,-10362.883188,-1378.971896
22409.411306,-4367.215058,-12213.398043,-2451.505594
22409.411639,-7476.080014,-7698.141797,-2987.772442
22409.411972,-4071.132681,-8438.347739,-76.609550
22409.412305,-1850.514855,-11843.295072,1762.019645
22409.412638,2368.659014,-3627.009116,3677.258390
22409.412971,2294.638420,-13027.624579,4213.525239
22409.413304,3552.988522,-74.020594,0.000000
22409.413637,0.000000,-10732.986159,4519.963438
22409.413969,5847.626942,-7105.977043,-2834.553343
22409.414302,2368.659014,-9844.739029,-76.609550
22409.414635,1850.514855,-13175.665768,-3524.039291
22409.414968,-1776.494261,-18653.189738,-5898.935335
22409.415301,-1850.514855,-9178.553681,-3447.429741
22409.415634,-1258.350101,-16580.613101,-842.705048
22409.415967,4663.297435,-4737.318029,2451.505594
22409.416299,-1776.494261,-7179.997637,6741.640382
22409.416632,1184.329507,-4515.256246,6665.030833
22409.416965,1110.308913,-7105.977043,5439.278036
22409.417298,296.082377,-4515.256246,4826.401637
22409.417631,5107.421000,-7402.059420,7277.907231
22409.417964,888.247130,-4811.338623,-2221.676944
22409.418297,814.226536,-11029.068536,-5515.887586
22409.418630,-6143.709319,-14508.036463,-9422.974625
22409.418962,2442.679609,-11547.212695,-6511.811733
22409.419295,-2664.741391,-15692.365970,-5975.544884
22409.419628,3849.070898,-14285.974681,-1455.581446
22409.419961,-2368.659014,-10140.821405,3677.258390
22409.420294,2368.659014,-8364.327145,5056.230287
22409.420627,9104.533087,-5181.441594,9422.974625
22409.420960,4145.153275,-4811.338623,9806.022374
22409.421293,7031.956449,-7105.977043,8197.221829
22409.421625,1258.350101,-5921.647536,2374.896044
22409.421958,0.000000,-11251.130318,-2068.457845
22409.422291,-3478.967927,-8290.306550,-4903.011187
22409.422624,-4293.194464,-11695.253884,-7660.954980
22409.422957,-5625.565159,-13989.892304,-6741.640382
22409.423290,-5921.647536,-9548.656652,-4979.620737
22409.423623,-4811.338623,-11769.274478,-3830.477490
22409.423956,-2960.823768,-5403.503377,-2757.943793
22409.424288,592.164754,-6587.832884,5515.887586
22409.424621,4737.318029,-5699.585753,7967.393179
22409.424954,5107.421000,-4589.276840,8810.098227
22409.425287,1036.288319,-8290.306550,5362.668486
22409.425620,518.144159,-8882.471304,-1149.143247
22409.425953,1110.308913,-6809.894666,-1608.800546
22409.426286,-1184.329507,-16728.654289,-76.609550
22409.426619,-1776.494261,-10732.986159,-4290.134789
22409.426951,-5921.647536,-13027.624579,-1915.238745
22409.427284,-3627.009116,-10658.965565,-6205.373534
22409.427617,518.144159,-10362.883188,1762.019645
22409.427950,-666.185348,-8364.327145,3600.648841
22409.428283,3701.029710,-4811.338623,4136.915689
22409.428616,2146.597232,-6661.853478,4826.401637
22409.428949,-3552.988522,-7772.162391,1532.190996
22409.429281,3478.967927,-4737.318029,2681.334243
22409.429614,2368.659014,-5403.503377,-2451.505594
22409.429947,1776.494261,-11251.130318,2374.896044
22409.430280,-4811.338623,-10436.903782,-7124.688131
22409.430613,-2368.659014,-10288.862594,-7354.516781
22409.430946,-7105.977043,-17098.757260,-3217.601092
22409.431279,3182.885551,-2368.659014,-1915.238745
22409.431612,-518.144159,-11695.253884,3064.381992
22409.431944,3478.967927,-8808.450710,7890.783629
22409.432277,2294.638420,-4811.338623,2451.505594
22409.432610,5107.421000,-11251.130318,6665.030833
22409.432943,5847.626942,-6513.812290,2374.896044
22409.433276,296.082377,-8660.409521,919.314598
22409.433609,4293.194464,-10436.903782,1455.581446
22409.433942,1184.329507,-7772.162391,-1532.190996
22409.434275,-518.144159,-9918.759623,-4903.011187
22409.434607,-4441.235652,-11917.315666,-5669.106685
22409.434940,-2442.679609,-14211.954086,-2528.115143
22409.435273,-2664.741391,-7179.997637,-2451.505594
22409.435606,1036.288319,-6883.915261,3370.820191
22409.435939,518.144159,-4367.215058,2987.772442
22409.436272,1702.473667,-9844.739029,6052.154434
22409.436605,5847.626942,-5921.647536,7890.783629
22409.436938,3478.967927,-6069.688724,2451.505594
22409.437270,0.000000,-5995.668130,1225.752797
22409.437603,2886.803174,-13619.789333,-1915.238745
22409.437936,-1776.494261,-13101.645173,-9499.584175
22409.438269,2664.741391,-15618.345376,3370.820191
22409.438602,-814.226536,-5699.585753,-3064.381992
22409.438935,666.185348,-9992.780217,-306.438199
22409.439268,-2072.576638,-7772.162391,1455.581446
22409.439600,-1850.514855,-14211.954086,-76.609550
22409.439933,-666.185348,-4811.338623,3677.258390
22409.440266,-74.020594,-8290.306550,3294.210641
22409.440599,2294.638420,-5921.647536,3600.648841
22409.440932,1184.329507,-2442.679609,7354.516781
22409.441265,2294.638420,-5329.482782,-689.485948
22409.441598,296.082377,-14211.954086,-689.485948
22409.441931,-3478.967927,-6883.915261,-5209.449386
22409.442263,-2368.659014,-10140.821405,-7967.393179
22409.442596,-1184.329507,-13101.645173,-4749.792088
22409.442929,-3552.988522,-12509.480420,2451.505594
22409.443262,1406.391290,-9474.636058,-1915.238745
22409.443595,1998.556043,-9474.636058,1149.143247
22409.443928,-2960.823768,-9844.739029,919.314598
22409.444261,3182.885551,-6735.874072,4903.011187
22409.444594,1850.514855,-5255.462188,5209.449386
22409.444926,3182.885551,-9326.594869,5592.497135
22409.445259,-1480.411884,-7772.162391,3064.381992
22409.445592,2886.803174,-9474.636058,2987.772442
22409.445925,-888.247130,-8586.388927,-689.485948
22409.446258,-1850.514855,-6735.874072,-3600.648841
22409.446591,-6513.812290,-12213.398043,-4213.525239
22409.446924,-74.020594,-9104.533087,-2528.115143
22409.447257,-2442.679609,-13027.624579,-2528.115143
22409.447589,-592.164754,-9844.739029,153.219100
22409.447922,1998.556043,-5403.503377,3064.381992
22409.448255,-1258.350101,-11843.295072,4826.401637
22409.448588,1776.494261,-4219.173869,612.876398
22409.448921,1702.473667,-9474.636058,-689.485948
22409.449254,5033.400406,-10881.027347,0.000000
22409.449587,4515.256246,-15396.283594,8503.660028
22409.449919,3775.050304,-5403.503377,2451.505594
22409.450252,2294.638420,-10436.903782,2221.676944
22409.450585,-1332.370696,-9104.533087,-995.924147
22409.450918,-1332.370696,-9696.697840,-5286.058936
22409.451251,-592.164754,-10881.027347,1072.533697
22409.451584,-2220.617826,-6587.832884,-2911.162892
22409.451917,-4811.338623,-8068.244768,-4213.525239
22409.452250,-2368.659014,-10658.965565,1915.238745
22409.452582,2294.638420,-3849.070898,1915.238745
22409.452915,2812.782580,-6883.915261,2911.162892
22409.453248,0.000000,-5403.503377,2068.457845
22409.453581,-74.020594,-13619.789333,2374.896044
22409.453914,-74.020594,-6143.709319,-1838.629195
22409.454247,1184.329507,-11325.150913,1225.752797
22409.454580,1332.370696,-13619.789333,2298.286494
22409.454913,-1184.329507,-8364.327145,1685.410096
22409.455245,-518.144159,-7698.141797,-5822.325785
22409.455578,3478.967927,-13175.665768,-2604.724693
22409.455911,814.226536,-14063.912898,2604.724693
22409.456244,4145.153275,-8364.327145,2451.505594
22409.456577,3478.967927,-9918.759623,2451.505594
22409.456910,5847.626942,-2442.679609,2451.505594
22409.457243,-592.164754,-8882.471304,1762.019645
22409.457576,4663.297435,-3404.947333,-1608.800546
22409.457908,-1776.494261,-12731.542202,-76.609550
22409.458241,-1184.329507,-11843.295072,-1072.533697
22409.458574,-3330.926739,-9844.739029,-612.876398
22409.458907,-7105.977043,-10288.862594,-4903.011187
22409.459240,-74.020594,-8882.471304,-2528.115143
22409.459573,-5107.421000,-8364.327145,0.000000
22409.459906,-592.164754,-7846.182985,0.000000
22409.460239,1110.308913,-8882.471304,3600.648841
22409.460571,0.000000,-5403.503377,2451.505594
22409.460904,3775.050304,-7402.059420,2374.896044
22409.461237,6439.791695,-8660.409521,5592.497135
22409.461570,6439.791695,-7920.203579,2145.067394
22409.461903,2294.638420,-14063.912898,842.705048
22409.462236,1702.473667,-9548.656652,-5592.497135
22409.462569,-8882.471304,-19615.457463,-7967.393179
22409.462901,518.144159,-15396.283594,-76.609550
22409.463234,-2442.679609,-8290.306550,-3753.867940
22409.463567,-2368.659014,-9548.656652,4903.011187
22409.463900,-1850.514855,-4737.318029,3447.429741
22409.464233,-74.020594,-2368.659014,2681.334243
22409.464566,2146.597232,-5477.523971,7814.174080
22409.464899,1702.473667,-3108.864956,1838.629195
22409.465232,296.082377,-7402.059420,1762.019645
22409.465564,-1776.494261,-6513.812290,-76.609550
22409.465897,-444.123565,-7402.059420,-7431.126331
22409.466230,-5477.523971,-16432.571912,-5592.497135
22409.466563,592.164754,-11399.171507,-5209.449386
22409.466896,-2146.597232,-16580.613101,-5286.058936
22409.467229,0.000000,-14285.974681,1225.752797
22409.467562,0.000000,-8364.327145,3983.696590
22409.467895,4663.297435,-9474.636058,4213.525239
22409.468227,4145.153275,-7031.956449,9806.022374
22409.468560,4071.132681,-5921.647536,7277.907231
22409.468893,6883.915261,-7846.182985,9729.412825
22409.469226,3849.070898,-2812.782580,4673.182538
22409.469559,-666.185348,-8882.471304,-3753.867940
22409.469892,-1924.535449,-9474.636058,-3140.991542
22409.470225,-4737.318029,-11917.315666,-5209.449386
22409.470558,-2442.679609,-14211.954086,-7431.126331
22409.470890,-4219.173869,-12731.542202,-7354.516781
22409.471223,-6291.750507,-12731.542202,-6511.811733
22409.471556,-4367.215058,-7920.203579,-2911.162892
22409.471889,-74.020594,-7105.977043,1762.019645
22409.472222,1480.411884,-7550.100608,5592.497135
22409.472555,4737.318029,-3627.009116,9806.022374
22409.472888,4663.297435,-8290.306550,7277.907231
22409.473220,8290.306550,-6735.874072,8503.660028
22409.473553,3182.885551,-11843.295072,2834.553343
22409.473886,3552.988522,-7179.997637,612.876398
22409.474219,2368.659014,-11769.274478,-2145.067394
22409.474552,-1702.473667,-12287.418637,-4136.915689
22409.474885,-5107.421000,-12065.356855,-7660.954980
22409.475218,-4293.194464,-11399.171507,-4519.963438
22409.475551,-74.020594,-9474.636058,-689.485948
22409.475883,-4367.215058,-7772.162391,0.000000
22409.476216,-74.020594,-5921.647536,4213.525239
22409.476549,-1850.514855,-5921.647536,1762.019645
22409.476882,592.164754,-7772.162391,4290.134789
22409.477215,5033.400406,-6365.771101,7660.954980
22409.477548,1184.329507,-9252.574275,4673.182538
22409.477881,4219.173869,-7698.141797,-1915.238745
22409.478214,-444.123565,-13027.624579,-2528.115143
22409.478546,1702.473667,-13915.871710,-7201.297681
22409.478879,0.000000,-13101.645173,3140.991542
22409.479212,1702.473667,-11251.130318,-4749.792088
22409.479545,3849.070898,-5995.668130,612.876398
22409.479878,592.164754,-9400.615463,5439.278036
22409.480211,4071.132681,-7105.977043,1149.143247
22409.480544,-1628.453072,-8438.347739,3294.210641
22409.480877,-962.267725,-9474.636058,2374.896044
22409.481209,0.000000,-8734.430116,2374.896044
22409.481542,-814.226536,-9030.512492,1455.581446
22409.481875,0.000000,-9104.533087,1608.800546
22409.482208,-1480.411884,-6143.709319,-766.095498
22409.482541,-2368.659014,-9400.615463,-2528.115143
22409.482874,-1036.288319,-8290.306550,-1762.019645
22409.483207,-6291.750507,-10066.800811,-3753.867940
22409.483540,0.000000,-5995.668130,-306.438199
22409.483872,-2072.576638,-12435.459826,-1608.800546
22409.484205,5255.462188,-10658.965565,1225.752797
22409.484538,5477.523971,-6291.750507,9193.145976
22409.484871,3256.906145,-10066.800811,2987.772442
22409.485204,6809.894666,-8808.450710,5822.325785
22409.485537,-2590.720797,-14211.954086,842.705048
22409.485870,5921.647536,-7328.038826,1991.848295
22409.486202,-2368.659014,-8364.327145,1225.752797
22409.486535,1184.329507,-10140.821405,-995.924147
22409.486868,-2146.597232,-5403.503377,0.000000
22409.487201,-6661.853478,-5995.668130,-3064.381992
22409.487534,-1332.370696,-8882.471304,-3140.991542
22409.487867,-5995.668130,-8956.491898,-2451.505594
22409.488200,-222.061783,-8142.265362,-1302.362347
22409.488533,962.267725,-6957.935855,536.266849
22409.488865,1628.453072,-10288.862594,1532.190996
22409.489198,2664.741391,-9474.636058,-76.609550
22409.489531,4515.256246,-12435.459826,7277.907231
22409.489864,3775.050304,-9548.656652,612.876398
22409.490197,3256.906145,-11325.150913,3677.258390
22409.490530,2886.803174,-8882.471304,-76.609550
22409.490863,0.000000,-7179.997637,-1225.752797
22409.491196,518.144159,-8586.388927,306.438199
22409.491528,0.000000,-9252.574275,-153.219100
22409.491861,-1184.329507,-8882.471304,-766.095498
22409.492194,-5699.585753,-12435.459826,-1608.800546
22409.492527,-962.267725,-10066.800811,-1302.362347
22409.492860,2516.700203,-5699.585753,2451.505594
22409.493193,4219.173869,-7105.977043,5745.716235
22409.493526,4663.297435,-5921.647536,2068.457845
22409.493859,-2442.679609,-11843.295072,-76.609550
22409.494191,1184.329507,-9918.759623,-689.485948
22409.494524,-4145.153275,-12805.562797,-2451.505594
22409.494857,1036.288319,-8438.347739,-4060.306139
22409.495190,-4737.318029,-10732.986159,-919.314598
22409.495523,1702.473667,-1850.514855,-1838.629195
22409.495856,-74.020594,-13027.624579,6052.154434
22409.496189,3182.885551,-5921.647536,2374.896044
22409.496522,0.000000,-9548.656652,2757.943793
22409.496855,-1850.514855,-10658.965565,2374.896044
22409.497188,6661.853478,-8586.388927,3524.039291
22409.497521,-740.205942,-8216.285956,2911.162892
22409.497854,3775.050304,-7550.100608,-306.438199
22409.498187,-2960.823768,-10140.821405,0.000000
22409.498520,-1554.432478,-12065.356855,-3064.381992
22409.498853,1184.329507,-7476.080014,-536.266849
22409.499186,-1110.308913,-10214.842000,-2374.896044
22409.499519,-1702.473667,-8882.471304,-4060.306139
22409.499852,-2368.659014,-11029.068536,-3677.258390
22409.500185,-74.020594,-11843.295072,-76.609550
22409.500518,3997.112087,-6587.832884,6435.202183
22409.500851,4145.153275,-11103.089130,7890.783629
22409.501184,3478.967927,-7105.977043,6665.030833
22409.501517,0.000000,-7179.997637,536.266849
22409.501850,5033.400406,-7698.141797,3447.429741
22409.502183,888.247130,-7328.038826,919.314598
22409.502516,2368.659014,-8364.327145,-2298.286494
22409.502849,-4811.338623,-14211.954086,-3140.991542
22409.503182,-7550.100608,-8364.327145,-9193.145976
22409.503515,-5921.647536,-11917.315666,-919.314598
22409.503848,518.144159,-9474.636058,-76.609550
22409.504181,0.000000,-7476.080014,0.000000
22409.504514,-888.247130,-7994.224174,2374.896044
22409.504847,2960.823768,-8142.265362,3217.601092
22409.505180,1998.556043,-8660.409521,5592.497135
22409.505514,4441.235652,-7698.141797,2374.896044
22409.505847,5551.544565,-8290.306550,6358.592633
22409.506180,2368.659014,-7179.997637,4903.011187
22409.506513,3182.885551,-9474.636058,-689.485948
22409.506846,-666.185348,-9548.656652,-3677.258390
22409.507179,-3552.988522,-11843.295072,-4979.620737
22409.507512,-4959.379811,-12509.480420,-4903.011187
22409.507845,-2072.576638,-9474.636058,-4366.744339
22409.508178,-5921.647536,-10288.862594,306.438199
22409.508511,-296.082377,-5033.400406,1072.533697
22409.508844,296.082377,-5403.503377,4903.011187
22409.509177,2368.659014,-8660.409521,9422.974625
22409.509510,7624.121203,-5329.482782,7737.564530
22409.509843,2368.659014,-6291.750507,2451.505594
22409.510176,3108.864956,-13027.624579,-76.609550
22409.510509,814.226536,-9622.677246,-8580.269578
22409.510842,444.123565,-15692.365970,-5822.325785
22409.511175,-370.102971,-13841.851115,-1149.143247
22409.511508,74.020594,-10214.842000,-4213.525239
22409.511841,-2368.659014,-11325.150913,306.438199
22409.512174,-370.102971,-7402.059420,1149.143247
22409.512507,3404.947333,-4219.173869,5132.839837
22409.512840,4811.338623,-5329.482782,9269.755526
22409.513173,8216.285956,-5921.647536,8503.660028
22409.513506,-1258.350101,-9622.677246,1991.848295
22409.513839,0.000000,-10066.800811,-76.609550
22409.514172,-3923.091493,-13027.624579,-4979.620737
22409.514505,-1776.494261,-8660.409521,-4903.011187
22409.514838,1110.308913,-12731.542202,-1302.362347
22409.515171,-3034.844362,-8956.491898,-6435.202183
22409.515504,-3108.864956,-10732.986159,-3524.039291
22409.515837,-2664.741391,-9474.636058,-919.314598
22409.516170,0.000000,-5551.544565,1455.581446
22409.516503,3923.091493,-7624.121203,4366.744339
22409.516836,3849.070898,-6883.915261,9116.536426
22409.517169,4367.215058,-8734.430116,3907.087040
22409.517502,3923.091493,-8438.347739,3064.381992
22409.517835,0.000000,-7698.141797,1225.752797
22409.518168,2146.597232,-8808.450710,153.219100
22409.518501,-2812.782580,-12583.501014,-2374.896044
22409.518834,-3034.844362,-9400.615463,-6435.202183
22409.519167,-4737.318029,-12213.398043,-4749.792088
22409.519500,-2738.761985,-6661.853478,-5669.106685
22409.519833,1036.288319,-9474.636058,2068.457845
22409.520166,-1850.514855,-11251.130318,1608.800546
22409.520499,2368.659014,-4811.338623,2604.724693
22409.520832,-2368.659014,-8660.409521,5515.887586
22409.521165,5255.462188,-5625.565159,5745.716235
22409.521498,1924.535449,-8068.244768,2451.505594
22409.521831,4811.338623,-10288.862594,-1225.752797
22409.522164,3701.029710,-14211.954086,2374.896044
22409.522497,-2368.659014,-8364.327145,-1532.190996
22409.522830,-74.020594,-13915.871710,-6511.811733
22409.523163,-1702.473667,-7476.080014,-1838.629195
22409.523496,0.000000,-8438.347739,-2528.115143
22409.523829,3478.967927,-8882.471304,1149.143247
22409.524162,-962.267725,-10066.800811,-536.266849
22409.524495,-2738.761985,-11547.212695,766.095498
22409.524828,518.144159,-6439.791695,5286.058936
22409.525161,2146.597232,-7254.018232,2374.896044
22409.525494,6439.791695,-11843.295072,9729.412825
22409.525827,0.000000,-5995.668130,0.000000
22409.526160,2146.597232,-9474.636058,2604.724693
22409.526493,-74.020594,-11251.130318,-4366.744339
22409.526826,2294.638420,-8290.306550,-2834.553343
22409.527159,-74.020594,-9474.636058,-1302.362347
22409.527492,-2220.617826,-9474.636058,-1608.800546
22409.527825,-1036.288319,-9844.739029,-4519.963438
22409.528158,-2220.617826,-12213.398043,-1302.362347
22409.528491,2294.638420,-11843.295072,1762.019645
22409.528824,1850.514855,-10584.944971,6511.811733
22409.529157,3627.009116,-10214.842000,5898.935335
22409.529490,2886.803174,-8660.409521,4903.011187
22409.529823,740.205942,-4811.338623,2451.505594
22409.530156,1924.535449,-7105.977043,1149.143247
22409.530489,-74.020594,-7698.141797,-1915.238745
22409.530822,-2368.659014,-7179.997637,-2681.334243
22409.531155,-4145.153275,-10066.800811,-1762.019645
22409.531488,-4219.173869,-9178.553681,-6894.859482
22409.531821,-3701.029710,-11843.295072,-2374.896044
22409.532154,-3108.864956,-6069.688724,-2145.067394
22409.532487,814.226536,-8882.471304,-3294.210641
22409.532820,1480.411884,-10436.903782,3983.696590
22409.533153,3552.988522,-11251.130318,2374.896044
22409.533486,74.020594,-10881.027347,2451.505594
22409.533819,2368.659014,-9548.656652,4903.011187
22409.534152,4885.359217,-11251.130318,5439.278036
22409.534485,4219.173869,-4219.173869,4903.011187
22409.534818,2294.638420,-6809.894666,536.266849
22409.535151,-2368.659014,-9326.594869,-3600.648841
22409.535484,-3627.009116,-9844.739029,-4443.353888
22409.535817,-666.185348,-9474.636058,-1302.362347
22409.536150,-2146.597232,-13027.624579,-1915.238745
22409.536483,-4737.318029,-10140.821405,0.000000
22409.536816,-2220.617826,-10288.862594,0.000000
22409.537149,2294.638420,-8290.306550,-76.609550
22409.537482,2886.803174,-11177.109724,5132.839837
22409.537815,1776.494261,-10214.842000,3447.429741
22409.538148,1850.514855,-7846.182985,1991.848295
22409.538481,-592.164754,-9622.677246,2834.553343
22409.538814,-2072.576638,-7476.080014,1608.800546
22409.539147,1702.473667,-2368.659014,-1608.800546
22409.539480,-2368.659014,-11029.068536,383.047749
22409.539813,5255.462188,-8290.306550,-995.924147
22409.540146,-3627.009116,-14804.118840,2987.772442
22409.540479,592.164754,-4737.318029,-2221.676944
22409.540812,296.082377,-13101.645173,2451.505594
22409.541145,1258.350101,-6809.894666,-1455.581446
22409.541478,3256.906145,-10658.965565,1991.848295
22409.541811,296.082377,-9252.574275,612.876398
22409.542144,-3256.906145,-9844.739029,-2145.067394
22409.542477,-4811.338623,-11251.130318,-76.609550
22409.542810,1998.556043,-7105.977043,1302.362347
22409.543143,0.000000,-3034.844362,3064.381992
22409.543476,592.164754,-4959.379811,1455.581446
22409.543809,-2812.782580,-8068.244768,-3294.210641
22409.544142,-2146.597232,-10066.800811,-3524.039291
22409.544475,-1110.308913,-10436.903782,-2145.067394
22409.544808,6069.688724,-12731.542202,2298.286494
22409.545141,7105.977043,-9696.697840,4290.134789
22409.545474,6661.853478,-10955.047942,7584.345430
22409.545807,5329.482782,-6365.771101,0.000000
22409.546140,3108.864956,-12953.603985,3600.648841
22409.546473,2072.576638,-9548.656652,0.000000
22409.546806,-1998.556043,-7476.080014,-5745.716235
22409.547139,-7698.141797,-13693.809927,-2068.457845
22409.547472,-2738.761985,-6217.729913,-4060.306139
22409.547805,-6883.915261,-8734.430116,-2528.115143
22409.548138,740.205942,-6809.894666,2068.457845
22409.548471,-5551.544565,-8660.409521,-1455.581446
22409.548804,1480.411884,-5995.668130,2221.676944
22409.549137,1924.535449,-8512.368333,4903.011187
22409.549470,1110.308913,-10658.965565,3600.648841
22409.549803,3552.988522,-1850.514855,2451.505594
22409.550137,3849.070898,-13397.727550,4060.306139
22409.550470,6439.791695,-8734.430116,612.876398
22409.550803,0.000000,-12509.480420,-2451.505594
22409.551136,-2442.679609,-17172.777854,-8810.098227
22409.551469,-5625.565159,-14285.974681,-2604.724693
22409.551802,-666.185348,-8512.368333,536.266849
22409.552135,1702.473667,-8068.244768,7048.078582
22409.552468,-1258.350101,-1850.514855,3753.867940
22409.552801,-2368.659014,-4811.338623,5439.278036
22409.553134,-74.020594,-6513.812290,6665.030833
22409.553467,4071.132681,-2442.679609,2451.505594
22409.553800,1036.288319,-9178.553681,5439.278036
22409.554133,0.000000,-7179.997637,-1225.752797
22409.554466,-3701.029710,-11177.109724,-8963.317327
22409.554799,-5699.585753,-14285.974681,-7660.954980
22409.555132,1110.308913,-9474.636058,-6818.249932
22409.555465,-4737.318029,-13693.809927,-4903.011187
22409.555798,2886.803174,-14804.118840,-76.609550
22409.556131,-74.020594,-12361.439231,4290.134789
22409.556464,2368.659014,-3627.009116,5515.887586
22409.556797,8808.450710,-7698.141797,13406.671215
22409.557130,4737.318029,-3627.009116,8120.612279
22409.557463,5551.544565,-6439.791695,5439.278036
22409.557796,666.185348,-7846.182985,1455.581446
22409.558129,1184.329507,-11621.233289,-3600.648841
22409.558462,-2960.823768,-12287.418637,-4903.011187
22409.558795,-1258.350101,-9770.718434,-7124.688131
22409.559128,-2664.741391,-12065.356855,-7354.516781
22409.559461,-3923.091493,-11399.171507,-7277.907231
22409.559794,-4811.338623,-10362.883188,-6511.811733
22409.560127,-2146.597232,-8364.327145,-1685.410096
22409.560460,-1184.329507,-10658.965565,6052.154434
22409.560793,6735.874072,-7698.141797,8503.660028
22409.561126,2146.597232,-7402.059420,10495.508323
22409.561459,3478.967927,-3552.988522,7277.907231
22409.561792,2368.659014,-6439.791695,2145.067394
22409.562125,2664.741391,-9696.697840,2451.505594
22409.562458,4071.132681,-9844.739029,-1838.629195
22409.562791,296.082377,-13101.645173,-7354.516781
22409.563124,-74.020594,-11547.212695,-6741.640382
22409.563457,-3775.050304,-12435.459826,-7737.564530
22409.563790,1998.556043,-8882.471304,-1915.238745
22409.564123,-3034.844362,-10510.924376,0.000000
22409.564456,-2368.659014,-6735.874072,0.000000
22409.564789,-3997.112087,-10436.903782,5669.106685
22409.565122,-74.020594,-6069.688724,5439.278036
22409.565455,2072.576638,-6439.791695,10572.117872
22409.565788,5551.544565,-6217.729913,9116.536426
22409.566121,-1184.329507,-7179.997637,0.000000
22409.566454,-1258.350101,-10658.965565,-3753.867940
22409.566787,592.164754,-5995.668130,-6128.763984
22409.567120,-888.247130,-12361.439231,-5515.887586
22409.567453,4663.297435,-12287.418637,-3447.429741
22409.567786,-1184.329507,-14804.118840,-689.485948
22409.568119,3997.112087,-7105.977043,-76.609550
22409.568452,1480.411884,-10510.924376,1608.800546
22409.568785,2368.659014,-9104.533087,3370.820191
22409.569118,2368.659014,-9548.656652,6052.154434
22409.569451,4071.132681,-7846.182985,4290.134789
22409.569784,2294.638420,-8364.327145,612.876398
22409.570117,1184.329507,-11843.295072,2987.772442
22409.570450,-2442.679609,-9178.553681,-1608.800546
22409.570783,-2442.679609,-8586.388927,-5286.058936
22409.571116,-2294.638420,-8216.285956,-3677.258390
22409.571449,-2738.761985,-8290.306550,-2681.334243
22409.571782,0.000000,-5995.668130,-1838.629195
22409.572115,-1554.432478,-9474.636058,-689.485948
22409.572448,0.000000,-6291.750507,0.000000
22409.572781,3478.967927,-5921.647536,4826.401637
22409.573114,2294.638420,-12731.542202,4060.306139
22409.573447,0.000000,-7624.121203,76.609550
22409.573780,-74.020594,-19837.519246,-383.047749
22409.574113,3108.864956,-3849.070898,-1225.752797
22409.574446,-3108.864956,-20429.683999,1762.019645
22409.574779,1850.514855,-6365.771101,2987.772442
22409.575112,-74.020594,2368.659014,-2528.115143
22409.575445,-5847.626942,-20503.704593,919.314598
22409.575778,1554.432478,-18579.169144,5132.839837
22409.576111,1258.350101,6735.874072,-1685.410096
22409.576444,7105.977043,9400.615463,1225.752797
22409.576777,-1850.514855,-10658.965565,536.266849
22409.577110,-6735.874072,-18653.189738,689.485948
22409.577443,-7105.977043,-13397.727550,4826.401637
22409.577776,518.144159,-14804.118840,-3140.991542
22409.578109,0.000000,-11029.068536,-4903.011187
22409.578442,4219.173869,-5773.606348,-7890.783629
22409.578775,5995.668130,-9474.636058,-4519.963438
22409.579108,888.247130,-12213.398043,4673.182538
22409.579441,7624.121203,-7105.977043,4826.401637
22409.579774,-74.020594,-11251.130318,7890.783629
22409.580107,5921.647536,4071.132681,7584.345430
22409.580440,-2368.659014,-1258.350101,3983.696590
22409.580773,5847.626942,-6809.894666,4366.744339
22409.581106,3552.988522,-9548.656652,4366.744339
22409.581439,-1406.391290,-13989.892304,-153.219100
22409.581772,-888.247130,-15766.386565,-1532.190996
22409.582105,-3627.009116,-17098.757260,-2604.724693
22409.582438,-1702.473667,-12435.459826,-4366.744339
22409.582771,-3034.844362,-14211.954086,-4979.620737
22409.583104,-2368.659014,-10140.821405,-1685.410096
22409.583437,-1258.350101,-6513.812290,-2528.115143
22409.583770,2294.638420,-8290.306550,2987.772442
22409.584103,1998.556043,-5921.647536,4060.306139
22409.584436,0.000000,-3997.112087,1532.190996
22409.584769,1480.411884,-9918.759623,-3830.477490
22409.585102,3182.885551,-13471.748144,-536.266849
22409.585435,2368.659014,-11917.315666,-2451.505594
22409.585768,4959.379811,-12805.562797,-5515.887586
22409.586101,1184.329507,-15470.304188,1225.752797
22409.586434,1110.308913,-9474.636058,-5286.058936
22409.586767,0.000000,-9474.636058,-76.609550
22409.587100,-3256.906145,-3034.844362,-3064.381992
22409.587433,-962.267725,-4145.153275,-1608.800546
22409.587766,-6217.729913,-6735.874072,2834.553343
22409.588099,-4293.194464,-5477.523971,306.438199
22409.588432,-7179.997637,-9474.636058,3600.648841
22409.588765,-4737.318029,-6143.709319,6358.592633
22409.589098,-74.020594,-6217.729913,1149.143247
22409.589431,-1258.350101,-10066.800811,0.000000
22409.589764,592.164754,-10140.821405,1302.362347
22409.590097,740.205942,-13101.645173,-2451.505594
22409.590430,7328.038826,-11029.068536,5209.449386
22409.590763,6439.791695,-7105.977043,6052.154434
22409.591096,5255.462188,-6957.935855,4749.792088
22409.591429,4663.297435,-4737.318029,3600.648841
22409.591762,-2368.659014,-6883.915261,-1915.238745
22409.592095,2590.720797,-6365.771101,1302.362347
22409.592428,-1998.556043,-11843.295072,1608.800546
22409.592761,-962.267725,-9770.718434,536.266849
22409.593094,-1258.350101,-11843.295072,3600.648841
22409.593427,-2368.659014,-9252.574275,3677.258390
22409.593760,3478.967927,-9474.636058,-76.609550
22409.594093,740.205942,-8068.244768,1532.190996
22409.594427,2664.741391,-5995.668130,306.438199
22409.594760,1998.556043,-11251.130318,-76.609550
22409.595093,1554.432478,-7624.121203,-2604.724693
22409.595426,-3552.988522,-12583.501014,-4596.572988
22409.595759,888.247130,-9400.615463,-1762.019645
22409.596092,2886.803174,-8882.471304,-3140.991542
22409.596425,-2072.576638,-15026.180623,-76.609550
22409.596758,-2442.679609,-13027.624579,-383.047749
22409.597091,-4515.256246,-10140.821405,-1838.629195
22409.597424,5329.482782,-9104.533087,5822.325785
22409.597757,6439.791695,-7476.080014,4366.744339
22409.598090,6513.812290,-7105.977043,8733.488677
22409.598423,2886.803174,-8290.306550,3294.210641
22409.598756,1480.411884,-7328.038826,-2298.286494
22409.599089,-4145.153275,-10732.986159,-4290.134789
22409.599422,-74.020594,-10658.965565,-4979.620737
22409.599755,-3627.009116,-11473.192101,-6588.421283
22409.600088,-6957.935855,-9548.656652,-9806.022374
22409.600421,-5551.544565,-11251.130318,-2528.115143
22409.600754,-7698.141797,-4811.338623,-1838.629195
22409.601087,3701.029710,-3923.091493,4673.182538
22409.601420,444.123565,-9178.553681,6281.983084
22409.601753,7105.977043,-5551.544565,7584.345430
22409.602086,-1110.308913,-9696.697840,5209.449386
22409.602419,4663.297435,-11251.130318,3600.648841
22409.602752,0.000000,-9548.656652,5515.887586
22409.603085,6143.709319,-9474.636058,6052.154434
22409.603418,7031.956449,-11251.130318,-689.485948
22409.603751,-3997.112087,-12509.480420,-1532.190996
22409.604084,-296.082377,-8882.471304,-3753.867940
22409.604417,-4811.338623,-10140.821405,-1072.533697
22409.604750,666.185348,-4293.194464,0.000000
22409.605083,-1258.350101,-10955.047942,3064.381992
22409.605416,4441.235652,-7402.059420,6588.421283
22409.605749,-74.020594,-8882.471304,2298.286494
22409.606082,-1110.308913,-11251.130318,536.266849
22409.606415,-1184.329507,-6661.853478,612.876398
22409.606748,-3552.988522,-11917.315666,306.438199
22409.607081,2294.638420,-11843.295072,1762.019645
22409.607414,-3552.988522,-7179.997637,-3064.381992
22409.607747,-2368.659014,-5255.462188,-2834.553343
22409.608080,-1258.350101,-5329.482782,-5745.716235
22409.608413,592.164754,-8956.491898,-3983.696590
22409.608746,1702.473667,-10066.800811,-536.266849
22409.609079,2442.679609,-12805.562797,153.219100
22409.609412,3256.906145,-12213.398043,0.000000
22409.609745,-222.061783,-15840.407159,3064.381992
22409.610078,10584.944971,-7105.977043,2987.772442
22409.610411,1480.411884,-9548.656652,4903.011187
22409.610744,4737.318029,-10658.965565,4826.401637
22409.611077,-2368.659014,-8364.327145,-1532.190996
22409.611410,-5773.606348,-9770.718434,229.828649
22409.611744,-3108.864956,-5477.523971,-2221.676944
22409.612077,-4071.132681,-4737.318029,-4060.306139
22409.612410,-1850.514855,-7698.141797,-2834.553343
22409.612743,-7105.977043,-7179.997637,-4596.572988
22409.613076,-666.185348,-11843.295072,-3140.991542
22409.613409,962.267725,-9844.739029,1838.629195
22409.613742,4663.297435,-13619.789333,3677.258390
22409.614075,8216.285956,-10658.965565,3600.648841
22409.614408,4515.256246,-13915.871710,5898.935335
22409.614741,7402.059420,-5107.421000,4290.134789
22409.615074,4515.256246,-8660.409521,2987.772442
22409.615407,3330.926739,-6439.791695,2604.724693
22409.615740,-74.020594,-10214.842000,-76.609550
22409.616073,-2960.823768,-5403.503377,-1225.752797
22409.616406,-7105.977043,-12805.562797,-1838.629195
22409.616739,-2442.679609,-8882.471304,-5592.497135
22409.617072,-4441.235652,-10732.986159,-2145.067394
22409.617405,-2738.761985,-9770.718434,0.000000
22409.617738,4071.132681,-8586.388927,5439.278036
22409.618071,1998.556043,-5773.606348,5822.325785
22409.618404,4663.297435,-5921.647536,3983.696590
22409.618737,1110.308913,-3849.070898,1762.019645
22409.619070,0.000000,-9696.697840,1762.019645
22409.619403,-74.020594,-10066.800811,-1762.019645
22409.619736,-5921.647536,-9548.656652,-4903.011187
22409.620069,-4441.235652,-12805.562797,-7048.078582
22409.620402,-2442.679609,-13323.706956,0.000000
22409.620735,3775.050304,-2368.659014,-229.828649
22409.621068,1184.329507,-11843.295072,4826.401637
22409.621401,3256.906145,-6883.915261,4826.401637
22409.621734,1998.556043,-8512.368333,612.876398
22409.622067,2146.597232,-13323.706956,4519.963438
22409.622400,4663.297435,-9918.759623,2681.334243
22409.622733,0.000000,-9326.594869,1915.238745
22409.623066,1184.329507,-8068.244768,2757.943793
22409.623399,-1850.514855,-5921.647536,-2681.334243
22409.623732,-5625.565159,-7772.162391,-4903.011187
22409.624065,-1776.494261,-6365.771101,-4979.620737
22409.624398,-4367.215058,-11399.171507,-5898.935335
22409.624731,-4737.318029,-4811.338623,-4290.134789
22409.625064,-962.267725,-12953.603985,1455.581446
22409.625397,3478.967927,-7698.141797,5132.839837
22409.625730,5255.462188,-10362.883188,6358.592633
22409.626063,6735.874072,-10658.965565,8503.660028
22409.626396,4663.297435,-10066.800811,1608.800546
22409.626729,2368.659014,-7476.080014,3600.648841
22409.627062,2294.638420,-14211.954086,2374.896044
22409.627395,0.000000,-7920.203579,-2451.505594
22409.627728,-1850.514855,-10288.862594,-76.609550
22409.628061,-4737.318029,-7179.997637,-6741.640382
22409.628394,-2368.659014,-7328.038826,-2451.505594
22409.628727,-2220.617826,-6957.935855,-3600.648841
22409.629061,0.000000,-7772.162391,229.828649
22409.629394,1702.473667,-7179.997637,306.438199
22409.629727,3256.906145,-9474.636058,4826.401637
22409.630060,2886.803174,-11251.130318,4213.525239
22409.630393,1110.308913,-8956.491898,0.000000
22409.630726,-1554.432478,-11843.295072,-689.485948
22409.631059,-2072.576638,-12805.562797,0.000000
22409.631392,1036.288319,-9696.697840,-306.438199
22409.631725,2072.576638,-7105.977043,-766.095498
22409.632058,1184.329507,-9326.594869,3983.696590
22409.632391,-2220.617826,-5107.421000,-1225.752797
22409.632724,-74.020594,-7105.977043,-2528.115143
22409.633057,-4737.318029,-10140.821405,-4903.011187
22409.633390,4959.379811,-8882.471304,-76.609550
22409.633723,0.000000,-12509.480420,2451.505594
22409.634056,5255.462188,-7105.977043,1378.971896
22409.634389,-1776.494261,-13841.851115,1532.190996
22409.634722,2812.782580,-8364.327145,1532.190996
22409.635055,2886.803174,-10658.965565,4826.401637
22409.635388,1776.494261,-6661.853478,1762.019645
22409.635721,518.144159,-7920.203579,-4290.134789
22409.636054,-9474.636058,-11917.315666,0.000000
22409.636387,4071.132681,-3552.988522,-2528.115143
22409.636720,-3997.112087,-11547.212695,0.000000
22409.637053,2590.720797,-6809.894666,842.705048
22409.637386,-1998.556043,-8660.409521,1915.238745
22409.637719,3034.844362,-7698.141797,3064.381992
22409.638052,4663.297435,-8290.306550,1762.019645
22409.638385,-1036.288319,-15396.283594,4673.182538
22409.638718,3330.926739,-4293.194464,766.095498
22409.639051,2146.597232,-8808.450710,1149.143247
22409.639384,4071.132681,-7254.018232,0.000000
22409.639717,-74.020594,-9474.636058,-689.485948
22409.640050,-4145.153275,-12065.356855,-2451.505594
22409.640383,1110.308913,-7994.224174,-4060.306139
22409.640716,-5773.606348,-15470.304188,-1225.752797
22409.641049,0.000000,-4811.338623,1838.629195
22409.641382,-3627.009116,-13027.624579,995.924147
22409.641715,3108.864956,-6883.915261,5362.668486
22409.642048,4959.379811,-5625.565159,7890.783629
22409.642381,8660.409521,-5255.462188,4979.620737
22409.642714,8364.327145,-4959.379811,5898.935335
22409.643047,-2220.617826,-13915.871710,-1915.238745
22409.643380,962.267725,-9474.636058,-3753.867940
22409.643713,-9474.636058,-14878.139434,-6511.811733
22409.644046,-74.020594,-15396.283594,-4979.620737
22409.644379,-7328.038826,-8956.491898,-4749.792088
22409.644712,-3256.906145,-8290.306550,-4519.963438
22409.645045,-4071.132681,-7846.182985,229.828649
22409.645378,-1406.391290,-7550.100608,5592.497135
22409.645711,2368.659014,-7179.997637,11644.651570
22409.646045,7031.956449,-4737.318029,9116.536426
22409.646378,3256.906145,-8660.409521,2451.505594
22409.646711,1184.329507,-8660.409521,7048.078582
22409.647044,4515.256246,-7402.059420,-3140.991542
22409.647377,1184.329507,-10732.986159,-4290.134789
22409.647710,-2590.720797,-14211.954086,-7201.297681
22409.648043,-4663.297435,-12139.377449,-7890.783629
22409.648376,-4515.256246,-11325.150913,-5209.449386
22409.648709,-3034.844362,-12435.459826,-2528.115143
22409.649042,518.144159,-6513.812290,842.705048
22409.649375,296.082377,-5995.668130,9576.193725
22409.649708,5847.626942,-5921.647536,8503.660028
22409.650041,-962.267725,-4959.379811,2757.943793
22409.650374,1776.494261,-10140.821405,5439.278036
22409.650707,2960.823768,-9844.739029,2911.162892
22409.651040,2072.576638,-9992.780217,2068.457845
22409.651373,3182.885551,-9474.636058,-1608.800546
22409.651706,-1554.432478,-8660.409521,-4060.306139
22409.652039,-2886.803174,-10732.986159,-5822.325785
22409.652372,-2516.700203,-6661.853478,-5209.449386
22409.652705,-2738.761985,-10955.047942,-3370.820191
22409.653038,0.000000,-5403.503377,612.876398
22409.653371,592.164754,-7476.080014,4673.182538
22409.653704,3478.967927,-11547.212695,5745.716235
22409.654037,2960.823768,-6587.832884,4903.011187
22409.654370,1184.329507,-11769.274478,4443.353888
22409.654703,2368.659014,-10140.821405,1532.190996
22409.655036,0.000000,-9844.739029,612.876398
22409.655369,74.020594,-9770.718434,-1532.190996
22409.655702,-1776.494261,-7179.997637,-3217.601092
22409.656035,-444.123565,-10362.883188,-1302.362347
22409.656368,666.185348,-6143.709319,383.047749
22409.656701,2294.638420,-3552.988522,-995.924147
22409.657034,-1776.494261,-6291.750507,1378.971896
22409.657367,-2368.659014,-5995.668130,-536.266849
22409.657700,1702.473667,-12435.459826,-306.438199
22409.658033,4219.173869,-15544.324782,4519.963438
22409.658366,3552.988522,-13323.706956,3447.429741
22409.658699,1036.288319,-13841.851115,1762.019645
22409.659032,-518.144159,-11251.130318,1149.143247
22409.659365,-2368.659014,-7772.162391,766.095498
22409.659698,1776.494261,-3034.844362,766.095498
22409.660031,0.000000,-7328.038826,2987.772442
22409.660364,-74.020594,-5921.647536,-1302.362347
22409.660697,-5107.421000,-4367.215058,-2987.772442
22409.661030,-3034.844362,-10362.883188,-2528.115143
22409.661363,666.185348,-7476.080014,612.876398
22409.661696,-1924.535449,-13323.706956,-766.095498
22409.662029,3775.050304,-9770.718434,0.000000
22409.662362,-1258.350101,-14211.954086,-1302.362347
22409.662695,-2960.823768,-13101.645173,0.000000
22409.663028,-5921.647536,-11917.315666,4290.134789
22409.663362,-2442.679609,-10362.883188,-1302.362347
22409.663695,-5921.647536,-8364.327145,1225.752797
22409.664028,-6735.874072,-5033.400406,1225.752797
22409.664361,-3256.906145,-5033.400406,2068.457845
22409.664694,-3108.864956,-3330.926739,3524.039291
22409.665027,-3552.988522,-5699.585753,1838.629195
22409.665360,-6587.832884,-7550.100608,-3677.258390
22409.665693,-2368.659014,-11769.274478,2681.334243
22409.666026,-8068.244768,-14656.077652,-4979.620737
22409.666359,-5995.668130,-13841.851115,-3677.258390
22409.666692,-6513.812290,-10732.986159,0.000000
22409.667025,-5255.462188,-11103.089130,306.438199
22409.667358,-5107.421000,-7698.141797,2374.896044
22409.667691,-6883.915261,-6439.791695,1991.848295
22409.668024,-7624.121203,-6735.874072,2757.943793
22409.668357,-5995.668130,-1258.350101,-1225.752797
22409.668690,-6587.832884,-5477.523971,-1225.752797
22409.669023,-7179.997637,-6809.894666,-1378.971896
22409.669356,-2960.823768,-8808.450710,-1838.629195
22409.669689,-2442.679609,-15988.448347,1762.019645
22409.670022,-74.020594,-13027.624579,-383.047749
22409.670355,-2368.659014,-11621.233289,-2451.505594
22409.670688,-3404.947333,-15396.283594,2374.896044
22409.671021,-3330.926739,-9992.780217,-383.047749
22409.671354,-8290.306550,-11325.150913,1532.190996
22409.671687,-4219.173869,-7179.997637,1072.533697
22409.672020,-6217.729913,-7920.203579,2145.067394
22409.672353,-7105.977043,-3478.967927,2374.896044
22409.672686,-6587.832884,-4145.153275,-1608.800546
22409.673019,-9548.656652,-7698.141797,-4290.134789
22409.673352,-8882.471304,-8808.450710,-76.609550
22409.673685,-7772.162391,-14804.118840,-76.609550
22409.674018,-5551.544565,-9696.697840,1225.752797
22409.674351,-7179.997637,-11843.295072,2068.457845
22409.674684,-5033.400406,-9696.697840,2221.676944
22409.675017,-5551.544565,-9178.553681,3294.210641
22409.675350,-7550.100608,-7105.977043,1149.143247
22409.675683,-10066.800811,-7179.997637,0.000000
22409.676016,-8956.491898,-8956.491898,-4903.011187
22409.676349,-9844.739029,-14211.954086,2374.896044
22409.676682,-8882.471304,-4811.338623,0.000000
22409.677015,-11251.130318,-5995.668130,0.000000
22409.677348,-10658.965565,-5995.668130,-2528.115143
22409.677681,-9992.780217,-9474.636058,-1455.581446
22409.678014,-9326.594869,-10066.800811,842.705048
22409.678347,-9030.512492,-11991.336260,1149.143247
22409.678680,-5403.503377,-11843.295072,4519.963438
22409.679013,-9178.553681,-7772.162391,4290.134789
22409.679346,-5403.503377,-7698.141797,2374.896044
22409.679679,-8808.450710,-5403.503377,-3064.381992
22409.680012,-10436.903782,-10362.883188,-1302.362347
22409.680345,-10510.924376,-11103.089130,-2451.505594
22409.680679,-11917.315666,-9474.636058,-2834.553343
22409.681012,-12065.356855,-12731.542202,-76.609550
22409.681345,-10362.883188,-7328.038826,0.000000
22409.681678,-8734.430116,-6365.771101,1532.190996
22409.682011,-5995.668130,-9474.636058,4213.525239
22409.682344,-7328.038826,-7179.997637,2451.505594
22409.682677,-9474.636058,-10140.821405,4290.134789
22409.683010,-5995.668130,-13027.624579,2068.457845
22409.683343,-7031.956449,-9474.636058,2298.286494
22409.683676,-10510.924376,-11177.109724,-2298.286494
22409.684009,-8216.285956,-9030.512492,-2528.115143
22409.684342,-12435.459826,-12213.398043,-1149.143247
22409.684675,-11621.233289,-6069.688724,-3677.258390
22409.685008,-11917.315666,-10658.965565,-1378.971896
22409.685341,-11177.109724,-7698.141797,1149.143247
22409.685674,-9918.759623,-7328.038826,2221.676944
22409.686007,-9474.636058,-7254.018232,2911.162892
22409.686340,-8734.430116,-7179.997637,2298.286494
22409.686673,-8364.327145,-11251.130318,2987.772442
22409.687006,-6587.832884,-8216.285956,612.876398
22409.687339,-9474.636058,-9252.574275,1149.143247
22409.687672,-7698.141797,-9696.697840,-919.314598
22409.688005,-11029.068536,-9548.656652,-4290.134789
22409.688338,-9696.697840,-10510.924376,-3140.991542
22409.688671,-11843.295072,-10362.883188,-2528.115143
22409.689004,-10510.924376,-10066.800811,-1608.800546
22409.689337,-11843.295072,-8660.409521,306.438199
22409.689670,-5995.668130,-9474.636058,2987.772442
22409.690003,-5403.503377,-5033.400406,3600.648841
22409.690336,-8290.306550,-8364.327145,5898.935335
22409.690669,-5995.668130,-11251.130318,2374.896044
22409.691002,-10658.965565,-11029.068536,2757.943793
22409.691335,-9548.656652,-10436.903782,0.000000
22409.691668,-9622.677246,-7328.038826,-2451.505594
22409.692001,-13619.789333,-9548.656652,-4749.792088
22409.692334,-12509.480420,-11695.253884,-3447.429741
22409.692667,-11917.315666,-9474.636058,-3140.991542
22409.693000,-11843.295072,-6291.750507,1378.971896
22409.693333,-9474.636058,-7179.997637,5975.544884
22409.693666,-5995.668130,-6809.894666,4213.525239
22409.693999,-5773.606348,-8586.388927,4519.963438
22409.694332,-7698.141797,-9696.697840,3064.381992
22409.694665,-7550.100608,-13619.789333,842.705048
22409.694998,-8734.430116,-14211.954086,766.095498
22409.695331,-8068.244768,-10066.800811,-1608.800546
22409.695664,-11103.089130,-7179.997637,-7354.516781
22409.695997,-9474.636058,-8364.327145,-1302.362347
22409.696330,-9548.656652,-7994.224174,-1915.238745
22409.696663,-11917.315666,-5995.668130,-3677.258390
22409.696996,-10732.986159,-9474.636058,-76.609550
22409.697329,-10140.821405,-8068.244768,306.438199
22409.697662,-7550.100608,-8882.471304,4136.915689
22409.697995,-3775.050304,-8290.306550,5745.716235
22409.698328,-4737.318029,-6661.853478,2987.772442
22409.698661,-6291.750507,-11547.212695,689.485948
22409.698994,-6143.709319,-11547.212695,-1608.800546
22409.699327,-10510.924376,-13619.789333,-995.924147
22409.699660,-10362.883188,-11769.274478,-1225.752797
22409.699992,-9548.656652,-10881.027347,-76.609550
22409.700325,-8364.327145,-5995.668130,-2145.067394
22409.700658,-7994.224174,-3627.009116,0.000000
22409.700991,-9030.512492,-5403.503377,1532.190996
22409.701324,-11103.089130,-7031.956449,-1838.629195
22409.701657,-13545.768739,-12583.501014,-995.924147
22409.701990,-13027.624579,-13841.851115,76.609550
22409.702323,-11843.295072,-13249.686362,3370.820191
22409.702656,-7698.141797,-11251.130318,4213.525239
22409.702989,-6661.853478,-7179.997637,4673.182538
22409.703322,-5995.668130,-3849.070898,0.000000
22409.703655,-7698.141797,-5403.503377,1991.848295
22409.703988,-9474.636058,-8512.368333,1149.143247
22409.704321,-7179.997637,-11843.295072,-1302.362347
22409.704654,-11029.068536,-11843.295072,-2604.724693
22409.704987,-13027.624579,-10066.800811,-4979.620737
22409.705320,-16580.613101,-11325.150913,-4443.353888
22409.705653,-15766.386565,-11843.295072,-3524.039291
22409.705986,-12509.480420,-13545.768739,2374.896044
22409.706319,-11695.253884,-10140.821405,3064.381992
22409.706651,-8290.306550,-8364.327145,10418.898773
22409.706984,-2812.782580,-5625.565159,12180.918418
22409.707317,-2886.803174,-74.020594,6741.640382
22409.707650,-1702.473667,-1998.556043,4443.353888
22409.707983,-3182.885551,-5477.523971,-1532.190996
22409.708316,-7476.080014,-9992.780217,-9269.755526
22409.708649,-10955.047942,-14508.036463,-11721.261119
22409.708982,-12361.439231,-12509.480420,-13942.938064
22409.709315,-8660.409521,-16580.613101,-7431.126331
22409.709648,-6291.750507,-13619.789333,-2528.115143
22409.709981,-4737.318029,-8364.327145,4903.011187
22409.710314,1998.556043,-9474.636058,10801.946522
22409.710647,1776.494261,-6365.771101,10878.556072
22409.710980,2442.679609,-6735.874072,11644.651570
22409.711313,2220.617826,-6735.874072,9346.365076
22409.711646,666.185348,-7772.162391,4903.011187
22409.711979,-2368.659014,-7476.080014,612.876398
22409.712312,-1258.350101,-11251.130318,-4979.620737
22409.712645,-6143.709319,-9696.697840,-7354.516781
22409.712978,-7772.162391,-10140.821405,-8580.269578
22409.713311,-5995.668130,-13027.624579,-4060.306139
22409.713643,-7698.141797,-11621.233289,-1838.629195
22409.713976,-4219.173869,-9918.759623,3140.991542
22409.714309,-1480.411884,-7772.162391,8580.269578
22409.714642,518.144159,-7402.059420,11414.822920
22409.714975,0.000000,-6587.832884,11338.213370
22409.715308,0.000000,-8216.285956,9729.412825
22409.715641,-1702.473667,-9252.574275,7584.345430
22409.715974,-1924.535449,-10140.821405,4979.620737
22409.716307,-3627.009116,-8290.306550,842.705048
22409.716640,-7105.977043,-7772.162391,1532.190996
22409.716973,-4811.338623,-9474.636058,-76.609550
22409.717306,-5995.668130,-7179.997637,0.000000
22409.717639,-4737.318029,-10510.924376,6818.249932
22409.717972,-3627.009116,-12435.459826,11568.042020
22409.718305,-3552.988522,-9548.656652,11644.651570
22409.718638,-1998.556043,-8882.471304,16700.881856
22409.718971,-370.102971,-8290.306550,17926.634653
22409.719304,0.000000,-8364.327145,19612.044749
22409.719637,0.000000,-7179.997637,20684.578446
22409.719970,-1258.350101,-5995.668130,12870.404366
22409.720302,-4145.153275,-7698.141797,12257.527968
22409.720635,-5625.565159,-7772.162391,13100.233016
22409.720968,-5921.647536,-6291.750507,10112.460574
22409.721301,-4811.338623,-8734.430116,14019.547613
22409.721634,-4071.132681,-7105.977043,17083.929605
22409.721967,-296.082377,-6957.935855,20914.407095
22409.722300,2294.638420,-6957.935855,23212.693589
22409.722633,1184.329507,-7179.997637,25664.199183
22409.722966,2294.638420,-6809.894666,19612.044749
22409.723299,1184.329507,-9548.656652,23136.084040
22409.723632,3997.112087,-10881.027347,23825.569988
22409.723965,2294.638420,-8586.388927,20761.187996
22409.724298,-962.267725,-7402.059420,16624.272307
22409.724631,-1850.514855,-7031.956449,16547.662757
22409.724964,148.041188,-4367.215058,17620.196454
22409.725297,0.000000,-2738.761985,18386.291952
22409.725630,4663.297435,-5921.647536,19535.435199
22409.725963,2368.659014,-3627.009116,17160.539155
22409.726296,2960.823768,-5403.503377,21374.064394
22409.726629,2294.638420,-7550.100608,15321.909960
22409.726962,1480.411884,-8216.285956,15934.786358
22409.727294,1480.411884,-11769.274478,17313.758255
22409.727627,-666.185348,-11473.192101,17083.929605
22409.727960,-2220.617826,-7328.038826,14325.985813
22409.728293,-2368.659014,-7328.038826,15321.909960
22409.728626,-74.020594,-4145.153275,12257.527968
22409.728959,0.000000,-5403.503377,17083.929605
22409.729292,-74.020594,-8290.306550,13406.671215
22409.729625,-5181.441594,-6587.832884,10112.460574
22409.729958,-4145.153275,-8364.327145,10418.898773
22409.730291,-2664.741391,-9104.533087,10189.070123
22409.730624,666.185348,-9104.533087,12257.527968
22409.730957,2146.597232,-8734.430116,12563.966167
22409.731290,4737.318029,-8882.471304,14709.033562
22409.731623,2294.638420,-6439.791695,11338.213370
22409.731956,-74.020594,-6957.935855,7354.516781
22409.732289,-3256.906145,-7772.162391,4290.134789
22409.732622,-2590.720797,-9918.759623,3907.087040
22409.732955,-1776.494261,-8364.327145,5209.449386
22409.733288,-814.226536,-8142.265362,1991.848295
22409.733621,-4737.318029,-8364.327145,3064.381992
22409.733953,-74.020594,-11695.253884,1762.019645
22409.734286,888.247130,-11695.253884,4519.963438
22409.734619,2664.741391,-11621.233289,8580.269578
22409.734952,4885.359217,-13175.665768,8044.002729
22409.735285,4959.379811,-10066.800811,7354.516781
22409.735618,2664.741391,-7031.956449,3907.087040
22409.735951,1702.473667,-6217.729913,1762.019645
22409.736284,-666.185348,-5255.462188,-2451.505594
22409.736617,-74.020594,-11547.212695,-76.609550
22409.736950,-74.020594,-11843.295072,1455.581446
22409.737283,-1406.391290,-10436.903782,612.876398
22409.737616,-148.041188,-10955.047942,2987.772442
22409.737949,666.185348,-8438.347739,3907.087040
22409.738282,2368.659014,-9844.739029,5898.935335
22409.738615,2516.700203,-12213.398043,6741.640382
22409.738948,1776.494261,-10362.883188,3140.991542
22409.739281,518.144159,-7772.162391,1225.752797
22409.739614,3552.988522,-9474.636058,6358.592633
22409.739947,4663.297435,-9474.636058,4826.401637
22409.740280,518.144159,-6883.915261,2451.505594
22409.740612,-74.020594,-11843.295072,2528.115143
22409.740945,-3552.988522,-8586.388927,1532.190996
22409.741278,-740.205942,-10658.965565,2068.457845
22409.741611,-3701.029710,-12805.562797,5515.887586
22409.741944,-2072.576638,-8364.327145,7354.516781
22409.742277,-1776.494261,-8364.327145,9806.022374
22409.742610,2886.803174,-7105.977043,8503.660028
22409.742943,444.123565,-8364.327145,7354.516781
22409.743276,0.000000,-9548.656652,15858.176809
22409.743609,2294.638420,-10658.965565,7737.564530
22409.743942,296.082377,-9252.574275,9039.926876
22409.744275,-74.020594,-7698.141797,6358.592633
22409.744608,-1184.329507,-9548.656652,5132.839837
22409.744941,0.000000,-13101.645173,8733.488677
22409.745274,-814.226536,-10732.986159,7660.954980
22409.745607,-2886.803174,-7476.080014,7048.078582
22409.745940,-222.061783,-8142.265362,9806.022374
22409.746273,1036.288319,-10066.800811,18922.558801
22409.746606,2294.638420,-9474.636058,17083.929605
22409.746939,814.226536,-6587.832884,14096.157163
22409.747272,4071.132681,-9474.636058,19535.435199
22409.747604,4663.297435,-7105.977043,17696.806004
22409.747937,5847.626942,-6957.935855,24132.008187
22409.748270,2146.597232,-3256.906145,16930.710506
22409.748603,-1628.453072,-7920.203579,14096.157163
22409.748936,-2146.597232,-8216.285956,14325.985813
22409.749269,-1110.308913,-5995.668130,12410.747068
22409.749602,592.164754,-6957.935855,15551.738609
22409.749935,-3552.988522,-7179.997637,16547.662757
22409.750268,592.164754,-9474.636058,20454.749797
22409.750601,-370.102971,-11251.130318,19535.435199
22409.750934,592.164754,-9104.533087,22369.988542
22409.751267,1110.308913,-5921.647536,20378.140247
22409.751600,3256.906145,-1480.411884,19841.873398
22409.751933,4515.256246,-1554.432478,19305.606550
22409.752266,370.102971,-4737.318029,14709.033562
22409.752599,-666.185348,-6809.894666,13406.671215
22409.752932,-3552.988522,-10362.883188,13406.671215
22409.753265,-2442.679609,-10658.965565,9729.412825
22409.753598,-4219.173869,-6291.750507,7660.954980
22409.753931,-3256.906145,-6735.874072,7354.516781
22409.754263,518.144159,-9844.739029,9882.631924
22409.754596,1998.556043,-12139.377449,17160.539155
22409.754929,1406.391290,-9474.636058,14632.424012
22409.755262,1776.494261,-8660.409521,16547.662757
22409.755595,1776.494261,-7772.162391,15321.909960
22409.755928,4071.132681,-7105.977043,12180.918418
22409.756261,0.000000,-1258.350101,4290.134789
22409.756594,0.000000,-6587.832884,6741.640382
22409.756927,-74.020594,-9474.636058,7277.907231
22409.757260,0.000000,-11325.150913,7507.735880
22409.757593,-1998.556043,-10362.883188,8580.269578
22409.757926,-3923.091493,-7031.956449,2911.162892
22409.758259,-370.102971,-8956.491898,6052.154434
22409.758592,3552.988522,-7179.997637,6971.469032
22409.758925,4663.297435,-8290.306550,3447.429741
22409.759258,3256.906145,-8956.491898,8580.269578
22409.759591,4737.318029,-14063.912898,9729.412825
22409.759924,4663.297435,-13619.789333,10342.289223
22409.760257,592.164754,-814.226536,-76.609550
22409.760590,-814.226536,-3330.926739,-9269.755526
22409.760923,2442.679609,-8216.285956,-5822.325785
22409.761255,1554.432478,-13915.871710,-4366.744339
22409.761588,-1776.494261,-14878.139434,-4366.744339
22409.761921,-3627.009116,-8734.430116,-11721.261119
22409.762254,-1332.370696,-12213.398043,-9116.536426
22409.762587,1776.494261,-12805.562797,-2681.334243
22409.762920,-666.185348,-6587.832884,-9499.584175
22409.763253,0.000000,-13841.851115,-7354.516781
22409.763586,2886.803174,-18357.107362,1149.143247
22409.763919,0.000000,-9844.739029,612.876398
22409.764252,2738.761985,-4737.318029,-1302.362347
22409.764585,518.144159,0.000000,-9882.631924
22409.764918,0.000000,-3330.926739,-10495.508323
22409.765251,666.185348,-11473.192101,-8810.098227
22409.765584,-3552.988522,-17468.860231,-11108.384721
22409.765917,-2220.617826,-13397.727550,-9806.022374
22409.766250,1184.329507,-10140.821405,-6052.154434
22409.766583,3478.967927,-11843.295072,-5745.716235
22409.766916,-1036.288319,-7772.162391,-9806.022374
22409.767249,1184.329507,-13693.809927,-4596.572988
22409.767582,1850.514855,-9548.656652,-5975.544884
22409.767914,-74.020594,-9474.636058,-6894.859482
22409.768247,1480.411884,-14952.160028,-2834.553343
22409.768580,-1406.391290,-7994.224174,-5132.839837
22409.768913,-74.020594,-4737.318029,-9882.631924
22409.769246,-2368.659014,-4811.338623,-8197.221829
22409.769579,-3627.009116,-3627.009116,-16547.662757
22409.769912,592.164754,-11917.315666,-10189.070123
22409.770245,4293.194464,-18505.148550,-2221.676944
22409.770578,1998.556043,-19837.519246,2374.896044
22409.770911,370.102971,-7179.997637,-1072.533697
22409.771244,2220.617826,-5477.523971,-2834.553343
22409.771577,5255.462188,-8586.388927,612.876398
22409.771910,4737.318029,-5995.668130,2451.505594
22409.772243,6291.750507,-15396.283594,3600.648841
22409.772576,-4145.153275,-11621.233289,-2451.505594
22409.772909,-370.102971,-11251.130318,1149.143247
22409.773242,-3330.926739,-5699.585753,0.000000
22409.773575,-2368.659014,1702.473667,-8273.831378
22409.773908,296.082377,-9548.656652,-4290.134789
22409.774241,1184.329507,-13545.768739,3600.648841
22409.774574,74.020594,-9178.553681,2834.553343
22409.774906,296.082377,-12953.603985,4903.011187
22409.775239,1998.556043,-5995.668130,2451.505594
22409.775572,2368.659014,-12287.418637,9422.974625
22409.775905,4071.132681,-8290.306550,8503.660028
22409.776238,-2664.741391,-5995.668130,2451.505594
22409.776571,0.000000,-8364.327145,4903.011187
22409.776904,0.000000,-8956.491898,7890.783629
22409.777237,-888.247130,-11029.068536,10495.508323
22409.777570,-2738.761985,-7698.141797,9652.803275
22409.777903,-3256.906145,-5107.421000,6128.763984
22409.778236,-2146.597232,-4219.173869,3983.696590
22409.778569,3034.844362,-6365.771101,7890.783629
22409.778902,2886.803174,-12879.583391,11491.432470
22409.779235,3256.906145,-8734.430116,12487.356617
22409.779568,296.082377,-10140.821405,10418.898773
22409.779901,-74.020594,-11251.130318,10189.070123
22409.780234,0.000000,-5403.503377,10418.898773
22409.780567,2294.638420,-5329.482782,3294.210641
22409.780900,1702.473667,-4441.235652,2068.457845
22409.781233,0.000000,-8364.327145,7201.297681
22409.781565,-814.226536,-9548.656652,8656.879127
22409.781898,-4441.235652,-7920.203579,3600.648841
22409.782231,-2738.761985,-7624.121203,2681.334243
22409.782564,-74.020594,-11843.295072,9729.412825
22409.782897,4071.132681,-3404.947333,6128.763984
22409.783230,2960.823768,-9104.533087,7354.516781
22409.783563,5033.400406,-11103.089130,9422.974625
22409.783896,2294.638420,-13471.748144,10878.556072
22409.784229,1480.411884,-11177.109724,14632.424012
22409.784562,-814.226536,-5329.482782,5286.058936
22409.784895,-1554.432478,-962.267725,-1838.629195
22409.785228,1924.535449,-1850.514855,-689.485948
22409.785561,-1480.411884,-9030.512492,1149.143247
22409.785894,-1850.514855,-7772.162391,1225.752797
22409.786227,-2146.597232,-11843.295072,1149.143247
22409.786560,-74.020594,-9474.636058,3600.648841
22409.786893,370.102971,-10140.821405,3830.477490
22409.787226,4071.132681,-10362.883188,2987.772442
22409.787559,4441.235652,-4589.276840,-1608.800546
22409.787892,3849.070898,-7476.080014,-766.095498
22409.788224,3775.050304,-8734.430116,1915.238745
22409.788557,-3404.947333,-11029.068536,-4136.915689
22409.788890,-4737.318029,-10362.883188,-7967.393179
