#time,accel_x,accel_y,accel_z
21544.389480,4663.297435,-8290.306550,-3753.867940
21544.389813,2960.823768,-10140.821405,-2068.457845
21544.390147,3478.967927,-11251.130318,-3907.087040
21544.390480,3330.926739,-10584.944971,-4366.744339
21544.390814,4663.297435,-10066.800811,-2451.505594
21544.391147,7920.203579,-9326.594869,995.924147
21544.391480,10658.965565,-8956.491898,5515.887586
21544.391814,11769.274478,-5403.503377,2451.505594
21544.392147,14063.912898,-10362.883188,6052.154434
21544.392481,12953.603985,-7179.997637,2528.115143
21544.392814,10214.842000,-6587.832884,2451.505594
21544.393148,10658.965565,-7772.162391,-689.485948
21544.393481,7105.977043,-11843.295072,-2987.772442
21544.393815,3923.091493,-12953.603985,-5132.839837
21544.394148,370.102971,-13175.665768,-4903.011187
21544.394482,1110.308913,-13027.624579,-3140.991542
21544.394815,0.000000,-9548.656652,-612.876398
21544.395149,6439.791695,-9474.636058,4826.401637
21544.395482,7476.080014,-3627.009116,6128.763984
21544.395815,11621.233289,-4737.318029,9806.022374
21544.396149,13767.830521,-4441.235652,9806.022374
21544.396482,12065.356855,-6217.729913,5898.935335
21544.396816,11029.068536,-5699.585753,1455.581446
21544.397149,9178.553681,-7328.038826,-3140.991542
21544.397483,5551.544565,-11251.130318,-9116.536426
21544.397816,5329.482782,-14211.954086,-8656.879127
21544.398150,3478.967927,-14137.933492,-9806.022374
21544.398483,3552.988522,-11325.150913,-6741.640382
21544.398817,7031.956449,-14211.954086,-2528.115143
21544.399150,7624.121203,-10807.006753,1225.752797
21544.399484,12065.356855,-8290.306550,7277.907231
21544.399817,16136.489536,-4959.379811,12027.699319
21544.400150,17764.942608,-3923.091493,12640.575717
21544.400484,15470.304188,-4145.153275,8580.269578
21544.400817,14508.036463,-7550.100608,5745.716235
21544.401151,7772.162391,-9030.512492,-919.314598
21544.401484,3330.926739,-11029.068536,-6741.640382
21544.401818,-592.164754,-12805.562797,-9729.412825
21544.402151,-74.020594,-13027.624579,-9882.631924
21544.402485,1184.329507,-10140.821405,-6128.763984
21544.402818,7624.121203,-11251.130318,-76.609550
21544.403152,9992.780217,-8438.347739,1838.629195
21544.403485,10658.965565,-7179.997637,6128.763984
21544.403819,15174.221811,-7031.956449,6281.983084
21544.404152,13471.748144,-6883.915261,4903.011187
21544.404485,12953.603985,-7402.059420,1762.019645
21544.404819,13841.851115,-7698.141797,1455.581446
21544.405152,10584.944971,-11251.130318,-689.485948
21544.405486,8734.430116,-13027.624579,-1915.238745
21544.405819,4959.379811,-10436.903782,-5515.887586
21544.406153,5477.523971,-9548.656652,-2451.505594
21544.406486,11251.130318,-6883.915261,2451.505594
21544.406820,11769.274478,-6217.729913,0.000000
21544.407153,14063.912898,-7698.141797,2068.457845
21544.407487,12953.603985,-9326.594869,1915.238745
21544.407820,13323.706956,-8956.491898,1608.800546
21544.408154,9474.636058,-9548.656652,0.000000
21544.408487,9474.636058,-11917.315666,-76.609550
21544.408820,10436.903782,-8882.471304,-1302.362347
21544.409154,11769.274478,-6513.812290,-995.924147
21544.409487,11325.150913,-7698.141797,1149.143247
21544.409821,10214.842000,-8364.327145,3370.820191
21544.410154,11251.130318,-9548.656652,2604.724693
21544.410488,9400.615463,-10140.821405,459.657299
21544.410821,8734.430116,-9548.656652,-995.924147
21544.411155,11843.295072,-9326.594869,-76.609550
21544.411488,15322.262999,-11843.295072,2374.896044
21544.411822,12213.398043,-5699.585753,0.000000
21544.412155,10955.047942,-10362.883188,1225.752797
21544.412488,8808.450710,-14211.954086,-76.609550
21544.412822,4737.318029,-11325.150913,766.095498
21544.413155,7920.203579,-8882.471304,1149.143247
21544.413489,8882.471304,-8734.430116,1915.238745
21544.413822,8586.388927,-7846.182985,2911.162892
21544.414156,6809.894666,-8956.491898,3064.381992
21544.414489,5255.462188,-9918.759623,1455.581446
21544.414823,1258.350101,-9474.636058,-536.266849
21544.415156,3108.864956,-7328.038826,-1608.800546
21544.415490,4959.379811,-8290.306550,383.047749
21544.415823,4663.297435,-5329.482782,-2911.162892
21544.416157,2960.823768,-8586.388927,-689.485948
21544.416490,4663.297435,-13027.624579,-383.047749
21544.416823,1702.473667,-10510.924376,-1838.629195
21544.417157,5847.626942,-9474.636058,1762.019645
21544.417490,4663.297435,-11029.068536,995.924147
21544.417824,3108.864956,-8142.265362,76.609550
21544.418157,888.247130,-10288.862594,536.266849
21544.418491,2960.823768,-9548.656652,612.876398
21544.418824,4515.256246,-8364.327145,0.000000
21544.419158,7624.121203,-9474.636058,4213.525239
21544.419491,4663.297435,-7402.059420,1991.848295
21544.419825,-74.020594,-8068.244768,-4136.915689
21544.420158,296.082377,-9548.656652,-2451.505594
21544.420492,4293.194464,-8882.471304,1455.581446
21544.420825,6291.750507,-6439.791695,2757.943793
21544.421158,5181.441594,-8142.265362,2374.896044
21544.421492,-222.061783,-13027.624579,-689.485948
21544.421825,-1850.514855,-10732.986159,-4596.572988
21544.422159,2294.638420,-11843.295072,-76.609550
21544.422492,6735.874072,-6143.709319,1225.752797
21544.422826,3256.906145,-9252.574275,6128.763984
21544.423159,-592.164754,-6809.894666,-919.314598
21544.423493,-74.020594,-11843.295072,536.266849
21544.423826,3552.988522,-7328.038826,1838.629195
21544.424160,8734.430116,-7328.038826,4903.011187
21544.424493,5847.626942,-8290.306550,2374.896044
21544.424827,592.164754,-6587.832884,612.876398
21544.425160,3478.967927,-10658.965565,-1302.362347
21544.425493,2294.638420,-9548.656652,-1838.629195
21544.425827,3552.988522,-9252.574275,-689.485948
21544.426160,-1258.350101,-13027.624579,-689.485948
21544.426494,-666.185348,-7476.080014,-4213.525239
21544.426827,0.000000,-13693.809927,-689.485948
21544.427161,1332.370696,-9992.780217,2681.334243
21544.427494,5773.606348,-5847.626942,4596.572988
21544.427828,3997.112087,-9474.636058,6052.154434
21544.428161,4663.297435,-7179.997637,1225.752797
21544.428495,3256.906145,-11177.109724,4290.134789
21544.428828,9104.533087,-7105.977043,1762.019645
21544.429162,4663.297435,-7105.977043,995.924147
21544.429495,2220.617826,-9474.636058,-2834.553343
21544.429828,-2072.576638,-13545.768739,-3907.087040
21544.430162,-2664.741391,-11399.171507,-4979.620737
21544.430495,592.164754,-9474.636058,-2834.553343
21544.430829,-814.226536,-12879.583391,-76.609550
21544.431162,-666.185348,-8956.491898,0.000000
21544.431496,370.102971,-9326.594869,2604.724693
21544.431829,3849.070898,-7624.121203,6971.469032
21544.432163,4737.318029,-4811.338623,4903.011187
21544.432496,592.164754,-8364.327145,4596.572988
21544.432830,2294.638420,-9474.636058,4213.525239
21544.433163,-1998.556043,-5995.668130,-2451.505594
21544.433496,296.082377,-9030.512492,536.266849
21544.433830,-74.020594,-8290.306550,-3753.867940
21544.434163,-4959.379811,-12953.603985,-2374.896044
21544.434497,-4145.153275,-8808.450710,-4290.134789
21544.434830,-3849.070898,-10658.965565,-4979.620737
21544.435164,-3552.988522,-11325.150913,-1838.629195
21544.435497,-3552.988522,-11917.315666,3447.429741
21544.435831,-666.185348,-8364.327145,2757.943793
21544.436164,0.000000,-7772.162391,9193.145976
21544.436498,4071.132681,-6809.894666,5132.839837
21544.436831,2590.720797,-3627.009116,4903.011187
21544.437165,518.144159,-6957.935855,2987.772442
21544.437498,0.000000,-8068.244768,-2145.067394
21544.437831,-1850.514855,-9474.636058,-3294.210641
21544.438165,-74.020594,-10807.006753,-1455.581446
21544.438498,-888.247130,-9474.636058,-1302.362347
21544.438832,-3627.009116,-13915.871710,-4903.011187
21544.439165,-2220.617826,-8364.327145,-6128.763984
21544.439499,0.000000,-12213.398043,919.314598
21544.439832,2368.659014,-8364.327145,4136.915689
21544.440166,518.144159,-11473.192101,4290.134789
21544.440499,3478.967927,-6809.894666,5286.058936
21544.440833,4885.359217,-6957.935855,6205.373534
21544.441166,6439.791695,-3404.947333,5745.716235
21544.441500,4663.297435,-8882.471304,3600.648841
21544.441833,-1258.350101,-5699.585753,-4903.011187
21544.442166,-4441.235652,-10140.821405,-6281.983084
21544.442500,-1776.494261,-11843.295072,-3753.867940
21544.442833,-74.020594,-11177.109724,-3140.991542
21544.443167,-2960.823768,-12657.521608,-2374.896044
21544.443500,0.000000,-11917.315666,153.219100
21544.443834,1776.494261,-9104.533087,2374.896044
21544.444167,5625.565159,-7772.162391,7354.516781
21544.444501,4663.297435,-6661.853478,2604.724693
21544.444834,1184.329507,-9548.656652,1225.752797
21544.445168,1776.494261,-9474.636058,5439.278036
21544.445501,4071.132681,-4515.256246,0.000000
21544.445835,6439.791695,-9104.533087,4826.401637
21544.446168,-2368.659014,-9548.656652,-1685.410096
21544.446501,-3182.885551,-8068.244768,-6128.763984
21544.446835,-3552.988522,-10288.862594,-5515.887586
21544.447168,-2368.659014,-10436.903782,-3677.258390
21544.447502,-1628.453072,-7772.162391,-3370.820191
21544.447835,-74.020594,-12879.583391,1608.800546
21544.448169,1924.535449,-9770.718434,1915.238745
21544.448502,3108.864956,-9622.677246,4213.525239
21544.448836,2960.823768,-7550.100608,5745.716235
21544.449169,2294.638420,-10658.965565,2374.896044
21544.449503,0.000000,-7772.162391,1838.629195
21544.449836,-1554.432478,-9474.636058,-1302.362347
21544.450170,-1184.329507,-7550.100608,0.000000
21544.450503,-4737.318029,-6587.832884,-2987.772442
21544.450836,-2738.761985,-10214.842000,-2145.067394
21544.451170,-3923.091493,-9770.718434,-1762.019645
21544.451503,-1184.329507,-9622.677246,-1225.752797
21544.451837,0.000000,-9548.656652,2757.943793
21544.452170,-74.020594,-6809.894666,459.657299
21544.452504,1998.556043,-10584.944971,1532.190996
21544.452837,1184.329507,-7179.997637,3064.381992
21544.453171,4663.297435,-9474.636058,-76.609550
21544.453504,-888.247130,-12583.501014,2374.896044
21544.453838,-370.102971,-8956.491898,0.000000
21544.454171,-5403.503377,-11399.171507,-2681.334243
21544.454504,148.041188,-5033.400406,-1685.410096
21544.454838,-444.123565,-10288.862594,-76.609550
21544.455171,-74.020594,-6217.729913,-1532.190996
21544.455505,-1184.329507,-6291.750507,-2451.505594
21544.455838,0.000000,-9548.656652,3217.601092
21544.456172,3034.844362,-7179.997637,3217.601092
21544.456505,2294.638420,-10658.965565,2374.896044
21544.456839,3182.885551,-9252.574275,1608.800546
21544.457172,592.164754,-9992.780217,229.828649
21544.457505,2294.638420,-9030.512492,766.095498
21544.457839,1554.432478,-9474.636058,-1302.362347
21544.458172,-4145.153275,-8364.327145,-3677.258390
21544.458505,-1998.556043,-12731.542202,-1915.238745
21544.458838,-666.185348,-9474.636058,-2528.115143
21544.459172,-2368.659014,-7179.997637,0.000000
21544.459505,2886.803174,-8290.306550,2068.457845
21544.459838,888.247130,-6735.874072,1991.848295
21544.460171,2146.597232,-9400.615463,2757.943793
21544.460505,5107.421000,-7105.977043,3524.039291
21544.460838,5551.544565,-9400.615463,4826.401637
21544.461171,740.205942,-9400.615463,1532.190996
21544.461504,222.061783,-9770.718434,-1302.362347
21544.461838,-888.247130,-11325.150913,-2451.505594
21544.462171,-2368.659014,-7179.997637,-3064.381992
21544.462504,-2812.782580,-12731.542202,-76.609550
21544.462838,-4219.173869,-7179.997637,-4903.011187
21544.463171,-8290.306550,-11917.315666,-2145.067394
21544.463504,1110.308913,-5921.647536,-76.609550
21544.463837,2442.679609,-7698.141797,3600.648841
21544.464171,3997.112087,-7920.203579,7431.126331
21544.464504,1776.494261,-7179.997637,3677.258390
21544.464837,296.082377,-10584.944971,1149.143247
21544.465170,3552.988522,-8216.285956,4290.134789
21544.465504,0.000000,-7179.997637,2604.724693
21544.465837,-1850.514855,-9844.739029,-3677.258390
21544.466170,-5329.482782,-10732.986159,-4903.011187
21544.466504,-4441.235652,-13027.624579,-3140.991542
21544.466837,-1184.329507,-8364.327145,-2451.505594
21544.467170,-3034.844362,-11843.295072,-153.219100
21544.467503,-2590.720797,-7698.141797,-2068.457845
21544.467837,-2960.823768,-8142.265362,0.000000
21544.468170,3478.967927,-7105.977043,2987.772442
21544.468503,2960.823768,-7179.997637,6358.592633
21544.468836,1998.556043,-5995.668130,2451.505594
21544.469170,3923.091493,-10066.800811,4213.525239
21544.469503,1702.473667,-7105.977043,-995.924147
21544.469836,4515.256246,-10214.842000,2374.896044
21544.470169,-370.102971,-9104.533087,-2451.505594
21544.470503,-370.102971,-13027.624579,-1302.362347
21544.470836,-1628.453072,-9548.656652,-2757.943793
21544.471169,-2368.659014,-8660.409521,-3524.039291
21544.471503,2294.638420,-10658.965565,-2528.115143
21544.471836,-2368.659014,-7772.162391,-1838.629195
21544.472169,0.000000,-9844.739029,3294.210641
21544.472502,2294.638420,-7105.977043,3370.820191
21544.472836,2664.741391,-4811.338623,3830.477490
21544.473169,4145.153275,-6587.832884,6128.763984
21544.473502,3330.926739,-7031.956449,2451.505594
21544.473835,2442.679609,-11399.171507,-536.266849
21544.474169,-1184.329507,-11695.253884,-612.876398
21544.474502,-370.102971,-7031.956449,-5822.325785
21544.474835,-4737.318029,-13323.706956,-2221.676944
21544.475169,-2442.679609,-11843.295072,-4366.744339
21544.475502,-2738.761985,-9548.656652,-3677.258390
21544.475835,592.164754,-5699.585753,3217.601092
21544.476168,2442.679609,-7179.997637,4290.134789
21544.476502,1776.494261,-7772.162391,4749.792088
21544.476835,1776.494261,-8290.306550,2911.162892
21544.477168,3552.988522,-8364.327145,4290.134789
21544.477501,4367.215058,-7105.977043,2451.505594
21544.477835,1184.329507,-8956.491898,-766.095498
21544.478168,-3108.864956,-13101.645173,-2911.162892
21544.478501,-3478.967927,-11325.150913,-4290.134789
21544.478834,-1184.329507,-10732.986159,-919.314598
21544.479168,-1850.514855,-9474.636058,-1915.238745
21544.479501,-1258.350101,-7179.997637,-1838.629195
21544.479834,-1776.494261,-9474.636058,2068.457845
21544.480168,4071.132681,-9178.553681,4213.525239
21544.480501,0.000000,-5995.668130,5209.449386
21544.480834,-370.102971,-8142.265362,2911.162892
21544.481167,-1036.288319,-7179.997637,1149.143247
21544.481501,-1850.514855,-7698.141797,306.438199
21544.481834,2738.761985,-8290.306550,-76.609550
21544.482167,-74.020594,-10214.842000,-2451.505594
21544.482500,-2368.659014,-11547.212695,-2451.505594
21544.482834,-2072.576638,-11843.295072,-689.485948
21544.483167,-74.020594,-9474.636058,-1915.238745
21544.483500,296.082377,-9474.636058,-76.609550
21544.483834,-592.164754,-9030.512492,306.438199
21544.484167,296.082377,-10288.862594,3217.601092
21544.484500,4071.132681,-7920.203579,2757.943793
21544.484833,4071.132681,-9474.636058,4826.401637
21544.485167,4663.297435,-4219.173869,1225.752797
21544.485500,592.164754,-10584.944971,2987.772442
21544.485833,-1258.350101,-9474.636058,-3140.991542
21544.486166,-3552.988522,-9548.656652,-2911.162892
21544.486500,-74.020594,-9474.636058,-2528.115143
21544.486833,-2368.659014,-8290.306550,-3753.867940
21544.487166,-4145.153275,-11473.192101,-3064.381992
21544.487499,-370.102971,-8882.471304,-1455.581446
21544.487833,2368.659014,-7476.080014,3677.258390
21544.488166,5921.647536,-7772.162391,7354.516781
21544.488499,6439.791695,-9474.636058,4826.401637
21544.488833,1184.329507,-8068.244768,2757.943793
21544.489166,3552.988522,-7476.080014,4903.011187
21544.489499,5847.626942,-6809.894666,-76.609550
21544.489832,0.000000,-10288.862594,-3447.429741
21544.490166,-2812.782580,-10584.944971,-4903.011187
21544.490499,-2738.761985,-13027.624579,-6052.154434
21544.490832,0.000000,-9548.656652,-1838.629195
21544.491165,296.082377,-9104.533087,842.705048
21544.491499,0.000000,-8956.491898,536.266849
21544.491832,888.247130,-9622.677246,1532.190996
21544.492165,5847.626942,-9178.553681,6971.469032
21544.492499,4663.297435,-8142.265362,6052.154434
21544.492832,2294.638420,-7328.038826,1838.629195
21544.493165,888.247130,-10288.862594,3600.648841
21544.493498,-666.185348,-11843.295072,-689.485948
21544.493832,1776.494261,-7920.203579,1378.971896
21544.494165,-2664.741391,-9178.553681,-1455.581446
21544.494498,-3330.926739,-11251.130318,-3217.601092
21544.494831,-4441.235652,-9992.780217,-2451.505594
21544.495165,-1776.494261,-9992.780217,-1991.848295
21544.495498,-2072.576638,-9548.656652,2451.505594
21544.495831,-2886.803174,-4811.338623,0.000000
21544.496165,-74.020594,-11843.295072,1762.019645
21544.496498,0.000000,-8290.306550,3907.087040
21544.496831,1998.556043,-6513.812290,3294.210641
21544.497164,4071.132681,-7105.977043,3907.087040
21544.497498,888.247130,-8586.388927,2757.943793
21544.497831,-592.164754,-10510.924376,-1532.190996
21544.498164,-2146.597232,-9844.739029,-3370.820191
21544.498497,-666.185348,-11547.212695,-3140.991542
21544.498831,-1480.411884,-10955.047942,-1302.362347
21544.499164,-1480.411884,-13471.748144,-689.485948
21544.499497,-3108.864956,-8956.491898,-2451.505594
21544.499830,-1776.494261,-7179.997637,0.000000
21544.500164,888.247130,-8956.491898,4903.011187
21544.500497,2294.638420,-5477.523971,3524.039291
21544.500830,3182.885551,-10881.027347,3370.820191
21544.501164,5847.626942,-7994.224174,4519.963438
21544.501497,2368.659014,-7772.162391,1225.752797
21544.501830,3478.967927,-9474.636058,-383.047749
21544.502163,-1258.350101,-9474.636058,-5592.497135
21544.502497,-4145.153275,-10732.986159,-4290.134789
21544.502830,518.144159,-10658.965565,-1608.800546
21544.503163,2294.638420,-11251.130318,-2834.553343
21544.503496,-2590.720797,-12435.459826,-1072.533697
21544.503830,666.185348,-9474.636058,1608.800546
21544.504163,2886.803174,-8956.491898,3983.696590
21544.504496,7031.956449,-7698.141797,6052.154434
21544.504830,4663.297435,-4441.235652,1225.752797
21544.505163,592.164754,-10140.821405,1762.019645
21544.505496,4663.297435,-12435.459826,4826.401637
21544.505829,1110.308913,-6513.812290,0.000000
21544.506163,2812.782580,-8586.388927,536.266849
21544.506496,-370.102971,-10066.800811,-1302.362347
21544.506829,-3849.070898,-10955.047942,-4060.306139
21544.507162,-1554.432478,-10658.965565,-4596.572988
21544.507496,-74.020594,-11103.089130,-76.609550
21544.507829,148.041188,-7698.141797,-919.314598
21544.508162,-888.247130,-9548.656652,1685.410096
21544.508495,1924.535449,-7105.977043,2451.505594
21544.508829,0.000000,-9548.656652,0.000000
21544.509162,4737.318029,-7846.182985,6358.592633
21544.509495,1554.432478,-7179.997637,612.876398
21544.509829,0.000000,-10140.821405,3677.258390
21544.510162,1110.308913,-10658.965565,-1302.362347
21544.510495,0.000000,-10140.821405,-2451.505594
21544.510828,-74.020594,-9474.636058,-1608.800546
21544.511162,-3330.926739,-10510.924376,-3600.648841
21544.511495,-3923.091493,-11621.233289,-3294.210641
21544.511828,-666.185348,-9474.636058,-76.609550
21544.512161,2886.803174,-8290.306550,-76.609550
21544.512495,0.000000,-5995.668130,4903.011187
21544.512828,1628.453072,-10362.883188,4826.401637
21544.513161,1702.473667,-5995.668130,0.000000
21544.513495,0.000000,-9548.656652,3677.258390
21544.513828,1406.391290,-5477.523971,995.924147
21544.514161,-3404.947333,-11251.130318,-2528.115143
21544.514494,-962.267725,-8142.265362,-3217.601092
21544.514828,-1258.350101,-11843.295072,-1915.238745
21544.515161,-1776.494261,-7179.997637,-3677.258390
21544.515494,-2442.679609,-11843.295072,-3753.867940
21544.515827,-4219.173869,-9844.739029,-4290.134789
21544.516161,2368.659014,-9696.697840,3064.381992
21544.516494,5255.462188,-9474.636058,7890.783629
21544.516827,4959.379811,-6217.729913,4519.963438
21544.517160,1036.288319,-9104.533087,3294.210641
21544.517494,2590.720797,-7698.141797,1302.362347
21544.517827,2960.823768,-8438.347739,1149.143247
21544.518160,2368.659014,-10881.027347,3447.429741
21544.518494,-1850.514855,-7772.162391,-4290.134789
21544.518827,-7994.224174,-10732.986159,-4903.011187
21544.519160,-962.267725,-11843.295072,-4979.620737
21544.519493,-3330.926739,-11843.295072,-1608.800546
21544.519827,-518.144159,-7105.977043,0.000000
21544.520160,-962.267725,-6513.812290,2221.676944
21544.520493,1628.453072,-7402.059420,2298.286494
21544.520826,3701.029710,-10362.883188,4749.792088
21544.521160,6735.874072,-8290.306550,6665.030833
21544.521493,2960.823768,-5995.668130,3677.258390
21544.521826,296.082377,-11251.130318,-76.609550
21544.522160,2294.638420,-9474.636058,-3447.429741
21544.522493,-3701.029710,-10436.903782,-4749.792088
21544.522826,1036.288319,-9474.636058,-3447.429741
21544.523159,-3478.967927,-12435.459826,-3524.039291
21544.523493,-2072.576638,-10807.006753,-1532.190996
21544.523826,-962.267725,-9696.697840,766.095498
21544.524159,3478.967927,-8290.306550,3600.648841
21544.524492,2664.741391,-6883.915261,4136.915689
21544.524826,1406.391290,-8512.368333,6741.640382
21544.525159,4219.173869,-7031.956449,4903.011187
21544.525492,1184.329507,-4811.338623,1838.629195
21544.525825,3182.885551,-9178.553681,2987.772442
21544.526159,-2738.761985,-5551.544565,-4979.620737
21544.526492,-4145.153275,-11029.068536,-1685.410096
21544.526825,-1850.514855,-9474.636058,-6358.592633
21544.527159,1702.473667,-8956.491898,-5515.887586
21544.527492,1184.329507,-9918.759623,-2528.115143
21544.527825,0.000000,-12731.542202,-1838.629195
21544.528158,4071.132681,-9474.636058,1072.533697
21544.528492,5921.647536,-10436.903782,6511.811733
21544.528825,9030.512492,-8290.306550,6052.154434
21544.529158,3849.070898,-7179.997637,3677.258390
21544.529491,1184.329507,-9548.656652,5209.449386
21544.529825,7031.956449,-5921.647536,2221.676944
21544.530158,2368.659014,-8660.409521,2757.943793
21544.530491,1924.535449,-6661.853478,-1838.629195
21544.530825,-4589.276840,-12953.603985,-3907.087040
21544.531158,-4515.256246,-11547.212695,-5669.106685
21544.531491,-3034.844362,-10066.800811,-4060.306139
21544.531824,-2442.679609,-13619.789333,-1302.362347
21544.532158,-2368.659014,-4811.338623,0.000000
21544.532491,-74.020594,-11843.295072,4519.963438
21544.532824,2886.803174,-9474.636058,3907.087040
21544.533157,3478.967927,-7624.121203,8810.098227
21544.533491,1110.308913,-8142.265362,4213.525239
21544.533824,1406.391290,-6957.935855,1762.019645
21544.534157,-4145.153275,-10732.986159,-1685.410096
21544.534490,-888.247130,-5403.503377,-2757.943793
21544.534824,-3034.844362,-11547.212695,-2834.553343
21544.535157,-4367.215058,-7328.038826,-6128.763984
21544.535490,-5625.565159,-14508.036463,-1302.362347
21544.535824,-1850.514855,-9178.553681,-2528.115143
21544.536157,-1332.370696,-10362.883188,2374.896044
21544.536490,296.082377,-7476.080014,3907.087040
21544.536823,2072.576638,-8290.306550,3753.867940
21544.537157,296.082377,-8956.491898,6435.202183
21544.537490,2368.659014,-7254.018232,3370.820191
21544.537823,0.000000,-4811.338623,2451.505594
21544.538156,-1776.494261,-9252.574275,1225.752797
21544.538490,-2812.782580,-9474.636058,-3753.867940
21544.538823,-3923.091493,-13101.645173,-4903.011187
21544.539156,-2812.782580,-8290.306550,-2681.334243
21544.539490,-2886.803174,-12065.356855,-1302.362347
21544.539823,-2960.823768,-8586.388927,-1685.410096
21544.540156,-1850.514855,-9844.739029,0.000000
21544.540489,2072.576638,-8882.471304,2451.505594
21544.540823,4515.256246,-5625.565159,5669.106685
21544.541156,1480.411884,-9104.533087,3140.991542
21544.541489,3997.112087,-7920.203579,3294.210641
21544.541822,-518.144159,-13471.748144,2987.772442
21544.542156,7031.956449,-4145.153275,153.219100
21544.542489,-3552.988522,-13101.645173,0.000000
21544.542822,-74.020594,-10658.965565,-2528.115143
21544.543155,-3552.988522,-8364.327145,-2451.505594
21544.543489,-3552.988522,-9548.656652,0.000000
21544.543822,3923.091493,-4811.338623,306.438199
21544.544155,-1924.535449,-9474.636058,-459.657299
21544.544489,6957.935855,-6143.709319,3907.087040
21544.544822,296.082377,-9770.718434,3064.381992
21544.545155,6217.729913,-4811.338623,612.876398
21544.545488,6735.874072,-10658.965565,1762.019645
21544.545822,4145.153275,-9548.656652,-2451.505594
21544.546155,4737.318029,-10140.821405,766.095498
21544.546488,1702.473667,-13915.871710,-2528.115143
21544.546821,5033.400406,-8364.327145,-1225.752797
21544.547155,-1850.514855,-10288.862594,-3677.258390
21544.547488,2590.720797,-11103.089130,-1915.238745
21544.547821,-148.041188,-9992.780217,1455.581446
21544.548155,3701.029710,-10658.965565,3600.648841
21544.548488,8808.450710,-5921.647536,4826.401637
21544.548821,0.000000,-9696.697840,6205.373534
21544.549154,4663.297435,-9474.636058,4519.963438
21544.549488,1110.308913,-7846.182985,2528.115143
21544.549821,-2960.823768,-12139.377449,1762.019645
21544.550154,-2960.823768,-4219.173869,-3677.258390
21544.550487,-8438.347739,-15396.283594,-6358.592633
21544.550821,-444.123565,-9696.697840,-3600.648841
21544.551154,-5107.421000,-13027.624579,-229.828649
21544.551487,-592.164754,-4219.173869,-1838.629195
21544.551820,-7105.977043,-10140.821405,1532.190996
21544.552154,-1850.514855,-9474.636058,-76.609550
21544.552487,4071.132681,-4811.338623,2451.505594
21544.552820,148.041188,-8956.491898,6052.154434
21544.553154,2516.700203,-6291.750507,2681.334243
21544.553487,-4811.338623,-10510.924376,1149.143247
21544.553820,814.226536,-9622.677246,229.828649
21544.554153,-2442.679609,-9178.553681,-383.047749
21544.554487,-1628.453072,-10732.986159,0.000000
21544.554820,-3330.926739,-8438.347739,-2451.505594
21544.555153,-5773.606348,-9844.739029,-1455.581446
21544.555486,-2368.659014,-7179.997637,0.000000
21544.555820,-4145.153275,-11769.274478,4060.306139
21544.556153,-370.102971,-5625.565159,-2068.457845
21544.556486,-5329.482782,-9548.656652,0.000000
21544.556820,1480.411884,-7031.956449,2374.896044
21544.557153,0.000000,-9548.656652,2451.505594
21544.557486,3256.906145,-5181.441594,4826.401637
21544.557819,1184.329507,-9474.636058,2374.896044
21544.558152,-1258.350101,-12287.418637,0.000000
21544.558485,3182.885551,-9326.594869,-383.047749
21544.558818,-3478.967927,-11029.068536,-1302.362347
21544.559151,-74.020594,-6809.894666,-5515.887586
21544.559484,-4737.318029,-11621.233289,-2145.067394
21544.559817,-2368.659014,-11325.150913,689.485948
21544.560150,4219.173869,-7105.977043,3370.820191
21544.560484,2960.823768,-9326.594869,5286.058936
21544.560817,4071.132681,-4959.379811,4290.134789
21544.561150,0.000000,-8364.327145,0.000000
21544.561483,4959.379811,-9030.512492,2068.457845
21544.561816,5921.647536,-9548.656652,4213.525239
21544.562149,4737.318029,-7179.997637,3064.381992
21544.562482,3775.050304,-11251.130318,-76.609550
21544.562815,-222.061783,-9548.656652,-4903.011187
21544.563148,-2294.638420,-8512.368333,-4903.011187
21544.563481,1702.473667,-11547.212695,-4979.620737
21544.563814,2738.761985,-9030.512492,-1532.190996
21544.564147,1850.514855,-10658.965565,-995.924147
21544.564481,6513.812290,-8734.430116,3677.258390
21544.564814,7031.956449,-8882.471304,4213.525239
21544.565147,4737.318029,-9548.656652,4826.401637
21544.565480,7031.956449,-9474.636058,-76.609550
21544.565813,0.000000,-13101.645173,2451.505594
21544.566146,3552.988522,-7476.080014,2604.724693
21544.566479,0.000000,-9548.656652,0.000000
21544.566812,518.144159,-9030.512492,-1302.362347
21544.567145,-1924.535449,-10510.924376,995.924147
21544.567478,-2146.597232,-9622.677246,-2987.772442
21544.567811,-1850.514855,-9548.656652,-2451.505594
21544.568144,-5921.647536,-13027.624579,-1302.362347
21544.568478,-2294.638420,-4885.359217,-2451.505594
21544.568811,-4737.318029,-9548.656652,4596.572988
21544.569144,3256.906145,-8364.327145,3983.696590
21544.569477,740.205942,-7772.162391,6741.640382
21544.569810,-1554.432478,-8216.285956,2221.676944
21544.570143,0.000000,-8660.409521,229.828649
21544.570476,-5107.421000,-11325.150913,-536.266849
21544.570809,370.102971,-5699.585753,-2911.162892
21544.571142,-7402.059420,-9548.656652,-3294.210641
21544.571475,-4663.297435,-9474.636058,-6205.373534
21544.571808,-7402.059420,-13027.624579,-3294.210641
21544.572141,-1258.350101,-10362.883188,-76.609550
21544.572474,518.144159,-6883.915261,1225.752797
21544.572808,-2368.659014,-7179.997637,2451.505594
21544.573141,2072.576638,-8882.471304,4826.401637
21544.573474,1406.391290,-7846.182985,4366.744339
21544.573807,2368.659014,-6291.750507,5209.449386
21544.574140,666.185348,-6365.771101,612.876398
21544.574473,-2664.741391,-9696.697840,-1838.629195
21544.574806,-3552.988522,-9030.512492,-4903.011187
21544.575139,-2442.679609,-14211.954086,-4979.620737
21544.575472,1110.308913,-8438.347739,-4903.011187
21544.575805,-4145.153275,-12805.562797,-229.828649
21544.576138,-592.164754,-10214.842000,-76.609550
21544.576471,1110.308913,-10066.800811,1991.848295
21544.576805,4663.297435,-8808.450710,5439.278036
21544.577138,5551.544565,-5107.421000,7737.564530
21544.577471,1850.514855,-7254.018232,3524.039291
21544.577804,3552.988522,-8956.491898,3064.381992
21544.578137,2368.659014,-7772.162391,2528.115143
21544.578470,4071.132681,-7772.162391,0.000000
21544.578803,-1184.329507,-11251.130318,-2528.115143
21544.579136,-2738.761985,-10955.047942,-6511.811733
21544.579469,-2960.823768,-10140.821405,-4596.572988
21544.579802,148.041188,-8734.430116,-2834.553343
21544.580135,2886.803174,-10066.800811,-76.609550
21544.580468,2368.659014,-7624.121203,1762.019645
21544.580802,5403.503377,-7402.059420,4290.134789
21544.581135,6143.709319,-8142.265362,6818.249932
21544.581468,7105.977043,-4811.338623,3677.258390
21544.581801,7031.956449,-11843.295072,3600.648841
21544.582134,4663.297435,-7179.997637,-2451.505594
21544.582467,6439.791695,-13027.624579,-612.876398
21544.582800,4737.318029,-11991.336260,0.000000
21544.583133,4663.297435,-10066.800811,-1915.238745
21544.583466,-1850.514855,-11769.274478,-4443.353888
21544.583799,-518.144159,-11325.150913,-3447.429741
21544.584132,-2442.679609,-13027.624579,-1608.800546
21544.584465,2368.659014,-8808.450710,4826.401637
21544.584798,1110.308913,-6735.874072,3983.696590
21544.585132,-2368.659014,-4811.338623,5515.887586
21544.585465,2294.638420,-7698.141797,3907.087040
21544.585798,1258.350101,-5995.668130,2451.505594
21544.586131,2738.761985,-7105.977043,2374.896044
21544.586464,-6069.688724,-9548.656652,-2987.772442
21544.586797,-4885.359217,-8660.409521,-6588.421283
21544.587130,-5403.503377,-13619.789333,-5592.497135
21544.587463,-2442.679609,-14211.954086,-689.485948
21544.587796,-2886.803174,-7402.059420,-1225.752797
21544.588129,-5921.647536,-13323.706956,-536.266849
21544.588462,-222.061783,-8660.409521,2451.505594
21544.588795,2294.638420,-9178.553681,6052.154434
21544.589129,3552.988522,-5107.421000,6128.763984
21544.589462,1480.411884,-7698.141797,4826.401637
21544.589795,518.144159,-8364.327145,1532.190996
21544.590128,0.000000,-7179.997637,3677.258390
21544.590461,-74.020594,-8290.306550,-1302.362347
21544.590794,-3627.009116,-11547.212695,-3140.991542
21544.591127,-7254.018232,-9992.780217,-7277.907231
21544.591460,-5551.544565,-11769.274478,-4366.744339
21544.591793,-4959.379811,-9770.718434,-2221.676944
21544.592126,-2368.659014,-9474.636058,1762.019645
21544.592459,-3627.009116,-9474.636058,-76.609550
21544.592792,-2960.823768,-5107.421000,3064.381992
21544.593125,4145.153275,-7550.100608,5745.716235
21544.593459,3701.029710,-8956.491898,5515.887586
21544.593792,5699.585753,-3997.112087,3140.991542
21544.594125,148.041188,-11473.192101,1149.143247
21544.594458,1776.494261,-8956.491898,-766.095498
21544.594791,-1776.494261,-10732.986159,-3064.381992
21544.595124,2590.720797,-13915.871710,-689.485948
21544.595457,-814.226536,-8364.327145,-3524.039291
21544.595790,-1554.432478,-10732.986159,-4596.572988
21544.596123,2516.700203,-10658.965565,1149.143247
21544.596456,1776.494261,-9844.739029,4290.134789
21544.596789,5699.585753,-5329.482782,3753.867940
21544.597122,2960.823768,-5921.647536,3600.648841
21544.597456,1776.494261,-9178.553681,1149.143247
21544.597789,5477.523971,-7698.141797,4443.353888
21544.598122,4663.297435,-9474.636058,-76.609550
21544.598455,3775.050304,-5995.668130,-2451.505594
21544.598788,-1036.288319,-11917.315666,-3677.258390
21544.599121,0.000000,-11621.233289,-2528.115143
21544.599454,2368.659014,-7476.080014,-2145.067394
21544.599787,1036.288319,-13101.645173,-2834.553343
21544.600120,3256.906145,-9326.594869,-2834.553343
21544.600453,-518.144159,-15618.345376,536.266849
21544.600786,7624.121203,-7105.977043,3064.381992
21544.601119,8216.285956,-9326.594869,7431.126331
21544.601453,5329.482782,-8734.430116,5286.058936
21544.601786,6513.812290,-5477.523971,4213.525239
21544.602119,-666.185348,-9918.759623,612.876398
21544.602452,4367.215058,-6143.709319,1225.752797
21544.602785,-444.123565,-12435.459826,-76.609550
21544.603118,-5625.565159,-7179.997637,-7354.516781
21544.603451,-8290.306550,-11917.315666,-3983.696590
21544.603784,-5403.503377,-10362.883188,-4060.306139
21544.604117,-2886.803174,-8956.491898,-1302.362347
21544.604450,-4811.338623,-10066.800811,766.095498
21544.604783,-1702.473667,-6143.709319,1072.533697
21544.605116,-2368.659014,-9548.656652,4903.011187
21544.605449,4663.297435,-6513.812290,4903.011187
21544.605783,4663.297435,-8290.306550,6052.154434
21544.606116,-666.185348,-7179.997637,1225.752797
21544.606449,-3256.906145,-10140.821405,0.000000
21544.606782,-5921.647536,-11325.150913,-2757.943793
21544.607115,-4441.235652,-9548.656652,-2987.772442
21544.607448,-4515.256246,-9622.677246,-3907.087040
21544.607781,-3997.112087,-9992.780217,-3830.477490
21544.608114,-3923.091493,-14211.954086,-76.609550
21544.608447,-1184.329507,-4811.338623,2451.505594
21544.608780,1110.308913,-9474.636058,4213.525239
21544.609113,0.000000,-3034.844362,3983.696590
21544.609446,-74.020594,-10658.965565,2374.896044
21544.609780,2294.638420,-6513.812290,2681.334243
21544.610113,888.247130,-9992.780217,1762.019645
21544.610446,814.226536,-7031.956449,-459.657299
21544.610779,-4293.194464,-10807.006753,-3447.429741
21544.611112,-3256.906145,-11917.315666,-4596.572988
21544.611445,-1776.494261,-11029.068536,536.266849
21544.611778,370.102971,-6883.915261,-2298.286494
21544.612111,814.226536,-7179.997637,-1838.629195
21544.612444,3108.864956,-11251.130318,2374.896044
21544.612777,5847.626942,-8882.471304,2681.334243
21544.613110,7920.203579,-8290.306550,6971.469032
21544.613443,5551.544565,-8734.430116,4290.134789
21544.613776,4071.132681,-6439.791695,689.485948
21544.614110,3478.967927,-12583.501014,1762.019645
21544.614443,7031.956449,-9474.636058,-76.609550
21544.614776,888.247130,-9548.656652,0.000000
21544.615109,444.123565,-8216.285956,-4596.572988
21544.615442,-1480.411884,-12879.583391,-2528.115143
21544.615775,-2738.761985,-10066.800811,-4979.620737
21544.616108,1702.473667,-8882.471304,-1302.362347
21544.616441,-1406.391290,-8734.430116,-1302.362347
21544.616774,962.267725,-7624.121203,153.219100
21544.617107,1776.494261,-8734.430116,3140.991542
21544.617440,7031.956449,-9474.636058,4519.963438
21544.617773,5921.647536,-7624.121203,5515.887586
21544.618107,3627.009116,-8364.327145,1762.019645
21544.618440,888.247130,-11473.192101,-1608.800546
21544.618773,-2960.823768,-11325.150913,-3064.381992
21544.619106,3404.947333,-10362.883188,995.924147
21544.619439,518.144159,-9474.636058,-76.609550
21544.619772,-3552.988522,-6291.750507,0.000000
21544.620105,-4071.132681,-10584.944971,-4366.744339
21544.620438,-2442.679609,-11103.089130,-2681.334243
21544.620771,814.226536,-7624.121203,2374.896044
21544.621104,-814.226536,-8586.388927,2145.067394
21544.621437,0.000000,-8290.306550,3140.991542
21544.621770,-1184.329507,-9474.636058,3830.477490
21544.622104,3034.844362,-9474.636058,4213.525239
21544.622437,-2072.576638,-5403.503377,2451.505594
21544.622770,-3552.988522,-10732.986159,-76.609550
21544.623103,-3330.926739,-12139.377449,-2528.115143
21544.623436,-7105.977043,-9844.739029,-2451.505594
21544.623769,-3034.844362,-9178.553681,-2834.553343
21544.624102,-4145.153275,-8290.306550,-1302.362347
21544.624435,-2664.741391,-9992.780217,0.000000
21544.624768,-74.020594,-8290.306550,3600.648841
21544.625101,1702.473667,-11843.295072,2987.772442
21544.625434,-2368.659014,-5403.503377,2451.505594
21544.625767,-74.020594,-7698.141797,2374.896044
21544.626100,2294.638420,-9178.553681,1149.143247
21544.626434,5847.626942,-9474.636058,4060.306139
21544.626767,3182.885551,-11473.192101,2145.067394
21544.627100,-814.226536,-8216.285956,-1149.143247
21544.627433,-3256.906145,-11843.295072,-3830.477490
21544.627766,-2220.617826,-8956.491898,-3064.381992
21544.628099,1110.308913,-8586.388927,-3140.991542
21544.628432,-2368.659014,-7179.997637,1225.752797
21544.628765,-74.020594,-8882.471304,-1302.362347
21544.629098,518.144159,-10658.965565,536.266849
21544.629431,3256.906145,-6513.812290,6665.030833
21544.629764,6439.791695,-6291.750507,6128.763984
21544.630097,4737.318029,-6365.771101,4826.401637
21544.630431,148.041188,-9844.739029,1455.581446
21544.630764,2664.741391,-7550.100608,0.000000
21544.631097,0.000000,-8364.327145,-2451.505594
21544.631430,4441.235652,-12731.542202,-76.609550
21544.631763,-2442.679609,-12879.583391,-5286.058936
21544.632096,-4367.215058,-10732.986159,-6435.202183
21544.632429,-1258.350101,-11251.130318,-1608.800546
21544.632762,3182.885551,-9918.759623,4136.915689
21544.633095,6735.874072,-4589.276840,5975.544884
21544.633428,3256.906145,-7698.141797,4979.620737
21544.633761,4737.318029,-8364.327145,5209.449386
21544.634094,2368.659014,-6883.915261,4673.182538
21544.634427,4219.173869,-6735.874072,3524.039291
21544.634761,-1628.453072,-8512.368333,-4596.572988
21544.635094,-5551.544565,-14508.036463,-6435.202183
21544.635427,-4737.318029,-9548.656652,-6741.640382
21544.635760,-1850.514855,-8364.327145,-4979.620737
21544.636093,0.000000,-9548.656652,1991.848295
21544.636426,-2738.761985,-11103.089130,-76.609550
21544.636759,-74.020594,-10658.965565,2374.896044
21544.637092,1776.494261,-8068.244768,7354.516781
21544.637425,4367.215058,-5329.482782,5286.058936
21544.637758,1480.411884,-7179.997637,4443.353888
21544.638091,518.144159,-8142.265362,3140.991542
21544.638424,2294.638420,-9178.553681,2987.772442
21544.638758,0.000000,-7772.162391,0.000000
21544.639091,-2368.659014,-9844.739029,-76.609550
21544.639424,-4811.338623,-11843.295072,-7124.688131
21544.639757,-5921.647536,-11029.068536,-4596.572988
21544.640090,-2738.761985,-11547.212695,-2528.115143
21544.640423,-1110.308913,-8364.327145,-229.828649
21544.640756,-814.226536,-7624.121203,2068.457845
21544.641089,814.226536,-8290.306550,3447.429741
21544.641422,3478.967927,-7105.977043,4826.401637
21544.641755,0.000000,-7476.080014,6435.202183
21544.642088,3330.926739,-6513.812290,4213.525239
21544.642421,-74.020594,-8142.265362,-1838.629195
21544.642755,0.000000,-11769.274478,1225.752797
21544.643088,-74.020594,-8882.471304,-3064.381992
21544.643421,-592.164754,-9918.759623,-2604.724693
21544.643754,-2590.720797,-10214.842000,-3753.867940
21544.644087,-3478.967927,-13027.624579,-2681.334243
21544.644420,-1628.453072,-9548.656652,-3294.210641
21544.644753,0.000000,-8956.491898,5669.106685
21544.645086,5551.544565,-4737.318029,2987.772442
21544.645419,2368.659014,-5995.668130,1225.752797
21544.645752,3552.988522,-10732.986159,6128.763984
21544.646085,6439.791695,-6069.688724,3294.210641
21544.646418,3997.112087,-8882.471304,3294.210641
21544.646751,1702.473667,-7698.141797,-383.047749
21544.647085,-4515.256246,-10955.047942,-6358.592633
21544.647418,-2368.659014,-10732.986159,-5898.935335
21544.647751,-1110.308913,-10807.006753,-2911.162892
21544.648084,518.144159,-9622.677246,-1838.629195
21544.648417,-962.267725,-10955.047942,-76.609550
21544.648750,2072.576638,-11251.130318,2834.553343
21544.649083,5847.626942,-8290.306550,3907.087040
21544.649416,3552.988522,-5995.668130,8580.269578
21544.649749,4663.297435,-7698.141797,4826.401637
21544.650082,814.226536,-8364.327145,-459.657299
21544.650415,0.000000,-10732.986159,1225.752797
21544.650748,3034.844362,-5625.565159,-229.828649
21544.651082,1258.350101,-10288.862594,-1915.238745
21544.651415,-1776.494261,-11843.295072,-3753.867940
21544.651748,-3330.926739,-14211.954086,-3140.991542
21544.652081,-1850.514855,-11843.295072,-3140.991542
21544.652414,0.000000,-8660.409521,1225.752797
21544.652747,-962.267725,-9474.636058,2604.724693
21544.653080,2220.617826,-7994.224174,2068.457845
21544.653413,-74.020594,-8290.306550,5439.278036
21544.653746,2812.782580,-6735.874072,4136.915689
21544.654079,3701.029710,-7402.059420,5132.839837
21544.654412,-370.102971,-7550.100608,919.314598
21544.654745,0.000000,-9548.656652,-1225.752797
21544.655078,-1850.514855,-11251.130318,-2528.115143
21544.655412,-2368.659014,-9548.656652,-2145.067394
21544.655745,-2738.761985,-10362.883188,-5898.935335
21544.656078,-4219.173869,-14211.954086,-4979.620737
21544.656411,-4145.153275,-11029.068536,-2451.505594
21544.656744,0.000000,-8734.430116,2757.943793
21544.657077,2960.823768,-6143.709319,4826.401637
21544.657410,1702.473667,-6661.853478,3677.258390
21544.657743,2072.576638,-12139.377449,6665.030833
21544.658076,5255.462188,-3923.091493,3677.258390
21544.658409,6735.874072,-9474.636058,8503.660028
21544.658742,4367.215058,-4737.318029,-612.876398
21544.659075,-3849.070898,-10732.986159,-2911.162892
21544.659409,-3256.906145,-12509.480420,-4596.572988
21544.659742,-2294.638420,-13619.789333,-4213.525239
21544.660075,-2738.761985,-10288.862594,-3447.429741
21544.660408,-1110.308913,-9474.636058,-2068.457845
21544.660741,-3627.009116,-11843.295072,-689.485948
21544.661074,0.000000,-6587.832884,6588.421283
21544.661407,4367.215058,-2442.679609,4903.011187
21544.661740,7031.956449,-8290.306550,5745.716235
21544.662073,3478.967927,-5329.482782,2221.676944
21544.662407,2812.782580,-11695.253884,3600.648841
21544.662740,4663.297435,-10066.800811,0.000000
21544.663073,1924.535449,-11251.130318,-76.609550
21544.663406,-888.247130,-9252.574275,-4903.011187
21544.663739,-2442.679609,-14359.995275,-3140.991542
21544.664072,-740.205942,-12287.418637,-2068.457845
21544.664405,-1110.308913,-9622.677246,-1762.019645
21544.664738,0.000000,-7994.224174,-76.609550
21544.665071,-74.020594,-7550.100608,1991.848295
21544.665405,2294.638420,-6809.894666,3600.648841
21544.665738,5107.421000,-4959.379811,6435.202183
21544.666071,5847.626942,-8290.306550,2987.772442
21544.666404,0.000000,-8364.327145,2451.505594
21544.666737,296.082377,-11251.130318,689.485948
21544.667070,-666.185348,-12731.542202,-4519.963438
21544.667403,1036.288319,-9696.697840,-1915.238745
21544.667736,-3330.926739,-10881.027347,-4826.401637
21544.668070,-1924.535449,-10807.006753,-2757.943793
21544.668403,-4737.318029,-11029.068536,-2145.067394
21544.668736,0.000000,-10732.986159,3600.648841
21544.669069,2886.803174,-4589.276840,3753.867940
21544.669402,0.000000,-3627.009116,2451.505594
21544.669735,296.082377,-9252.574275,5056.230287
21544.670068,1110.308913,-3775.050304,0.000000
21544.670401,3108.864956,-9474.636058,4213.525239
21544.670734,296.082377,-6143.709319,995.924147
21544.671068,-2812.782580,-10436.903782,-4673.182538
21544.671401,-5477.523971,-14211.954086,-4136.915689
21544.671734,-4737.318029,-13989.892304,-1302.362347
21544.672067,-1258.350101,-7179.997637,-3370.820191
21544.672400,-2368.659014,-9548.656652,0.000000
21544.672733,2368.659014,-6661.853478,2068.457845
21544.673066,0.000000,-9548.656652,5822.325785
21544.673399,5847.626942,-4811.338623,4903.011187
21544.673733,2886.803174,-7402.059420,4136.915689
21544.674066,-3108.864956,-10658.965565,612.876398
21544.674399,1110.308913,-7698.141797,-1302.362347
21544.674732,-1258.350101,-13323.706956,-1302.362347
21544.675065,3552.988522,-3923.091493,0.000000
21544.675398,0.000000,-10362.883188,-76.609550
21544.675731,-74.020594,-13619.789333,-689.485948
21544.676064,-74.020594,-12139.377449,-76.609550
21544.676397,0.000000,-12731.542202,-1838.629195
21544.676731,2368.659014,-6587.832884,0.000000
21544.677064,-222.061783,-8216.285956,1685.410096
21544.677397,3552.988522,-6587.832884,3983.696590
21544.677730,4071.132681,-6809.894666,3830.477490
21544.678063,5033.400406,-7179.997637,3064.381992
21544.678396,3108.864956,-9474.636058,4826.401637
21544.678729,-1554.432478,-9696.697840,-2145.067394
21544.679062,-74.020594,-10955.047942,-1302.362347
21544.679396,-3849.070898,-10732.986159,-3370.820191
21544.679729,0.000000,-7994.224174,-4366.744339
21544.680062,-2886.803174,-9770.718434,-2451.505594
21544.680395,-2368.659014,-9548.656652,-2145.067394
21544.680728,-740.205942,-7476.080014,0.000000
21544.681061,1998.556043,-9326.594869,2911.162892
21544.681394,3775.050304,-6513.812290,3600.648841
21544.681727,148.041188,-8364.327145,3217.601092
21544.682060,1184.329507,-8364.327145,1762.019645
21544.682394,6439.791695,-9474.636058,4519.963438
21544.682727,1776.494261,-7772.162391,3370.820191
21544.683060,2886.803174,-8882.471304,-76.609550
21544.683393,-4293.194464,-14137.933492,-3370.820191
21544.683726,-3552.988522,-10732.986159,-4290.134789
21544.684059,-1258.350101,-9178.553681,-842.705048
21544.684392,-2960.823768,-8142.265362,-2068.457845
21544.684725,-2738.761985,-8216.285956,-3907.087040
21544.685059,-3256.906145,-11917.315666,-2451.505594
21544.685392,2294.638420,-10436.903782,3677.258390
21544.685725,1184.329507,-2442.679609,7354.516781
21544.686058,2886.803174,-9474.636058,3600.648841
21544.686391,1110.308913,-6809.894666,842.705048
21544.686724,2368.659014,-10362.883188,4060.306139
21544.687057,2072.576638,-7624.121203,2298.286494
21544.687390,0.000000,-8512.368333,-2221.676944
21544.687723,-4145.153275,-13619.789333,-3600.648841
21544.688057,-3330.926739,-12287.418637,-2834.553343
21544.688390,-2738.761985,-7772.162391,-3677.258390
21544.688723,-888.247130,-10066.800811,0.000000
21544.689056,-888.247130,-8290.306550,1149.143247
21544.689389,-2368.659014,-7179.997637,1225.752797
21544.689722,2294.638420,-7698.141797,3294.210641
21544.690055,2294.638420,-8734.430116,6511.811733
21544.690388,3108.864956,-4737.318029,3524.039291
21544.690721,1332.370696,-11399.171507,2911.162892
21544.691055,222.061783,-8882.471304,-1302.362347
21544.691388,-2960.823768,-7772.162391,-1225.752797
21544.691721,-74.020594,-11251.130318,-3140.991542
21544.692054,-2738.761985,-11251.130318,-6205.373534
21544.692387,-9474.636058,-11917.315666,-5975.544884
21544.692720,-666.185348,-9474.636058,-3447.429741
21544.693053,-888.247130,-10510.924376,2451.505594
21544.693386,4293.194464,-5181.441594,4366.744339
21544.693720,5403.503377,-8216.285956,7201.297681
21544.694053,3775.050304,-9474.636058,6052.154434
21544.694386,7105.977043,-6513.812290,4136.915689
21544.694719,4663.297435,-10362.883188,4826.401637
21544.695052,1480.411884,-7031.956449,-1915.238745
21544.695385,-3256.906145,-13693.809927,-3064.381992
21544.695718,-2072.576638,-13323.706956,-3753.867940
21544.696051,-370.102971,-8956.491898,-4749.792088
21544.696384,-3182.885551,-9548.656652,0.000000
21544.696718,-296.082377,-9474.636058,-689.485948
21544.697051,-4293.194464,-12509.480420,-4136.915689
21544.697384,2072.576638,-6365.771101,2911.162892
21544.697717,3034.844362,-6661.853478,6205.373534
21544.698050,5181.441594,-4145.153275,5439.278036
21544.698383,4663.297435,-7105.977043,4826.401637
21544.698716,1110.308913,-10658.965565,2068.457845
21544.699049,1184.329507,-8364.327145,0.000000
21544.699383,-1258.350101,-11103.089130,-2528.115143
21544.699716,-2960.823768,-13471.748144,-5592.497135
21544.700049,-4219.173869,-13619.789333,-4136.915689
21544.700382,-1258.350101,-11251.130318,-3294.210641
21544.700715,-962.267725,-8068.244768,459.657299
21544.701048,1850.514855,-7254.018232,306.438199
21544.701381,2738.761985,-6661.853478,3600.648841
21544.701714,4663.297435,-9474.636058,5439.278036
21544.702047,3997.112087,-5995.668130,5515.887586
21544.702381,4737.318029,-6957.935855,6052.154434
21544.702714,1998.556043,-7105.977043,536.266849
21544.703047,0.000000,-9178.553681,-2681.334243
21544.703380,-1184.329507,-11917.315666,-4290.134789
21544.703713,-666.185348,-12287.418637,-2911.162892
21544.704046,-5477.523971,-11251.130318,-6741.640382
21544.704379,-4737.318029,-12509.480420,-4596.572988
21544.704712,-3923.091493,-11843.295072,-3294.210641
21544.705046,3552.988522,-9696.697840,3983.696590
21544.705379,5551.544565,-7698.141797,7890.783629
21544.705712,1776.494261,-3627.009116,6741.640382
21544.706045,0.000000,-8660.409521,3983.696590
21544.706378,2812.782580,-6809.894666,5592.497135
21544.706711,2590.720797,-7179.997637,1838.629195
21544.707044,-1036.288319,-7328.038826,-1455.581446
21544.707377,-2442.679609,-12435.459826,-4979.620737
21544.707710,-7031.956449,-11917.315666,-6128.763984
21544.708044,-1258.350101,-13619.789333,-1608.800546
21544.708377,-2442.679609,-11251.130318,-2834.553343
21544.708710,-3849.070898,-7772.162391,-2451.505594
21544.709043,-2368.659014,-7772.162391,612.876398
21544.709376,3256.906145,-9178.553681,6052.154434
21544.709709,5995.668130,-4071.132681,7354.516781
21544.710042,3627.009116,-6291.750507,4213.525239
21544.710375,1702.473667,-9474.636058,1762.019645
21544.710709,-1184.329507,-9548.656652,306.438199
21544.711042,-518.144159,-10436.903782,-1149.143247
21544.711375,-1258.350101,-9178.553681,-3753.867940
21544.711708,-2886.803174,-10288.862594,-5592.497135
21544.712041,-370.102971,-14063.912898,-1302.362347
21544.712374,0.000000,-9622.677246,459.657299
21544.712707,0.000000,-7476.080014,2451.505594
21544.713040,2294.638420,-9326.594869,-76.609550
21544.713373,148.041188,-6883.915261,919.314598
21544.713707,1480.411884,-9918.759623,3907.087040
21544.714040,2738.761985,-8216.285956,4596.572988
21544.714373,4589.276840,-5995.668130,3983.696590
21544.714706,444.123565,-8216.285956,842.705048
21544.715039,1998.556043,-11843.295072,995.924147
21544.715372,-2442.679609,-9548.656652,-3064.381992
21544.715705,1702.473667,-9474.636058,-689.485948
21544.716038,-1554.432478,-11251.130318,-4366.744339
21544.716372,-4663.297435,-7772.162391,-4903.011187
21544.716705,-2442.679609,-12435.459826,-2528.115143
21544.717038,296.082377,-8290.306550,1072.533697
21544.717371,2072.576638,-7105.977043,3370.820191
21544.717704,1406.391290,-6883.915261,3370.820191
21544.718037,2368.659014,-7179.997637,1685.410096
21544.718370,0.000000,-7179.997637,2451.505594
21544.718703,7179.997637,-9178.553681,5745.716235
21544.719036,3775.050304,-7105.977043,1762.019645
21544.719370,-2812.782580,-11621.233289,-1225.752797
21544.719703,-1850.514855,-9400.615463,-5745.716235
21544.720036,-3034.844362,-13101.645173,-1991.848295
21544.720369,222.061783,-7772.162391,-689.485948
21544.720702,-2886.803174,-8068.244768,-153.219100
21544.721035,-4441.235652,-7920.203579,-2451.505594
21544.721368,222.061783,-8882.471304,2374.896044
21544.721701,3182.885551,-8290.306550,1991.848295
21544.722035,2960.823768,-3923.091493,3064.381992
21544.722368,2294.638420,-11843.295072,4519.963438
21544.722701,1998.556043,-8734.430116,-1838.629195
21544.723034,3034.844362,-11843.295072,2068.457845
21544.723367,3182.885551,-9992.780217,1915.238745
21544.723700,1406.391290,-7698.141797,-2145.067394
21544.724033,-2072.576638,-12805.562797,-2451.505594
21544.724366,-296.082377,-12287.418637,-689.485948
21544.724699,-888.247130,-8808.450710,-76.609550
21544.725033,-1110.308913,-7624.121203,-612.876398
21544.725366,-1702.473667,-7105.977043,-689.485948
21544.725699,-1776.494261,-7846.182985,1149.143247
21544.726032,0.000000,-5995.668130,4903.011187
21544.726365,4589.276840,-7994.224174,4519.963438
21544.726698,-370.102971,-7550.100608,0.000000
21544.727031,2294.638420,-10658.965565,1149.143247
21544.727364,1998.556043,-13619.789333,-689.485948
21544.727698,2368.659014,-9992.780217,-76.609550
21544.728031,-592.164754,-10066.800811,-766.095498
21544.728364,-2960.823768,-10140.821405,-4749.792088
21544.728697,-2442.679609,-12731.542202,-1302.362347
21544.729030,-4737.318029,-10140.821405,2374.896044
21544.729363,4071.132681,-5625.565159,2987.772442
21544.729696,-2072.576638,-4145.153275,2681.334243
21544.730029,1332.370696,-4219.173869,919.314598
21544.730362,3182.885551,-10955.047942,5286.058936
21544.730696,6439.791695,-7105.977043,4213.525239
21544.731029,4885.359217,-7920.203579,2911.162892
21544.731362,-1554.432478,-11917.315666,-1915.238745
21544.731695,-2442.679609,-10066.800811,-7737.564530
21544.732028,-3034.844362,-16284.530724,-3140.991542
21544.732361,2886.803174,-11251.130318,-2221.676944
21544.732694,-2072.576638,-6143.709319,-2451.505594
21544.733027,-2368.659014,-11103.089130,1225.752797
21544.733361,518.144159,-8068.244768,3677.258390
21544.733694,3330.926739,-6957.935855,6818.249932
21544.734027,5255.462188,-3849.070898,6205.373534
21544.734360,1332.370696,-4811.338623,1685.410096
21544.734693,0.000000,-8956.491898,0.000000
21544.735026,2886.803174,-11843.295072,-76.609550
21544.735359,444.123565,-10658.965565,-1915.238745
21544.735692,-4737.318029,-9548.656652,-3370.820191
21544.736025,-3627.009116,-12139.377449,-4519.963438
21544.736359,-3404.947333,-13101.645173,-2528.115143
21544.736692,296.082377,-9696.697840,1072.533697
21544.737025,1702.473667,-6661.853478,2145.067394
21544.737358,370.102971,-7402.059420,2987.772442
21544.737691,592.164754,-8364.327145,4979.620737
21544.738024,4663.297435,-7105.977043,2987.772442
21544.738357,1776.494261,-8364.327145,3677.258390
21544.738690,4663.297435,-8586.388927,4213.525239
21544.739023,-666.185348,-11177.109724,-689.485948
21544.739357,0.000000,-9844.739029,995.924147
21544.739690,222.061783,-9400.615463,-76.609550
21544.740023,370.102971,-9918.759623,-2528.115143
21544.740356,-3701.029710,-10436.903782,-4979.620737
21544.740689,-4737.318029,-12509.480420,-3983.696590
21544.741022,-2294.638420,-10732.986159,-1608.800546
21544.741355,2072.576638,-9030.512492,3830.477490
21544.741688,4811.338623,-4071.132681,4903.011187
21544.742022,1406.391290,-6587.832884,3064.381992
21544.742355,1184.329507,-8364.327145,3677.258390
21544.742688,4959.379811,-10955.047942,4826.401637
21544.743021,4367.215058,-4811.338623,1225.752797
21544.743354,0.000000,-9104.533087,-995.924147
21544.743687,-1258.350101,-12435.459826,-3753.867940
21544.744020,-2960.823768,-11621.233289,-3064.381992
21544.744353,-222.061783,-10066.800811,-1762.019645
21544.744686,0.000000,-8660.409521,-842.705048
21544.745020,-5329.482782,-9548.656652,-3677.258390
21544.745353,0.000000,-7179.997637,612.876398
21544.745686,3478.967927,-11251.130318,3600.648841
21544.746019,5329.482782,-4811.338623,5132.839837
21544.746352,2368.659014,-5995.668130,5286.058936
21544.746685,2664.741391,-6883.915261,459.657299
21544.747018,2146.597232,-10807.006753,2374.896044
21544.747351,2516.700203,-8956.491898,1455.581446
21544.747685,-74.020594,-9474.636058,-2374.896044
21544.748018,-2442.679609,-11547.212695,-3140.991542
21544.748351,-4441.235652,-11325.150913,-2451.505594
21544.748684,-74.020594,-10658.965565,-995.924147
21544.749017,0.000000,-6291.750507,0.000000
21544.749350,-3552.988522,-8956.491898,1608.800546
21544.749683,-74.020594,-9474.636058,1225.752797
21544.750016,1776.494261,-8142.265362,3294.210641
21544.750349,4737.318029,-8956.491898,7277.907231
21544.750683,4663.297435,-5699.585753,4749.792088
21544.751016,1702.473667,-8586.388927,536.266849
21544.751349,-1776.494261,-12657.521608,-76.609550
21544.751682,-4515.256246,-8882.471304,-5592.497135
21544.752015,-3552.988522,-10732.986159,-612.876398
21544.752348,-1850.514855,-7105.977043,-4060.306139
21544.752681,-3627.009116,-10955.047942,-4979.620737
21544.753014,-2294.638420,-11399.171507,459.657299
21544.753348,1480.411884,-9326.594869,3217.601092
21544.753681,2664.741391,-6957.935855,5592.497135
21544.754014,0.000000,-5995.668130,2451.505594
21544.754347,2294.638420,-11251.130318,842.705048
21544.754680,2368.659014,-8068.244768,5515.887586
21544.755013,7031.956449,-9474.636058,4826.401637
21544.755346,814.226536,-6291.750507,-2145.067394
21544.755679,-2442.679609,-11547.212695,-2834.553343
21544.756012,-3330.926739,-12139.377449,-4519.963438
21544.756346,148.041188,-9918.759623,-2834.553343
21544.756679,-2072.576638,-11177.109724,-2145.067394
21544.757012,-2960.823768,-6291.750507,-4290.134789
21544.757345,-1850.514855,-12657.521608,0.000000
21544.757678,4515.256246,-5329.482782,5439.278036
21544.758011,5847.626942,-8882.471304,9499.584175
21544.758344,2146.597232,-5329.482782,3753.867940
21544.758677,1776.494261,-7179.997637,1838.629195
21544.759011,-962.267725,-11843.295072,1149.143247
21544.759344,5255.462188,-5551.544565,-2451.505594
21544.759677,-740.205942,-11843.295072,-1302.362347
21544.760010,-1258.350101,-11843.295072,-3753.867940
21544.760343,-4737.318029,-9548.656652,-6128.763984
21544.760676,-518.144159,-12731.542202,-3447.429741
21544.761009,1332.370696,-10288.862594,842.705048
21544.761342,1998.556043,-7994.224174,2068.457845
21544.761675,1184.329507,-7846.182985,3064.381992
21544.762009,5847.626942,-9474.636058,4519.963438
21544.762342,4737.318029,-4811.338623,3983.696590
21544.762675,5921.647536,-8364.327145,9116.536426
21544.763008,2886.803174,-6513.812290,229.828649
21544.763341,0.000000,-10140.821405,-919.314598
21544.763674,-2294.638420,-11917.315666,-2834.553343
21544.764007,-148.041188,-9104.533087,-4366.744339
21544.764340,-3849.070898,-10288.862594,-5669.106685
21544.764674,-2738.761985,-13619.789333,-4366.744339
21544.765007,-2442.679609,-11843.295072,-4060.306139
21544.765340,296.082377,-8364.327145,3677.258390
21544.765673,4737.318029,-8216.285956,9729.412825
21544.766006,2886.803174,-3997.112087,4290.134789
21544.766339,1628.453072,-10362.883188,4826.401637
21544.766672,2368.659014,-6661.853478,3677.258390
21544.767005,1998.556043,-8660.409521,1072.533697
21544.767338,444.123565,-8438.347739,689.485948
21544.767672,-3478.967927,-8290.306550,-6205.373534
21544.768005,-5625.565159,-11029.068536,-8580.269578
21544.768338,-2072.576638,-13101.645173,-689.485948
21544.768671,-74.020594,-10362.883188,-76.609550
21544.769004,-3478.967927,-6587.832884,-4903.011187
21544.769337,-1332.370696,-11843.295072,-76.609550
21544.769670,-1036.288319,-8068.244768,4596.572988
21544.770003,4737.318029,-5107.421000,7354.516781
21544.770337,4441.235652,-4737.318029,5592.497135
21544.770670,222.061783,-4737.318029,766.095498
21544.771003,740.205942,-9252.574275,-766.095498
21544.771336,1406.391290,-11843.295072,919.314598
21544.771669,2294.638420,-10362.883188,-1455.581446
21544.772002,-4145.153275,-11473.192101,-4903.011187
21544.772335,-2368.659014,-12509.480420,-2987.772442
21544.772668,-3034.844362,-11029.068536,-5822.325785
21544.773001,1184.329507,-8364.327145,0.000000
21544.773335,1850.514855,-9326.594869,2834.553343
21544.773668,0.000000,-6883.915261,2451.505594
21544.774001,1924.535449,-8734.430116,4826.401637
21544.774334,4515.256246,-6661.853478,5975.544884
21544.774667,4737.318029,-8586.388927,5362.668486
21544.775000,3478.967927,-7105.977043,-76.609550
21544.775333,-1184.329507,-9548.656652,-612.876398
21544.775666,-1554.432478,-7179.997637,-4903.011187
21544.776000,1776.494261,-13619.789333,-76.609550
21544.776333,-666.185348,-11547.212695,-2528.115143
21544.776666,-1850.514855,-10066.800811,-3753.867940
21544.776999,-4441.235652,-13767.830521,-995.924147
21544.777332,0.000000,-7476.080014,995.924147
21544.777665,3034.844362,-8216.285956,3600.648841
21544.777998,3182.885551,-5107.421000,4290.134789
21544.778331,592.164754,-7328.038826,1762.019645
21544.778664,2368.659014,-10140.821405,1225.752797
21544.778998,5625.565159,-11843.295072,4826.401637
21544.779331,2886.803174,-7476.080014,0.000000
21544.779664,-4145.153275,-9548.656652,-4596.572988
21544.779997,-2442.679609,-12731.542202,-6128.763984
21544.780330,-962.267725,-11769.274478,-995.924147
21544.780663,1776.494261,-8364.327145,1532.190996
21544.780996,-74.020594,-9178.553681,2298.286494
21544.781329,-1554.432478,-8882.471304,-689.485948
21544.781663,-1776.494261,-9844.739029,4136.915689
21544.781996,4145.153275,-7698.141797,8503.660028
21544.782329,3182.885551,-3034.844362,612.876398
21544.782662,-2368.659014,-8956.491898,0.000000
21544.782995,-1258.350101,-8660.409521,-919.314598
21544.783328,740.205942,-10584.944971,1915.238745
21544.783661,3627.009116,-8660.409521,2298.286494
21544.783994,-2220.617826,-10881.027347,-1608.800546
21544.784327,-5107.421000,-8956.491898,-7967.393179
21544.784661,-2220.617826,-14211.954086,-1302.362347
21544.784994,-666.185348,-10362.883188,-1991.848295
21544.785327,592.164754,-4811.338623,1225.752797
21544.785660,-2368.659014,-8068.244768,2757.943793
21544.785993,1628.453072,-5107.421000,1225.752797
21544.786326,1998.556043,-9104.533087,3907.087040
21544.786659,6069.688724,-7105.977043,5209.449386
21544.786992,3478.967927,-6143.709319,2757.943793
21544.787326,-74.020594,-9252.574275,-1838.629195
21544.787659,-296.082377,-12065.356855,-2221.676944
21544.787992,-222.061783,-11547.212695,-306.438199
21544.788325,-2368.659014,-10140.821405,-1685.410096
21544.788658,-4589.276840,-9474.636058,-4979.620737
21544.788991,-5699.585753,-12509.480420,-6052.154434
21544.789324,-3552.988522,-5403.503377,-4290.134789
21544.789657,1480.411884,-9252.574275,5286.058936
21544.789990,5847.626942,-4145.153275,6665.030833
21544.790324,0.000000,-6587.832884,4903.011187
21544.790657,2368.659014,-8512.368333,3830.477490
21544.790990,3923.091493,-8808.450710,3753.867940
21544.791323,2960.823768,-9844.739029,0.000000
21544.791656,1110.308913,-10362.883188,-2681.334243
21544.791989,-3034.844362,-11843.295072,-9039.926876
21544.792322,-1776.494261,-13397.727550,-1685.410096
21544.792655,-74.020594,-11843.295072,2374.896044
21544.792988,-74.020594,-7550.100608,-1225.752797
21544.793322,-962.267725,-8142.265362,1149.143247
21544.793655,-888.247130,-7476.080014,1378.971896
21544.793988,4663.297435,-6735.874072,4136.915689
21544.794321,4219.173869,-7698.141797,5439.278036
21544.794654,0.000000,-5699.585753,1225.752797
21544.794987,1110.308913,-7179.997637,0.000000
21544.795320,3182.885551,-13027.624579,2374.896044
21544.795653,4367.215058,-8808.450710,0.000000
21544.795987,-1998.556043,-9548.656652,-4903.011187
21544.796320,-3256.906145,-9844.739029,-4673.182538
21544.796653,-1924.535449,-11621.233289,-3524.039291
21544.796986,2146.597232,-11769.274478,1455.581446
21544.797319,2368.659014,-8142.265362,2374.896044
21544.797652,1110.308913,-7105.977043,2374.896044
21544.797985,0.000000,-7179.997637,1225.752797
21544.798318,4663.297435,-13027.624579,4826.401637
21544.798651,4737.318029,-4811.338623,6281.983084
21544.798985,4663.297435,-6809.894666,6052.154434
21544.799318,1406.391290,-8882.471304,-612.876398
21544.799651,-296.082377,-10658.965565,-2451.505594
21544.799984,-1776.494261,-11621.233289,0.000000
21544.800317,1406.391290,-9548.656652,-2221.676944
21544.800650,-3627.009116,-8882.471304,-3677.258390
21544.800983,-4811.338623,-14211.954086,-4979.620737
21544.801316,-3404.947333,-8364.327145,-2298.286494
21544.801650,4589.276840,-9844.739029,6665.030833
21544.801983,4663.297435,-7772.162391,5515.887586
21544.802316,2590.720797,-6291.750507,5132.839837
21544.802649,1110.308913,-12435.459826,2681.334243
21544.802982,3849.070898,-6365.771101,4290.134789
21544.803315,2516.700203,-8660.409521,4826.401637
21544.803648,0.000000,-7254.018232,-2145.067394
21544.803981,-3627.009116,-10066.800811,-5132.839837
21544.804314,-6069.688724,-14137.933492,-5209.449386
21544.804648,-74.020594,-9030.512492,-689.485948
21544.804981,-3108.864956,-7550.100608,-995.924147
21544.805314,-1554.432478,-9178.553681,-1915.238745
21544.805647,-3552.988522,-10584.944971,2451.505594
21544.805980,3775.050304,-9474.636058,4519.963438
21544.806313,2664.741391,-4811.338623,7354.516781
21544.806646,0.000000,-5107.421000,3830.477490
21544.806979,-74.020594,-8290.306550,-1225.752797
21544.807313,-2368.659014,-10436.903782,1532.190996
21544.807646,2442.679609,-8438.347739,-1991.848295
21544.807979,-666.185348,-11103.089130,-1225.752797
21544.808312,-5329.482782,-9548.656652,-4903.011187
21544.808645,-2442.679609,-13027.624579,-4366.744339
21544.808978,-4737.318029,-9548.656652,0.000000
21544.809311,0.000000,-6587.832884,3064.381992
21544.809644,-666.185348,-9474.636058,2374.896044
21544.809977,0.000000,-6883.915261,3370.820191
21544.810311,1406.391290,-9178.553681,3064.381992
21544.810644,3034.844362,-9252.574275,5439.278036
21544.810977,5847.626942,-7105.977043,5439.278036
21544.811310,1184.329507,-7920.203579,1915.238745
21544.811644,-74.020594,-13027.624579,-2528.115143
21544.811977,-4737.318029,-11103.089130,-2528.115143
21544.812310,0.000000,-11917.315666,1455.581446
21544.812643,-1258.350101,-7846.182985,-5209.449386
21544.812977,-370.102971,-10955.047942,-2451.505594
21544.813310,-814.226536,-9474.636058,-689.485948
21544.813643,4219.173869,-8290.306550,5056.230287
21544.813976,4589.276840,-4071.132681,3677.258390
21544.814309,1184.329507,-7328.038826,306.438199
21544.814643,3182.885551,-6735.874072,0.000000
21544.814976,6143.709319,-13027.624579,-76.609550
21544.815309,7402.059420,-8364.327145,4903.011187
21544.815642,7031.956449,-10066.800811,4213.525239
21544.815976,962.267725,-8364.327145,-6205.373534
21544.816309,-1184.329507,-11917.315666,-4673.182538
21544.816642,-666.185348,-13915.871710,-3140.991542
21544.816975,1258.350101,-8882.471304,0.000000
21544.817309,-74.020594,-10658.965565,1149.143247
21544.817642,0.000000,-6587.832884,1225.752797
21544.817975,1702.473667,-8882.471304,4213.525239
21544.818308,6439.791695,-2442.679609,4903.011187
21544.818641,4293.194464,-7994.224174,4519.963438
21544.818975,-1258.350101,-8364.327145,-2528.115143
21544.819308,-2812.782580,-10362.883188,-2068.457845
21544.819641,-1998.556043,-12361.439231,-1302.362347
21544.819974,1480.411884,-8438.347739,-306.438199
21544.820308,-1702.473667,-12731.542202,-383.047749
21544.820641,-1776.494261,-9252.574275,-1685.410096
21544.820974,-4219.173869,-13323.706956,-995.924147
21544.821307,740.205942,-8660.409521,1762.019645
21544.821641,-1850.514855,-7031.956449,1302.362347
21544.821974,888.247130,-7846.182985,1225.752797
21544.822307,2960.823768,-5995.668130,0.000000
21544.822640,1184.329507,-15396.283594,7890.783629
21544.822974,5551.544565,-2738.761985,4903.011187
21544.823307,-3552.988522,-7698.141797,0.000000
21544.823640,-1184.329507,-11177.109724,-2528.115143
21544.823973,-5625.565159,-11473.192101,-2987.772442
21544.824306,-2294.638420,-10807.006753,-766.095498
21544.824640,-4737.318029,-6587.832884,-2298.286494
21544.824973,-5995.668130,-9474.636058,-4979.620737
21544.825306,-7105.977043,-9548.656652,0.000000
21544.825639,-4145.153275,-6291.750507,4136.915689
21544.825973,3478.967927,-7105.977043,1762.019645
21544.826306,0.000000,-7179.997637,4903.011187
21544.826639,1998.556043,-7994.224174,1149.143247
21544.826972,1554.432478,-11325.150913,3753.867940
21544.827306,2516.700203,-9400.615463,3983.696590
21544.827639,2812.782580,-6883.915261,-612.876398
21544.827972,-1850.514855,-9030.512492,-4826.401637
21544.828305,0.000000,-12213.398043,-1838.629195
21544.828638,-814.226536,-13619.789333,-76.609550
21544.828972,-74.020594,-8882.471304,-2528.115143
21544.829305,0.000000,-7402.059420,1455.581446
21544.829638,-1628.453072,-7179.997637,-612.876398
21544.829971,1702.473667,-8142.265362,3830.477490
21544.830305,4515.256246,-4515.256246,4903.011187
21544.830638,2664.741391,-6957.935855,2068.457845
21544.830971,2960.823768,-7476.080014,1225.752797
21544.831304,4737.318029,-11103.089130,4826.401637
21544.831638,5847.626942,-9474.636058,0.000000
21544.831971,3552.988522,-7179.997637,-2451.505594
21544.832304,3108.864956,-11547.212695,-3753.867940
21544.832637,-2146.597232,-13693.809927,-6128.763984
21544.832970,888.247130,-12435.459826,-4213.525239
21544.833304,1924.535449,-13693.809927,612.876398
21544.833637,5107.421000,-8586.388927,3907.087040
21544.833970,5921.647536,-4811.338623,4290.134789
21544.834303,3404.947333,-8882.471304,4673.182538
21544.834637,7254.018232,-6365.771101,5745.716235
21544.834970,3849.070898,-6883.915261,6281.983084
21544.835303,4663.297435,-9474.636058,2374.896044
21544.835636,-370.102971,-7920.203579,-4596.572988
21544.835970,-6809.894666,-15692.365970,-4979.620737
21544.836303,-1258.350101,-11843.295072,-4979.620737
21544.836636,-4959.379811,-10732.986159,-4903.011187
21544.836969,-1258.350101,-9474.636058,-3753.867940
21544.837302,-6735.874072,-10732.986159,-2068.457845
21544.837636,-2368.659014,-9030.512492,536.266849
21544.837969,1406.391290,-8290.306550,5132.839837
21544.838302,0.000000,-3923.091493,5822.325785
21544.838635,4959.379811,-4737.318029,3064.381992
21544.838969,1480.411884,-11547.212695,6665.030833
21544.839302,2664.741391,-5403.503377,4903.011187
21544.839635,-1776.494261,-10140.821405,3217.601092
21544.839968,-6513.812290,-7772.162391,-7048.078582
21544.840302,-5847.626942,-12805.562797,-8120.612279
21544.840635,-7179.997637,-17468.860231,-5362.668486
21544.840968,-74.020594,-9474.636058,-689.485948
21544.841301,-3923.091493,-9474.636058,-76.609550
21544.841634,-4071.132681,-6291.750507,0.000000
21544.841968,-666.185348,-5921.647536,1762.019645
21544.842301,592.164754,-5403.503377,7354.516781
21544.842634,5255.462188,-3552.988522,7277.907231
21544.842967,-74.020594,-9474.636058,2374.896044
21544.843301,-2516.700203,-8808.450710,-1225.752797
21544.843634,-3034.844362,-10436.903782,-1072.533697
21544.843967,222.061783,-10140.821405,-1225.752797
21544.844300,-740.205942,-9030.512492,-5056.230287
21544.844634,-74.020594,-14211.954086,-1915.238745
21544.844967,-2368.659014,-11325.150913,-2451.505594
21544.845300,0.000000,-8364.327145,2451.505594
21544.845633,4071.132681,-11843.295072,2221.676944
21544.845966,2738.761985,-3034.844362,612.876398
21544.846300,3478.967927,-8882.471304,3294.210641
21544.846633,5699.585753,-6661.853478,4443.353888
21544.846966,5699.585753,-7476.080014,4213.525239
21544.847299,3552.988522,-8512.368333,2987.772442
21544.847633,2886.803174,-8290.306550,-1302.362347
21544.847966,-3256.906145,-11917.315666,-1838.629195
21544.848299,1998.556043,-10658.965565,-1302.362347
21544.848632,-74.020594,-9474.636058,-4979.620737
21544.848966,-4145.153275,-7772.162391,-6128.763984
21544.849299,-2738.761985,-11547.212695,-5286.058936
21544.849632,296.082377,-11843.295072,689.485948
21544.849965,5625.565159,-6069.688724,5515.887586
21544.850298,6513.812290,-6513.812290,7124.688131
21544.850632,4663.297435,-5921.647536,4213.525239
21544.850965,4367.215058,-7031.956449,229.828649
21544.851298,2368.659014,-14063.912898,919.314598
21544.851631,6143.709319,-8882.471304,3064.381992
21544.851965,0.000000,-10732.986159,-1225.752797
21544.852298,-222.061783,-11547.212695,-3753.867940
21544.852631,-5329.482782,-10732.986159,-5515.887586
21544.852964,-2368.659014,-10140.821405,459.657299
21544.853298,-74.020594,-6513.812290,536.266849
21544.853631,-3182.885551,-5995.668130,0.000000
21544.853964,-592.164754,-7105.977043,1608.800546
21544.854297,-592.164754,-6809.894666,4673.182538
21544.854630,1184.329507,-7105.977043,2298.286494
21544.854964,-74.020594,-10066.800811,1762.019645
21544.855297,-2442.679609,-13027.624579,-1915.238745
21544.855630,-3552.988522,-9548.656652,-612.876398
21544.855963,2294.638420,-14211.954086,2374.896044
21544.856297,-1406.391290,-8808.450710,-1838.629195
21544.856630,-4737.318029,-8956.491898,689.485948
21544.856963,-2368.659014,-8364.327145,-1072.533697
21544.857296,-2368.659014,-9326.594869,1991.848295
21544.857630,666.185348,-5625.565159,2451.505594
21544.857963,-1258.350101,-7105.977043,2221.676944
21544.858296,-74.020594,-7105.977043,-2528.115143
21544.858629,0.000000,-10436.903782,2068.457845
21544.858962,3478.967927,-11843.295072,5439.278036
21544.859296,3478.967927,-3997.112087,1838.629195
21544.859629,-2146.597232,-10066.800811,-1302.362347
21544.859962,-1702.473667,-11917.315666,-2911.162892
21544.860295,-1998.556043,-10510.924376,-2221.676944
21544.860629,370.102971,-9252.574275,0.000000
21544.860962,-1480.411884,-7179.997637,-2451.505594
21544.861295,-4811.338623,-9030.512492,-4443.353888
21544.861628,-1184.329507,-9104.533087,2374.896044
21544.861962,1998.556043,-5921.647536,1991.848295
21544.862295,4145.153275,-5255.462188,2451.505594
21544.862628,4145.153275,-7772.162391,1608.800546
21544.862961,2664.741391,-11769.274478,2298.286494
21544.863295,4515.256246,-9252.574275,2145.067394
21544.863628,4811.338623,-11251.130318,4060.306139
21544.863961,5255.462188,-7698.141797,-76.609550
21544.864294,-3552.988522,-11917.315666,-3064.381992
21544.864627,-74.020594,-12879.583391,-3753.867940
21544.864961,518.144159,-7476.080014,-2451.505594
21544.865294,814.226536,-10658.965565,-76.609550
21544.865627,-1554.432478,-5995.668130,-536.266849
21544.865960,-1480.411884,-9622.677246,2987.772442
21544.866294,4145.153275,-5329.482782,4213.525239
21544.866627,3923.091493,-7179.997637,5362.668486
21544.866960,5699.585753,-7402.059420,4136.915689
21544.867293,0.000000,-7179.997637,-1149.143247
21544.867627,740.205942,-13027.624579,-1838.629195
21544.867960,1998.556043,-11917.315666,0.000000
21544.868293,148.041188,-11769.274478,-2451.505594
21544.868626,592.164754,-11029.068536,-2451.505594
21544.868959,-5033.400406,-9548.656652,-5515.887586
21544.869293,592.164754,-8660.409521,2374.896044
21544.869626,2294.638420,-7105.977043,4826.401637
21544.869959,3478.967927,-3108.864956,1455.581446
21544.870292,1628.453072,-9474.636058,3294.210641
21544.870626,0.000000,-8216.285956,1532.190996
21544.870959,1184.329507,-9770.718434,4060.306139
21544.871292,2738.761985,-9548.656652,4979.620737
21544.871625,1702.473667,-8290.306550,1762.019645
21544.871959,-5329.482782,-10732.986159,-3677.258390
21544.872292,-1776.494261,-12361.439231,-689.485948
21544.872625,-1258.350101,-9252.574275,-3370.820191
21544.872958,-3552.988522,-8364.327145,-1838.629195
21544.873291,-3627.009116,-9474.636058,-3753.867940
21544.873625,-4663.297435,-9918.759623,-2757.943793
21544.873958,-296.082377,-8364.327145,1838.629195
21544.874291,3775.050304,-8290.306550,6511.811733
21544.874624,2442.679609,-3701.029710,4366.744339
21544.874958,0.000000,-7476.080014,4903.011187
21544.875291,4367.215058,-9474.636058,3600.648841
21544.875624,3478.967927,-5995.668130,1225.752797
21544.875957,2960.823768,-10658.965565,2681.334243
21544.876291,-3404.947333,-9030.512492,-5209.449386
21544.876624,-4811.338623,-13175.665768,-6435.202183
21544.876957,-2516.700203,-11843.295072,-2834.553343
21544.877290,-962.267725,-9844.739029,-1302.362347
21544.877623,-2368.659014,-7179.997637,-2451.505594
21544.877957,0.000000,-11917.315666,2068.457845
21544.878290,2886.803174,-9474.636058,3677.258390
21544.878623,3701.029710,-5995.668130,7354.516781
21544.878956,7476.080014,-7105.977043,8503.660028
21544.879290,222.061783,-7179.997637,1532.190996
21544.879623,-296.082377,-9918.759623,-1455.581446
21544.879956,2220.617826,-9844.739029,306.438199
21544.880289,-1332.370696,-11325.150913,-1225.752797
21544.880623,-1480.411884,-7179.997637,-4903.011187
21544.880956,-4811.338623,-11769.274478,-4519.963438
21544.881289,-1628.453072,-11843.295072,-1838.629195
21544.881622,1480.411884,-8068.244768,1608.800546
21544.881955,1702.473667,-11251.130318,3600.648841
21544.882289,-74.020594,-5625.565159,689.485948
21544.882622,-1184.329507,-6291.750507,4903.011187
21544.882955,4663.297435,-8882.471304,3600.648841
21544.883288,7031.956449,-6217.729913,4290.134789
21544.883622,5551.544565,-10214.842000,4673.182538
21544.883955,1110.308913,-11103.089130,-2987.772442
21544.884288,-1628.453072,-13249.686362,-4366.744339
21544.884621,-2146.597232,-12435.459826,-3370.820191
21544.884955,-1184.329507,-7179.997637,-3370.820191
21544.885288,-2146.597232,-10214.842000,-6894.859482
21544.885621,-888.247130,-10658.965565,-76.609550
21544.885954,-74.020594,-10362.883188,2987.772442
21544.886287,4663.297435,-2516.700203,5822.325785
21544.886621,4293.194464,-4737.318029,6665.030833
21544.886954,-1776.494261,-8660.409521,2604.724693
21544.887287,2590.720797,-7624.121203,1532.190996
21544.887620,962.267725,-11177.109724,1149.143247
21544.887954,3552.988522,-8068.244768,612.876398
21544.888287,-2442.679609,-9326.594869,-6665.030833
21544.888620,-4737.318029,-13397.727550,-5592.497135
21544.888953,-1850.514855,-13619.789333,-2528.115143
21544.889287,0.000000,-9474.636058,-229.828649
21544.889620,1184.329507,-5995.668130,2451.505594
21544.889953,814.226536,-8290.306550,1149.143247
21544.890286,3997.112087,-8734.430116,4826.401637
21544.890619,3701.029710,-7772.162391,6665.030833
21544.890953,7031.956449,-8290.306550,6665.030833
21544.891286,592.164754,-5107.421000,1225.752797
21544.891619,2294.638420,-11843.295072,-1302.362347
21544.891952,-74.020594,-10658.965565,-3983.696590
21544.892286,-1776.494261,-11325.150913,-2528.115143
21544.892619,-666.185348,-11251.130318,-3140.991542
21544.892952,-4737.318029,-10955.047942,-3907.087040
21544.893285,-2294.638420,-11695.253884,-1608.800546
21544.893619,-3256.906145,-9400.615463,919.314598
21544.893952,740.205942,-6957.935855,2298.286494
21544.894285,1776.494261,-5551.544565,6052.154434
21544.894618,1110.308913,-6587.832884,1225.752797
21544.894951,1184.329507,-9548.656652,3677.258390
21544.895285,4663.297435,-9474.636058,2374.896044
21544.895618,2886.803174,-9474.636058,1762.019645
21544.895951,-1036.288319,-9844.739029,-1608.800546
21544.896284,-2220.617826,-12213.398043,-4136.915689
21544.896618,-592.164754,-12509.480420,536.266849
21544.896951,666.185348,-9326.594869,306.438199
21544.897284,-1628.453072,-9696.697840,-995.924147
21544.897617,-3552.988522,-10362.883188,-1762.019645
21544.897951,296.082377,-10140.821405,536.266849
21544.898284,4885.359217,-7994.224174,6588.421283
21544.898617,3478.967927,-5329.482782,5439.278036
21544.898950,1776.494261,-5403.503377,2145.067394
21544.899283,2886.803174,-13027.624579,2374.896044
21544.899617,0.000000,-7328.038826,306.438199
21544.899950,1850.514855,-9474.636058,-76.609550
21544.900283,-1850.514855,-9474.636058,-4979.620737
21544.900616,-4293.194464,-12731.542202,-5898.935335
21544.900950,-3627.009116,-12731.542202,-1915.238745
21544.901283,888.247130,-7772.162391,536.266849
21544.901616,-2960.823768,-5995.668130,0.000000
21544.901949,-1776.494261,-5699.585753,1072.533697
21544.902283,-74.020594,-8734.430116,612.876398
21544.902616,1924.535449,-5995.668130,3677.258390
21544.902949,5181.441594,-7772.162391,5132.839837
21544.903282,3182.885551,-7698.141797,1225.752797
21544.903615,1924.535449,-9252.574275,842.705048
21544.903949,148.041188,-11621.233289,459.657299
21544.904282,2442.679609,-10807.006753,-76.609550
21544.904615,888.247130,-8586.388927,306.438199
21544.904948,-2960.823768,-11325.150913,-76.609550
21544.905282,-1406.391290,-7476.080014,-4903.011187
21544.905615,-3256.906145,-9548.656652,0.000000
21544.905948,2886.803174,-9474.636058,1149.143247
21544.906281,0.000000,-5995.668130,2757.943793
21544.906615,-1628.453072,-8216.285956,-2145.067394
21544.906948,370.102971,-11695.253884,383.047749
21544.907281,3997.112087,-6439.791695,5745.716235
21544.907614,6439.791695,-6809.894666,4519.963438
21544.907948,5255.462188,-8290.306550,2374.896044
21544.908281,-666.185348,-10732.986159,-4903.011187
21544.908614,-1036.288319,-15544.324782,-1915.238745
21544.908947,1702.473667,-12731.542202,1149.143247
21544.909280,-3330.926739,-10140.821405,-4060.306139
21544.909614,-2072.576638,-8660.409521,-1455.581446
21544.909947,-5625.565159,-10510.924376,-1838.629195
21544.910280,3108.864956,-7031.956449,3600.648841
21544.910613,0.000000,-4811.338623,4903.011187
21544.910947,-74.020594,-5329.482782,766.095498
21544.911280,592.164754,-7920.203579,3677.258390
21544.911613,1998.556043,-11843.295072,2987.772442
21544.911946,3552.988522,-4811.338623,1838.629195
21544.912280,-74.020594,-10436.903782,-383.047749
21544.912613,-2960.823768,-12139.377449,-5898.935335
21544.912946,-3478.967927,-13101.645173,-3753.867940
21544.913279,0.000000,-11399.171507,-612.876398
21544.913613,1332.370696,-7179.997637,919.314598
21544.913946,-74.020594,-6513.812290,153.219100
21544.914279,3775.050304,-5625.565159,1225.752797
21544.914612,4367.215058,-10658.965565,6052.154434
21544.914946,7328.038826,-5551.544565,5439.278036
21544.915279,2294.638420,-10362.883188,2374.896044
21544.915612,1776.494261,-7476.080014,-76.609550
21544.915946,-666.185348,-12435.459826,-3370.820191
21544.916279,0.000000,-10881.027347,-995.924147
21544.916612,2072.576638,-9770.718434,-1532.190996
21544.916946,-4737.318029,-10732.986159,-4290.134789
21544.917279,0.000000,-9548.656652,-2145.067394
21544.917612,-3478.967927,-10955.047942,1302.362347
21544.917945,888.247130,-7846.182985,1838.629195
21544.918279,0.000000,-6587.832884,4290.134789
21544.918612,-74.020594,-9474.636058,1149.143247
21544.918945,1184.329507,-5995.668130,2451.505594
21544.919279,1184.329507,-11547.212695,5439.278036
21544.919612,1998.556043,-6735.874072,1225.752797
21544.919945,-3552.988522,-7476.080014,-76.609550
21544.920279,814.226536,-11399.171507,-2451.505594
21544.920612,-3849.070898,-11695.253884,-1838.629195
21544.920945,370.102971,-10066.800811,-919.314598
21544.921278,-1554.432478,-10955.047942,-689.485948
21544.921612,-1258.350101,-7105.977043,-5286.058936
21544.921945,-1776.494261,-9844.739029,766.095498
21544.922278,3849.070898,-9030.512492,7277.907231
21544.922612,4071.132681,-7772.162391,3983.696590
21544.922945,370.102971,-8882.471304,2374.896044
21544.923278,1332.370696,-8956.491898,689.485948
21544.923612,0.000000,-10140.821405,2145.067394
21544.923945,2886.803174,-7698.141797,2221.676944
21544.924278,-1110.308913,-8216.285956,-1455.581446
21544.924611,-5847.626942,-4811.338623,-9193.145976
21544.924945,-5921.647536,-13397.727550,-4366.744339
21544.925278,-370.102971,-10658.965565,-76.609550
21544.925611,-666.185348,-8882.471304,0.000000
21544.925945,-518.144159,-5921.647536,995.924147
21544.926278,-888.247130,-8068.244768,689.485948
21544.926611,1776.494261,-11103.089130,3907.087040
21544.926944,5255.462188,-8068.244768,5822.325785
21544.927278,3034.844362,-7254.018232,1915.238745
21544.927611,1184.329507,-10140.821405,1608.800546
21544.927944,592.164754,-11325.150913,842.705048
21544.928278,3404.947333,-9770.718434,2374.896044
21544.928611,592.164754,-8956.491898,1532.190996
21544.928944,-74.020594,-11177.109724,-76.609550
21544.929278,-2738.761985,-7254.018232,-3983.696590
21544.929611,-2072.576638,-7179.997637,-2451.505594
21544.929944,1332.370696,-8808.450710,1608.800546
21544.930277,-1184.329507,-7179.997637,306.438199
21544.930611,-1184.329507,-7105.977043,-1455.581446
21544.930944,74.020594,-10214.842000,-1608.800546
21544.931277,4367.215058,-10214.842000,3217.601092
21544.931611,5847.626942,-8882.471304,3600.648841
21544.931944,3552.988522,-7179.997637,4903.011187
21544.932277,2294.638420,-7179.997637,-3677.258390
21544.932611,2368.659014,-10881.027347,536.266849
21544.932944,7031.956449,-11843.295072,-76.609550
21544.933277,3478.967927,-10510.924376,-76.609550
21544.933610,-1776.494261,-11251.130318,-4366.744339
21544.933944,-2220.617826,-12509.480420,-3753.867940
21544.934277,592.164754,-11103.089130,2298.286494
21544.934610,4367.215058,-7772.162391,5209.449386
21544.934944,4737.318029,-7328.038826,6665.030833
21544.935277,0.000000,-7179.997637,2451.505594
21544.935610,1628.453072,-10066.800811,4213.525239
21544.935944,3478.967927,-7031.956449,3370.820191
21544.936277,0.000000,-7328.038826,919.314598
21544.936610,-2442.679609,-7105.977043,-5132.839837
21544.936943,-4663.297435,-13619.789333,-6205.373534
21544.937277,-222.061783,-10362.883188,-3677.258390
21544.937610,222.061783,-13249.686362,0.000000
21544.937943,-3034.844362,-12731.542202,-76.609550
21544.938277,-3552.988522,-8512.368333,1455.581446
21544.938610,-592.164754,-9696.697840,5745.716235
21544.938943,4663.297435,-4071.132681,5209.449386
21544.939277,0.000000,-6587.832884,6894.859482
21544.939610,370.102971,-5181.441594,1302.362347
21544.939943,-3108.864956,-8882.471304,0.000000
21544.940276,-3108.864956,-12139.377449,-919.314598
21544.940610,-518.144159,-6661.853478,-2374.896044
21544.940943,-8142.265362,-10732.986159,-7967.393179
21544.941276,-2738.761985,-13027.624579,-5592.497135
21544.941610,-6143.709319,-12065.356855,-3677.258390
21544.941943,-2368.659014,-8364.327145,2757.943793
21544.942276,2368.659014,-7179.997637,7354.516781
21544.942610,444.123565,-5699.585753,3677.258390
21544.942943,3330.926739,-9030.512492,5056.230287
21544.943276,1702.473667,-8290.306550,6052.154434
21544.943609,4145.153275,-6735.874072,4519.963438
21544.943943,-74.020594,-7179.997637,1838.629195
21544.944276,0.000000,-6809.894666,-1149.143247
21544.944609,-2442.679609,-10955.047942,-3064.381992
21544.944943,-2368.659014,-13101.645173,-2298.286494
21544.945276,-74.020594,-10658.965565,-2528.115143
21544.945609,-3034.844362,-10955.047942,-4673.182538
21544.945943,-4441.235652,-10140.821405,-3370.820191
21544.946276,0.000000,-7179.997637,4596.572988
21544.946609,5255.462188,-7550.100608,4979.620737
21544.946942,2960.823768,-3923.091493,7660.954980
21544.947276,2294.638420,-5107.421000,766.095498
21544.947609,2738.761985,-11251.130318,2528.115143
21544.947942,3627.009116,-8364.327145,2911.162892
21544.948276,2294.638420,-7698.141797,-2528.115143
21544.948609,-74.020594,-7994.224174,-8580.269578
21544.948942,-888.247130,-14063.912898,-6205.373534
21544.949276,-74.020594,-15396.283594,-2528.115143
21544.949609,3478.967927,-9548.656652,-1838.629195
21544.949942,2738.761985,-10066.800811,1149.143247
21544.950275,962.267725,-9030.512492,76.609550
21544.950609,5699.585753,-9918.759623,4749.792088
21544.950942,9104.533087,-7105.977043,9269.755526
21544.951275,7105.977043,-4811.338623,4903.011187
21544.951609,3775.050304,-5995.668130,0.000000
21544.951942,296.082377,-10436.903782,-689.485948
21544.952275,962.267725,-13619.789333,-1302.362347
21544.952609,1406.391290,-9548.656652,-1838.629195
21544.952942,-2664.741391,-8808.450710,-3140.991542
21544.953275,-4293.194464,-9030.512492,-4136.915689
21544.953608,-4441.235652,-10288.862594,-3140.991542
21544.953942,-1406.391290,-10140.821405,2374.896044
21544.954275,1776.494261,-7920.203579,5822.325785
21544.954608,-3256.906145,-5551.544565,3064.381992
21544.954942,-74.020594,-8290.306550,-76.609550
21544.955275,-1776.494261,-7772.162391,1838.629195
21544.955608,4071.132681,-9474.636058,5056.230287
21544.955942,0.000000,-8290.306550,0.000000
21544.956275,-4071.132681,-11251.130318,-3983.696590
21544.956608,-3108.864956,-10955.047942,-4903.011187
21544.956941,-1110.308913,-12879.583391,0.000000
21544.957275,1110.308913,-9474.636058,-76.609550
21544.957608,-3256.906145,-9104.533087,-76.609550
21544.957941,-5995.668130,-11325.150913,-4749.792088
21544.958275,-814.226536,-7179.997637,0.000000
21544.958608,4589.276840,-10955.047942,6052.154434
21544.958941,3923.091493,-5773.606348,3677.258390
21544.959275,148.041188,-7772.162391,2757.943793
21544.959608,-518.144159,-10362.883188,1072.533697
21544.959941,2294.638420,-8882.471304,2987.772442
21544.960274,2886.803174,-7698.141797,842.705048
21544.960608,-2220.617826,-8216.285956,-2528.115143
21544.960941,-5329.482782,-10140.821405,-6511.811733
21544.961274,-4589.276840,-12731.542202,-2757.943793
21544.961608,-1924.535449,-9548.656652,-689.485948
21544.961941,-74.020594,-9474.636058,1762.019645
21544.962274,-4145.153275,-6587.832884,0.000000
21544.962608,-74.020594,-10510.924376,2987.772442
21544.962941,2886.803174,-4959.379811,3830.477490
21544.963274,4737.318029,-7179.997637,4903.011187
21544.963607,6883.915261,-8290.306550,3907.087040
21544.963941,1776.494261,-8290.306550,-306.438199
21544.964274,1850.514855,-11843.295072,-766.095498
21544.964607,666.185348,-11325.150913,-2528.115143
21544.964941,-1554.432478,-11917.315666,-5898.935335
21544.965274,-3552.988522,-10881.027347,-3294.210641
21544.965607,-74.020594,-13027.624579,-2528.115143
21544.965941,2294.638420,-8660.409521,2757.943793
21544.966274,4737.318029,-8142.265362,9193.145976
21544.966607,2886.803174,-1998.556043,2757.943793
21544.966940,-444.123565,-7105.977043,689.485948
21544.967274,2812.782580,-8216.285956,612.876398
21544.967607,3182.885551,-9474.636058,2987.772442
21544.967940,1480.411884,-7920.203579,0.000000
21544.968274,2146.597232,-11547.212695,-76.609550
21544.968607,-3478.967927,-11325.150913,-6741.640382
21544.968940,2368.659014,-9548.656652,1225.752797
21544.969274,2590.720797,-11843.295072,1762.019645
21544.969607,2960.823768,-7328.038826,-1685.410096
21544.969940,-1480.411884,-8734.430116,-2451.505594
21544.970273,740.205942,-13767.830521,-766.095498
21544.970607,5921.647536,-7254.018232,6665.030833
21544.970940,5625.565159,-7031.956449,6052.154434
21544.971273,4663.297435,-11843.295072,4213.525239
21544.971607,222.061783,-5995.668130,0.000000
21544.971940,2146.597232,-10510.924376,3600.648841
21544.972273,4663.297435,-9474.636058,2374.896044
21544.972607,0.000000,-7179.997637,0.000000
21544.972940,-5033.400406,-9992.780217,-5209.449386
21544.973273,-6809.894666,-11769.274478,-4826.401637
21544.973606,-3404.947333,-9326.594869,-4213.525239
21544.973940,-3701.029710,-11547.212695,-306.438199
21544.974273,-3627.009116,-7550.100608,-2451.505594
21544.974606,-3256.906145,-8364.327145,306.438199
21544.974940,1406.391290,-8142.265362,4519.963438
21544.975273,2886.803174,-6217.729913,5286.058936
21544.975606,1036.288319,-4959.379811,3677.258390
21544.975940,0.000000,-8660.409521,2834.553343
21544.976273,-2738.761985,-13619.789333,-2528.115143
21544.976606,-2368.659014,-10140.821405,306.438199
21544.976939,-1850.514855,-9474.636058,-2528.115143
21544.977273,-4441.235652,-7179.997637,-4596.572988
21544.977606,-3182.885551,-11473.192101,-2681.334243
21544.977939,-3552.988522,-10955.047942,-153.219100
21544.978273,0.000000,-7179.997637,2451.505594
21544.978606,-74.020594,-6513.812290,0.000000
21544.978939,1998.556043,-9474.636058,-76.609550
21544.979273,1406.391290,-10140.821405,2451.505594
21544.979606,3330.926739,-8068.244768,3677.258390
21544.979939,3552.988522,-7179.997637,3370.820191
21544.980272,444.123565,-7179.997637,1149.143247
21544.980606,-666.185348,-8734.430116,-4443.353888
21544.980939,-1776.494261,-13101.645173,-2298.286494
21544.981272,1110.308913,-9474.636058,-689.485948
21544.981606,-3552.988522,-7179.997637,-4903.011187
21544.981939,-3627.009116,-7698.141797,-5286.058936
21544.982272,-2368.659014,-8068.244768,-459.657299
21544.982606,3478.967927,-9178.553681,2987.772442
21544.982939,8216.285956,-7031.956449,6741.640382
21544.983272,3256.906145,-9178.553681,4213.525239
21544.983605,2664.741391,-7031.956449,1378.971896
21544.983939,1998.556043,-13101.645173,3677.258390
21544.984272,3256.906145,-9326.594869,2911.162892
21544.984605,2368.659014,-8956.491898,2298.286494
21544.984939,-2590.720797,-7772.162391,-4290.134789
21544.985272,-1184.329507,-7179.997637,-4596.572988
21544.985605,1702.473667,-13619.789333,-76.609550
21544.985939,2886.803174,-7105.977043,76.609550
21544.986272,-1036.288319,-9178.553681,-1762.019645
21544.986605,-666.185348,-9548.656652,-459.657299
21544.986938,1702.473667,-10066.800811,2451.505594
21544.987272,3627.009116,-8364.327145,4596.572988
21544.987605,7031.956449,-8290.306550,4213.525239
21544.987938,0.000000,-9548.656652,1225.752797
21544.988272,3997.112087,-9474.636058,3600.648841
21544.988605,4367.215058,-9474.636058,2374.896044
21544.988938,2442.679609,-7624.121203,0.000000
21544.989272,-1554.432478,-9474.636058,-2528.115143
21544.989605,-4515.256246,-10510.924376,-6128.763984
21544.989938,-3330.926739,-11029.068536,-3600.648841
21544.990271,-1480.411884,-10881.027347,-1915.238745
21544.990605,1998.556043,-10658.965565,1149.143247
21544.990938,-1628.453072,-7698.141797,1455.581446
21544.991271,1110.308913,-7846.182985,1608.800546
21544.991605,2664.741391,-7328.038826,5132.839837
21544.991938,3256.906145,-3034.844362,2451.505594
21544.992271,1702.473667,-9474.636058,2987.772442
21544.992605,-2368.659014,-7772.162391,-5515.887586
21544.992938,-2220.617826,-15988.448347,-1302.362347
21544.993271,-1406.391290,-11325.150913,-766.095498
21544.993604,1110.308913,-5995.668130,-2451.505594
21544.993938,-4663.297435,-9474.636058,-1915.238745
21544.994271,-4589.276840,-9548.656652,-2145.067394
21544.994604,-888.247130,-8734.430116,2068.457845
21544.994938,1184.329507,-9548.656652,7354.516781
21544.995271,4071.132681,-6513.812290,5745.716235
21544.995604,-2072.576638,-7476.080014,1532.190996
21544.995938,0.000000,-7476.080014,3677.258390
21544.996271,1998.556043,-8882.471304,1762.019645
21544.996604,296.082377,-5995.668130,0.000000
21544.996937,-4219.173869,-10214.842000,-5669.106685
21544.997271,-5551.544565,-14285.974681,-7277.907231
21544.997604,-592.164754,-11399.171507,-766.095498
21544.997937,2886.803174,-10362.883188,3600.648841
21544.998271,4663.297435,-8290.306550,-76.609550
21544.998604,-2368.659014,-9548.656652,3064.381992
21544.998937,2738.761985,-10658.965565,4826.401637
21544.999271,5847.626942,-6809.894666,4826.401637
21544.999604,3182.885551,-12213.398043,4826.401637
21544.999937,2590.720797,-5255.462188,0.000000
21545.000270,-2294.638420,-12287.418637,-1762.019645
21545.000604,1480.411884,-8586.388927,-1302.362347
21545.000937,-1776.494261,-7179.997637,-3217.601092
21545.001270,-74.020594,-10066.800811,-2834.553343
21545.001604,-3404.947333,-5403.503377,-3677.258390
21545.001937,-3849.070898,-13989.892304,-76.609550
21545.002270,2294.638420,-9474.636058,2374.896044
21545.002604,-814.226536,-7105.977043,3447.429741
21545.002937,2960.823768,-5329.482782,5132.839837
21545.003270,1924.535449,-7105.977043,3370.820191
21545.003603,1258.350101,-10807.006753,5515.887586
21545.003937,5921.647536,-3034.844362,2451.505594
21545.004270,-2368.659014,-12509.480420,1225.752797
21545.004603,2812.782580,-8290.306550,-459.657299
21545.004937,-666.185348,-15396.283594,-4060.306139
21545.005270,-1998.556043,-10140.821405,-3370.820191
21545.005603,0.000000,-8882.471304,-1915.238745
21545.005937,-5033.400406,-10510.924376,-2528.115143
21545.006270,-222.061783,-8882.471304,-2145.067394
21545.006603,-2812.782580,-11325.150913,1302.362347
21545.006936,7105.977043,-5403.503377,8733.488677
21545.007270,4145.153275,-5107.421000,9806.022374
21545.007603,3404.947333,-5773.606348,4826.401637
21545.007936,0.000000,-10732.986159,842.705048
21545.008270,1628.453072,-9844.739029,-689.485948
21545.008603,2368.659014,-8364.327145,-2451.505594
21545.008936,-4811.338623,-10732.986159,-9576.193725
21545.009270,-4145.153275,-12509.480420,-6818.249932
21545.009603,-4219.173869,-12731.542202,-4979.620737
21545.009936,2294.638420,-9474.636058,-76.609550
21545.010269,2368.659014,-5403.503377,2987.772442
21545.010603,1924.535449,-6883.915261,3217.601092
21545.010936,1480.411884,-8364.327145,4749.792088
21545.011269,6365.771101,-8882.471304,7584.345430
21545.011603,8216.285956,-8586.388927,7277.907231
21545.011936,2812.782580,-5403.503377,2451.505594
21545.012269,1184.329507,-9844.739029,1149.143247
21545.012603,-74.020594,-12435.459826,-2528.115143
21545.012936,-2294.638420,-9548.656652,-3677.258390
21545.013269,-1258.350101,-11843.295072,-2528.115143
21545.013602,-3701.029710,-9844.739029,-3524.039291
21545.013936,-3182.885551,-10955.047942,-1915.238745
21545.014269,-1554.432478,-9178.553681,1225.752797
21545.014602,3478.967927,-5625.565159,4826.401637
21545.014935,-2960.823768,-4811.338623,4290.134789
21545.015268,2294.638420,-5921.647536,0.000000
21545.015601,2294.638420,-16580.613101,-76.609550
21545.015935,0.000000,-10732.986159,4903.011187
21545.016268,1184.329507,-7179.997637,4826.401637
21545.016601,-74.020594,-7031.956449,-3217.601092
21545.016934,-3256.906145,-11029.068536,-3370.820191
21545.017267,-3108.864956,-11917.315666,-3370.820191
21545.017601,148.041188,-10140.821405,0.000000
21545.017934,-222.061783,-10362.883188,-76.609550
21545.018267,-3627.009116,-8808.450710,-3830.477490
21545.018600,-4145.153275,-10732.986159,612.876398
21545.018933,4663.297435,-8290.306550,4826.401637
21545.019267,1184.329507,-5995.668130,4903.011187
21545.019600,3330.926739,-7105.977043,3294.210641
21545.019933,740.205942,-9474.636058,1455.581446
21545.020266,888.247130,-9844.739029,1302.362347
21545.020599,2368.659014,-9548.656652,0.000000
21545.020932,-2886.803174,-10658.965565,-2834.553343
21545.021266,-4737.318029,-10214.842000,-4826.401637
21545.021599,-3849.070898,-12657.521608,-1991.848295
21545.021932,-1258.350101,-8290.306550,-689.485948
21545.022265,-666.185348,-4811.338623,0.000000
21545.022598,0.000000,-7920.203579,2987.772442
21545.022932,2886.803174,-9474.636058,3600.648841
21545.023265,814.226536,-9400.615463,4519.963438
21545.023598,4367.215058,-8216.285956,4519.963438
21545.023931,1850.514855,-8216.285956,2145.067394
21545.024264,-1406.391290,-9252.574275,-1302.362347
21545.024598,1924.535449,-9474.636058,-995.924147
21545.024931,-2220.617826,-9548.656652,-1838.629195
21545.025264,3182.885551,-8068.244768,-4213.525239
21545.025597,-3256.906145,-11843.295072,-76.609550
21545.025930,-666.185348,-8586.388927,-5592.497135
21545.026263,-370.102971,-10436.903782,0.000000
21545.026597,2516.700203,-7105.977043,-383.047749
21545.026930,2220.617826,-9252.574275,919.314598
21545.027263,-444.123565,-8882.471304,1378.971896
21545.027596,4441.235652,-9770.718434,2834.553343
21545.027929,6513.812290,-7624.121203,8733.488677
21545.028263,7031.956449,-4219.173869,1838.629195
21545.028596,3182.885551,-10658.965565,2374.896044
21545.028929,-1554.432478,-8364.327145,-6741.640382
21545.029262,-1776.494261,-12509.480420,-5975.544884
21545.029595,592.164754,-11917.315666,-919.314598
21545.029929,888.247130,-8586.388927,-2604.724693
21545.030262,-4737.318029,-10881.027347,-3983.696590
21545.030595,444.123565,-9474.636058,-1532.190996
21545.030928,4071.132681,-10658.965565,4826.401637
21545.031261,3849.070898,-4811.338623,6128.763984
21545.031594,5847.626942,-5625.565159,3294.210641
21545.031928,0.000000,-7179.997637,2451.505594
21545.032261,5847.626942,-10658.965565,3600.648841
21545.032594,4663.297435,-7105.977043,3600.648841
21545.032927,2220.617826,-9474.636058,-76.609550
21545.033260,-4293.194464,-9252.574275,-5669.106685
21545.033594,-6513.812290,-13323.706956,-6741.640382
21545.033927,-5403.503377,-11251.130318,-5286.058936
21545.034260,-2960.823768,-9696.697840,-76.609550
21545.034593,-814.226536,-7179.997637,-3370.820191
21545.034926,0.000000,-9548.656652,2451.505594
21545.035260,4071.132681,-11843.295072,8503.660028
21545.035593,5847.626942,-4737.318029,6971.469032
21545.035926,3478.967927,-8882.471304,4519.963438
21545.036259,666.185348,-5921.647536,689.485948
21545.036592,-2368.659014,-10658.965565,-1302.362347
21545.036925,-2368.659014,-12435.459826,-2681.334243
21545.037259,-3849.070898,-11029.068536,-2528.115143
21545.037592,-5699.585753,-10584.944971,-4596.572988
21545.037925,-3256.906145,-9104.533087,-2604.724693
21545.038258,-3627.009116,-10214.842000,0.000000
21545.038591,1110.308913,-5921.647536,1455.581446
21545.038925,1184.329507,-6661.853478,6971.469032
21545.039258,-74.020594,-9474.636058,3600.648841
21545.039591,-962.267725,-6587.832884,1838.629195
21545.039924,888.247130,-10140.821405,4290.134789
21545.040257,5551.544565,-5921.647536,2374.896044
21545.040591,-1184.329507,-9696.697840,-536.266849
21545.040924,-1850.514855,-10807.006753,-4519.963438
21545.041257,-3923.091493,-13545.768739,-4749.792088
21545.041590,0.000000,-9548.656652,-1838.629195
21545.041923,0.000000,-8956.491898,1455.581446
21545.042256,-1850.514855,-7105.977043,-3140.991542
21545.042590,-1258.350101,-10955.047942,-1915.238745
21545.042923,2368.659014,-5995.668130,4596.572988
21545.043256,7031.956449,-5995.668130,5209.449386
21545.043589,4737.318029,-6809.894666,6281.983084
21545.043922,1554.432478,-10066.800811,842.705048
21545.044256,0.000000,-11917.315666,459.657299
21545.044589,2812.782580,-9992.780217,1838.629195
21545.044922,1776.494261,-11029.068536,-76.609550
21545.045255,-3923.091493,-7476.080014,-6741.640382
21545.045588,-3997.112087,-11325.150913,-7354.516781
21545.045922,296.082377,-11843.295072,-76.609550
21545.046255,1184.329507,-5995.668130,3370.820191
21545.046588,2590.720797,-6735.874072,3524.039291
21545.046921,370.102971,-6439.791695,1455.581446
21545.047254,2812.782580,-10881.027347,2987.772442
21545.047588,7031.956449,-7698.141797,3600.648841
21545.047921,7031.956449,-11843.295072,3600.648841
21545.048254,3775.050304,-5403.503377,612.876398
21545.048587,1776.494261,-13027.624579,-76.609550
21545.048920,1110.308913,-12435.459826,-995.924147
21545.049253,1998.556043,-9474.636058,-1302.362347
21545.049587,-1332.370696,-10881.027347,-1838.629195
21545.049920,-1480.411884,-7105.977043,-2681.334243
21545.050253,-3701.029710,-11473.192101,-1532.190996
21545.050586,0.000000,-8364.327145,1532.190996
21545.050919,2294.638420,-5477.523971,1915.238745
21545.051253,1184.329507,-6291.750507,1225.752797
21545.051586,1184.329507,-12435.459826,2987.772442
21545.051919,-814.226536,-10732.986159,612.876398
21545.052252,1702.473667,-9474.636058,2911.162892
21545.052585,0.000000,-8586.388927,1685.410096
21545.052919,1110.308913,-7846.182985,-1532.190996
21545.053252,-3552.988522,-10584.944971,-995.924147
21545.053585,-2368.659014,-9548.656652,-1685.410096
21545.053918,-666.185348,-7105.977043,-2451.505594
21545.054251,-4219.173869,-11251.130318,-1762.019645
21545.054584,-2146.597232,-8734.430116,-1455.581446
21545.054918,-2146.597232,-11399.171507,1455.581446
21545.055251,3182.885551,-6513.812290,2834.553343
21545.055584,3775.050304,-11843.295072,8503.660028
21545.055917,-370.102971,-4811.338623,-1532.190996
21545.056250,518.144159,-13471.748144,1838.629195
21545.056584,-296.082377,-7476.080014,1378.971896
21545.056917,0.000000,-7772.162391,0.000000
21545.057250,-2664.741391,-7476.080014,-1378.971896
21545.057583,-3997.112087,-10288.862594,-4290.134789
21545.057916,-4663.297435,-12731.542202,-1149.143247
21545.058250,0.000000,-5403.503377,0.000000
21545.058583,-2442.679609,-9548.656652,-2451.505594
21545.058916,1110.308913,-5699.585753,-2451.505594
21545.059249,0.000000,-13693.809927,4136.915689
21545.059582,4663.297435,-8290.306550,4826.401637
21545.059915,4737.318029,-8216.285956,5362.668486
21545.060249,1628.453072,-8068.244768,3677.258390
21545.060582,3108.864956,-6143.709319,1225.752797
21545.060915,1702.473667,-12435.459826,2221.676944
21545.061248,6587.832884,-5921.647536,2374.896044
21545.061581,-666.185348,-7476.080014,-3677.258390
21545.061915,-1998.556043,-11547.212695,-4903.011187
21545.062248,-666.185348,-13619.789333,-4366.744339
21545.062581,-4441.235652,-10140.821405,-2451.505594
21545.062914,2590.720797,-9474.636058,995.924147
21545.063247,888.247130,-7105.977043,842.705048
21545.063581,666.185348,-8586.388927,1149.143247
21545.063914,3849.070898,-9178.553681,4213.525239
21545.064247,5847.626942,-6513.812290,5745.716235
21545.064580,3256.906145,-2442.679609,3677.258390
21545.064913,3849.070898,-9474.636058,-76.609550
21545.065246,222.061783,-10658.965565,-6205.373534
21545.065580,-2368.659014,-13101.645173,-4903.011187
21545.065913,3182.885551,-10510.924376,-4060.306139
21545.066246,-444.123565,-13693.809927,-1302.362347
21545.066579,-1702.473667,-10955.047942,-2681.334243
21545.066912,1554.432478,-11843.295072,1915.238745
21545.067246,2294.638420,-9178.553681,4826.401637
21545.067579,4737.318029,-2738.761985,6435.202183
21545.067912,1702.473667,-5181.441594,4213.525239
21545.068245,0.000000,-10066.800811,3600.648841
21545.068578,0.000000,-7179.997637,3064.381992
21545.068912,0.000000,-8290.306550,-76.609550
21545.069245,-1628.453072,-6883.915261,-4903.011187
21545.069578,-7105.977043,-10140.821405,-4903.011187
21545.069911,-4219.173869,-15100.201217,-5592.497135
21545.070244,-2960.823768,-9548.656652,-4136.915689
21545.070577,-3627.009116,-13175.665768,-2068.457845
21545.070911,296.082377,-8734.430116,1915.238745
21545.071244,3256.906145,-7476.080014,4749.792088
21545.071577,8216.285956,-9326.594869,12180.918418
21545.071910,7031.956449,-6809.894666,9422.974625
21545.072243,0.000000,-4811.338623,1225.752797
21545.072577,1554.432478,-8290.306550,-76.609550
21545.072910,-1258.350101,-13619.789333,-3677.258390
21545.073243,1776.494261,-8660.409521,-3370.820191
21545.073576,-1998.556043,-12805.562797,-2911.162892
21545.073909,-4367.215058,-11251.130318,-2528.115143
21545.074243,-2812.782580,-8364.327145,-3370.820191
21545.074576,-3182.885551,-10955.047942,995.924147
21545.074909,1480.411884,-7698.141797,3294.210641
21545.075242,-814.226536,-3627.009116,2451.505594
21545.075575,148.041188,-8290.306550,3600.648841
21545.075908,370.102971,-9474.636058,2987.772442
21545.076242,1258.350101,-7698.141797,5439.278036
21545.076575,2590.720797,-5773.606348,919.314598
21545.076908,-1480.411884,-9252.574275,-459.657299
21545.077241,-518.144159,-8216.285956,-5975.544884
21545.077574,-3552.988522,-15470.304188,-3370.820191
21545.077908,2294.638420,-9474.636058,-3140.991542
21545.078241,-2368.659014,-12805.562797,-3677.258390
21545.078574,-4737.318029,-11029.068536,-76.609550
21545.078907,1998.556043,-7179.997637,0.000000
21545.079240,1184.329507,-7772.162391,5515.887586
21545.079574,7179.997637,-4959.379811,7048.078582
21545.079907,1184.329507,-5995.668130,2221.676944
21545.080240,1702.473667,-10436.903782,2145.067394
21545.080573,2294.638420,-10955.047942,3907.087040
21545.080906,1110.308913,-5403.503377,0.000000
21545.081239,-1258.350101,-12731.542202,-2528.115143
21545.081573,-3627.009116,-9474.636058,-8044.002729
21545.081906,-6365.771101,-13101.645173,-4903.011187
21545.082239,0.000000,-8364.327145,0.000000
21545.082572,0.000000,-8364.327145,1455.581446
21545.082905,1480.411884,-7254.018232,2374.896044
21545.083239,3478.967927,-7105.977043,3294.210641
21545.083572,6809.894666,-9474.636058,6665.030833
21545.083905,5255.462188,-7476.080014,4290.134789
21545.084238,4663.297435,-7846.182985,3600.648841
21545.084571,2146.597232,-9030.512492,306.438199
21545.084905,1184.329507,-11103.089130,-536.266849
21545.085238,1184.329507,-11177.109724,-612.876398
21545.085571,-2886.803174,-8068.244768,-4596.572988
21545.085904,-4737.318029,-6291.750507,-3677.258390
21545.086237,-4219.173869,-12731.542202,-3753.867940
21545.086571,-2590.720797,-10658.965565,-1302.362347
21545.086904,0.000000,-7476.080014,3830.477490
21545.087237,-148.041188,-7920.203579,3217.601092
21545.087570,888.247130,-4071.132681,1838.629195
21545.087903,1702.473667,-10510.924376,3600.648841
21545.088236,4663.297435,-9474.636058,4826.401637
21545.088570,2294.638420,-7476.080014,612.876398
21545.088903,814.226536,-11251.130318,2374.896044
21545.089236,-74.020594,-11843.295072,-3140.991542
21545.089569,-370.102971,-12213.398043,-2451.505594
21545.089902,1776.494261,-10955.047942,1149.143247
21545.090236,-1036.288319,-9178.553681,-2298.286494
21545.090569,-1628.453072,-8290.306550,-2681.334243
21545.090902,-2368.659014,-12361.439231,-459.657299
21545.091235,3182.885551,-5625.565159,1149.143247
21545.091568,2146.597232,-4811.338623,1225.752797
21545.091902,2294.638420,-11843.295072,4519.963438
21545.092235,0.000000,-3034.844362,-1838.629195
21545.092568,0.000000,-11769.274478,3294.210641
21545.092901,3478.967927,-7402.059420,459.657299
21545.093234,-2146.597232,-9252.574275,-2528.115143
21545.093567,-4071.132681,-9770.718434,-5898.935335
21545.093901,-5329.482782,-13397.727550,-4673.182538
21545.094234,-4737.318029,-11029.068536,-1225.752797
21545.094567,-1184.329507,-6513.812290,2451.505594
21545.094900,-74.020594,-8290.306550,-76.609550
21545.095233,148.041188,-4515.256246,1225.752797
21545.095567,3552.988522,-10732.986159,10955.165621
21545.095900,7920.203579,-4737.318029,5898.935335
21545.096233,4589.276840,-8290.306550,4749.792088
21545.096566,-1184.329507,-10140.821405,842.705048
21545.096899,-1850.514855,-11325.150913,-2451.505594
21545.097233,-1850.514855,-13471.748144,-1532.190996
21545.097566,222.061783,-8956.491898,-2604.724693
21545.097899,-4145.153275,-10140.821405,-2298.286494
21545.098232,-1998.556043,-8068.244768,-2068.457845
21545.098565,-370.102971,-9474.636058,842.705048
21545.098898,2886.803174,-7105.977043,4826.401637
21545.099232,592.164754,-6291.750507,5669.106685
21545.099565,1110.308913,-7698.141797,842.705048
21545.099898,-962.267725,-6809.894666,-4290.134789
21545.100231,3478.967927,-9474.636058,-76.609550
21545.100564,4071.132681,-8216.285956,1455.581446
21545.100898,2220.617826,-10214.842000,0.000000
21545.101231,1776.494261,-9548.656652,-1838.629195
21545.101564,-1258.350101,-11991.336260,-3140.991542
21545.101897,6735.874072,-8438.347739,-229.828649
21545.102230,0.000000,-9548.656652,306.438199
21545.102564,2886.803174,-11547.212695,-995.924147
21545.102897,-1258.350101,-9474.636058,-3753.867940
21545.103230,370.102971,-9548.656652,1225.752797
21545.103563,6439.791695,-5995.668130,3677.258390
21545.103896,3478.967927,-7402.059420,5132.839837
21545.104229,2220.617826,-6513.812290,2451.505594
21545.104563,1332.370696,-9844.739029,2604.724693
21545.104896,1332.370696,-7105.977043,1762.019645
21545.105229,2294.638420,-9474.636058,3294.210641
21545.105562,-2738.761985,-10362.883188,-4060.306139
21545.105895,-4811.338623,-8660.409521,-9193.145976
21545.106229,-4441.235652,-14582.057057,-2528.115143
21545.106562,-2960.823768,-7772.162391,-1991.848295
21545.106895,-3552.988522,-7328.038826,-1838.629195
21545.107228,-1776.494261,-9030.512492,306.438199
21545.107561,1628.453072,-10066.800811,3983.696590
21545.107895,3552.988522,-7772.162391,7967.393179
21545.108228,7031.956449,-6513.812290,4213.525239
21545.108561,888.247130,-5995.668130,1532.190996
21545.108894,0.000000,-10732.986159,2068.457845
21545.109227,-962.267725,-10066.800811,-1302.362347
21545.109560,-1628.453072,-8438.347739,-2145.067394
21545.109894,-740.205942,-9548.656652,-3064.381992
21545.110227,-2368.659014,-7846.182985,-2528.115143
21545.110560,-2516.700203,-11399.171507,-3370.820191
21545.110893,-74.020594,-11843.295072,2374.896044
21545.111226,-1258.350101,-5403.503377,2451.505594
21545.111560,1554.432478,-7994.224174,2374.896044
21545.111893,-1850.514855,-9474.636058,1149.143247
21545.112226,-2960.823768,-5403.503377,0.000000
21545.112559,3182.885551,-7105.977043,3370.820191
21545.112892,-296.082377,-7105.977043,1455.581446
21545.113226,-1628.453072,-8142.265362,-2987.772442
21545.113559,-4589.276840,-12213.398043,-2298.286494
21545.113892,518.144159,-10658.965565,-1915.238745
21545.114225,-444.123565,-10732.986159,-1685.410096
21545.114559,-666.185348,-10436.903782,-612.876398
21545.114892,-1998.556043,-9696.697840,-2221.676944
21545.115225,0.000000,-11177.109724,3370.820191
21545.115558,7920.203579,-7698.141797,4519.963438
21545.115892,3849.070898,-9770.718434,6358.592633
21545.116225,2294.638420,-5995.668130,0.000000
21545.116558,2368.659014,-12065.356855,3140.991542
21545.116891,2146.597232,-9844.739029,1225.752797
21545.117225,3775.050304,-5107.421000,306.438199
21545.117558,-2072.576638,-9844.739029,-1915.238745
21545.117891,-3108.864956,-10436.903782,-4366.744339
21545.118224,-1258.350101,-10362.883188,-1302.362347
21545.118558,1850.514855,-9474.636058,-76.609550
21545.118891,222.061783,-5551.544565,-2145.067394
21545.119224,0.000000,-8068.244768,0.000000
21545.119557,740.205942,-11769.274478,2374.896044
21545.119891,7031.956449,-10510.924376,7660.954980
21545.120224,5847.626942,-7179.997637,3677.258390
21545.120557,3330.926739,-9326.594869,3140.991542
21545.120890,962.267725,-8216.285956,-1608.800546
21545.121224,0.000000,-9992.780217,-1225.752797
21545.121557,3478.967927,-10658.965565,1149.143247
21545.121890,-2368.659014,-5403.503377,0.000000
21545.122223,-2516.700203,-9474.636058,-3140.991542
21545.122557,-3627.009116,-13027.624579,-5286.058936
21545.122890,-1924.535449,-11695.253884,-383.047749
21545.123223,1332.370696,-8142.265362,459.657299
21545.123556,1110.308913,-10288.862594,3447.429741
21545.123890,0.000000,-7994.224174,3447.429741
21545.124223,1776.494261,-9548.656652,3677.258390
21545.124556,4663.297435,-7105.977043,4673.182538
21545.124889,2664.741391,-7698.141797,4826.401637
21545.125223,-74.020594,-9474.636058,-689.485948
21545.125556,-5625.565159,-8364.327145,-4596.572988
21545.125889,-5921.647536,-12805.562797,-3064.381992
21545.126222,-2368.659014,-9474.636058,-1532.190996
21545.126556,-3552.988522,-9696.697840,-2451.505594
21545.126889,-4885.359217,-10214.842000,-4060.306139
21545.127222,-1850.514855,-12435.459826,-689.485948
21545.127555,-1776.494261,-7772.162391,4903.011187
21545.127889,5255.462188,-6513.812290,4826.401637
21545.128222,1110.308913,-6809.894666,1762.019645
21545.128555,0.000000,-10140.821405,5132.839837
21545.128888,2442.679609,-7920.203579,2834.553343
21545.129222,4293.194464,-7105.977043,3677.258390
21545.129555,296.082377,-8808.450710,-1532.190996
21545.129888,-3034.844362,-9918.759623,-5898.935335
21545.130221,-3627.009116,-14211.954086,-4979.620737
21545.130555,-1184.329507,-8364.327145,-2757.943793
21545.130888,1406.391290,-9104.533087,-919.314598
21545.131221,-592.164754,-9992.780217,1455.581446
21545.131554,1110.308913,-7550.100608,3140.991542
21545.131888,4589.276840,-10510.924376,6894.859482
21545.132221,5625.565159,-3923.091493,6741.640382
21545.132554,0.000000,-6587.832884,3677.258390
21545.132887,2294.638420,-7698.141797,-1302.362347
21545.133221,-2516.700203,-11991.336260,-2298.286494
21545.133554,592.164754,-9548.656652,-1302.362347
21545.133887,370.102971,-9252.574275,-2528.115143
21545.134220,-2368.659014,-11325.150913,-5132.839837
21545.134554,-1184.329507,-11769.274478,-3140.991542
21545.134887,-1258.350101,-11843.295072,-2221.676944
21545.135220,2516.700203,-6587.832884,3064.381992
21545.135553,3182.885551,-9474.636058,4826.401637
21545.135887,4663.297435,-5625.565159,1532.190996
21545.136220,1036.288319,-8512.368333,1991.848295
21545.136553,5847.626942,-8586.388927,4213.525239
21545.136886,2368.659014,-5995.668130,2757.943793
21545.137220,814.226536,-8586.388927,-76.609550
21545.137553,-2516.700203,-11325.150913,-3983.696590
21545.137886,-2960.823768,-11325.150913,-3677.258390
21545.138219,-3552.988522,-10140.821405,842.705048
21545.138553,-666.185348,-7254.018232,-4596.572988
21545.138886,-4219.173869,-10140.821405,-3677.258390
21545.139219,-3256.906145,-8660.409521,-76.609550
21545.139552,222.061783,-8660.409521,4903.011187
21545.139886,3552.988522,-2442.679609,3677.258390
21545.140219,3627.009116,-8734.430116,4213.525239
21545.140552,2220.617826,-10214.842000,2604.724693
21545.140885,4663.297435,-11547.212695,4519.963438
21545.141219,3997.112087,-8290.306550,1762.019645
21545.141552,814.226536,-10436.903782,-4903.011187
21545.141885,-4737.318029,-11917.315666,-3064.381992
21545.142218,-4737.318029,-9548.656652,-3677.258390
21545.142552,-666.185348,-11251.130318,-76.609550
21545.142885,296.082377,-7179.997637,4596.572988
21545.143218,-148.041188,-5033.400406,1685.410096
21545.143551,-962.267725,-7476.080014,3447.429741
21545.143885,0.000000,-7476.080014,3064.381992
21545.144218,1110.308913,-4811.338623,1532.190996
21545.144551,1036.288319,-8512.368333,1225.752797
21545.144884,-74.020594,-11843.295072,-2528.115143
21545.145218,-4737.318029,-10732.986159,-4136.915689
21545.145551,-666.185348,-12435.459826,-2528.115143
21545.145884,-740.205942,-8734.430116,-919.314598
21545.146217,-74.020594,-8956.491898,-689.485948
21545.146551,0.000000,-8956.491898,0.000000
21545.146884,592.164754,-9548.656652,919.314598
21545.147217,3034.844362,-7254.018232,2604.724693
21545.147550,4071.132681,-6661.853478,4060.306139
21545.147884,2368.659014,-7179.997637,1302.362347
21545.148217,2368.659014,-10658.965565,1532.190996
21545.148550,1184.329507,-9548.656652,306.438199
21545.148883,4663.297435,-9474.636058,-76.609550
21545.149217,0.000000,-9548.656652,0.000000
21545.149550,1702.473667,-9474.636058,-1302.362347
21545.149883,-814.226536,-10658.965565,-383.047749
21545.150216,-1184.329507,-7179.997637,153.219100
21545.150550,518.144159,-6661.853478,-842.705048
21545.150883,-2220.617826,-9474.636058,-1455.581446
21545.151216,-1480.411884,-8586.388927,0.000000
21545.151549,-1184.329507,-9400.615463,1378.971896
21545.151883,1406.391290,-5107.421000,1225.752797
21545.152216,-3552.988522,-9548.656652,2757.943793
21545.152549,-74.020594,-9474.636058,-995.924147
21545.152883,0.000000,-9548.656652,0.000000
21545.153216,4367.215058,-9474.636058,2374.896044
21545.153549,2664.741391,-9474.636058,2374.896044
21545.153882,-1110.308913,-9400.615463,-2451.505594
21545.154216,-1258.350101,-12139.377449,-3294.210641
21545.154549,-74.020594,-11843.295072,-76.609550
21545.154882,-1776.494261,-6587.832884,1225.752797
21545.155215,-74.020594,-9474.636058,-76.609550
21545.155549,-2738.761985,-7476.080014,0.000000
21545.155882,0.000000,-7179.997637,2451.505594
21545.156215,4071.132681,-6809.894666,4136.915689
21545.156548,1998.556043,-9030.512492,2528.115143
21545.156882,-1110.308913,-8364.327145,-229.828649
21545.157215,-6291.750507,-12139.377449,-2451.505594
21545.157548,-1850.514855,-8586.388927,-3447.429741
21545.157881,-4737.318029,-7772.162391,0.000000
21545.158215,1702.473667,-8290.306550,-689.485948
21545.158548,-2368.659014,-5107.421000,-4290.134789
21545.158881,-3552.988522,-11917.315666,612.876398
21545.159214,1702.473667,-6957.935855,689.485948
21545.159548,1480.411884,-9400.615463,1915.238745
21545.159881,2960.823768,-9696.697840,3907.087040
21545.160214,148.041188,-10140.821405,1225.752797
21545.160547,2590.720797,-10658.965565,2987.772442
21545.160881,5329.482782,-7476.080014,5056.230287
21545.161214,4663.297435,-7772.162391,2987.772442
21545.161547,666.185348,-8882.471304,-689.485948
21545.161880,-2368.659014,-10955.047942,-2068.457845
21545.162214,-666.185348,-9474.636058,-3294.210641
21545.162547,-2368.659014,-6735.874072,-1838.629195
21545.162880,-4737.318029,-9844.739029,1455.581446
21545.163213,-2146.597232,-6809.894666,-4366.744339
21545.163547,0.000000,-9548.656652,0.000000
21545.163880,3256.906145,-7476.080014,2528.115143
21545.164213,2368.659014,-9104.533087,4136.915689
21545.164546,1406.391290,-9548.656652,1991.848295
21545.164880,4663.297435,-11843.295072,4213.525239
21545.165213,5033.400406,-9474.636058,5745.716235
21545.165546,5033.400406,-4811.338623,3064.381992
21545.165879,1110.308913,-12287.418637,919.314598
21545.166213,-1258.350101,-11251.130318,-5592.497135
21545.166546,-2442.679609,-13323.706956,-4060.306139
21545.166879,0.000000,-10955.047942,-1302.362347
21545.167212,-1480.411884,-9178.553681,-1608.800546
21545.167546,-740.205942,-9474.636058,-229.828649
21545.167879,2960.823768,-6587.832884,1225.752797
21545.168212,5255.462188,-11843.295072,6052.154434
21545.168545,5329.482782,-5995.668130,9422.974625
21545.168879,-74.020594,-8586.388927,0.000000
21545.169212,-1776.494261,-9844.739029,-4903.011187
21545.169545,-2368.659014,-10955.047942,-689.485948
21545.169878,-592.164754,-6587.832884,-2221.676944
21545.170212,-1332.370696,-10362.883188,-1608.800546
21545.170545,-4811.338623,-9474.636058,-3064.381992
21545.170878,-3552.988522,-10732.986159,-1225.752797
21545.171211,-666.185348,-7994.224174,0.000000
21545.171545,4663.297435,-9474.636058,4519.963438
21545.171878,2294.638420,-9474.636058,2374.896044
21545.172211,0.000000,-8364.327145,3677.258390
21545.172544,296.082377,-11621.233289,2145.067394
21545.172878,2368.659014,-9178.553681,5132.839837
21545.173211,2960.823768,-7105.977043,2681.334243
21545.173544,-148.041188,-9252.574275,76.609550
21545.173877,-1554.432478,-10658.965565,-4060.306139
21545.174211,-4737.318029,-10732.986159,-1838.629195
21545.174544,1110.308913,-7105.977043,-1915.238745
21545.174877,-3182.885551,-7550.100608,-3140.991542
21545.175210,-5921.647536,-10732.986159,-383.047749
21545.175544,-1258.350101,-8734.430116,-995.924147
21545.175877,0.000000,-9030.512492,3447.429741
21545.176210,2886.803174,-6809.894666,4366.744339
21545.176543,1406.391290,-7105.977043,1149.143247
21545.176877,3775.050304,-11769.274478,3294.210641
21545.177210,1184.329507,-11917.315666,3370.820191
21545.177543,3923.091493,-5477.523971,919.314598
21545.177876,370.102971,-9844.739029,-3677.258390
21545.178210,-1628.453072,-12435.459826,-5286.058936
21545.178543,-74.020594,-14211.954086,-76.609550
21545.178876,740.205942,-7772.162391,1838.629195
21545.179209,1184.329507,-4811.338623,2757.943793
21545.179543,-962.267725,-10658.965565,-76.609550
21545.179876,0.000000,-7179.997637,766.095498
21545.180209,592.164754,-11251.130318,4826.401637
21545.180542,4293.194464,-6291.750507,4136.915689
21545.180876,1110.308913,-9030.512492,2068.457845
