#time,accel_x,accel_y,accel_z
22006.139732,1924.535449,-9548.656652,-4673.182538
22006.140066,1850.514855,-10436.903782,-4673.182538
22006.140400,4589.276840,-10658.965565,-1302.362347
22006.140733,7105.977043,-9548.656652,2528.115143
22006.141067,9474.636058,-9252.574275,4903.011187
22006.141401,11473.192101,-8512.368333,3370.820191
22006.141734,12435.459826,-8956.491898,7890.783629
22006.142068,12361.439231,-7105.977043,2681.334243
22006.142402,10214.842000,-7179.997637,0.000000
22006.142735,9770.718434,-9252.574275,0.000000
22006.143069,7920.203579,-10140.821405,-2911.162892
22006.143403,6661.853478,-10584.944971,-3447.429741
22006.143737,6513.812290,-11251.130318,-4060.306139
22006.144070,4811.338623,-13027.624579,-3753.867940
22006.144404,1184.329507,-10140.821405,-1838.629195
22006.144738,4663.297435,-12435.459826,1762.019645
22006.145071,4663.297435,-8068.244768,1225.752797
22006.145405,6217.729913,-7179.997637,8044.002729
22006.145739,11177.109724,-6809.894666,9116.536426
22006.146072,11251.130318,-4737.318029,8733.488677
22006.146406,9992.780217,-5181.441594,5056.230287
22006.146740,7550.100608,-6365.771101,459.657299
22006.147073,6439.791695,-7698.141797,-4290.134789
22006.147407,5625.565159,-10732.986159,-3294.210641
22006.147741,6439.791695,-11251.130318,-8656.879127
22006.148074,3849.070898,-9548.656652,-9806.022374
22006.148408,5921.647536,-13989.892304,-3830.477490
22006.148742,11769.274478,-14211.954086,-76.609550
22006.149076,11695.253884,-11843.295072,4213.525239
22006.149409,10362.883188,-10584.944971,4443.353888
22006.149743,11251.130318,-9104.533087,6128.763984
22006.150077,12657.521608,-7105.977043,6894.859482
22006.150410,14285.974681,-6439.791695,9729.412825
22006.150744,12731.542202,-4959.379811,5056.230287
22006.151078,10436.903782,-6809.894666,1149.143247
22006.151411,6439.791695,-9548.656652,-2068.457845
22006.151745,3478.967927,-8734.430116,-6971.469032
22006.152079,0.000000,-10732.986159,-7660.954980
22006.152412,592.164754,-12213.398043,-4979.620737
22006.152746,4663.297435,-11843.295072,-3447.429741
22006.153080,6513.812290,-7179.997637,1225.752797
22006.153414,13545.768739,-8290.306550,4213.525239
22006.153747,13915.871710,-7550.100608,7124.688131
22006.154081,13027.624579,-5699.585753,5975.544884
22006.154415,12139.377449,-6883.915261,2451.505594
22006.154748,9474.636058,-7476.080014,-2451.505594
22006.155082,7105.977043,-7476.080014,-2374.896044
22006.155416,7031.956449,-10362.883188,-4826.401637
22006.155749,7031.956449,-10658.965565,-5975.544884
22006.156083,4737.318029,-12213.398043,-2298.286494
22006.156417,9400.615463,-9548.656652,0.000000
22006.156750,14211.954086,-8956.491898,5362.668486
22006.157084,16506.592507,-5773.606348,6665.030833
22006.157418,16506.592507,-6661.853478,5745.716235
22006.157752,14804.118840,-7846.182985,4136.915689
22006.158085,13619.789333,-9696.697840,4826.401637
22006.158419,9992.780217,-9474.636058,-3217.601092
22006.158753,5033.400406,-10140.821405,-7354.516781
22006.159086,5847.626942,-13027.624579,-5592.497135
22006.159420,5329.482782,-9844.739029,-2451.505594
22006.159754,12657.521608,-7031.956449,689.485948
22006.160087,12065.356855,-8142.265362,3907.087040
22006.160421,13249.686362,-7105.977043,4136.915689
22006.160755,12361.439231,-10066.800811,4826.401637
22006.161088,14137.933492,-9474.636058,4519.963438
22006.161422,14137.933492,-5995.668130,1225.752797
22006.161756,13027.624579,-8364.327145,2911.162892
22006.162089,14804.118840,-7772.162391,2374.896044
22006.162423,12361.439231,-9474.636058,-383.047749
22006.162757,8438.347739,-11103.089130,-4060.306139
22006.163091,4589.276840,-11695.253884,-5822.325785
22006.163424,4959.379811,-10881.027347,-4826.401637
22006.163758,7105.977043,-7179.997637,-1072.533697
22006.164092,10584.944971,-7624.121203,919.314598
22006.164425,10066.800811,-5403.503377,1225.752797
22006.164759,13027.624579,-10510.924376,7277.907231
22006.165093,12953.603985,-8364.327145,4903.011187
22006.165426,11325.150913,-8438.347739,4519.963438
22006.165760,11621.233289,-6587.832884,0.000000
22006.166094,12287.418637,-6957.935855,-1608.800546
22006.166427,10066.800811,-6883.915261,-2451.505594
22006.166761,8438.347739,-10140.821405,-2451.505594
22006.167095,7624.121203,-11103.089130,-1991.848295
22006.167429,5625.565159,-11991.336260,-1991.848295
22006.167762,8290.306550,-7402.059420,0.000000
22006.168096,6883.915261,-9178.553681,-995.924147
22006.168430,4737.318029,-7772.162391,-1455.581446
22006.168763,14137.933492,-10658.965565,3600.648841
22006.169097,10584.944971,-6587.832884,2757.943793
22006.169431,16284.530724,-7476.080014,7354.516781
22006.169764,11769.274478,-11251.130318,3983.696590
22006.170098,7254.018232,-10732.986159,-612.876398
22006.170432,7031.956449,-10140.821405,-2221.676944
22006.170765,9992.780217,-7920.203579,-2834.553343
22006.171099,10362.883188,-8808.450710,689.485948
22006.171433,6513.812290,-8364.327145,-2451.505594
22006.171767,7624.121203,-12435.459826,-995.924147
22006.172100,5255.462188,-9992.780217,-2451.505594
22006.172434,7105.977043,-10140.821405,1608.800546
22006.172768,7031.956449,-10658.965565,-76.609550
22006.173101,7402.059420,-8290.306550,4826.401637
22006.173435,4589.276840,-8956.491898,2604.724693
22006.173769,6291.750507,-8808.450710,3677.258390
22006.174102,9400.615463,-5625.565159,4519.963438
22006.174436,8216.285956,-8290.306550,4826.401637
22006.174770,7920.203579,-4219.173869,0.000000
22006.175103,1480.411884,-11325.150913,-4903.011187
22006.175437,2960.823768,-10288.862594,-3140.991542
22006.175771,0.000000,-8512.368333,-4290.134789
22006.176104,4367.215058,-7994.224174,-3447.429741
22006.176438,1184.329507,-12435.459826,-2451.505594
22006.176772,1924.535449,-9992.780217,-383.047749
22006.177106,3478.967927,-10955.047942,995.924147
22006.177439,5847.626942,-9178.553681,3294.210641
22006.177773,6217.729913,-8364.327145,4903.011187
22006.178107,9400.615463,-7698.141797,9422.974625
22006.178440,6883.915261,-3997.112087,1991.848295
22006.178774,5033.400406,-4811.338623,3677.258390
22006.179108,5847.626942,-8882.471304,-1302.362347
22006.179441,3997.112087,-9474.636058,-3830.477490
22006.179775,3404.947333,-7624.121203,-3370.820191
22006.180109,-888.247130,-13027.624579,-6971.469032
22006.180442,962.267725,-12435.459826,-4979.620737
22006.180776,-1702.473667,-13545.768739,-2834.553343
22006.181110,5255.462188,-7328.038826,842.705048
22006.181444,4737.318029,-9104.533087,4213.525239
22006.181777,6513.812290,-11029.068536,7354.516781
22006.182111,7105.977043,-8882.471304,7890.783629
22006.182445,5107.421000,-6587.832884,4903.011187
22006.182778,2664.741391,-4811.338623,3064.381992
22006.183112,2294.638420,-10066.800811,1608.800546
22006.183446,0.000000,-7179.997637,-3064.381992
22006.183779,-1480.411884,-7624.121203,-3064.381992
22006.184113,-1184.329507,-6883.915261,-8120.612279
22006.184447,-740.205942,-13989.892304,-4366.744339
22006.184780,1702.473667,-10362.883188,-1608.800546
22006.185114,2072.576638,-14211.954086,-76.609550
22006.185448,592.164754,-9844.739029,3677.258390
22006.185782,4885.359217,-10955.047942,3600.648841
22006.186115,4367.215058,-13619.789333,6358.592633
22006.186449,5847.626942,-7105.977043,6358.592633
22006.186783,4885.359217,-7550.100608,4903.011187
22006.187116,3775.050304,-6513.812290,3524.039291
22006.187450,0.000000,-5995.668130,-1149.143247
22006.187784,-2960.823768,-7476.080014,-2451.505594
22006.188117,-370.102971,-7698.141797,-5745.716235
22006.188451,-5921.647536,-10732.986159,-3677.258390
22006.188785,2294.638420,-8882.471304,-3140.991542
22006.189118,-666.185348,-12435.459826,-1915.238745
22006.189452,148.041188,-8956.491898,-766.095498
22006.189786,2664.741391,-11251.130318,2604.724693
22006.190119,2442.679609,-12509.480420,3600.648841
22006.190453,5847.626942,-8438.347739,5439.278036
22006.190787,2368.659014,-9696.697840,4443.353888
22006.191121,-74.020594,-9696.697840,153.219100
22006.191454,296.082377,-8290.306550,2987.772442
22006.191788,-74.020594,-7698.141797,-1302.362347
22006.192122,-1776.494261,-6587.832884,-1532.190996
22006.192455,-296.082377,-11547.212695,-306.438199
22006.192789,-4219.173869,-10955.047942,-153.219100
22006.193123,0.000000,-5921.647536,-459.657299
22006.193456,-1258.350101,-10807.006753,2374.896044
22006.193790,1998.556043,-7698.141797,2374.896044
22006.194124,-2368.659014,-7179.997637,3064.381992
22006.194457,-74.020594,-11843.295072,2374.896044
22006.194791,-962.267725,-7105.977043,-2528.115143
22006.195125,-4737.318029,-12953.603985,1149.143247
22006.195459,0.000000,-6143.709319,0.000000
22006.195792,-3997.112087,-9622.677246,-1302.362347
22006.196126,-2960.823768,-7920.203579,-3370.820191
22006.196460,-2886.803174,-7328.038826,-2451.505594
22006.196793,-296.082377,-8882.471304,-76.609550
22006.197127,2960.823768,-5403.503377,4443.353888
22006.197461,2664.741391,-7994.224174,2834.553343
22006.197794,3330.926739,-9030.512492,1608.800546
22006.198128,296.082377,-11325.150913,2451.505594
22006.198462,4663.297435,-12731.542202,-76.609550
22006.198795,1332.370696,-11177.109724,0.000000
22006.199129,0.000000,-14878.139434,-76.609550
22006.199463,-1258.350101,-9770.718434,-2834.553343
22006.199797,-3997.112087,-8956.491898,-1378.971896
22006.200130,1776.494261,-9844.739029,-76.609550
22006.200464,-3404.947333,-10881.027347,612.876398
22006.200798,1110.308913,-4959.379811,1225.752797
22006.201131,3108.864956,-5403.503377,4290.134789
22006.201465,2294.638420,-7105.977043,5286.058936
22006.201799,1184.329507,-3034.844362,2451.505594
22006.202132,4071.132681,-9474.636058,3600.648841
22006.202466,4367.215058,-9104.533087,-1225.752797
22006.202800,-1184.329507,-12953.603985,-766.095498
22006.203133,-74.020594,-10658.965565,-4366.744339
22006.203467,-4737.318029,-12805.562797,-5822.325785
22006.203801,-3997.112087,-10436.903782,-4366.744339
22006.204134,518.144159,-8290.306550,-1225.752797
22006.204468,-1184.329507,-9548.656652,2757.943793
22006.204802,0.000000,-2442.679609,1225.752797
22006.205136,2590.720797,-10658.965565,4826.401637
22006.205469,6809.894666,-2738.761985,4060.306139
22006.205803,4737.318029,-9844.739029,7277.907231
22006.206137,5329.482782,-8364.327145,2834.553343
22006.206470,1480.411884,-12805.562797,0.000000
22006.206804,666.185348,-9844.739029,0.000000
22006.207138,-1110.308913,-12213.398043,-2911.162892
22006.207471,-666.185348,-11843.295072,-1915.238745
22006.207805,-2812.782580,-10066.800811,-2528.115143
22006.208139,-3034.844362,-11251.130318,-1302.362347
22006.208472,-4145.153275,-5995.668130,0.000000
22006.208806,-444.123565,-8290.306550,-76.609550
22006.209140,3478.967927,-9474.636058,5439.278036
22006.209474,1776.494261,-7402.059420,4749.792088
22006.209807,814.226536,-8660.409521,3753.867940
22006.210141,-740.205942,-7105.977043,153.219100
22006.210474,0.000000,-9548.656652,1915.238745
22006.210807,2886.803174,-5329.482782,-766.095498
22006.211140,0.000000,-9548.656652,1225.752797
22006.211474,-1776.494261,-11547.212695,-2604.724693
22006.211807,-2442.679609,-12361.439231,-3370.820191
22006.212140,-2590.720797,-11029.068536,-2068.457845
22006.212474,-1850.514855,-9548.656652,-2145.067394
22006.212807,-3404.947333,-11473.192101,-153.219100
22006.213140,2294.638420,-7698.141797,2374.896044
22006.213473,0.000000,-5995.668130,3677.258390
22006.213807,4663.297435,-6661.853478,2298.286494
22006.214140,1258.350101,-9030.512492,4826.401637
22006.214473,666.185348,-7994.224174,3294.210641
22006.214807,814.226536,-8660.409521,459.657299
22006.215140,-2368.659014,-7105.977043,229.828649
22006.215473,-1258.350101,-13027.624579,-2528.115143
22006.215807,-1258.350101,-6883.915261,-1838.629195
22006.216140,-1776.494261,-12139.377449,-2451.505594
22006.216473,-4441.235652,-11991.336260,-2451.505594
22006.216806,-2960.823768,-8364.327145,-1378.971896
22006.217140,-962.267725,-10584.944971,0.000000
22006.217473,4515.256246,-7328.038826,3524.039291
22006.217806,4515.256246,-7031.956449,4979.620737
22006.218140,3552.988522,-8660.409521,3677.258390
22006.218473,5847.626942,-6217.729913,2451.505594
22006.218806,0.000000,-9548.656652,4290.134789
22006.219139,3182.885551,-8290.306550,-1302.362347
22006.219473,-3330.926739,-10510.924376,-4979.620737
22006.219806,0.000000,-11177.109724,-3447.429741
22006.220139,-2960.823768,-14063.912898,-1455.581446
22006.220473,2738.761985,-7550.100608,459.657299
22006.220806,-2368.659014,-11917.315666,2068.457845
22006.221139,1110.308913,-8882.471304,1762.019645
22006.221473,-666.185348,-7179.997637,612.876398
22006.221806,3404.947333,-8660.409521,4903.011187
22006.222139,7031.956449,-7105.977043,3600.648841
22006.222472,0.000000,-5995.668130,3064.381992
22006.222806,3923.091493,-8586.388927,1762.019645
22006.223139,-74.020594,-9770.718434,0.000000
22006.223472,-3627.009116,-12657.521608,-3447.429741
22006.223806,-4737.318029,-9474.636058,-5286.058936
22006.224139,-4071.132681,-9474.636058,-3907.087040
22006.224472,-4737.318029,-6587.832884,-2451.505594
22006.224805,518.144159,-11843.295072,1762.019645
22006.225139,1110.308913,-5921.647536,536.266849
22006.225472,0.000000,-7179.997637,3677.258390
22006.225805,2294.638420,-10658.965565,2681.334243
22006.226139,3775.050304,-8734.430116,3294.210641
22006.226472,2072.576638,-9178.553681,3907.087040
22006.226805,1998.556043,-6513.812290,2681.334243
22006.227139,2812.782580,-7105.977043,-76.609550
22006.227472,-1480.411884,-14730.098246,-2757.943793
22006.227805,-518.144159,-10140.821405,-1608.800546
22006.228138,-5699.585753,-10362.883188,-4979.620737
22006.228472,-4145.153275,-12361.439231,-3140.991542
22006.228805,-3034.844362,-10066.800811,-1302.362347
22006.229138,0.000000,-5995.668130,306.438199
22006.229472,0.000000,-8660.409521,6894.859482
22006.229805,4663.297435,-6513.812290,3907.087040
22006.230138,1480.411884,-7772.162391,3064.381992
22006.230471,2294.638420,-8882.471304,3294.210641
22006.230805,3330.926739,-7920.203579,1838.629195
22006.231138,-1628.453072,-9622.677246,-1838.629195
22006.231471,-74.020594,-13027.624579,-1608.800546
22006.231805,-592.164754,-9474.636058,-1302.362347
22006.232138,-4737.318029,-10732.986159,-1838.629195
22006.232471,-592.164754,-10584.944971,0.000000
22006.232805,-4145.153275,-10510.924376,-1915.238745
22006.233138,-666.185348,-11843.295072,-1915.238745
22006.233471,3923.091493,-8290.306550,3294.210641
22006.233804,2664.741391,-7402.059420,6971.469032
22006.234138,3182.885551,-7476.080014,6205.373534
22006.234471,592.164754,-5107.421000,5362.668486
22006.234804,2294.638420,-7994.224174,-995.924147
22006.235138,4737.318029,-9252.574275,3600.648841
22006.235471,-1850.514855,-12731.542202,-2451.505594
22006.235804,-2072.576638,-7476.080014,-7354.516781
22006.236137,-4515.256246,-10288.862594,-3907.087040
22006.236471,-3256.906145,-11325.150913,-4903.011187
22006.236804,-1480.411884,-11399.171507,-1608.800546
22006.237137,-888.247130,-10214.842000,229.828649
22006.237471,2368.659014,-10510.924376,5822.325785
22006.237804,1110.308913,-5625.565159,1838.629195
22006.238137,7031.956449,-9474.636058,6052.154434
22006.238471,3478.967927,-7031.956449,4596.572988
22006.238804,3552.988522,-6143.709319,4443.353888
22006.239137,1924.535449,-9104.533087,1455.581446
22006.239470,-1184.329507,-10732.986159,-1378.971896
22006.239804,-1480.411884,-8882.471304,-3907.087040
22006.240137,-5403.503377,-12953.603985,-4290.134789
22006.240470,-1702.473667,-7476.080014,-4060.306139
22006.240804,-4737.318029,-8364.327145,0.000000
22006.241137,-74.020594,-10066.800811,-4060.306139
22006.241470,0.000000,-8438.347739,76.609550
22006.241803,0.000000,-11769.274478,2374.896044
22006.242137,5699.585753,-9474.636058,5439.278036
22006.242470,2516.700203,-9844.739029,8197.221829
22006.242803,5699.585753,-5107.421000,7201.297681
22006.243137,2442.679609,-5255.462188,4903.011187
22006.243470,-222.061783,-9770.718434,-2451.505594
22006.243803,-1184.329507,-7920.203579,-2221.676944
22006.244137,-5033.400406,-12805.562797,-3064.381992
22006.244470,-1998.556043,-7328.038826,-6128.763984
22006.244803,-5921.647536,-12361.439231,-3983.696590
22006.245136,-2146.597232,-8142.265362,-3140.991542
22006.245470,296.082377,-9474.636058,1302.362347
22006.245803,4663.297435,-9474.636058,3600.648841
22006.246136,296.082377,-9548.656652,4903.011187
22006.246470,3108.864956,-8882.471304,4826.401637
22006.246803,2294.638420,-5995.668130,0.000000
22006.247136,1776.494261,-9252.574275,1608.800546
22006.247469,4071.132681,-6513.812290,306.438199
22006.247803,1628.453072,-9548.656652,-3064.381992
22006.248136,-2960.823768,-13693.809927,919.314598
22006.248469,-1702.473667,-9474.636058,-1302.362347
22006.248803,-4737.318029,-9548.656652,-3677.258390
22006.249136,-2368.659014,-4811.338623,-2451.505594
22006.249469,-1184.329507,-13027.624579,995.924147
22006.249802,296.082377,-4811.338623,3677.258390
22006.250136,2146.597232,-7772.162391,2298.286494
22006.250469,2886.803174,-10362.883188,3600.648841
22006.250802,3256.906145,-6883.915261,3140.991542
22006.251136,2294.638420,-9474.636058,1762.019645
22006.251469,-666.185348,-13027.624579,-689.485948
22006.251802,-3552.988522,-6587.832884,-2451.505594
22006.252136,-74.020594,-13027.624579,-76.609550
22006.252469,2294.638420,-7105.977043,-3140.991542
22006.252802,740.205942,-11769.274478,1149.143247
22006.253135,-2072.576638,-8660.409521,-1302.362347
22006.253469,2294.638420,-8808.450710,1991.848295
22006.253802,1258.350101,-7772.162391,4290.134789
22006.254135,1924.535449,-5403.503377,2911.162892
22006.254469,5551.544565,-6513.812290,1378.971896
22006.254802,0.000000,-8660.409521,1225.752797
22006.255135,4367.215058,-8290.306550,-76.609550
22006.255468,-814.226536,-13619.789333,-2068.457845
22006.255802,-888.247130,-10658.965565,-76.609550
22006.256135,-1480.411884,-10807.006753,-1149.143247
22006.256468,222.061783,-8364.327145,0.000000
22006.256802,-1406.391290,-7920.203579,0.000000
22006.257135,-1776.494261,-8512.368333,-1532.190996
22006.257468,-2072.576638,-7772.162391,1225.752797
22006.257802,2886.803174,-7698.141797,3600.648841
22006.258135,2294.638420,-8290.306550,995.924147
22006.258468,0.000000,-8660.409521,2987.772442
22006.258801,1406.391290,-8882.471304,-76.609550
22006.259135,1036.288319,-7920.203579,1149.143247
22006.259468,1554.432478,-11917.315666,-536.266849
22006.259801,-1924.535449,-10140.821405,-1991.848295
22006.260135,-2368.659014,-11917.315666,-2757.943793
22006.260468,-4737.318029,-9844.739029,-3064.381992
22006.260801,-74.020594,-7402.059420,-1838.629195
22006.261134,1406.391290,-10658.965565,-842.705048
22006.261468,2812.782580,-10807.006753,4519.963438
22006.261801,2368.659014,-5995.668130,5515.887586
22006.262134,1554.432478,-6217.729913,2681.334243
22006.262468,0.000000,-7179.997637,6435.202183
22006.262801,1110.308913,-8290.306550,-76.609550
22006.263134,2294.638420,-5921.647536,536.266849
22006.263468,-3404.947333,-13101.645173,-1608.800546
22006.263801,-2072.576638,-8808.450710,-4290.134789
22006.264134,-6217.729913,-10288.862594,-4903.011187
22006.264467,-3478.967927,-10214.842000,-3217.601092
22006.264801,-1258.350101,-11843.295072,-76.609550
22006.265134,-6809.894666,-9548.656652,0.000000
22006.265467,-3552.988522,-7476.080014,3370.820191
22006.265801,3182.885551,-4737.318029,3907.087040
22006.266134,3849.070898,-5995.668130,6128.763984
22006.266467,6143.709319,-8290.306550,7277.907231
22006.266800,5921.647536,-7920.203579,4060.306139
22006.267134,296.082377,-11621.233289,2145.067394
22006.267467,666.185348,-9992.780217,-4060.306139
22006.267800,-74.020594,-10066.800811,-3907.087040
22006.268134,-4737.318029,-11325.150913,-2451.505594
22006.268467,814.226536,-10510.924376,-1762.019645
22006.268800,-666.185348,-14211.954086,-1915.238745
22006.269134,592.164754,-9548.656652,612.876398
22006.269467,962.267725,-7772.162391,3677.258390
22006.269800,3478.967927,-5921.647536,3064.381992
22006.270133,4589.276840,-5403.503377,5822.325785
22006.270467,370.102971,-8512.368333,4136.915689
22006.270800,5477.523971,-4811.338623,2451.505594
22006.271133,3552.988522,-8660.409521,4826.401637
22006.271467,2294.638420,-10955.047942,-1838.629195
22006.271800,0.000000,-7179.997637,-4903.011187
22006.272133,-2368.659014,-15618.345376,-3753.867940
22006.272466,-666.185348,-9548.656652,-6128.763984
22006.272800,-1850.514855,-12953.603985,-3524.039291
22006.273133,888.247130,-11843.295072,536.266849
22006.273466,1036.288319,-8512.368333,1915.238745
22006.273800,592.164754,-7476.080014,2757.943793
22006.274133,3256.906145,-7402.059420,4673.182538
22006.274466,4219.173869,-5329.482782,3600.648841
22006.274800,1924.535449,-10140.821405,3140.991542
22006.275133,-74.020594,-8290.306550,2374.896044
22006.275466,2886.803174,-5773.606348,-1072.533697
22006.275799,0.000000,-8512.368333,-306.438199
22006.276133,2294.638420,-16580.613101,-1915.238745
22006.276466,-3775.050304,-9548.656652,-4903.011187
22006.276799,-2442.679609,-12435.459826,-3907.087040
22006.277133,-5107.421000,-12657.521608,-4596.572988
22006.277466,-2960.823768,-9992.780217,-1378.971896
22006.277799,-4293.194464,-9548.656652,459.657299
22006.278132,0.000000,-5995.668130,3447.429741
22006.278466,2886.803174,-5329.482782,3907.087040
22006.278799,2368.659014,-6143.709319,11568.042020
22006.279132,1110.308913,-1628.453072,3983.696590
22006.279466,0.000000,-4811.338623,0.000000
22006.279799,-3330.926739,-11251.130318,-5132.839837
22006.280132,-888.247130,-10732.986159,-3524.039291
22006.280466,-8068.244768,-14952.160028,-5286.058936
22006.280799,-2738.761985,-9178.553681,-5898.935335
22006.281132,-3552.988522,-13101.645173,-1991.848295
22006.281465,2886.803174,-9474.636058,0.000000
22006.281799,6217.729913,-11251.130318,8197.221829
22006.282132,1702.473667,-6957.935855,3447.429741
22006.282465,2368.659014,-8364.327145,3677.258390
22006.282799,2368.659014,-7179.997637,7354.516781
22006.283132,5033.400406,-3775.050304,4826.401637
22006.283465,-222.061783,-9474.636058,1149.143247
22006.283798,0.000000,-8142.265362,-2145.067394
22006.284132,-2442.679609,-9178.553681,-2834.553343
22006.284465,-5921.647536,-8364.327145,-3064.381992
22006.284798,3478.967927,-7105.977043,-3140.991542
22006.285132,-1850.514855,-16580.613101,-1302.362347
22006.285465,2368.659014,-7179.997637,-2298.286494
22006.285798,4367.215058,-11695.253884,2987.772442
22006.286132,3923.091493,-10881.027347,2374.896044
22006.286465,7254.018232,-8586.388927,4979.620737
22006.286798,1406.391290,-10584.944971,4673.182538
22006.287131,6735.874072,-7105.977043,2298.286494
22006.287465,2960.823768,-9696.697840,4826.401637
22006.287798,962.267725,-5403.503377,-2451.505594
22006.288131,1036.288319,-9326.594869,-306.438199
22006.288465,-2442.679609,-14211.954086,-4060.306139
22006.288798,1702.473667,-8882.471304,-2834.553343
22006.289131,-4145.153275,-13323.706956,-1302.362347
22006.289464,1628.453072,-7402.059420,-612.876398
22006.289798,0.000000,-9030.512492,1072.533697
22006.290131,3701.029710,-7105.977043,229.828649
22006.290464,5477.523971,-11547.212695,4060.306139
22006.290798,370.102971,-12805.562797,3064.381992
22006.291131,1850.514855,-7105.977043,842.705048
22006.291464,-592.164754,-12361.439231,1149.143247
22006.291798,-1998.556043,-6291.750507,-2451.505594
22006.292131,-2368.659014,-8512.368333,-1608.800546
22006.292464,-74.020594,-11251.130318,2374.896044
22006.292797,-3627.009116,-7179.997637,-2451.505594
22006.293131,-4737.318029,-8364.327145,-76.609550
22006.293464,-2442.679609,-9474.636058,-995.924147
22006.293797,-1702.473667,-8660.409521,-689.485948
22006.294131,-2220.617826,-11621.233289,3600.648841
22006.294464,-518.144159,-5033.400406,-995.924147
22006.294797,-3404.947333,-12509.480420,3064.381992
22006.295130,0.000000,-4071.132681,1149.143247
22006.295464,-1258.350101,-11695.253884,0.000000
22006.295797,-2368.659014,-5107.421000,2757.943793
22006.296130,-666.185348,-10436.903782,-76.609550
22006.296464,-5255.462188,-10140.821405,0.000000
22006.296797,1702.473667,-5329.482782,-3140.991542
22006.297130,-3478.967927,-11843.295072,-766.095498
22006.297464,2368.659014,-5551.544565,1149.143247
22006.297797,-74.020594,-8290.306550,2374.896044
22006.298130,4367.215058,-10658.965565,4213.525239
22006.298463,1776.494261,-7772.162391,-2145.067394
22006.298797,2960.823768,-9548.656652,612.876398
22006.299130,4145.153275,-9326.594869,1762.019645
22006.299463,4737.318029,-10436.903782,3294.210641
22006.299797,1924.535449,-10436.903782,766.095498
22006.300130,962.267725,-10066.800811,-2528.115143
22006.300463,2294.638420,-10288.862594,-536.266849
22006.300796,-962.267725,-11547.212695,-536.266849
22006.301130,4663.297435,-7105.977043,-76.609550
22006.301463,518.144159,-6883.915261,0.000000
22006.301796,4737.318029,-8068.244768,4826.401637
22006.302130,1702.473667,-8290.306550,-76.609550
22006.302463,3478.967927,-9474.636058,1762.019645
22006.302796,3923.091493,-9326.594869,4060.306139
22006.303130,1406.391290,-9770.718434,153.219100
22006.303463,4219.173869,-7846.182985,766.095498
22006.303796,0.000000,-11325.150913,-2451.505594
22006.304129,2146.597232,-9844.739029,-4290.134789
22006.304463,-1554.432478,-14211.954086,-76.609550
22006.304796,2294.638420,-9178.553681,-3447.429741
22006.305129,-4737.318029,-10732.986159,0.000000
22006.305463,-1554.432478,-9474.636058,-76.609550
22006.305796,-2368.659014,-8068.244768,1838.629195
22006.306129,2072.576638,-6217.729913,6435.202183
22006.306462,0.000000,-6217.729913,3907.087040
22006.306796,-2072.576638,-4811.338623,4290.134789
22006.307129,3182.885551,-3404.947333,2451.505594
22006.307462,-3034.844362,-12583.501014,-2451.505594
22006.307796,3404.947333,-10362.883188,1915.238745
22006.308129,-7105.977043,-12583.501014,-6281.983084
22006.308462,-2368.659014,-12509.480420,-3677.258390
22006.308796,-3923.091493,-5329.482782,-5898.935335
22006.309129,-5329.482782,-12805.562797,-1225.752797
22006.309462,1110.308913,-7105.977043,-76.609550
22006.309795,-3034.844362,-13027.624579,2221.676944
22006.310129,888.247130,-5995.668130,6052.154434
22006.310462,1480.411884,-5477.523971,8503.660028
22006.310795,1702.473667,-7994.224174,5209.449386
22006.311128,3034.844362,-3849.070898,4519.963438
22006.311461,666.185348,-9918.759623,3217.601092
22006.311794,-370.102971,-6587.832884,-2145.067394
22006.312127,-5921.647536,-11325.150913,-1302.362347
22006.312460,-2442.679609,-10066.800811,-6511.811733
22006.312793,-4145.153275,-6587.832884,-6588.421283
22006.313126,-3330.926739,-15396.283594,-5286.058936
22006.313460,-4145.153275,-7179.997637,-2451.505594
22006.313793,-1258.350101,-13619.789333,-612.876398
22006.314126,4885.359217,-6735.874072,6435.202183
22006.314459,5847.626942,-8290.306550,6971.469032
22006.314792,4737.318029,-4811.338623,9806.022374
22006.315125,7550.100608,-4737.318029,7277.907231
22006.315458,4663.297435,-11843.295072,2374.896044
22006.315791,4145.153275,-5995.668130,0.000000
22006.316124,-814.226536,-11695.253884,-3677.258390
22006.316457,1258.350101,-9770.718434,-3907.087040
22006.316791,-4293.194464,-13545.768739,-5132.839837
22006.317124,-1998.556043,-9474.636058,-5898.935335
22006.317457,0.000000,-9548.656652,-4136.915689
22006.317790,0.000000,-8364.327145,4213.525239
22006.318123,5551.544565,-7698.141797,2374.896044
22006.318456,2960.823768,-5995.668130,2451.505594
22006.318789,4737.318029,-9844.739029,7048.078582
22006.319122,5255.462188,-6291.750507,2757.943793
22006.319455,5699.585753,-8142.265362,4136.915689
22006.319789,2072.576638,-8512.368333,995.924147
22006.320122,-1110.308913,-9844.739029,-4979.620737
22006.320455,-2072.576638,-9844.739029,-6205.373534
22006.320788,-1480.411884,-12731.542202,-2221.676944
22006.321121,296.082377,-11029.068536,-2987.772442
22006.321454,-2294.638420,-12953.603985,1608.800546
22006.321787,-74.020594,-9474.636058,-76.609550
22006.322120,2294.638420,-8882.471304,2374.896044
22006.322453,0.000000,-5403.503377,5822.325785
22006.322786,5255.462188,-9178.553681,6052.154434
22006.323120,-74.020594,-9548.656652,4443.353888
22006.323453,-1480.411884,-5847.626942,1838.629195
22006.323786,-1480.411884,-6069.688724,-1762.019645
22006.324119,-4737.318029,-12805.562797,-2298.286494
22006.324452,-3478.967927,-9474.636058,-2604.724693
22006.324785,-4367.215058,-9474.636058,-4366.744339
22006.325118,-888.247130,-9474.636058,-2834.553343
22006.325451,-5921.647536,-10732.986159,612.876398
22006.325784,-1184.329507,-10214.842000,2451.505594
22006.326118,2886.803174,-7105.977043,2374.896044
22006.326451,1110.308913,-7550.100608,1685.410096
22006.326784,74.020594,-10066.800811,306.438199
22006.327117,814.226536,-10214.842000,1455.581446
22006.327450,814.226536,-8290.306550,229.828649
22006.327783,1184.329507,-8660.409521,1838.629195
22006.328116,2886.803174,-10955.047942,536.266849
22006.328449,592.164754,-7476.080014,3907.087040
22006.328782,-2442.679609,-11251.130318,-2528.115143
22006.329115,-2368.659014,-7105.977043,-4366.744339
22006.329449,-4145.153275,-9548.656652,-1838.629195
22006.329782,-888.247130,-10140.821405,459.657299
22006.330115,2812.782580,-7254.018232,2451.505594
22006.330448,-74.020594,-7624.121203,0.000000
22006.330781,4071.132681,-10658.965565,2374.896044
22006.331114,2738.761985,-6587.832884,1225.752797
22006.331447,4071.132681,-10066.800811,2374.896044
22006.331780,2294.638420,-7328.038826,-3524.039291
22006.332113,1480.411884,-11843.295072,1149.143247
22006.332446,-74.020594,-11251.130318,-2528.115143
22006.332780,1776.494261,-9696.697840,1149.143247
22006.333113,148.041188,-11177.109724,612.876398
22006.333446,2220.617826,-8734.430116,-842.705048
22006.333779,1554.432478,-9252.574275,842.705048
22006.334112,1184.329507,-9548.656652,3830.477490
22006.334445,5255.462188,-5773.606348,2757.943793
22006.334778,1924.535449,-10955.047942,4826.401637
22006.335111,6439.791695,-6513.812290,1378.971896
22006.335444,740.205942,-8586.388927,1838.629195
22006.335778,3256.906145,-9030.512492,536.266849
22006.336111,-1406.391290,-11103.089130,-2451.505594
22006.336444,-814.226536,-10436.903782,-3524.039291
22006.336777,-3034.844362,-10436.903782,-2374.896044
22006.337110,-2960.823768,-9844.739029,-306.438199
22006.337443,370.102971,-7105.977043,-1302.362347
22006.337776,-2516.700203,-11547.212695,-459.657299
22006.338109,2220.617826,-7624.121203,3677.258390
22006.338442,4663.297435,-5625.565159,4213.525239
22006.338775,1776.494261,-10732.986159,4290.134789
22006.339109,9252.574275,-6957.935855,8503.660028
22006.339442,-74.020594,-8586.388927,-1225.752797
22006.339775,3256.906145,-11177.109724,2145.067394
22006.340108,-666.185348,-11251.130318,-3140.991542
22006.340441,-5181.441594,-12435.459826,-6205.373534
22006.340774,-3256.906145,-10584.944971,-2834.553343
22006.341107,-5107.421000,-10066.800811,-5286.058936
22006.341440,-3256.906145,-8364.327145,0.000000
22006.341773,-4145.153275,-7179.997637,4136.915689
22006.342106,4663.297435,-5625.565159,3600.648841
22006.342440,-74.020594,-6291.750507,4903.011187
22006.342773,2664.741391,-2590.720797,4443.353888
22006.343106,1406.391290,-6217.729913,0.000000
22006.343439,518.144159,-11251.130318,-76.609550
22006.343772,148.041188,-9252.574275,-2221.676944
22006.344105,-3552.988522,-14285.974681,-4673.182538
22006.344438,370.102971,-11547.212695,-2451.505594
22006.344771,-5329.482782,-15618.345376,-1302.362347
22006.345104,1702.473667,-9622.677246,-2221.676944
22006.345438,-3404.947333,-6587.832884,-2374.896044
22006.345771,-2072.576638,-9548.656652,1225.752797
22006.346104,2960.823768,-4219.173869,7354.516781
22006.346437,3182.885551,-6587.832884,6205.373534
22006.346770,5551.544565,-5181.441594,5975.544884
22006.347103,592.164754,-7476.080014,1991.848295
22006.347436,3478.967927,-9474.636058,-76.609550
22006.347769,1110.308913,-10658.965565,2374.896044
22006.348102,-74.020594,-9548.656652,-4903.011187
22006.348435,-2960.823768,-11177.109724,-3294.210641
22006.348769,-666.185348,-13027.624579,-3907.087040
22006.349102,1110.308913,-12139.377449,-689.485948
22006.349435,-4441.235652,-10955.047942,0.000000
22006.349768,-888.247130,-7402.059420,-689.485948
22006.350101,-370.102971,-9400.615463,3217.601092
22006.350434,5033.400406,-3627.009116,3217.601092
22006.350767,8216.285956,-6217.729913,6818.249932
22006.351100,4737.318029,-7179.997637,5515.887586
22006.351433,7624.121203,-8290.306550,2987.772442
22006.351766,0.000000,-9548.656652,306.438199
22006.352100,3997.112087,-11843.295072,-1455.581446
22006.352433,-2072.576638,-12509.480420,-3294.210641
22006.352766,-1480.411884,-11917.315666,-4749.792088
22006.353099,-666.185348,-10807.006753,-3447.429741
22006.353432,-2368.659014,-11917.315666,0.000000
22006.353765,148.041188,-6809.894666,306.438199
22006.354098,-2072.576638,-8068.244768,1685.410096
22006.354431,1998.556043,-5773.606348,1762.019645
22006.354764,-888.247130,-8512.368333,3217.601092
22006.355098,1184.329507,-3627.009116,3753.867940
22006.355431,4663.297435,-10658.965565,4826.401637
22006.355764,0.000000,-6587.832884,1838.629195
22006.356097,2294.638420,-7994.224174,-76.609550
22006.356430,-2886.803174,-11251.130318,-1685.410096
22006.356763,-2960.823768,-6883.915261,-8427.050478
22006.357096,-4219.173869,-16654.633695,-5286.058936
22006.357429,-1332.370696,-9918.759623,-3140.991542
22006.357762,-1258.350101,-13545.768739,-153.219100
22006.358095,1184.329507,-9548.656652,3677.258390
22006.358429,2886.803174,-7994.224174,2221.676944
22006.358762,0.000000,-5403.503377,6128.763984
22006.359095,4663.297435,-7105.977043,3907.087040
22006.359428,1110.308913,-7105.977043,3600.648841
22006.359761,3108.864956,-7698.141797,3600.648841
22006.360094,-814.226536,-8512.368333,919.314598
22006.360427,-6439.791695,-11473.192101,-3907.087040
22006.360760,-5329.482782,-8956.491898,-6435.202183
22006.361093,-1258.350101,-14211.954086,-1302.362347
22006.361426,-2590.720797,-7179.997637,-4903.011187
22006.361760,-1184.329507,-10732.986159,-2451.505594
22006.362093,888.247130,-9474.636058,2374.896044
22006.362426,0.000000,-7476.080014,1838.629195
22006.362759,4663.297435,-7105.977043,4519.963438
22006.363092,3478.967927,-9252.574275,5515.887586
22006.363425,3182.885551,-9252.574275,4749.792088
22006.363758,1554.432478,-7476.080014,2374.896044
22006.364091,814.226536,-8290.306550,-76.609550
22006.364424,0.000000,-5107.421000,-3677.258390
22006.364758,4071.132681,-14211.954086,-76.609550
22006.365091,-1258.350101,-13027.624579,-689.485948
22006.365424,-3552.988522,-7179.997637,-4903.011187
22006.365757,-666.185348,-11695.253884,-995.924147
22006.366090,-814.226536,-9844.739029,-153.219100
22006.366423,4737.318029,-6439.791695,3447.429741
22006.366756,2220.617826,-8290.306550,4596.572988
22006.367089,3330.926739,-7105.977043,2374.896044
22006.367422,962.267725,-9548.656652,3294.210641
22006.367755,1998.556043,-7402.059420,1685.410096
22006.368089,2072.576638,-8512.368333,-919.314598
22006.368422,-2368.659014,-10732.986159,-1378.971896
22006.368755,1110.308913,-9474.636058,-4366.744339
22006.369088,-5329.482782,-13101.645173,-2145.067394
22006.369421,1184.329507,-9696.697840,-76.609550
22006.369754,-2738.761985,-9474.636058,-2068.457845
22006.370087,592.164754,-6587.832884,0.000000
22006.370420,1998.556043,-8882.471304,1149.143247
22006.370753,1554.432478,-10362.883188,4136.915689
22006.371086,4293.194464,-5255.462188,766.095498
22006.371420,3478.967927,-13471.748144,4213.525239
22006.371753,2960.823768,-10658.965565,2374.896044
22006.372086,-2368.659014,-10140.821405,1532.190996
22006.372419,-1258.350101,-10658.965565,-689.485948
22006.372752,-2442.679609,-10955.047942,-4979.620737
22006.373085,-3775.050304,-12509.480420,-3830.477490
22006.373418,-1998.556043,-9474.636058,76.609550
22006.373751,-4145.153275,-8586.388927,1685.410096
22006.374084,-1480.411884,-5699.585753,1532.190996
22006.374418,-1776.494261,-4219.173869,3677.258390
22006.374751,2294.638420,-7105.977043,4213.525239
22006.375084,0.000000,-7179.997637,6741.640382
22006.375417,1406.391290,-9474.636058,-76.609550
22006.375750,0.000000,-7698.141797,-2221.676944
22006.376083,-3182.885551,-12657.521608,-2145.067394
22006.376416,-2368.659014,-9030.512492,-4213.525239
22006.376749,-3108.864956,-11843.295072,-3907.087040
22006.377082,-3997.112087,-12287.418637,-1685.410096
22006.377415,0.000000,-10066.800811,-612.876398
22006.377749,-74.020594,-5847.626942,-1532.190996
22006.378082,3923.091493,-12435.459826,7277.907231
22006.378415,7031.956449,-5773.606348,6971.469032
22006.378748,2368.659014,-5699.585753,4060.306139
22006.379081,5921.647536,-8512.368333,3217.601092
22006.379414,2812.782580,-10510.924376,1455.581446
22006.379747,4071.132681,-9178.553681,1762.019645
22006.380080,3182.885551,-11103.089130,-76.609550
22006.380413,-370.102971,-14211.954086,-1302.362347
22006.380746,-5329.482782,-8364.327145,-4903.011187
22006.381080,-1258.350101,-11843.295072,-2834.553343
22006.381413,-666.185348,-9474.636058,-2834.553343
22006.381746,-1924.535449,-7772.162391,0.000000
22006.382079,1184.329507,-5403.503377,1225.752797
22006.382412,1998.556043,-7402.059420,3140.991542
22006.382745,2664.741391,-7179.997637,1762.019645
22006.383078,3034.844362,-8512.368333,4136.915689
22006.383411,2220.617826,-8882.471304,2374.896044
22006.383744,1776.494261,-7476.080014,-1225.752797
22006.384078,1702.473667,-12435.459826,383.047749
22006.384411,2072.576638,-8734.430116,-3447.429741
22006.384744,1332.370696,-12731.542202,-995.924147
22006.385077,2294.638420,-13915.871710,-76.609550
22006.385410,-2072.576638,-9696.697840,-2451.505594
22006.385743,-2368.659014,-9844.739029,919.314598
22006.386076,-74.020594,-9474.636058,-76.609550
22006.386409,-1184.329507,-6291.750507,1532.190996
22006.386742,1776.494261,-7550.100608,5439.278036
22006.387075,1998.556043,-8142.265362,4826.401637
22006.387409,0.000000,-5551.544565,2757.943793
22006.387742,-222.061783,-7920.203579,1608.800546
22006.388075,1850.514855,-6365.771101,229.828649
22006.388408,-2664.741391,-9548.656652,0.000000
22006.388741,-2442.679609,-10955.047942,-5286.058936
22006.389074,-2442.679609,-11251.130318,-4979.620737
22006.389407,-6513.812290,-14582.057057,-3370.820191
22006.389740,-666.185348,-8290.306550,-3753.867940
22006.390073,-4145.153275,-11621.233289,-612.876398
22006.390406,518.144159,-7105.977043,2528.115143
22006.390740,-444.123565,-6513.812290,5592.497135
22006.391073,1480.411884,-4811.338623,3217.601092
22006.391406,0.000000,-5403.503377,11414.822920
22006.391739,2294.638420,-6513.812290,1225.752797
22006.392072,3552.988522,-8956.491898,4903.011187
22006.392405,-740.205942,-10066.800811,-153.219100
22006.392738,0.000000,-9548.656652,-6128.763984
22006.393071,-4219.173869,-14804.118840,-4060.306139
22006.393404,-740.205942,-9474.636058,-3370.820191
22006.393738,-3256.906145,-12287.418637,-2681.334243
22006.394071,-74.020594,-9474.636058,-689.485948
22006.394404,-888.247130,-11177.109724,4826.401637
22006.394737,1702.473667,-6513.812290,2834.553343
22006.395070,2960.823768,-4811.338623,6588.421283
22006.395403,4367.215058,-9178.553681,6052.154434
22006.395736,4145.153275,-4811.338623,6128.763984
22006.396069,2220.617826,-7105.977043,1072.533697
22006.396402,740.205942,-11251.130318,-1762.019645
22006.396735,-666.185348,-9474.636058,-4749.792088
22006.397069,-1998.556043,-12435.459826,-4749.792088
22006.397402,-74.020594,-11251.130318,-4366.744339
22006.397735,-2368.659014,-10732.986159,-3064.381992
22006.398068,592.164754,-6439.791695,-2374.896044
22006.398401,2886.803174,-11251.130318,842.705048
22006.398734,4737.318029,-6883.915261,4903.011187
22006.399067,3404.947333,-8660.409521,4136.915689
22006.399400,5773.606348,-6587.832884,3370.820191
22006.399733,3182.885551,-9548.656652,3524.039291
22006.400066,1628.453072,-7402.059420,1762.019645
22006.400400,4071.132681,-6957.935855,-689.485948
22006.400733,-3330.926739,-13841.851115,-2374.896044
22006.401066,148.041188,-9400.615463,-2221.676944
22006.401399,-2294.638420,-9770.718434,-1149.143247
22006.401732,-2442.679609,-11695.253884,-2681.334243
22006.402065,0.000000,-8512.368333,2374.896044
22006.402398,-2442.679609,-10066.800811,0.000000
22006.402731,3256.906145,-4811.338623,2451.505594
22006.403064,592.164754,-10288.862594,5822.325785
22006.403398,148.041188,-7772.162391,2451.505594
22006.403731,1110.308913,-6513.812290,1302.362347
22006.404064,-1110.308913,-10807.006753,1685.410096
22006.404397,296.082377,-5699.585753,0.000000
22006.404730,-4441.235652,-9548.656652,-2757.943793
22006.405063,-74.020594,-9474.636058,-383.047749
22006.405396,-2442.679609,-8956.491898,-4903.011187
22006.405729,-3552.988522,-11325.150913,306.438199
22006.406062,-74.020594,-11843.295072,-76.609550
22006.406395,-1628.453072,-10140.821405,1991.848295
22006.406729,-740.205942,-9622.677246,2987.772442
22006.407062,2590.720797,-4885.359217,3907.087040
22006.407395,814.226536,-8956.491898,3907.087040
22006.407728,2368.659014,-6587.832884,5515.887586
22006.408061,-74.020594,-8290.306550,-1149.143247
22006.408394,-1480.411884,-8956.491898,0.000000
22006.408727,-1850.514855,-14211.954086,-689.485948
22006.409060,-3330.926739,-7179.997637,-4903.011187
22006.409393,-1776.494261,-11769.274478,-76.609550
22006.409727,-1702.473667,-7402.059420,-1991.848295
22006.410060,-1702.473667,-8216.285956,-2528.115143
22006.410393,-666.185348,-10658.965565,-536.266849
22006.410726,4663.297435,-7994.224174,4213.525239
22006.411059,1702.473667,-5107.421000,1225.752797
22006.411392,3552.988522,-10140.821405,3907.087040
22006.411725,6439.791695,-9474.636058,3600.648841
22006.412058,1184.329507,-7179.997637,0.000000
22006.412392,4663.297435,-10362.883188,2068.457845
22006.412725,-2368.659014,-8956.491898,-2374.896044
22006.413058,-962.267725,-9326.594869,-7277.907231
22006.413391,-2812.782580,-11843.295072,-3140.991542
22006.413724,1110.308913,-10658.965565,-1915.238745
22006.414057,-370.102971,-11843.295072,-229.828649
22006.414390,1924.535449,-9104.533087,2451.505594
22006.414723,1406.391290,-9104.533087,2911.162892
22006.415057,1776.494261,-7179.997637,5515.887586
22006.415390,4737.318029,-6957.935855,4826.401637
22006.415723,5107.421000,-5699.585753,306.438199
22006.416056,2960.823768,-8364.327145,5515.887586
22006.416389,4071.132681,-11251.130318,1455.581446
22006.416722,0.000000,-8364.327145,-4749.792088
22006.417055,-4515.256246,-15100.201217,-4136.915689
22006.417388,-2738.761985,-9918.759623,-5592.497135
22006.417722,-2738.761985,-11843.295072,-1225.752797
22006.418055,-518.144159,-9326.594869,-76.609550
22006.418388,444.123565,-8882.471304,4826.401637
22006.418721,-1554.432478,-6143.709319,2451.505594
22006.419054,3256.906145,-5255.462188,7354.516781
22006.419387,2294.638420,-5625.565159,2068.457845
22006.419720,3701.029710,-9252.574275,2451.505594
22006.420053,1702.473667,-11251.130318,2681.334243
22006.420387,370.102971,-7994.224174,-2834.553343
22006.420720,740.205942,-12139.377449,-2604.724693
22006.421053,-2442.679609,-13323.706956,-4749.792088
22006.421386,888.247130,-10658.965565,-1302.362347
22006.421719,-5921.647536,-10732.986159,-2451.505594
22006.422052,-2812.782580,-10807.006753,-76.609550
22006.422385,-2738.761985,-8290.306550,-1302.362347
22006.422719,-666.185348,-7698.141797,6052.154434
22006.423052,3182.885551,-4071.132681,6281.983084
22006.423385,1036.288319,-7105.977043,5362.668486
22006.423718,2368.659014,-4367.215058,4290.134789
22006.424051,-2368.659014,-7179.997637,-1838.629195
22006.424384,-74.020594,-9474.636058,-1915.238745
22006.424717,-2960.823768,-10732.986159,-4903.011187
22006.425050,-1776.494261,-14656.077652,-2834.553343
22006.425384,-1406.391290,-12139.377449,-5132.839837
22006.425717,-3256.906145,-11325.150913,-4290.134789
22006.426050,-2368.659014,-11029.068536,-1608.800546
22006.426383,444.123565,-8882.471304,1762.019645
22006.426716,1628.453072,-7846.182985,6052.154434
22006.427049,7031.956449,-3552.988522,6052.154434
22006.427382,1998.556043,-6291.750507,4903.011187
22006.427715,5847.626942,-7105.977043,4826.401637
22006.428049,1998.556043,-6513.812290,-383.047749
22006.428382,592.164754,-9844.739029,1225.752797
22006.428715,0.000000,-10732.986159,-2451.505594
22006.429048,-2960.823768,-12287.418637,-5132.839837
22006.429381,-1258.350101,-12879.583391,-6281.983084
22006.429714,-1110.308913,-12657.521608,-1991.848295
22006.430047,2220.617826,-10955.047942,2374.896044
22006.430380,-962.267725,-6143.709319,0.000000
22006.430714,1184.329507,-8956.491898,3370.820191
22006.431047,2812.782580,-7031.956449,5132.839837
22006.431380,3256.906145,-6143.709319,5822.325785
22006.431713,3552.988522,-7254.018232,5056.230287
22006.432046,1332.370696,-8364.327145,1378.971896
22006.432379,0.000000,-7179.997637,1225.752797
22006.432712,-74.020594,-10362.883188,-3753.867940
22006.433045,-592.164754,-9252.574275,-4903.011187
22006.433379,-2368.659014,-14878.139434,-383.047749
22006.433712,-1036.288319,-9844.739029,-2757.943793
22006.434045,296.082377,-10584.944971,-1149.143247
22006.434378,2294.638420,-11399.171507,-153.219100
22006.434711,3478.967927,-10658.965565,6052.154434
22006.435044,740.205942,-5107.421000,4903.011187
22006.435377,3330.926739,-7105.977043,4826.401637
22006.435711,-74.020594,-5921.647536,2374.896044
22006.436044,0.000000,-3330.926739,-1838.629195
22006.436377,2294.638420,-11843.295072,2374.896044
22006.436710,-1332.370696,-9992.780217,-1225.752797
22006.437043,-4367.215058,-10807.006753,-4290.134789
22006.437376,-3997.112087,-10807.006753,-2681.334243
22006.437709,-2368.659014,-7179.997637,-4903.011187
22006.438042,-5329.482782,-10140.821405,0.000000
22006.438376,2664.741391,-9474.636058,1149.143247
22006.438709,-962.267725,-9474.636058,536.266849
22006.439042,0.000000,-7772.162391,2451.505594
22006.439375,3478.967927,-6069.688724,3140.991542
22006.439708,1110.308913,-10066.800811,4366.744339
22006.440041,4219.173869,-7031.956449,3600.648841
22006.440374,-296.082377,-10732.986159,2298.286494
22006.440707,0.000000,-8068.244768,0.000000
22006.441041,-1702.473667,-10362.883188,-76.609550
22006.441374,-74.020594,-11251.130318,-3753.867940
22006.441707,-2368.659014,-7179.997637,-1838.629195
22006.442040,-4145.153275,-9844.739029,-689.485948
22006.442373,-74.020594,-7031.956449,-3677.258390
22006.442706,-814.226536,-11251.130318,2068.457845
22006.443039,4293.194464,-6587.832884,1455.581446
22006.443372,1998.556043,-10066.800811,5669.106685
22006.443706,1184.329507,-7179.997637,1532.190996
22006.444039,4367.215058,-5773.606348,-76.609550
22006.444372,-814.226536,-12361.439231,536.266849
22006.444705,4663.297435,-7994.224174,-1915.238745
22006.445038,-3923.091493,-15988.448347,-3140.991542
22006.445371,1776.494261,-7254.018232,0.000000
22006.445704,0.000000,-9548.656652,3677.258390
22006.446038,2886.803174,-8882.471304,2374.896044
22006.446371,3182.885551,-4811.338623,306.438199
22006.446704,-74.020594,-9474.636058,1762.019645
22006.447037,5773.606348,-7550.100608,4826.401637
22006.447370,-444.123565,-6883.915261,383.047749
22006.447703,1110.308913,-12657.521608,-383.047749
22006.448036,-2886.803174,-9918.759623,-1149.143247
22006.448369,-74.020594,-11103.089130,-1302.362347
22006.448703,0.000000,-9548.656652,1762.019645
22006.449036,-74.020594,-12879.583391,-995.924147
22006.449369,-2220.617826,-3256.906145,-3830.477490
22006.449702,-2368.659014,-9548.656652,-1072.533697
22006.450035,5255.462188,-11473.192101,0.000000
22006.450368,-2146.597232,-11843.295072,4519.963438
22006.450701,3330.926739,-6069.688724,2374.896044
22006.451034,0.000000,-9844.739029,4213.525239
22006.451368,1628.453072,-2516.700203,536.266849
22006.451701,3478.967927,-13027.624579,3600.648841
22006.452034,2294.638420,-5921.647536,1762.019645
22006.452367,0.000000,-10732.986159,-1532.190996
22006.452700,-2072.576638,-13027.624579,1762.019645
22006.453033,-3552.988522,-6735.874072,-5362.668486
22006.453366,-5625.565159,-12805.562797,-2987.772442
22006.453699,-3182.885551,-9030.512492,-612.876398
22006.454033,-2960.823768,-7476.080014,-2068.457845
22006.454366,0.000000,-7179.997637,1225.752797
22006.454699,2294.638420,-7105.977043,2987.772442
22006.455032,1184.329507,-7179.997637,3677.258390
22006.455365,0.000000,-4811.338623,2911.162892
22006.455698,4663.297435,-14211.954086,-76.609550
22006.456031,2960.823768,-7624.121203,1455.581446
22006.456364,1480.411884,-8956.491898,-766.095498
22006.456698,1924.535449,-12361.439231,612.876398
22006.457031,-1776.494261,-12065.356855,-76.609550
22006.457364,-74.020594,-9474.636058,-689.485948
22006.457697,-2442.679609,-11251.130318,-6665.030833
22006.458030,-4441.235652,-11917.315666,-1838.629195
22006.458363,-74.020594,-11251.130318,-3753.867940
22006.458696,1258.350101,-6069.688724,4366.744339
22006.459030,5847.626942,-7698.141797,9729.412825
22006.459363,5699.585753,-3923.091493,6894.859482
22006.459696,4663.297435,-7846.182985,4826.401637
22006.460029,3404.947333,-7698.141797,689.485948
22006.460362,2664.741391,-12361.439231,2068.457845
22006.460695,-3997.112087,-8660.409521,-5515.887586
22006.461028,-1406.391290,-12953.603985,-5745.716235
22006.461361,-5625.565159,-14582.057057,-4979.620737
22006.461695,-4441.235652,-10732.986159,-6358.592633
22006.462028,-2220.617826,-6291.750507,-1072.533697
22006.462361,-2442.679609,-11547.212695,842.705048
22006.462694,4663.297435,-1258.350101,3677.258390
22006.463027,592.164754,-5995.668130,6894.859482
22006.463360,8808.450710,-5921.647536,6665.030833
22006.463693,4589.276840,-10584.944971,5745.716235
22006.464026,4071.132681,-8660.409521,4290.134789
22006.464360,5477.523971,-8438.347739,842.705048
22006.464693,-4737.318029,-14878.139434,0.000000
22006.465026,-2368.659014,-9548.656652,-4903.011187
22006.465359,-7476.080014,-15692.365970,-7354.516781
22006.465692,0.000000,-7179.997637,-6741.640382
22006.466025,-4145.153275,-10881.027347,-2987.772442
22006.466358,-2072.576638,-8512.368333,1225.752797
22006.466691,-1924.535449,-5995.668130,919.314598
22006.467025,888.247130,-6883.915261,5592.497135
22006.467358,1998.556043,-6957.935855,5132.839837
22006.467691,2294.638420,-8882.471304,6052.154434
22006.468024,3552.988522,-5107.421000,6052.154434
22006.468357,1702.473667,-9548.656652,1225.752797
22006.468690,1332.370696,-6883.915261,0.000000
22006.469023,-74.020594,-11843.295072,-1608.800546
22006.469356,-1258.350101,-13471.748144,-6588.421283
22006.469690,-1258.350101,-12287.418637,-5286.058936
22006.470023,-3108.864956,-14211.954086,-2528.115143
22006.470356,296.082377,-8660.409521,0.000000
22006.470689,-2812.782580,-7179.997637,1455.581446
22006.471022,3775.050304,-8290.306550,4826.401637
22006.471355,2368.659014,-74.020594,2604.724693
22006.471688,1184.329507,-9696.697840,3600.648841
22006.472022,4071.132681,-6883.915261,1302.362347
22006.472355,0.000000,-10066.800811,2298.286494
22006.472688,3404.947333,-8364.327145,1149.143247
22006.473021,-1110.308913,-10732.986159,-76.609550
22006.473354,1036.288319,-10066.800811,-2834.553343
22006.473687,-2072.576638,-10510.924376,-1225.752797
22006.474020,-666.185348,-9178.553681,-6741.640382
22006.474353,-3552.988522,-11325.150913,-2528.115143
22006.474687,-2442.679609,-13619.789333,-76.609550
22006.475020,0.000000,-5403.503377,2451.505594
22006.475353,-1184.329507,-7994.224174,4443.353888
22006.475686,3849.070898,-5107.421000,2451.505594
22006.476019,3256.906145,-9918.759623,6205.373534
22006.476352,3701.029710,-5255.462188,3064.381992
22006.476685,4145.153275,-10732.986159,3983.696590
22006.477018,-666.185348,-8586.388927,-2911.162892
22006.477352,2368.659014,-9696.697840,-5209.449386
22006.477685,-4959.379811,-16136.489536,-2604.724693
22006.478018,2516.700203,-7031.956449,-2528.115143
22006.478351,-5921.647536,-13693.809927,0.000000
22006.478684,-1258.350101,-8290.306550,229.828649
22006.479017,-74.020594,-2812.782580,0.000000
22006.479350,148.041188,-9178.553681,4136.915689
22006.479683,5255.462188,-7105.977043,3600.648841
22006.480017,0.000000,-7179.997637,4903.011187
22006.480350,444.123565,-7402.059420,1455.581446
22006.480683,1110.308913,-9030.512492,-76.609550
22006.481016,-1036.288319,-10732.986159,-1838.629195
22006.481349,1998.556043,-11843.295072,-76.609550
22006.481682,-2442.679609,-11399.171507,-4290.134789
22006.482015,-2368.659014,-10066.800811,-4903.011187
22006.482349,-3256.906145,-13989.892304,-76.609550
22006.482682,-962.267725,-7105.977043,-1149.143247
22006.483015,1480.411884,-9104.533087,3600.648841
22006.483348,1702.473667,-6661.853478,2757.943793
22006.483681,3552.988522,-6439.791695,3677.258390
22006.484014,444.123565,-7994.224174,2911.162892
22006.484347,2294.638420,-6809.894666,2374.896044
22006.484680,-370.102971,-6587.832884,-2451.505594
22006.485014,1998.556043,-9474.636058,-689.485948
22006.485347,-3923.091493,-11843.295072,-8044.002729
22006.485680,-3404.947333,-11325.150913,-919.314598
22006.486013,-74.020594,-8882.471304,-3140.991542
22006.486346,-1776.494261,-10658.965565,-76.609550
22006.486679,-666.185348,-9252.574275,536.266849
22006.487012,2146.597232,-8290.306550,3907.087040
22006.487345,1776.494261,-7179.997637,4290.134789
22006.487679,3701.029710,-5403.503377,4903.011187
22006.488012,5847.626942,-11843.295072,4213.525239
22006.488345,666.185348,-6587.832884,1225.752797
22006.488678,1184.329507,-7772.162391,1225.752797
22006.489011,-2442.679609,-13915.871710,-5132.839837
22006.489344,-888.247130,-9548.656652,-2757.943793
22006.489677,-2146.597232,-11621.233289,-2757.943793
22006.490010,1406.391290,-8512.368333,-1225.752797
22006.490344,-2368.659014,-11399.171507,766.095498
22006.490677,148.041188,-6439.791695,1455.581446
22006.491010,1924.535449,-7550.100608,3064.381992
22006.491343,3775.050304,-6217.729913,5056.230287
22006.491676,4663.297435,-8586.388927,4826.401637
22006.492009,1110.308913,-9178.553681,2374.896044
22006.492342,296.082377,-5995.668130,0.000000
22006.492675,2738.761985,-11843.295072,-76.609550
22006.493009,2294.638420,-13027.624579,-842.705048
22006.493342,-1554.432478,-11695.253884,-1685.410096
22006.493675,-3108.864956,-12435.459826,-4213.525239
22006.494008,-5033.400406,-10732.986159,-4596.572988
22006.494341,-962.267725,-8290.306550,-2374.896044
22006.494674,-1110.308913,-6809.894666,1838.629195
22006.495007,2368.659014,-8364.327145,7277.907231
22006.495341,-3552.988522,-3034.844362,7354.516781
22006.495674,814.226536,-7105.977043,2374.896044
22006.496007,-888.247130,-7402.059420,1608.800546
22006.496340,-666.185348,-7402.059420,1149.143247
22006.496673,2590.720797,-8290.306550,229.828649
22006.497006,1332.370696,-9548.656652,306.438199
22006.497339,-666.185348,-10066.800811,-3294.210641
22006.497672,-4441.235652,-12509.480420,-3447.429741
22006.498006,-2442.679609,-11251.130318,-3140.991542
22006.498339,-2960.823768,-9548.656652,0.000000
22006.498672,-814.226536,-11547.212695,-1302.362347
22006.499005,1110.308913,-7920.203579,1072.533697
22006.499338,592.164754,-5403.503377,3370.820191
22006.499671,3478.967927,-9844.739029,3140.991542
22006.500004,7328.038826,-5773.606348,8810.098227
22006.500337,4071.132681,-9030.512492,3447.429741
22006.500671,4737.318029,-7772.162391,3677.258390
22006.501004,-3923.091493,-9548.656652,-3677.258390
22006.501337,-1776.494261,-8956.491898,-3294.210641
22006.501670,-3034.844362,-14211.954086,-1915.238745
22006.502003,-3849.070898,-7772.162391,-4290.134789
22006.502336,-3552.988522,-10881.027347,-2451.505594
22006.502669,-5921.647536,-9030.512492,-3217.601092
22006.503002,666.185348,-7994.224174,1149.143247
22006.503336,1110.308913,-9474.636058,3600.648841
22006.503669,7179.997637,-6143.709319,7048.078582
22006.504002,0.000000,-8956.491898,6128.763984
22006.504335,6439.791695,-8290.306550,2834.553343
22006.504668,1258.350101,-8068.244768,1225.752797
22006.505001,1184.329507,-9548.656652,1608.800546
22006.505334,4663.297435,-11843.295072,-1302.362347
22006.505668,-2664.741391,-10732.986159,-4903.011187
22006.506001,2590.720797,-11547.212695,-4979.620737
22006.506334,-3108.864956,-14285.974681,-1685.410096
22006.506667,-222.061783,-10955.047942,459.657299
22006.507000,-1776.494261,-7772.162391,0.000000
22006.507333,-592.164754,-9474.636058,4366.744339
22006.507666,1776.494261,-4589.276840,3217.601092
22006.507999,0.000000,-6661.853478,5745.716235
22006.508333,1702.473667,-5329.482782,4213.525239
22006.508666,2886.803174,-7105.977043,1149.143247
22006.508999,0.000000,-6291.750507,-76.609550
22006.509332,-74.020594,-14211.954086,-3753.867940
22006.509665,-6365.771101,-12213.398043,-6128.763984
22006.509998,-1258.350101,-13767.830521,-4903.011187
22006.510331,-3627.009116,-12435.459826,-6052.154434
22006.510665,-74.020594,-9178.553681,0.000000
22006.510998,2072.576638,-9030.512492,2911.162892
22006.511331,1776.494261,-3627.009116,5515.887586
22006.511664,5477.523971,-5995.668130,3830.477490
22006.511997,4737.318029,-8956.491898,10648.727422
22006.512330,4071.132681,-5921.647536,3600.648841
22006.512664,0.000000,-8956.491898,1838.629195
22006.512997,814.226536,-7698.141797,1455.581446
22006.513330,-3923.091493,-6809.894666,-5975.544884
22006.513663,-592.164754,-9548.656652,-5209.449386
22006.513996,-3627.009116,-11399.171507,-6435.202183
22006.514329,-4737.318029,-10732.986159,0.000000
22006.514663,-74.020594,-10658.965565,-383.047749
22006.514996,2886.803174,-11103.089130,919.314598
22006.515329,592.164754,-8364.327145,4903.011187
22006.515662,5847.626942,-7698.141797,6052.154434
22006.515995,2368.659014,-4811.338623,3677.258390
22006.516329,3849.070898,-9474.636058,7277.907231
22006.516662,4663.297435,-6809.894666,536.266849
22006.516995,-592.164754,-9622.677246,-2221.676944
22006.517328,-74.020594,-11843.295072,-3753.867940
22006.517661,-4737.318029,-11029.068536,-6128.763984
22006.517994,-370.102971,-11843.295072,-689.485948
22006.518328,-74.020594,-11251.130318,-2834.553343
22006.518661,-2368.659014,-8364.327145,76.609550
22006.518994,1702.473667,-11547.212695,3600.648841
22006.519327,3775.050304,-5921.647536,4519.963438
22006.519660,2812.782580,-8068.244768,3830.477490
22006.519993,4367.215058,-7105.977043,3217.601092
22006.520327,1702.473667,-11177.109724,3753.867940
22006.520660,2368.659014,-7179.997637,6052.154434
22006.520993,-74.020594,-9770.718434,-2145.067394
22006.521326,-2368.659014,-8364.327145,-4903.011187
22006.521659,-2368.659014,-13619.789333,-1302.362347
22006.521992,-74.020594,-11251.130318,-689.485948
22006.522326,-1924.535449,-9548.656652,-1378.971896
22006.522659,-4737.318029,-9622.677246,-1302.362347
22006.522992,-3775.050304,-9474.636058,766.095498
22006.523325,962.267725,-3108.864956,1685.410096
22006.523658,1480.411884,-9918.759623,4673.182538
22006.523991,2516.700203,-8068.244768,4596.572988
22006.524325,2738.761985,-9474.636058,3140.991542
22006.524658,-2664.741391,-9104.533087,-995.924147
22006.524991,666.185348,-7698.141797,-3830.477490
22006.525324,-2368.659014,-10436.903782,-2834.553343
22006.525657,2294.638420,-13619.789333,-76.609550
22006.525991,-1850.514855,-8808.450710,-3370.820191
22006.526324,-2072.576638,-11621.233289,306.438199
22006.526657,-74.020594,-9474.636058,1149.143247
22006.526990,444.123565,-7179.997637,2528.115143
22006.527323,2442.679609,-7105.977043,3600.648841
22006.527656,2072.576638,-7105.977043,4596.572988
22006.527990,0.000000,-4811.338623,306.438199
22006.528323,3849.070898,-7179.997637,2374.896044
22006.528656,3478.967927,-11103.089130,76.609550
22006.528989,3182.885551,-7179.997637,-3370.820191
22006.529322,-1184.329507,-15618.345376,1762.019645
22006.529655,-74.020594,-7254.018232,-6894.859482
22006.529989,-888.247130,-13249.686362,-2298.286494
22006.530322,0.000000,-9622.677246,-1608.800546
22006.530655,2442.679609,-7328.038826,1455.581446
22006.530988,1332.370696,-7550.100608,4903.011187
22006.531321,3849.070898,-8068.244768,7890.783629
22006.531654,2294.638420,-3034.844362,2451.505594
22006.531988,1554.432478,-10658.965565,2374.896044
22006.532321,2294.638420,-12435.459826,-2221.676944
22006.532654,-3552.988522,-9844.739029,-1838.629195
22006.532987,3330.926739,-8068.244768,-2451.505594
22006.533320,1702.473667,-12509.480420,0.000000
22006.533654,1406.391290,-7031.956449,-3447.429741
22006.533987,-74.020594,-12731.542202,-2528.115143
22006.534320,-74.020594,-12435.459826,-1302.362347
22006.534653,-1850.514855,-10140.821405,0.000000
22006.534986,-1036.288319,-7179.997637,3294.210641
22006.535319,2294.638420,-8290.306550,4213.525239
22006.535653,3182.885551,-7105.977043,5439.278036
22006.535986,3849.070898,-6439.791695,3447.429741
22006.536319,3552.988522,-9918.759623,3907.087040
22006.536652,666.185348,-7550.100608,1685.410096
22006.536985,-4737.318029,-9548.656652,0.000000
22006.537318,-2442.679609,-9178.553681,-4903.011187
22006.537652,-4145.153275,-10732.986159,-7354.516781
22006.537985,-3849.070898,-15988.448347,-1302.362347
22006.538318,-2442.679609,-7994.224174,-3140.991542
22006.538651,-5403.503377,-10436.903782,-2528.115143
22006.538984,-3701.029710,-6957.935855,-689.485948
22006.539317,-2442.679609,-7550.100608,842.705048
22006.539651,1554.432478,-6439.791695,4213.525239
22006.539984,3552.988522,-3627.009116,6128.763984
22006.540317,2590.720797,-7772.162391,3983.696590
22006.540650,6143.709319,-5773.606348,5362.668486
22006.540983,666.185348,-9918.759623,1608.800546
22006.541317,0.000000,-12435.459826,-2528.115143
22006.541650,-2368.659014,-10658.965565,-3753.867940
22006.541983,-2442.679609,-15396.283594,-4979.620737
22006.542316,1036.288319,-7179.997637,-3370.820191
22006.542649,-2220.617826,-12731.542202,-1225.752797
22006.542982,2738.761985,-5921.647536,612.876398
22006.543316,0.000000,-9548.656652,2451.505594
22006.543649,5403.503377,-7105.977043,5822.325785
22006.543982,2812.782580,-8068.244768,5056.230287
22006.544315,3849.070898,-6809.894666,1991.848295
22006.544648,4737.318029,-10732.986159,3677.258390
22006.544981,4367.215058,-7698.141797,3677.258390
22006.545315,4737.318029,-5107.421000,0.000000
22006.545648,-74.020594,-12435.459826,-1302.362347
22006.545981,-5403.503377,-12287.418637,-8350.440928
22006.546314,-5329.482782,-9992.780217,-6588.421283
22006.546647,-592.164754,-9992.780217,-3140.991542
22006.546980,-592.164754,-8512.368333,-995.924147
22006.547314,592.164754,-6291.750507,1225.752797
22006.547647,1702.473667,-7105.977043,2374.896044
22006.547980,0.000000,-6587.832884,3064.381992
22006.548313,6735.874072,-9474.636058,6052.154434
22006.548646,4071.132681,-9474.636058,2911.162892
22006.548979,2368.659014,-8956.491898,2757.943793
22006.549313,-74.020594,-9474.636058,-1455.581446
22006.549646,-74.020594,-10510.924376,-2911.162892
22006.549979,3034.844362,-10362.883188,-1302.362347
22006.550312,-1554.432478,-12435.459826,-1072.533697
22006.550645,-5921.647536,-9548.656652,-4903.011187
22006.550979,-4737.318029,-5995.668130,-766.095498
22006.551312,-666.185348,-13027.624579,1149.143247
22006.551645,592.164754,-5995.668130,2451.505594
22006.551978,4737.318029,-6587.832884,4290.134789
22006.552311,-666.185348,-11917.315666,3983.696590
22006.552644,3478.967927,-4737.318029,3140.991542
22006.552978,-1924.535449,-9252.574275,3294.210641
22006.553311,444.123565,-7846.182985,383.047749
22006.553644,-6365.771101,-6587.832884,-5209.449386
22006.553977,-3923.091493,-10288.862594,-4060.306139
22006.554310,-3330.926739,-8882.471304,-2528.115143
22006.554643,-5477.523971,-9548.656652,-2911.162892
22006.554977,-370.102971,-9474.636058,-383.047749
22006.555310,-1258.350101,-8882.471304,536.266849
22006.555643,740.205942,-7179.997637,2451.505594
22006.555976,5329.482782,-3627.009116,6435.202183
22006.556309,2294.638420,-12139.377449,1149.143247
22006.556642,5921.647536,-5403.503377,1225.752797
22006.556976,2886.803174,-14063.912898,2374.896044
22006.557309,3775.050304,-11695.253884,1608.800546
22006.557642,3330.926739,-8956.491898,1455.581446
22006.557975,-1554.432478,-12435.459826,-1378.971896
22006.558308,1776.494261,-5995.668130,-3294.210641
22006.558642,-3552.988522,-10436.903782,-76.609550
22006.558975,2294.638420,-8290.306550,-1915.238745
22006.559308,1110.308913,-12139.377449,1915.238745
22006.559641,2886.803174,-8882.471304,5439.278036
22006.559974,0.000000,-8364.327145,3677.258390
22006.560307,3552.988522,-4811.338623,3370.820191
22006.560641,1184.329507,-8438.347739,1149.143247
22006.560974,1776.494261,-6587.832884,1225.752797
22006.561307,1998.556043,-8882.471304,-2834.553343
22006.561640,-6513.812290,-13693.809927,-2681.334243
22006.561973,-74.020594,-9474.636058,-4979.620737
22006.562306,-6365.771101,-11325.150913,-4290.134789
22006.562640,-1776.494261,-7772.162391,-2451.505594
22006.562973,-2960.823768,-8956.491898,-459.657299
22006.563306,2738.761985,-7550.100608,3370.820191
22006.563639,4959.379811,-7624.121203,6741.640382
22006.563972,7328.038826,-9178.553681,9729.412825
22006.564305,1702.473667,-5995.668130,3064.381992
22006.564639,4663.297435,-7105.977043,2374.896044
22006.564972,0.000000,-8364.327145,-2451.505594
22006.565305,-666.185348,-15396.283594,-1302.362347
22006.565638,-666.185348,-10658.965565,-4136.915689
22006.565971,-6957.935855,-12509.480420,-5439.278036
22006.566305,-1110.308913,-12139.377449,-2911.162892
22006.566638,-4071.132681,-11769.274478,0.000000
22006.566971,-666.185348,-6661.853478,2298.286494
22006.567304,-2368.659014,-5995.668130,5592.497135
22006.567637,-74.020594,-4589.276840,2145.067394
22006.567970,592.164754,-3627.009116,3064.381992
22006.568304,2294.638420,-11251.130318,4213.525239
22006.568637,1702.473667,-8290.306550,-229.828649
22006.568970,-888.247130,-11473.192101,2987.772442
22006.569303,-296.082377,-9030.512492,-689.485948
22006.569636,1554.432478,-5625.565159,-2681.334243
22006.569969,-4737.318029,-14211.954086,-6818.249932
22006.570303,-2368.659014,-9252.574275,-3294.210641
22006.570636,-1776.494261,-12805.562797,-1072.533697
22006.570969,3627.009116,-6661.853478,2451.505594
22006.571302,4367.215058,-12139.377449,7737.564530
22006.571635,4663.297435,-3256.906145,4519.963438
22006.571968,5921.647536,-6587.832884,5515.887586
22006.572302,4145.153275,-11621.233289,6665.030833
22006.572635,5551.544565,-6809.894666,1225.752797
22006.572968,0.000000,-10288.862594,-306.438199
22006.573301,4367.215058,-11103.089130,-1915.238745
22006.573634,-5625.565159,-13175.665768,-6052.154434
22006.573967,-814.226536,-10658.965565,-4979.620737
22006.574301,-1850.514855,-10584.944971,-2757.943793
22006.574634,592.164754,-7772.162391,1378.971896
22006.574967,-2368.659014,-9548.656652,2911.162892
22006.575300,1110.308913,-6291.750507,1685.410096
22006.575633,1702.473667,-3627.009116,0.000000
22006.575967,2368.659014,-7920.203579,5132.839837
22006.576300,4071.132681,-6513.812290,1685.410096
22006.576633,1036.288319,-9992.780217,1762.019645
22006.576966,2368.659014,-8660.409521,229.828649
22006.577299,-740.205942,-11473.192101,-2221.676944
22006.577632,-888.247130,-11991.336260,-4290.134789
22006.577966,-3552.988522,-12805.562797,-76.609550
22006.578299,-666.185348,-7698.141797,-3064.381992
22006.578632,-2960.823768,-7179.997637,-6128.763984
22006.578965,-2220.617826,-13989.892304,3217.601092
22006.579298,0.000000,-6587.832884,1838.629195
22006.579631,2220.617826,-6439.791695,2451.505594
22006.579965,3404.947333,-9178.553681,4673.182538
22006.580298,2072.576638,-8364.327145,5975.544884
22006.580631,2294.638420,-7105.977043,3600.648841
22006.580964,1036.288319,-10066.800811,1455.581446
22006.581297,-1258.350101,-8364.327145,-4826.401637
22006.581630,-2368.659014,-10140.821405,-1302.362347
22006.581964,-74.020594,-13619.789333,-76.609550
22006.582297,-3034.844362,-10881.027347,-2221.676944
22006.582630,-3997.112087,-11177.109724,-995.924147
22006.582963,-3256.906145,-8512.368333,0.000000
22006.583296,-740.205942,-5255.462188,1608.800546
22006.583630,0.000000,-8364.327145,1225.752797
22006.583963,4367.215058,-5255.462188,2145.067394
22006.584296,1184.329507,-10288.862594,3064.381992
22006.584629,5551.544565,-9474.636058,2681.334243
22006.584962,740.205942,-9548.656652,1838.629195
22006.585295,3182.885551,-10658.965565,2374.896044
22006.585629,2368.659014,-10362.883188,-766.095498
22006.585962,-74.020594,-12287.418637,-1378.971896
22006.586295,-1184.329507,-9844.739029,-612.876398
22006.586628,-2368.659014,-6587.832884,-3370.820191
22006.586961,-1036.288319,-7772.162391,-2145.067394
22006.587294,-1776.494261,-9696.697840,842.705048
22006.587628,1406.391290,-7846.182985,3217.601092
22006.587961,518.144159,-7846.182985,1149.143247
22006.588294,444.123565,-9548.656652,536.266849
22006.588627,3478.967927,-11843.295072,3600.648841
22006.588960,2368.659014,-4811.338623,3677.258390
22006.589293,5255.462188,-9474.636058,2374.896044
22006.589627,-1184.329507,-9992.780217,-1225.752797
22006.589960,-1776.494261,-9104.533087,-3677.258390
22006.590293,-3034.844362,-10955.047942,-4596.572988
22006.590626,-814.226536,-11177.109724,-3064.381992
22006.590959,-3034.844362,-10955.047942,-2221.676944
22006.591293,-2368.659014,-9548.656652,0.000000
22006.591626,1110.308913,-6587.832884,536.266849
22006.591959,4663.297435,-5625.565159,306.438199
22006.592292,4737.318029,-9992.780217,6052.154434
22006.592625,3478.967927,-8290.306550,3600.648841
22006.592958,2368.659014,-9104.533087,2987.772442
22006.593292,2294.638420,-10658.965565,919.314598
22006.593625,2368.659014,-9400.615463,0.000000
22006.593958,-1110.308913,-10658.965565,-2145.067394
22006.594291,-1258.350101,-10066.800811,-2528.115143
22006.594624,-666.185348,-7772.162391,-6741.640382
22006.594957,-2368.659014,-11917.315666,0.000000
22006.595291,592.164754,-9030.512492,2374.896044
22006.595624,-1184.329507,-7772.162391,0.000000
22006.595957,3182.885551,-6365.771101,2681.334243
22006.596290,222.061783,-7476.080014,2221.676944
22006.596623,1998.556043,-8734.430116,2987.772442
22006.596956,592.164754,-7402.059420,2451.505594
22006.597290,-1184.329507,-10066.800811,-229.828649
22006.597623,0.000000,-4811.338623,0.000000
22006.597956,-1258.350101,-10658.965565,-3140.991542
22006.598289,-1554.432478,-9474.636058,-4366.744339
22006.598622,-3552.988522,-7179.997637,-3064.381992
22006.598955,-1850.514855,-12879.583391,-1915.238745
22006.599289,1924.535449,-8216.285956,-383.047749
22006.599622,2368.659014,-11251.130318,4749.792088
22006.599955,5033.400406,-8660.409521,5898.935335
22006.600288,4663.297435,-6513.812290,4826.401637
22006.600621,4367.215058,-9770.718434,6052.154434
22006.600955,370.102971,-8956.491898,229.828649
22006.601288,296.082377,-8956.491898,-1762.019645
22006.601621,-1184.329507,-12509.480420,-1378.971896
22006.601954,-1850.514855,-10658.965565,-3753.867940
22006.602287,-4737.318029,-8364.327145,-2451.505594
22006.602620,-74.020594,-13027.624579,-1302.362347
22006.602954,-3627.009116,-10955.047942,0.000000
22006.603287,-2072.576638,-4811.338623,1225.752797
22006.603620,1406.391290,-7550.100608,3217.601092
22006.603953,3552.988522,-6365.771101,5669.106685
22006.604286,518.144159,-7476.080014,3677.258390
22006.604619,3478.967927,-8290.306550,4213.525239
22006.604953,2442.679609,-9474.636058,1762.019645
22006.605286,-3552.988522,-11325.150913,0.000000
22006.605619,1702.473667,-11251.130318,-2834.553343
22006.605952,-2442.679609,-10955.047942,-6281.983084
22006.606285,-3034.844362,-11843.295072,-5286.058936
22006.606618,-1480.411884,-10436.903782,-2451.505594
22006.606952,0.000000,-7476.080014,1149.143247
22006.607285,1332.370696,-8438.347739,2834.553343
22006.607618,0.000000,-5995.668130,3983.696590
22006.607951,2886.803174,-9474.636058,3600.648841
22006.608284,0.000000,-7179.997637,4903.011187
22006.608618,4367.215058,-11547.212695,4213.525239
22006.608951,2960.823768,-5995.668130,3370.820191
22006.609284,1776.494261,-4441.235652,-153.219100
22006.609617,-740.205942,-10510.924376,-2911.162892
22006.609950,-3997.112087,-11251.130318,-6281.983084
22006.610283,-3182.885551,-12583.501014,-5439.278036
22006.610617,-2368.659014,-12805.562797,-2451.505594
22006.610950,-1850.514855,-11547.212695,-4596.572988
22006.611283,-148.041188,-9474.636058,4826.401637
22006.611616,2886.803174,-3256.906145,2528.115143
22006.611949,4737.318029,-6143.709319,7431.126331
22006.612282,6661.853478,-5403.503377,7354.516781
22006.612616,3256.906145,-7254.018232,2374.896044
22006.612949,3701.029710,-9326.594869,2451.505594
22006.613282,-370.102971,-11103.089130,-1225.752797
22006.613615,1110.308913,-10066.800811,-689.485948
22006.613948,-3552.988522,-7179.997637,-3677.258390
22006.614281,4515.256246,-9474.636058,-4060.306139
22006.614614,-4219.173869,-14211.954086,-4060.306139
22006.614947,-2368.659014,-7476.080014,-2451.505594
22006.615280,-2960.823768,-10140.821405,-306.438199
22006.615613,0.000000,-13693.809927,5286.058936
22006.615946,5329.482782,-3256.906145,6588.421283
22006.616279,2442.679609,-7920.203579,8197.221829
22006.616612,6439.791695,-6809.894666,3600.648841
22006.616945,0.000000,-7772.162391,3677.258390
22006.617278,814.226536,-9326.594869,-76.609550
22006.617611,370.102971,-6883.915261,-2068.457845
22006.617944,-6513.812290,-14952.160028,-5286.058936
22006.618278,-666.185348,-14211.954086,-3753.867940
22006.618611,-2664.741391,-11621.233289,-3064.381992
22006.618944,0.000000,-7772.162391,4136.915689
22006.619277,-74.020594,-8290.306550,2374.896044
22006.619610,-1554.432478,-7179.997637,2145.067394
22006.619943,444.123565,-11177.109724,5286.058936
22006.620276,-1036.288319,-7179.997637,2451.505594
22006.620609,3330.926739,-6217.729913,1991.848295
22006.620942,-296.082377,-9918.759623,2604.724693
22006.621275,-74.020594,-6513.812290,-995.924147
22006.621608,-2960.823768,-7772.162391,-3677.258390
22006.621941,-1258.350101,-12435.459826,-4979.620737
22006.622274,-2442.679609,-11547.212695,-7354.516781
22006.622607,-1776.494261,-9548.656652,0.000000
22006.622940,-666.185348,-9474.636058,-1302.362347
22006.623273,-1480.411884,-7624.121203,383.047749
22006.623606,2368.659014,-7402.059420,2068.457845
22006.623939,5625.565159,-9474.636058,3294.210641
22006.624272,2960.823768,-10732.986159,7354.516781
22006.624605,0.000000,-7179.997637,5515.887586
22006.624938,3478.967927,-10658.965565,4213.525239
22006.625272,-1184.329507,-6291.750507,0.000000
22006.625605,1184.329507,-7179.997637,1532.190996
22006.625938,-1258.350101,-6661.853478,-2451.505594
22006.626271,-1406.391290,-8290.306550,-4366.744339
22006.626604,-3552.988522,-10214.842000,-2604.724693
22006.626937,-3182.885551,-10362.883188,-995.924147
22006.627270,-74.020594,-8586.388927,-1302.362347
22006.627603,0.000000,-13249.686362,4213.525239
22006.627936,3478.967927,-5995.668130,306.438199
22006.628269,4737.318029,-7179.997637,4826.401637
22006.628602,4071.132681,-10658.965565,4213.525239
22006.628935,3552.988522,-7179.997637,4596.572988
22006.629268,1702.473667,-8364.327145,459.657299
22006.629601,5403.503377,-10881.027347,0.000000
22006.629934,1480.411884,-12953.603985,-842.705048
22006.630267,-1850.514855,-9474.636058,-4903.011187
22006.630600,1110.308913,-11843.295072,-3753.867940
22006.630933,-1776.494261,-10732.986159,-2145.067394
22006.631266,0.000000,-8364.327145,2145.067394
22006.631599,-74.020594,-10066.800811,2374.896044
22006.631932,1480.411884,-5403.503377,2145.067394
22006.632266,444.123565,-10214.842000,2145.067394
22006.632599,1924.535449,-8734.430116,4979.620737
22006.632932,4737.318029,-3775.050304,4366.744339
22006.633265,-1258.350101,-9918.759623,1762.019645
22006.633598,1554.432478,-7402.059420,-689.485948
22006.633931,-6513.812290,-11917.315666,-3983.696590
22006.634264,-3182.885551,-11177.109724,-2528.115143
22006.634597,-3775.050304,-10288.862594,-3217.601092
22006.634930,-3034.844362,-10658.965565,-3140.991542
22006.635263,-1184.329507,-9844.739029,2374.896044
22006.635596,814.226536,-9178.553681,1608.800546
22006.635929,592.164754,-6587.832884,3064.381992
22006.636262,3552.988522,-8660.409521,7354.516781
22006.636595,1998.556043,-7772.162391,3983.696590
22006.636928,1110.308913,-9104.533087,2298.286494
22006.637261,4737.318029,-5699.585753,-689.485948
22006.637594,-1036.288319,-14211.954086,1608.800546
22006.637927,0.000000,-8364.327145,-1838.629195
22006.638260,-3627.009116,-11843.295072,-3753.867940
22006.638593,-4219.173869,-9474.636058,-4519.963438
22006.638927,-5625.565159,-7772.162391,-2451.505594
22006.639260,-2442.679609,-7105.977043,-3140.991542
22006.639593,-1184.329507,-13101.645173,2911.162892
22006.639926,2812.782580,-5699.585753,4673.182538
22006.640259,1924.535449,-7994.224174,3677.258390
22006.640592,296.082377,-8956.491898,1838.629195
22006.640925,2812.782580,-8808.450710,2145.067394
22006.641258,2294.638420,-8586.388927,-1378.971896
22006.641591,2960.823768,-11325.150913,0.000000
22006.641924,4811.338623,-9474.636058,-76.609550
22006.642257,-666.185348,-10214.842000,-1225.752797
22006.642590,814.226536,-7105.977043,-4060.306139
22006.642923,370.102971,-10288.862594,-612.876398
22006.643256,-3330.926739,-12213.398043,-995.924147
22006.643589,1332.370696,-6883.915261,3370.820191
22006.643922,1110.308913,-6513.812290,1149.143247
22006.644255,4071.132681,-3923.091493,612.876398
22006.644588,4145.153275,-8808.450710,5132.839837
22006.644921,5255.462188,-8882.471304,1762.019645
22006.645254,666.185348,-6291.750507,0.000000
22006.645587,1110.308913,-14211.954086,-3140.991542
22006.645921,-962.267725,-13397.727550,-3830.477490
22006.646254,-814.226536,-11103.089130,-842.705048
22006.646587,2220.617826,-7772.162391,-766.095498
22006.646920,1110.308913,-11843.295072,3600.648841
22006.647253,-888.247130,-5847.626942,383.047749
22006.647586,-2442.679609,-11103.089130,1762.019645
22006.647919,888.247130,-6291.750507,1685.410096
22006.648252,1776.494261,-8364.327145,4290.134789
22006.648585,3552.988522,-8364.327145,3447.429741
22006.648918,3478.967927,-8586.388927,842.705048
22006.649251,-2368.659014,-7179.997637,-2451.505594
22006.649584,2368.659014,-10510.924376,1149.143247
22006.649917,-2738.761985,-9844.739029,-5286.058936
22006.650250,-1258.350101,-10881.027347,-4826.401637
22006.650583,-5033.400406,-13249.686362,-3983.696590
22006.650916,-1036.288319,-9400.615463,-1532.190996
22006.651249,-296.082377,-7846.182985,5439.278036
22006.651582,-592.164754,-8068.244768,6665.030833
22006.651915,518.144159,-2442.679609,3677.258390
22006.652248,-1480.411884,-7476.080014,3064.381992
22006.652581,1406.391290,-8142.265362,2374.896044
22006.652915,-1480.411884,-9844.739029,0.000000
22006.653248,518.144159,-9474.636058,1072.533697
22006.653581,-518.144159,-8438.347739,-612.876398
22006.653914,-5033.400406,-12583.501014,-4749.792088
22006.654247,-4219.173869,-13027.624579,-5898.935335
22006.654580,-4145.153275,-13027.624579,-1302.362347
22006.654913,-1850.514855,-9548.656652,-3370.820191
22006.655246,1184.329507,-7772.162391,3753.867940
22006.655579,740.205942,-11843.295072,4826.401637
22006.655912,5847.626942,-3552.988522,5745.716235
22006.656245,740.205942,-8956.491898,3907.087040
22006.656578,4959.379811,-5847.626942,2911.162892
22006.656911,0.000000,-10288.862594,2911.162892
22006.657244,-1776.494261,-4811.338623,-1225.752797
22006.657577,4071.132681,-7994.224174,-3140.991542
22006.657910,592.164754,-9844.739029,-2451.505594
22006.658243,2960.823768,-8882.471304,-1915.238745
22006.658576,-3034.844362,-11547.212695,-3447.429741
22006.658909,666.185348,-10140.821405,-4903.011187
22006.659242,-4219.173869,-17024.736666,-2068.457845
22006.659575,3923.091493,-8290.306550,3524.039291
22006.659909,5921.647536,-4663.297435,4749.792088
22006.660242,8734.430116,-8290.306550,11568.042020
22006.660575,4071.132681,-2738.761985,2451.505594
22006.660908,6439.791695,-7698.141797,5439.278036
22006.661241,-666.185348,-11251.130318,-995.924147
22006.661574,0.000000,-5995.668130,-612.876398
22006.661907,-2960.823768,-14878.139434,-4136.915689
22006.662240,370.102971,-10140.821405,-3983.696590
22006.662573,-3108.864956,-10881.027347,-4903.011187
22006.662906,-74.020594,-11695.253884,-4443.353888
22006.663239,3478.967927,-11547.212695,1149.143247
22006.663572,-2368.659014,-11917.315666,-1838.629195
22006.663905,2294.638420,-11103.089130,2528.115143
22006.664238,2664.741391,-5847.626942,2068.457845
22006.664571,3404.947333,-11325.150913,6665.030833
22006.664904,7254.018232,-3330.926739,10418.898773
22006.665237,2516.700203,-5995.668130,6128.763984
22006.665570,0.000000,-4811.338623,5439.278036
22006.665903,-4811.338623,-9178.553681,-4060.306139
22006.666236,-6439.791695,-9548.656652,-6052.154434
22006.666569,-7105.977043,-13101.645173,-4749.792088
22006.666903,-3034.844362,-10807.006753,-1838.629195
22006.667236,-6587.832884,-13323.706956,-2604.724693
22006.667569,-3627.009116,-6661.853478,-1608.800546
22006.667902,-3034.844362,-11843.295072,1149.143247
22006.668235,1110.308913,-4811.338623,1225.752797
22006.668568,-296.082377,-12213.398043,6128.763984
22006.668901,5255.462188,-2368.659014,4826.401637
22006.669234,2590.720797,-9178.553681,6894.859482
22006.669567,3034.844362,-4737.318029,2987.772442
22006.669900,2738.761985,-11251.130318,2451.505594
22006.670233,-6291.750507,-11769.274478,-4519.963438
22006.670566,-370.102971,-9548.656652,-4060.306139
22006.670899,-5847.626942,-7772.162391,-7048.078582
22006.671232,-2368.659014,-9548.656652,-4903.011187
22006.671565,-3849.070898,-11843.295072,-689.485948
22006.671898,3478.967927,-13027.624579,1762.019645
22006.672231,4441.235652,-7179.997637,1225.752797
22006.672564,4663.297435,-10658.965565,2451.505594
22006.672897,4293.194464,-6883.915261,5439.278036
22006.673230,4811.338623,-3478.967927,5132.839837
22006.673563,4663.297435,-7550.100608,2528.115143
22006.673897,2664.741391,-9252.574275,5132.839837
22006.674230,0.000000,-7994.224174,-1685.410096
22006.674563,-74.020594,-11843.295072,-3753.867940
22006.674896,-4293.194464,-9844.739029,-7967.393179
22006.675229,-4737.318029,-10140.821405,-3140.991542
22006.675562,-1406.391290,-10066.800811,-3140.991542
22006.675895,1554.432478,-9918.759623,1532.190996
22006.676228,1628.453072,-10140.821405,3907.087040
22006.676561,6883.915261,-5403.503377,6358.592633
22006.676894,7105.977043,-7031.956449,4903.011187
22006.677227,3997.112087,-8882.471304,4213.525239
22006.677560,4441.235652,-8290.306550,2221.676944
22006.677893,370.102971,-10362.883188,-1915.238745
22006.678226,3775.050304,-11843.295072,-2528.115143
22006.678559,0.000000,-14211.954086,-4366.744339
22006.678892,-2960.823768,-10140.821405,0.000000
22006.679225,-74.020594,-8882.471304,-2221.676944
22006.679558,-2442.679609,-8882.471304,-1762.019645
22006.679891,1110.308913,-7105.977043,2834.553343
22006.680224,-74.020594,-9474.636058,2374.896044
22006.680557,2072.576638,-4737.318029,3907.087040
22006.680891,-1036.288319,-9326.594869,1532.190996
22006.681224,370.102971,-7179.997637,2987.772442
22006.681557,1998.556043,-8734.430116,4213.525239
22006.681890,-4145.153275,-10732.986159,-76.609550
22006.682223,-2442.679609,-9474.636058,-6665.030833
22006.682556,-5329.482782,-11917.315666,-6128.763984
22006.682889,-3849.070898,-9844.739029,-3140.991542
22006.683222,-2146.597232,-10436.903782,0.000000
22006.683555,1554.432478,-7105.977043,2987.772442
22006.683888,592.164754,-8364.327145,5822.325785
22006.684221,3108.864956,-5107.421000,7048.078582
22006.684554,1998.556043,-4737.318029,2987.772442
22006.684887,2146.597232,-11103.089130,2374.896044
22006.685220,-74.020594,-6883.915261,-2451.505594
22006.685553,-1924.535449,-10955.047942,-383.047749
22006.685886,-814.226536,-10066.800811,-2451.505594
22006.686219,-6957.935855,-10140.821405,-4136.915689
22006.686552,-5033.400406,-9104.533087,-4903.011187
22006.686885,-2886.803174,-10362.883188,-5286.058936
22006.687218,-3849.070898,-12435.459826,2145.067394
22006.687551,0.000000,-4811.338623,1225.752797
22006.687885,5847.626942,-8882.471304,5745.716235
22006.688218,5181.441594,-4811.338623,6741.640382
22006.688551,3552.988522,-6069.688724,8350.440928
22006.688884,5847.626942,-7105.977043,2374.896044
22006.689217,4737.318029,-10214.842000,229.828649
22006.689550,296.082377,-15396.283594,-995.924147
22006.689883,888.247130,-11621.233289,-3064.381992
22006.690216,-962.267725,-12139.377449,-6818.249932
22006.690549,-74.020594,-14804.118840,-4366.744339
22006.690882,-74.020594,-7994.224174,-4903.011187
22006.691215,0.000000,-7772.162391,-76.609550
22006.691548,2886.803174,-12435.459826,2987.772442
22006.691881,1702.473667,-7105.977043,2221.676944
22006.692214,3701.029710,-7698.141797,7890.783629
22006.692547,4663.297435,-6883.915261,6894.859482
22006.692880,6809.894666,-6291.750507,2451.505594
22006.693213,1850.514855,-11547.212695,3753.867940
22006.693546,2664.741391,-7772.162391,2298.286494
22006.693879,-2368.659014,-11473.192101,-4290.134789
22006.694212,-3923.091493,-13249.686362,-4749.792088
22006.694545,-3627.009116,-10510.924376,-7737.564530
22006.694879,-814.226536,-10140.821405,-3370.820191
22006.695212,0.000000,-9548.656652,1225.752797
22006.695545,-74.020594,-7550.100608,2987.772442
22006.695878,-74.020594,-7105.977043,995.924147
22006.696211,1480.411884,-4811.338623,3677.258390
22006.696544,1702.473667,-9474.636058,4826.401637
22006.696877,3404.947333,-5847.626942,3983.696590
22006.697210,2220.617826,-10584.944971,4443.353888
22006.697543,-2146.597232,-7846.182985,-153.219100
22006.697876,0.000000,-8364.327145,0.000000
22006.698209,-3552.988522,-9548.656652,-1072.533697
22006.698542,-74.020594,-9474.636058,-4826.401637
22006.698875,-4737.318029,-9548.656652,-4826.401637
22006.699208,-3256.906145,-9548.656652,-1685.410096
22006.699541,-4145.153275,-7476.080014,-2298.286494
22006.699874,1110.308913,-8882.471304,1838.629195
22006.700207,1998.556043,-7698.141797,5592.497135
22006.700540,1554.432478,-8290.306550,3370.820191
22006.700873,2886.803174,-10658.965565,4826.401637
22006.701206,-1776.494261,-8956.491898,4213.525239
22006.701539,2886.803174,-2442.679609,-3677.258390
22006.701873,-2072.576638,-11769.274478,-306.438199
22006.702206,-74.020594,-11251.130318,-3753.867940
22006.702539,-1258.350101,-13397.727550,-4060.306139
22006.702872,-74.020594,-11695.253884,-306.438199
22006.703205,518.144159,-10362.883188,-612.876398
22006.703538,-592.164754,-10510.924376,-766.095498
22006.703871,1850.514855,-6587.832884,1838.629195
22006.704204,1110.308913,-8882.471304,1762.019645
22006.704537,2368.659014,-5995.668130,2451.505594
22006.704870,1480.411884,-9474.636058,2374.896044
22006.705203,370.102971,-10732.986159,306.438199
22006.705536,-1702.473667,-7105.977043,0.000000
22006.705869,592.164754,-6291.750507,-76.609550
22006.706202,-1702.473667,-11917.315666,-1072.533697
22006.706535,148.041188,-8290.306550,-2528.115143
22006.706868,0.000000,-11695.253884,-1378.971896
22006.707201,3478.967927,-8586.388927,-2451.505594
22006.707534,592.164754,-10732.986159,2221.676944
22006.707867,2960.823768,-9844.739029,2068.457845
22006.708200,4367.215058,-9844.739029,2451.505594
22006.708534,3256.906145,-7179.997637,2757.943793
22006.708867,1776.494261,-10584.944971,3140.991542
22006.709200,2368.659014,-6957.935855,2298.286494
22006.709533,-296.082377,-10362.883188,689.485948
22006.709866,2664.741391,-5403.503377,3677.258390
22006.710199,-666.185348,-6217.729913,-2451.505594
22006.710532,-1554.432478,-8068.244768,-1378.971896
22006.710865,-4145.153275,-9474.636058,-3064.381992
22006.711198,-3997.112087,-9696.697840,-3294.210641
22006.711531,-3552.988522,-10732.986159,0.000000
22006.711864,-74.020594,-9474.636058,536.266849
22006.712197,518.144159,-7476.080014,1225.752797
22006.712530,2664.741391,-8142.265362,4826.401637
22006.712863,3478.967927,-9474.636058,1762.019645
22006.713196,0.000000,-8364.327145,2451.505594
22006.713529,2886.803174,-7920.203579,306.438199
22006.713862,296.082377,-10732.986159,-153.219100
22006.714195,-1554.432478,-11103.089130,-229.828649
22006.714528,-2072.576638,-10658.965565,-2528.115143
22006.714861,-1554.432478,-10658.965565,-2528.115143
22006.715194,-1776.494261,-9548.656652,0.000000
22006.715527,0.000000,-7105.977043,1149.143247
22006.715860,-2442.679609,-9178.553681,-76.609550
22006.716193,0.000000,-4811.338623,2451.505594
22006.716526,-1628.453072,-10140.821405,0.000000
22006.716860,4663.297435,-10584.944971,3064.381992
22006.717193,3775.050304,-8512.368333,3064.381992
22006.717526,2294.638420,-10066.800811,2374.896044
22006.717859,2294.638420,-11843.295072,-76.609550
22006.718192,-4737.318029,-11917.315666,-2451.505594
22006.718525,2590.720797,-11251.130318,-76.609550
22006.718858,814.226536,-9400.615463,0.000000
22006.719191,1776.494261,-7920.203579,2221.676944
22006.719524,-1332.370696,-8586.388927,1838.629195
22006.719857,-1702.473667,-7476.080014,0.000000
22006.720190,1110.308913,-6809.894666,3294.210641
22006.720523,-1036.288319,-7105.977043,2145.067394
22006.720856,4663.297435,-8882.471304,2374.896044
22006.721189,-4145.153275,-10140.821405,2451.505594
22006.721522,3182.885551,-7105.977043,-1302.362347
22006.721855,-4737.318029,-9548.656652,-3983.696590
22006.722188,518.144159,-9474.636058,-689.485948
22006.722521,0.000000,-10955.047942,-995.924147
22006.722854,-814.226536,-9696.697840,-2451.505594
22006.723187,3256.906145,-8956.491898,995.924147
22006.723520,-2368.659014,-12509.480420,1225.752797
22006.723853,3034.844362,-7179.997637,4903.011187
22006.724186,2886.803174,-9474.636058,6052.154434
22006.724519,4663.297435,-5329.482782,1302.362347
22006.724852,0.000000,-7476.080014,1455.581446
22006.725185,2294.638420,-11843.295072,-76.609550
22006.725518,0.000000,-10140.821405,383.047749
22006.725851,0.000000,-8290.306550,-76.609550
22006.726184,-2294.638420,-11621.233289,-2221.676944
22006.726517,-3404.947333,-11029.068536,-2451.505594
22006.726851,-4663.297435,-8956.491898,-4903.011187
22006.727184,-3701.029710,-8734.430116,-4749.792088
22006.727517,-370.102971,-8660.409521,-383.047749
22006.727850,-592.164754,-9030.512492,1915.238745
22006.728183,2960.823768,-6291.750507,4290.134789
22006.728516,3478.967927,-4737.318029,4519.963438
22006.728849,592.164754,-7476.080014,5439.278036
22006.729182,2294.638420,-7698.141797,-1685.410096
22006.729515,3182.885551,-11843.295072,2681.334243
22006.729848,1776.494261,-11103.089130,536.266849
22006.730181,0.000000,-9918.759623,-3217.601092
22006.730514,-1776.494261,-11251.130318,-4903.011187
22006.730847,-1924.535449,-12657.521608,-2451.505594
22006.731180,-74.020594,-9474.636058,-76.609550
22006.731513,-4145.153275,-8660.409521,0.000000
22006.731846,-296.082377,-9178.553681,3600.648841
22006.732179,-1258.350101,-7698.141797,1378.971896
22006.732512,592.164754,-4811.338623,6128.763984
22006.732845,4071.132681,-5329.482782,3600.648841
22006.733178,3552.988522,-8808.450710,4673.182538
22006.733511,2886.803174,-7920.203579,5515.887586
22006.733844,518.144159,-6957.935855,-1915.238745
22006.734177,-74.020594,-11843.295072,-1915.238745
22006.734510,-7105.977043,-10732.986159,-4290.134789
22006.734843,-370.102971,-10658.965565,-2528.115143
22006.735176,-1258.350101,-11843.295072,-2987.772442
22006.735509,0.000000,-7179.997637,153.219100
22006.735842,-3923.091493,-9474.636058,-1685.410096
22006.736175,74.020594,-6513.812290,-689.485948
22006.736508,1776.494261,-11621.233289,3064.381992
22006.736842,3256.906145,-7624.121203,6588.421283
22006.737175,3701.029710,-6587.832884,3677.258390
22006.737508,1184.329507,-7179.997637,4826.401637
22006.737841,4071.132681,-9770.718434,-612.876398
22006.738174,1776.494261,-8364.327145,-4903.011187
22006.738507,592.164754,-12509.480420,1225.752797
22006.738840,-2442.679609,-9992.780217,-7354.516781
22006.739173,-1702.473667,-13027.624579,-2374.896044
22006.739506,-1406.391290,-7698.141797,-1608.800546
22006.739839,222.061783,-9696.697840,1225.752797
22006.740172,-888.247130,-6587.832884,1149.143247
22006.740505,1850.514855,-6513.812290,2987.772442
22006.740838,74.020594,-9400.615463,2451.505594
22006.741171,2886.803174,-6957.935855,3217.601092
22006.741504,2886.803174,-8882.471304,2374.896044
22006.741837,1702.473667,-7698.141797,-842.705048
22006.742170,1480.411884,-9548.656652,1608.800546
22006.742503,-2442.679609,-13027.624579,-1302.362347
22006.742836,-1998.556043,-5403.503377,-7048.078582
22006.743169,-4737.318029,-14952.160028,-4290.134789
22006.743502,-370.102971,-10955.047942,-2528.115143
22006.743835,2146.597232,-10214.842000,3524.039291
22006.744168,5995.668130,-4811.338623,6358.592633
22006.744501,4663.297435,-7105.977043,3907.087040
22006.744834,2368.659014,-6291.750507,1532.190996
22006.745167,2960.823768,-10288.862594,4519.963438
22006.745500,1110.308913,-10214.842000,0.000000
22006.745833,-444.123565,-7772.162391,-2145.067394
22006.746166,-1554.432478,-11251.130318,-3753.867940
22006.746499,-2072.576638,-9844.739029,-612.876398
22006.746833,-1110.308913,-5551.544565,-4443.353888
22006.747166,-740.205942,-9474.636058,-766.095498
22006.747499,-2368.659014,-10140.821405,2451.505594
22006.747832,1702.473667,-8290.306550,-536.266849
22006.748165,-1184.329507,-11029.068536,5898.935335
22006.748498,2294.638420,-7105.977043,1149.143247
22006.748831,2368.659014,-5403.503377,2757.943793
22006.749164,0.000000,-10732.986159,3677.258390
22006.749497,1332.370696,-7328.038826,919.314598
22006.749830,-6217.729913,-10584.944971,-2451.505594
22006.750163,-222.061783,-6883.915261,-4749.792088
22006.750496,-1258.350101,-14211.954086,-2528.115143
22006.750829,1628.453072,-7179.997637,306.438199
22006.751162,2294.638420,-7698.141797,1149.143247
22006.751495,-1258.350101,-7846.182985,-3370.820191
22006.751828,0.000000,-11325.150913,-76.609550
22006.752161,1998.556043,-15100.201217,4213.525239
22006.752494,4737.318029,-6439.791695,4673.182538
22006.752827,888.247130,-9178.553681,2374.896044
22006.753160,5181.441594,-9178.553681,2374.896044
22006.753493,666.185348,-9992.780217,4903.011187
22006.753826,0.000000,-6587.832884,3294.210641
22006.754159,1998.556043,-6587.832884,-2451.505594
22006.754492,-5625.565159,-12287.418637,-4290.134789
22006.754825,-74.020594,-9474.636058,-3140.991542
22006.755158,-3627.009116,-9474.636058,-1915.238745
22006.755491,888.247130,-8216.285956,-76.609550
22006.755824,-1184.329507,-8734.430116,2834.553343
22006.756157,1110.308913,-8882.471304,3447.429741
22006.756490,3108.864956,-4811.338623,2604.724693
22006.756824,0.000000,-10288.862594,995.924147
22006.757157,5033.400406,-11325.150913,1378.971896
22006.757490,3108.864956,-10807.006753,1455.581446
22006.757823,4515.256246,-10584.944971,1762.019645
22006.758156,3775.050304,-8290.306550,-76.609550
22006.758489,0.000000,-9548.656652,-919.314598
22006.758822,2294.638420,-11843.295072,-1302.362347
22006.759155,-3404.947333,-9548.656652,-1838.629195
22006.759488,1036.288319,-7254.018232,-766.095498
22006.759821,-1258.350101,-11843.295072,-76.609550
22006.760154,1776.494261,-8512.368333,2451.505594
22006.760487,-1776.494261,-9548.656652,3524.039291
22006.760820,148.041188,-5033.400406,842.705048
22006.761153,0.000000,-9548.656652,612.876398
22006.761486,0.000000,-10881.027347,2681.334243
22006.761819,2294.638420,-8660.409521,-1608.800546
22006.762152,518.144159,-7328.038826,919.314598
22006.762485,2516.700203,-8068.244768,536.266849
22006.762818,-74.020594,-7698.141797,-1838.629195
22006.763151,-666.185348,-9030.512492,-1302.362347
22006.763484,-2072.576638,-8364.327145,-1532.190996
22006.763817,-4589.276840,-11843.295072,-2145.067394
22006.764150,-1628.453072,-9548.656652,-919.314598
22006.764483,1184.329507,-11325.150913,6665.030833
22006.764816,74.020594,-7179.997637,2451.505594
22006.765149,0.000000,-9400.615463,3064.381992
22006.765482,2886.803174,-9474.636058,842.705048
22006.765815,0.000000,-9548.656652,3064.381992
22006.766148,2294.638420,-6809.894666,-612.876398
22006.766481,0.000000,-8882.471304,-919.314598
22006.766815,-1480.411884,-10807.006753,-1991.848295
22006.767148,3478.967927,-7105.977043,-76.609550
22006.767481,-1258.350101,-13471.748144,-76.609550
22006.767814,1110.308913,-6735.874072,-1838.629195
22006.768147,-2960.823768,-11991.336260,-76.609550
22006.768480,2294.638420,-11843.295072,2374.896044
22006.768813,2886.803174,-8512.368333,3447.429741
22006.769146,-296.082377,-9696.697840,1608.800546
22006.769479,2590.720797,-6735.874072,5056.230287
22006.769812,-74.020594,-5773.606348,689.485948
22006.770145,2516.700203,-4959.379811,-1991.848295
22006.770478,-666.185348,-9770.718434,-3983.696590
22006.770811,-222.061783,-14211.954086,-3370.820191
22006.771144,2886.803174,-11251.130318,-1302.362347
22006.771477,-2146.597232,-13249.686362,-3370.820191
22006.771810,2146.597232,-7920.203579,1149.143247
22006.772143,-1332.370696,-9696.697840,0.000000
22006.772476,3775.050304,-9770.718434,2528.115143
22006.772809,2812.782580,-7328.038826,5515.887586
22006.773142,2368.659014,-7772.162391,2757.943793
22006.773475,4885.359217,-6587.832884,7507.735880
22006.773808,962.267725,-7698.141797,1762.019645
22006.774141,2590.720797,-7698.141797,-1302.362347
22006.774474,-1258.350101,-11473.192101,-1608.800546
22006.774807,-2960.823768,-9548.656652,-7431.126331
22006.775140,-2442.679609,-13619.789333,-3140.991542
22006.775473,-4441.235652,-7920.203579,-4903.011187
22006.775806,-1184.329507,-10066.800811,-4903.011187
22006.776139,1554.432478,-11843.295072,4060.306139
22006.776472,1184.329507,-8956.491898,4903.011187
22006.776806,4663.297435,-6513.812290,9193.145976
22006.777139,2294.638420,-7179.997637,5209.449386
22006.777472,2442.679609,-8142.265362,5209.449386
22006.777805,0.000000,-6735.874072,2451.505594
22006.778138,1110.308913,-5403.503377,-1685.410096
22006.778471,-5921.647536,-8364.327145,-3064.381992
22006.778804,-2442.679609,-11843.295072,-5592.497135
22006.779137,-3627.009116,-12731.542202,-5592.497135
22006.779470,-3552.988522,-11621.233289,-3907.087040
22006.779803,-2960.823768,-11621.233289,-2604.724693
22006.780136,-1776.494261,-9178.553681,536.266849
22006.780469,3552.988522,-7179.997637,4443.353888
22006.780802,3478.967927,-9474.636058,6665.030833
22006.781135,1036.288319,-6587.832884,3064.381992
22006.781468,2220.617826,-10955.047942,4826.401637
22006.781801,1702.473667,-9178.553681,0.000000
22006.782134,1184.329507,-3627.009116,3677.258390
22006.782467,1998.556043,-10658.965565,-383.047749
22006.782800,74.020594,-8216.285956,-1685.410096
22006.783133,-4811.338623,-10214.842000,-5592.497135
22006.783466,-4071.132681,-9548.656652,-5822.325785
22006.783799,-3701.029710,-9474.636058,-3600.648841
22006.784132,-4737.318029,-9548.656652,612.876398
22006.784465,2886.803174,-9474.636058,2374.896044
22006.784798,1184.329507,-6291.750507,1838.629195
22006.785131,2368.659014,-5995.668130,3677.258390
22006.785464,6439.791695,-7698.141797,2987.772442
22006.785797,2072.576638,-11399.171507,3524.039291
22006.786130,1110.308913,-9104.533087,-689.485948
22006.786463,-666.185348,-12065.356855,-2374.896044
22006.786797,-222.061783,-9474.636058,-1302.362347
22006.787130,1924.535449,-7698.141797,1072.533697
22006.787463,-740.205942,-5847.626942,-1991.848295
22006.787796,592.164754,-8364.327145,-1838.629195
22006.788129,-1776.494261,-10510.924376,689.485948
22006.788462,3478.967927,-10362.883188,-76.609550
22006.788795,2368.659014,-10732.986159,4903.011187
22006.789128,3552.988522,-8660.409521,7277.907231
22006.789461,3478.967927,-8142.265362,2451.505594
22006.789794,2368.659014,-6587.832884,612.876398
22006.790127,444.123565,-10658.965565,-995.924147
22006.790460,0.000000,-9844.739029,-2145.067394
22006.790793,-2812.782580,-11621.233289,-5209.449386
22006.791126,-74.020594,-12435.459826,-2528.115143
22006.791459,0.000000,-11843.295072,3600.648841
22006.791792,0.000000,-4811.338623,1838.629195
22006.792125,-1258.350101,-8290.306550,4749.792088
22006.792458,-148.041188,-8290.306550,1149.143247
22006.792791,3182.885551,-9326.594869,4519.963438
22006.793124,-148.041188,-10140.821405,3677.258390
22006.793457,3330.926739,-6587.832884,842.705048
22006.793790,-1850.514855,-11843.295072,2068.457845
22006.794123,-1628.453072,-5107.421000,-3370.820191
22006.794456,-666.185348,-11251.130318,-3140.991542
22006.794789,-4737.318029,-10732.986159,-1685.410096
22006.795122,-1258.350101,-11843.295072,-3753.867940
22006.795455,-3552.988522,-7179.997637,-2451.505594
22006.795788,1554.432478,-7105.977043,1915.238745
22006.796121,-2368.659014,-7920.203579,3677.258390
22006.796454,1776.494261,-5847.626942,6281.983084
22006.796788,1776.494261,-6513.812290,1149.143247
22006.797121,3849.070898,-13989.892304,3370.820191
22006.797454,3478.967927,-11177.109724,-919.314598
22006.797787,3182.885551,-13619.789333,3600.648841
22006.798120,2886.803174,-8290.306550,-1608.800546
22006.798453,0.000000,-8364.327145,-4290.134789
22006.798786,-5329.482782,-9696.697840,-1838.629195
22006.799119,-1332.370696,-5181.441594,-3753.867940
22006.799452,-3701.029710,-11399.171507,-1149.143247
22006.799785,-296.082377,-7105.977043,0.000000
22006.800118,-962.267725,-9474.636058,2374.896044
22006.800451,0.000000,-5995.668130,6435.202183
22006.800784,2294.638420,-7994.224174,2834.553343
22006.801117,592.164754,-5995.668130,766.095498
22006.801450,1480.411884,-10732.986159,4673.182538
22006.801783,888.247130,-11251.130318,-1302.362347
22006.802116,2812.782580,-8438.347739,0.000000
22006.802449,-888.247130,-8512.368333,-3064.381992
22006.802782,3923.091493,-8586.388927,-76.609550
22006.803115,-1628.453072,-10362.883188,-2221.676944
22006.803448,1184.329507,-8808.450710,-995.924147
22006.803781,-370.102971,-11473.192101,766.095498
22006.804114,1110.308913,-9474.636058,1302.362347
22006.804447,2516.700203,-8216.285956,3983.696590
22006.804780,2886.803174,-8290.306550,2374.896044
22006.805113,6217.729913,-10658.965565,6971.469032
22006.805446,370.102971,-6809.894666,2987.772442
22006.805779,2368.659014,-9104.533087,1915.238745
22006.806112,518.144159,-10362.883188,2374.896044
22006.806445,-2442.679609,-8290.306550,-6358.592633
22006.806779,-1776.494261,-7994.224174,-2834.553343
22006.807112,-3701.029710,-9548.656652,-2145.067394
22006.807445,-1776.494261,-7402.059420,-2911.162892
22006.807778,-3256.906145,-6587.832884,-2451.505594
22006.808111,-3552.988522,-9548.656652,-1225.752797
22006.808444,1110.308913,-7846.182985,-1915.238745
22006.808777,-370.102971,-9548.656652,2451.505594
22006.809110,5329.482782,-9474.636058,5439.278036
22006.809443,3478.967927,-8660.409521,2604.724693
22006.809776,3849.070898,-10066.800811,3907.087040
22006.810109,740.205942,-9474.636058,1838.629195
22006.810442,2072.576638,-9178.553681,-76.609550
22006.810775,-2368.659014,-10955.047942,-2757.943793
22006.811108,1702.473667,-13027.624579,-76.609550
22006.811441,-1850.514855,-6587.832884,-2451.505594
22006.811774,-3552.988522,-9474.636058,0.000000
22006.812107,-2368.659014,-5847.626942,2374.896044
22006.812440,-6365.771101,-9844.739029,-2298.286494
22006.812773,1406.391290,-8142.265362,2298.286494
22006.813106,-2960.823768,-11769.274478,1685.410096
22006.813439,2294.638420,-7550.100608,1838.629195
22006.813772,-2738.761985,-10066.800811,1455.581446
22006.814106,2886.803174,-7994.224174,-689.485948
22006.814439,0.000000,-6587.832884,2451.505594
22006.814772,1998.556043,-8882.471304,-2221.676944
22006.815105,1332.370696,-8882.471304,-842.705048
22006.815438,-2368.659014,-9918.759623,-76.609550
22006.815771,2886.803174,-9770.718434,-1685.410096
22006.816104,-1702.473667,-11399.171507,1915.238745
22006.816437,3552.988522,-10140.821405,3370.820191
22006.816770,1554.432478,-2812.782580,3217.601092
22006.817104,4219.173869,-10658.965565,-76.609550
22006.817437,2368.659014,-7772.162391,2145.067394
22006.817770,1702.473667,-13027.624579,2374.896044
22006.818103,5551.544565,-6513.812290,-1838.629195
22006.818436,2294.638420,-13027.624579,2068.457845
22006.818769,888.247130,-9326.594869,-2681.334243
22006.819102,0.000000,-9252.574275,-2987.772442
22006.819435,-666.185348,-10362.883188,-842.705048
22006.819768,2368.659014,-6587.832884,0.000000
22006.820102,-370.102971,-8882.471304,153.219100
22006.820435,3182.885551,-9326.594869,1378.971896
22006.820768,-1332.370696,-11473.192101,3217.601092
22006.821101,2072.576638,-7179.997637,1072.533697
22006.821434,0.000000,-8512.368333,459.657299
22006.821767,3478.967927,-8882.471304,2374.896044
22006.822100,-1258.350101,-8660.409521,-3064.381992
22006.822433,1332.370696,-7994.224174,-76.609550
22006.822766,-74.020594,-12435.459826,-76.609550
22006.823100,0.000000,-7179.997637,-2145.067394
22006.823433,-1332.370696,-7846.182985,-1149.143247
22006.823766,-3256.906145,-8956.491898,-2757.943793
22006.824099,-222.061783,-11621.233289,-536.266849
22006.824432,0.000000,-11473.192101,1532.190996
22006.824765,5847.626942,-8882.471304,3907.087040
22006.825098,0.000000,-9548.656652,1838.629195
22006.825431,-592.164754,-13027.624579,4519.963438
22006.825764,-370.102971,-3256.906145,-2681.334243
22006.826098,0.000000,-9696.697840,2298.286494
22006.826431,-2368.659014,-9030.512492,1149.143247
22006.826764,-3923.091493,-7254.018232,-2374.896044
22006.827097,-7994.224174,-11399.171507,-3447.429741
22006.827430,-666.185348,-8882.471304,1149.143247
22006.827763,-3627.009116,-7698.141797,-5439.278036
22006.828096,-3552.988522,-9104.533087,2374.896044
22006.828429,-3552.988522,-8956.491898,1378.971896
22006.828763,814.226536,-10066.800811,2068.457845
22006.829096,4663.297435,-10510.924376,6052.154434
22006.829429,1184.329507,-9844.739029,4366.744339
22006.829762,5551.544565,-6661.853478,3217.601092
22006.830095,-1554.432478,-13027.624579,2987.772442
22006.830428,4589.276840,-3256.906145,-383.047749
22006.830761,-2960.823768,-9548.656652,-4290.134789
22006.831094,2664.741391,-8290.306550,-4979.620737
22006.831427,-370.102971,-11843.295072,-3907.087040
22006.831761,1406.391290,-6291.750507,-6128.763984
22006.832094,1998.556043,-13619.789333,-76.609550
22006.832427,592.164754,-11325.150913,-766.095498
22006.832760,4663.297435,-11843.295072,4673.182538
22006.833093,5403.503377,-8586.388927,7737.564530
22006.833426,6735.874072,-5625.565159,4519.963438
22006.833759,3182.885551,-8068.244768,5132.839837
22006.834092,6069.688724,-5551.544565,2145.067394
22006.834425,-2368.659014,-10732.986159,-1225.752797
22006.834759,2368.659014,-7179.997637,-3064.381992
22006.835092,-1258.350101,-13323.706956,-2528.115143
22006.835425,-74.020594,-8290.306550,-5822.325785
22006.835758,-1480.411884,-9548.656652,-4290.134789
22006.836091,-2072.576638,-8068.244768,-2834.553343
22006.836424,3552.988522,-9548.656652,1225.752797
22006.836757,592.164754,-10658.965565,3294.210641
22006.837090,6735.874072,-7105.977043,3830.477490
22006.837423,740.205942,-10658.965565,2987.772442
22006.837757,5699.585753,-11251.130318,3600.648841
22006.838090,296.082377,-11029.068536,2681.334243
22006.838423,4071.132681,-7179.997637,2451.505594
22006.838756,-1480.411884,-8068.244768,-76.609550
22006.839089,-2442.679609,-9474.636058,-1915.238745
22006.839422,-5403.503377,-7031.956449,-6818.249932
22006.839755,-4663.297435,-11695.253884,-4979.620737
22006.840088,-4145.153275,-9400.615463,0.000000
22006.840421,-4811.338623,-7846.182985,-2145.067394
22006.840755,-1702.473667,-10066.800811,3907.087040
22006.841088,-592.164754,-8216.285956,6052.154434
22006.841421,296.082377,-7179.997637,2451.505594
22006.841754,-148.041188,-10658.965565,4826.401637
22006.842087,814.226536,-7254.018232,306.438199
22006.842420,-4145.153275,-7179.997637,0.000000
22006.842753,-74.020594,-9918.759623,-153.219100
22006.843086,-1332.370696,-7772.162391,-2221.676944
22006.843419,-5403.503377,-12139.377449,-2528.115143
22006.843753,-1332.370696,-6291.750507,-1532.190996
22006.844086,-1258.350101,-9474.636058,-76.609550
22006.844419,0.000000,-8364.327145,1685.410096
22006.844752,2294.638420,-9474.636058,-76.609550
22006.845085,0.000000,-9548.656652,1225.752797
22006.845418,5107.421000,-8290.306550,1302.362347
22006.845751,1036.288319,-15766.386565,766.095498
22006.846084,2146.597232,-10658.965565,3907.087040
22006.846417,3627.009116,-5107.421000,4213.525239
22006.846751,1850.514855,-9844.739029,919.314598
22006.847084,3552.988522,-3627.009116,1532.190996
22006.847417,-74.020594,-7105.977043,-3907.087040
22006.847750,592.164754,-6143.709319,-2298.286494
22006.848083,-4737.318029,-10732.986159,-2528.115143
22006.848416,-1850.514855,-15396.283594,-3753.867940
22006.848749,0.000000,-9548.656652,153.219100
22006.849082,74.020594,-11769.274478,536.266849
22006.849415,5625.565159,-8142.265362,3140.991542
22006.849749,7105.977043,-9178.553681,7814.174080
22006.850082,7105.977043,-6587.832884,6128.763984
22006.850415,3923.091493,-7402.059420,2221.676944
22006.850748,2812.782580,-8068.244768,153.219100
22006.851081,-1036.288319,-10584.944971,-4443.353888
22006.851414,4663.297435,-8882.471304,-3753.867940
22006.851747,-2368.659014,-15470.304188,0.000000
22006.852080,1332.370696,-9474.636058,4826.401637
22006.852413,-666.185348,-8882.471304,-3447.429741
22006.852747,-2960.823768,-7772.162391,0.000000
22006.853080,2294.638420,-8290.306550,-76.609550
22006.853413,-1776.494261,-10288.862594,2451.505594
22006.853746,1850.514855,-9326.594869,3677.258390
22006.854079,-740.205942,-8586.388927,1608.800546
22006.854412,-1184.329507,-8364.327145,1838.629195
22006.854745,0.000000,-4811.338623,1225.752797
22006.855078,-666.185348,-9474.636058,-1608.800546
22006.855411,-4145.153275,-5995.668130,-4903.011187
22006.855745,-5625.565159,-11103.089130,-2834.553343
22006.856078,-2368.659014,-6809.894666,-2834.553343
22006.856411,-3182.885551,-9992.780217,766.095498
22006.856744,2664.741391,-8734.430116,3600.648841
22006.857077,592.164754,-8586.388927,5822.325785
22006.857410,2442.679609,-9400.615463,4903.011187
22006.857743,-1184.329507,-9844.739029,4749.792088
22006.858076,-74.020594,-10066.800811,-995.924147
22006.858410,0.000000,-8956.491898,2451.505594
22006.858743,-74.020594,-9474.636058,-76.609550
22006.859076,-2368.659014,-7328.038826,-3677.258390
22006.859409,-5995.668130,-10066.800811,-4979.620737
22006.859742,-2442.679609,-7031.956449,-3907.087040
22006.860075,-3627.009116,-9474.636058,-2834.553343
22006.860408,-74.020594,-7994.224174,-689.485948
22006.860741,0.000000,-12509.480420,6665.030833
22006.861074,3923.091493,-7179.997637,5132.839837
22006.861408,4737.318029,-370.102971,5209.449386
22006.861741,2886.803174,-15470.304188,3677.258390
22006.862074,5847.626942,-1480.411884,-76.609550
22006.862407,-1998.556043,-13545.768739,-2451.505594
22006.862740,-2442.679609,-24796.899057,-1378.971896
22006.863073,1406.391290,-10955.047942,-1149.143247
22006.863406,3552.988522,7031.956449,-4136.915689
22006.863739,3478.967927,-4145.153275,-76.609550
22006.864072,-5921.647536,-11917.315666,-306.438199
22006.864406,-3552.988522,-13101.645173,3064.381992
22006.864739,-666.185348,-11843.295072,-1302.362347
22006.865072,4663.297435,-14211.954086,-76.609550
22006.865405,3627.009116,-8956.491898,-1302.362347
22006.865738,11103.089130,-7476.080014,-1915.238745
22006.866071,7550.100608,-12731.542202,5439.278036
22006.866404,4737.318029,-2738.761985,4903.011187
22006.866737,2738.761985,-9474.636058,229.828649
22006.867070,518.144159,-9474.636058,2604.724693
22006.867404,-74.020594,-4663.297435,-383.047749
22006.867737,-2442.679609,-3627.009116,229.828649
22006.868070,-2220.617826,-1850.514855,0.000000
22006.868403,-2146.597232,-6513.812290,-76.609550
22006.868736,-74.020594,-14211.954086,1838.629195
22006.869069,592.164754,-12805.562797,5362.668486
22006.869402,-74.020594,-16580.613101,1762.019645
22006.869735,-3330.926739,-11917.315666,-2757.943793
22006.870068,2072.576638,-13323.706956,842.705048
22006.870402,0.000000,-11399.171507,-306.438199
22006.870735,2368.659014,-7994.224174,-2298.286494
22006.871068,-1776.494261,-11325.150913,0.000000
22006.871401,-74.020594,-8882.471304,-3140.991542
22006.871734,-1776.494261,-7179.997637,-2451.505594
22006.872067,-962.267725,-10658.965565,-383.047749
22006.872400,1110.308913,-4737.318029,-5286.058936
22006.872733,-4737.318029,-12509.480420,-153.219100
22006.873066,2960.823768,-9474.636058,0.000000
22006.873400,1036.288319,-11399.171507,536.266849
22006.873733,-518.144159,-10807.006753,0.000000
22006.874066,1998.556043,-11843.295072,-76.609550
22006.874399,-74.020594,-11843.295072,-689.485948
22006.874732,0.000000,-3775.050304,3677.258390
22006.875065,-2368.659014,-5995.668130,2068.457845
22006.875398,-74.020594,-4145.153275,-995.924147
22006.875731,-4885.359217,-8882.471304,-689.485948
22006.876064,-2664.741391,-5107.421000,-1455.581446
22006.876398,-5403.503377,-8586.388927,-1762.019645
22006.876731,-2442.679609,-13471.748144,1149.143247
22006.877064,1036.288319,-8290.306550,2604.724693
22006.877397,0.000000,-10140.821405,2451.505594
22006.877730,7031.956449,-11251.130318,3600.648841
22006.878063,5107.421000,-8660.409521,4903.011187
22006.878396,4737.318029,-7179.997637,6128.763984
22006.878729,6439.791695,-7105.977043,4826.401637
22006.879062,444.123565,-8364.327145,-76.609550
22006.879396,370.102971,-6957.935855,-1915.238745
22006.879729,-1924.535449,-7402.059420,-4060.306139
22006.880062,370.102971,-8734.430116,-995.924147
22006.880395,-3182.885551,-9474.636058,-842.705048
22006.880728,-1258.350101,-7254.018232,-2145.067394
22006.881061,370.102971,-10362.883188,842.705048
22006.881394,4145.153275,-13101.645173,3677.258390
22006.881727,6143.709319,-13767.830521,7890.783629
22006.882060,3330.926739,-8956.491898,2451.505594
22006.882394,3627.009116,-10288.862594,2451.505594
22006.882727,3478.967927,-11843.295072,-76.609550
22006.883060,740.205942,-7772.162391,-3064.381992
22006.883393,1036.288319,-8512.368333,-2451.505594
22006.883726,-962.267725,-9844.739029,-5515.887586
22006.884059,-1184.329507,-8956.491898,-3294.210641
22006.884392,-3775.050304,-11843.295072,-2528.115143
22006.884725,-2368.659014,-8364.327145,-1225.752797
22006.885058,-1258.350101,-9548.656652,0.000000
22006.885392,2664.741391,-9252.574275,4136.915689
22006.885725,3552.988522,-7179.997637,7507.735880
22006.886058,3478.967927,-6513.812290,3294.210641
22006.886391,2442.679609,-7772.162391,689.485948
22006.886724,-1554.432478,-9696.697840,-1915.238745
22006.887057,0.000000,-8512.368333,-2834.553343
22006.887390,-5995.668130,-12879.583391,-5056.230287
22006.887723,-74.020594,-10214.842000,-689.485948
22006.888057,-4145.153275,-7179.997637,-3677.258390
22006.888390,-1184.329507,-9030.512492,1762.019645
22006.888723,-666.185348,-5921.647536,1225.752797
22006.889056,0.000000,-7476.080014,1225.752797
22006.889389,2886.803174,-10658.965565,7890.783629
22006.889722,1036.288319,-7105.977043,8427.050478
22006.890055,3108.864956,-6809.894666,5439.278036
22006.890388,1480.411884,-7994.224174,6128.763984
22006.890721,-666.185348,-7698.141797,842.705048
22006.891055,-2368.659014,-8660.409521,-76.609550
22006.891388,-3627.009116,-13027.624579,-2528.115143
22006.891721,-4811.338623,-8068.244768,-7354.516781
22006.892054,-5625.565159,-13101.645173,-1378.971896
22006.892387,-1702.473667,-5995.668130,-3064.381992
22006.892720,-2368.659014,-8068.244768,-612.876398
22006.893053,1924.535449,-7402.059420,1608.800546
22006.893386,3849.070898,-9622.677246,4979.620737
22006.893719,2368.659014,-9548.656652,2451.505594
22006.894053,7105.977043,-11843.295072,6052.154434
22006.894386,1110.308913,-11769.274478,3677.258390
22006.894719,0.000000,-5995.668130,2451.505594
22006.895052,1480.411884,-11399.171507,-1762.019645
22006.895385,-1776.494261,-10732.986159,-4903.011187
22006.895718,-1924.535449,-10288.862594,-4826.401637
22006.896051,-2294.638420,-11621.233289,-4136.915689
22006.896384,1850.514855,-8068.244768,-76.609550
22006.896717,-3627.009116,-6587.832884,-3677.258390
22006.897051,6365.771101,-9178.553681,2068.457845
22006.897384,1998.556043,-10807.006753,4979.620737
22006.897717,4071.132681,-6291.750507,2068.457845
22006.898050,3478.967927,-12435.459826,3600.648841
22006.898383,1110.308913,-8956.491898,612.876398
22006.898716,2146.597232,-9474.636058,1149.143247
22006.899049,-74.020594,-7328.038826,-1532.190996
22006.899382,592.164754,-7179.997637,-1532.190996
22006.899715,-4737.318029,-10140.821405,-153.219100
22006.900049,-814.226536,-6735.874072,-919.314598
22006.900382,-2442.679609,-5921.647536,-3064.381992
22006.900715,-814.226536,-9918.759623,-1685.410096
22006.901048,1998.556043,-9474.636058,2528.115143
22006.901381,4071.132681,-7328.038826,1838.629195
22006.901714,6587.832884,-11251.130318,4213.525239
22006.902047,2294.638420,-14211.954086,3600.648841
22006.902380,2886.803174,-8438.347739,2451.505594
22006.902713,2294.638420,-11843.295072,4213.525239
22006.903047,518.144159,-8216.285956,-1608.800546
22006.903380,-2368.659014,-7846.182985,-1225.752797
22006.903713,-3330.926739,-7179.997637,-1838.629195
22006.904046,0.000000,-4811.338623,-229.828649
22006.904379,-5995.668130,-7476.080014,-3677.258390
22006.904712,-1554.432478,-10658.965565,-2068.457845
22006.905045,-1924.535449,-10140.821405,0.000000
22006.905378,-1406.391290,-10140.821405,1225.752797
22006.905711,1184.329507,-7772.162391,1838.629195
22006.906045,-1258.350101,-12731.542202,0.000000
22006.906378,3256.906145,-8956.491898,3677.258390
22006.906711,-740.205942,-8438.347739,2145.067394
22006.907044,4071.132681,-8290.306550,2374.896044
22006.907377,-3552.988522,-7179.997637,1378.971896
22006.907710,-4811.338623,-11843.295072,-1915.238745
22006.908043,-1184.329507,-3627.009116,0.000000
22006.908376,-2738.761985,-9030.512492,-76.609550
22006.908709,740.205942,-9474.636058,-1838.629195
22006.909043,-1850.514855,-11621.233289,919.314598
22006.909376,1258.350101,-10214.842000,-1072.533697
22006.909709,1332.370696,-10955.047942,919.314598
22006.910042,518.144159,-10066.800811,-229.828649
22006.910375,7105.977043,-11251.130318,3600.648841
22006.910708,1184.329507,-9548.656652,3677.258390
22006.911041,5033.400406,-8216.285956,4826.401637
22006.911374,-2442.679609,-7179.997637,-3064.381992
22006.911707,1184.329507,-7179.997637,-2451.505594
22006.912041,1406.391290,-9918.759623,-76.609550
22006.912374,74.020594,-9030.512492,1378.971896
22006.912707,1776.494261,-5107.421000,-1762.019645
22006.913040,-3108.864956,-11473.192101,-1225.752797
22006.913373,2072.576638,-8882.471304,459.657299
22006.913706,1850.514855,-8068.244768,2145.067394
22006.914039,2442.679609,-9400.615463,2451.505594
22006.914372,3552.988522,-8882.471304,612.876398
22006.914706,-74.020594,-10658.965565,-383.047749
22006.915039,3552.988522,-8438.347739,1225.752797
22006.915372,2294.638420,-11251.130318,-2221.676944
22006.915705,0.000000,-9548.656652,-459.657299
22006.916038,296.082377,-11917.315666,-1225.752797
22006.916371,-370.102971,-7994.224174,-2451.505594
22006.916704,0.000000,-7105.977043,-1532.190996
22006.917037,0.000000,-9548.656652,1838.629195
22006.917371,7031.956449,-6809.894666,4519.963438
22006.917704,1776.494261,-10732.986159,4903.011187
22006.918037,1184.329507,-7179.997637,1838.629195
22006.918370,2294.638420,-11251.130318,3600.648841
22006.918703,-666.185348,-9548.656652,-2451.505594
22006.919036,1406.391290,-9474.636058,1762.019645
22006.919369,-2812.782580,-7772.162391,-2451.505594
22006.919702,-2442.679609,-9770.718434,-2681.334243
22006.920036,-4663.297435,-8438.347739,-4826.401637
22006.920369,-5329.482782,-10510.924376,-4673.182538
22006.920702,-2368.659014,-10658.965565,995.924147
22006.921035,3478.967927,-9474.636058,2068.457845
22006.921368,0.000000,-8364.327145,9193.145976
22006.921701,4663.297435,-7105.977043,7277.907231
22006.922034,2294.638420,-4515.256246,3064.381992
22006.922367,888.247130,-10658.965565,2834.553343
22006.922701,2072.576638,-9548.656652,1838.629195
22006.923034,-1110.308913,-9326.594869,-1149.143247
22006.923367,-2368.659014,-12213.398043,-4060.306139
22006.923700,-3627.009116,-10066.800811,-4979.620737
22006.924033,-2368.659014,-5995.668130,-7967.393179
22006.924366,0.000000,-9696.697840,2068.457845
22006.924699,-74.020594,-8290.306550,1455.581446
22006.925032,0.000000,-2442.679609,0.000000
22006.925366,-296.082377,-12731.542202,3600.648841
22006.925699,4145.153275,-9548.656652,3983.696590
22006.926032,2146.597232,-10732.986159,5515.887586
22006.926365,4959.379811,-7402.059420,4290.134789
22006.926698,1998.556043,-11843.295072,2374.896044
22006.927031,-1184.329507,-8068.244768,-383.047749
22006.927364,-592.164754,-6735.874072,-3830.477490
22006.927697,-3182.885551,-8364.327145,-2374.896044
22006.928031,-2368.659014,-7476.080014,-2451.505594
22006.928364,-3552.988522,-5995.668130,-4903.011187
22006.928697,-74.020594,-11251.130318,-4366.744339
22006.929030,-1776.494261,-7179.997637,-4903.011187
22006.929363,2516.700203,-12583.501014,2987.772442
22006.929696,5921.647536,-9548.656652,4903.011187
22006.930029,3552.988522,-14211.954086,5975.544884
22006.930362,4367.215058,-9326.594869,4060.306139
22006.930696,4811.338623,-8068.244768,2528.115143
22006.931029,1702.473667,-10658.965565,2987.772442
