#time,accel_x,accel_y,accel_z
21208.333108,148.041188,-8364.327145,-4903.011187
21208.333442,3108.864956,-11843.295072,-3447.429741
21208.333776,2886.803174,-8956.491898,-3370.820191
21208.334109,7476.080014,-10362.883188,1072.533697
21208.334443,10436.903782,-8290.306550,4366.744339
21208.334777,11917.315666,-7920.203579,5745.716235
21208.335111,13545.768739,-9178.553681,6665.030833
21208.335444,15322.262999,-10658.965565,7277.907231
21208.335778,10362.883188,-5995.668130,1838.629195
21208.336112,11843.295072,-9178.553681,2298.286494
21208.336445,9400.615463,-10362.883188,-3447.429741
21208.336779,6217.729913,-11325.150913,-2604.724693
21208.337113,3923.091493,-11177.109724,-5209.449386
21208.337447,2220.617826,-12509.480420,-5132.839837
21208.337780,1850.514855,-12213.398043,-2987.772442
21208.338114,2294.638420,-9474.636058,536.266849
21208.338448,7624.121203,-8290.306550,6052.154434
21208.338781,8142.265362,-3034.844362,7967.393179
21208.339115,10658.965565,-4811.338623,10265.679673
21208.339449,12953.603985,-7105.977043,8503.660028
21208.339783,10436.903782,-6809.894666,4519.963438
21208.340116,9474.636058,-6217.729913,-383.047749
21208.340450,6513.812290,-8660.409521,-4903.011187
21208.340784,5107.421000,-11251.130318,-8350.440928
21208.341117,2960.823768,-11325.150913,-9193.145976
21208.341451,3478.967927,-12065.356855,-8580.269578
21208.341785,5329.482782,-13101.645173,-6128.763984
21208.342119,8808.450710,-14211.954086,-76.609550
21208.342452,8512.368333,-9844.739029,3064.381992
21208.342786,12213.398043,-9474.636058,7584.345430
21208.343120,13619.789333,-5699.585753,8963.317327
21208.343453,15026.180623,-5329.482782,9729.412825
21208.343787,14137.933492,-5329.482782,7814.174080
21208.344121,12435.459826,-6587.832884,4903.011187
21208.344454,7105.977043,-8364.327145,-1838.629195
21208.344788,4367.215058,-11029.068536,-6281.983084
21208.345122,814.226536,-11843.295072,-8503.660028
21208.345456,-518.144159,-12213.398043,-8197.221829
21208.345789,0.000000,-9696.697840,-6128.763984
21208.346123,7624.121203,-11843.295072,-76.609550
21208.346457,10584.944971,-7328.038826,3677.258390
21208.346790,12731.542202,-5995.668130,6128.763984
21208.347124,16506.592507,-7105.977043,8503.660028
21208.347458,13027.624579,-5699.585753,5056.230287
21208.347792,12805.562797,-7105.977043,2528.115143
21208.348125,11029.068536,-8068.244768,-1378.971896
21208.348459,7105.977043,-11399.171507,-4749.792088
21208.348793,4737.318029,-13693.809927,-5515.887586
21208.349126,3775.050304,-10732.986159,-6052.154434
21208.349460,8216.285956,-8956.491898,-2145.067394
21208.349794,11843.295072,-8734.430116,4826.401637
21208.350128,14137.933492,-6513.812290,3600.648841
21208.350461,15840.407159,-7846.182985,7584.345430
21208.350795,13249.686362,-7179.997637,2987.772442
21208.351129,11991.336260,-10436.903782,1608.800546
21208.351462,7402.059420,-10140.821405,-306.438199
21208.351796,4367.215058,-13027.624579,-3140.991542
21208.352130,1998.556043,-8364.327145,-6128.763984
21208.352464,3108.864956,-10658.965565,-4290.134789
21208.352797,7105.977043,-9400.615463,3600.648841
21208.353131,4737.318029,-5403.503377,3064.381992
21208.353465,6439.791695,-5773.606348,689.485948
21208.353798,3108.864956,-11177.109724,1149.143247
21208.354132,5255.462188,-9252.574275,612.876398
21208.354466,6809.894666,-9548.656652,3753.867940
21208.354800,7772.162391,-5625.565159,76.609550
21208.355133,4737.318029,-7772.162391,0.000000
21208.355467,6291.750507,-10214.842000,-76.609550
21208.355801,7031.956449,-13027.624579,-76.609550
21208.356134,666.185348,-9844.739029,-3677.258390
21208.356468,962.267725,-11843.295072,-2834.553343
21208.356802,-1110.308913,-10955.047942,-842.705048
21208.357136,2960.823768,-6291.750507,1838.629195
21208.357469,6069.688724,-5847.626942,3753.867940
21208.357803,7920.203579,-5921.647536,3447.429741
21208.358137,6957.935855,-9548.656652,3753.867940
21208.358470,4737.318029,-10288.862594,3294.210641
21208.358804,3552.988522,-8660.409521,612.876398
21208.359138,5329.482782,-10288.862594,1072.533697
21208.359472,5329.482782,-9918.759623,-76.609550
21208.359805,2960.823768,-5403.503377,-2451.505594
21208.360139,592.164754,-9548.656652,-2834.553343
21208.360473,-666.185348,-14211.954086,-4366.744339
21208.360806,-3256.906145,-11917.315666,-3677.258390
21208.361140,-444.123565,-9770.718434,-306.438199
21208.361474,3997.112087,-7402.059420,3294.210641
21208.361807,3775.050304,-7105.977043,3983.696590
21208.362141,5847.626942,-7105.977043,4826.401637
21208.362475,6735.874072,-11251.130318,8197.221829
21208.362809,592.164754,-8364.327145,2451.505594
21208.363142,1776.494261,-10955.047942,1838.629195
21208.363476,2590.720797,-10288.862594,-76.609550
21208.363810,1110.308913,-8882.471304,-3753.867940
21208.364143,148.041188,-8512.368333,-4673.182538
21208.364477,-2664.741391,-11029.068536,-3983.696590
21208.364811,-3256.906145,-12583.501014,-995.924147
21208.365145,-4737.318029,-8660.409521,0.000000
21208.365478,814.226536,-10066.800811,842.705048
21208.365812,-2368.659014,-5995.668130,2451.505594
21208.366146,3552.988522,-5329.482782,4213.525239
21208.366479,4367.215058,-8882.471304,4826.401637
21208.366813,3182.885551,-5773.606348,3830.477490
21208.367147,5773.606348,-7846.182985,3524.039291
21208.367481,5551.544565,-9400.615463,2911.162892
21208.367814,5329.482782,-7105.977043,-1608.800546
21208.368148,0.000000,-13619.789333,-4903.011187
21208.368482,-1258.350101,-12139.377449,-8733.488677
21208.368815,-4145.153275,-13175.665768,-6128.763984
21208.369149,-962.267725,-13619.789333,-1915.238745
21208.369483,74.020594,-7476.080014,306.438199
21208.369817,-2960.823768,-7179.997637,1838.629195
21208.370150,1332.370696,-7994.224174,4213.525239
21208.370484,1480.411884,-10066.800811,7431.126331
21208.370818,4885.359217,-4737.318029,7431.126331
21208.371151,6143.709319,-8290.306550,7277.907231
21208.371485,4145.153275,-5403.503377,4903.011187
21208.371819,1702.473667,-9474.636058,-1302.362347
21208.372153,-1406.391290,-8290.306550,-6511.811733
21208.372486,-5921.647536,-12509.480420,-5822.325785
21208.372820,-5921.647536,-11917.315666,-6971.469032
21208.373154,-1628.453072,-11251.130318,-2528.115143
21208.373487,-4589.276840,-10881.027347,-1991.848295
21208.373821,-3552.988522,-9548.656652,-2298.286494
21208.374155,-3627.009116,-12731.542202,2374.896044
21208.374489,0.000000,-8956.491898,6128.763984
21208.374822,4885.359217,-3923.091493,9422.974625
21208.375156,6513.812290,-5477.523971,9959.241474
21208.375490,4293.194464,-6291.750507,5515.887586
21208.375823,2294.638420,-7105.977043,-76.609550
21208.376157,-1184.329507,-10140.821405,-3064.381992
21208.376491,-5921.647536,-10140.821405,-3677.258390
21208.376824,-1258.350101,-11251.130318,-6818.249932
21208.377158,-5329.482782,-11473.192101,-5975.544884
21208.377492,-5921.647536,-12361.439231,-4979.620737
21208.377826,-5107.421000,-11325.150913,-2911.162892
21208.378159,-1480.411884,-10510.924376,1608.800546
21208.378493,2590.720797,-8512.368333,6358.592633
21208.378827,4663.297435,-5921.647536,9116.536426
21208.379160,6439.791695,-1850.514855,6435.202183
21208.379494,7031.956449,-8290.306550,7890.783629
21208.379828,5847.626942,-7105.977043,1608.800546
21208.380162,296.082377,-6587.832884,0.000000
21208.380495,-74.020594,-10362.883188,-4979.620737
21208.380829,-962.267725,-9696.697840,-5669.106685
21208.381163,-4737.318029,-12435.459826,-7124.688131
21208.381496,-4219.173869,-11399.171507,-7354.516781
21208.381830,-4737.318029,-13101.645173,-4903.011187
21208.382164,-4441.235652,-9548.656652,1225.752797
21208.382498,5403.503377,-8882.471304,7277.907231
21208.382831,7031.956449,-7105.977043,7890.783629
21208.383165,4367.215058,-5995.668130,3983.696590
21208.383499,1702.473667,-8660.409521,1225.752797
21208.383832,3478.967927,-9400.615463,1762.019645
21208.384166,3034.844362,-9178.553681,3753.867940
21208.384500,4885.359217,-7846.182985,2451.505594
21208.384834,2886.803174,-8290.306550,-306.438199
21208.385167,-3256.906145,-11843.295072,-3753.867940
21208.385501,-1850.514855,-11843.295072,-7431.126331
21208.385835,-5921.647536,-11917.315666,-4903.011187
21208.386168,0.000000,-10732.986159,1149.143247
21208.386502,2886.803174,-8734.430116,2451.505594
21208.386836,3182.885551,-7476.080014,3907.087040
21208.387170,592.164754,-7476.080014,1532.190996
21208.387503,1258.350101,-9104.533087,3524.039291
21208.387837,2664.741391,-7920.203579,4290.134789
21208.388171,3849.070898,-5773.606348,4060.306139
21208.388504,3627.009116,-7254.018232,1455.581446
21208.388838,-1776.494261,-8142.265362,-2911.162892
21208.389172,-3923.091493,-11251.130318,-4519.963438
21208.389506,-4145.153275,-10658.965565,-4366.744339
21208.389839,-4145.153275,-10732.986159,-2451.505594
21208.390173,1110.308913,-10658.965565,-76.609550
21208.390507,1110.308913,-11547.212695,229.828649
21208.390840,-74.020594,-9178.553681,-76.609550
21208.391174,-74.020594,-11843.295072,1762.019645
21208.391508,296.082377,-9992.780217,4213.525239
21208.391842,3182.885551,-6069.688724,5439.278036
21208.392175,2368.659014,-7254.018232,5439.278036
21208.392509,1702.473667,-8290.306550,2987.772442
21208.392843,-5921.647536,-6291.750507,-1072.533697
21208.393176,-2738.761985,-11547.212695,-2528.115143
21208.393510,-3034.844362,-10658.965565,-4060.306139
21208.393844,-4737.318029,-9548.656652,-4290.134789
21208.394177,-1554.432478,-9178.553681,-1685.410096
21208.394511,-3034.844362,-10214.842000,-2987.772442
21208.394845,-592.164754,-8956.491898,-1225.752797
21208.395179,1702.473667,-10214.842000,1378.971896
21208.395512,5107.421000,-9770.718434,4213.525239
21208.395846,8142.265362,-9474.636058,10955.165621
21208.396180,7031.956449,-7105.977043,6052.154434
21208.396513,0.000000,-5995.668130,306.438199
21208.396847,-888.247130,-10288.862594,-1225.752797
21208.397181,-2294.638420,-9548.656652,-3064.381992
21208.397515,-666.185348,-7328.038826,-1991.848295
21208.397848,370.102971,-8364.327145,-1225.752797
21208.398182,-2442.679609,-9844.739029,-3217.601092
21208.398516,-2368.659014,-8364.327145,-4903.011187
21208.398849,-74.020594,-13915.871710,-76.609550
21208.399183,1110.308913,-10658.965565,1149.143247
21208.399517,1776.494261,-7179.997637,4903.011187
21208.399851,5847.626942,-9474.636058,7277.907231
21208.400184,3849.070898,-7179.997637,4826.401637
21208.400518,148.041188,-8808.450710,1072.533697
21208.400851,1258.350101,-8142.265362,-76.609550
21208.401185,-1628.453072,-9548.656652,-995.924147
21208.401518,1480.411884,-8512.368333,-76.609550
21208.401852,-74.020594,-9474.636058,-3447.429741
21208.402185,-4737.318029,-9548.656652,-4136.915689
21208.402518,-3552.988522,-10140.821405,306.438199
21208.402852,-74.020594,-11843.295072,-76.609550
21208.403185,1924.535449,-7772.162391,4136.915689
21208.403519,2368.659014,-8364.327145,5439.278036
21208.403852,3256.906145,-6809.894666,3140.991542
21208.404186,222.061783,-8290.306550,1149.143247
21208.404519,296.082377,-8660.409521,1915.238745
21208.404852,-1258.350101,-9104.533087,-2068.457845
21208.405186,-1184.329507,-8660.409521,-995.924147
21208.405519,-2368.659014,-7179.997637,-2145.067394
21208.405853,-3034.844362,-9474.636058,-4979.620737
21208.406186,-1628.453072,-12435.459826,-3140.991542
21208.406519,-1258.350101,-11917.315666,-1838.629195
21208.406853,0.000000,-7179.997637,4903.011187
21208.407186,6291.750507,-8882.471304,6665.030833
21208.407520,5847.626942,-9474.636058,6971.469032
21208.407853,3552.988522,-7624.121203,3907.087040
21208.408187,814.226536,-9992.780217,1072.533697
21208.408520,-74.020594,-10658.965565,-383.047749
21208.408853,-2960.823768,-9548.656652,-1838.629195
21208.409187,-3552.988522,-7179.997637,919.314598
21208.409520,-1258.350101,-5847.626942,-3064.381992
21208.409854,-4737.318029,-8364.327145,-4290.134789
21208.410187,-4145.153275,-10066.800811,-995.924147
21208.410520,-3552.988522,-8364.327145,-1225.752797
21208.410854,2368.659014,-7476.080014,4290.134789
21208.411187,4515.256246,-7994.224174,6358.592633
21208.411521,2294.638420,-7846.182985,2681.334243
21208.411854,-74.020594,-11251.130318,1149.143247
21208.412188,-2368.659014,-8956.491898,-76.609550
21208.412521,1702.473667,-9548.656652,-2451.505594
21208.412854,1184.329507,-8660.409521,2374.896044
21208.413188,1184.329507,-10140.821405,1149.143247
21208.413521,-2442.679609,-9474.636058,-3983.696590
21208.413855,-2886.803174,-10658.965565,-4213.525239
21208.414188,-1628.453072,-10955.047942,-689.485948
21208.414521,2738.761985,-7550.100608,2528.115143
21208.414855,5995.668130,-7254.018232,5975.544884
21208.415188,7031.956449,-9474.636058,6971.469032
21208.415522,1776.494261,-6587.832884,0.000000
21208.415855,3552.988522,-12139.377449,3294.210641
21208.416189,1110.308913,-8660.409521,-1225.752797
21208.416522,1258.350101,-10066.800811,-383.047749
21208.416855,-666.185348,-9104.533087,-1991.848295
21208.417189,-1554.432478,-9178.553681,-4366.744339
21208.417522,-4589.276840,-9696.697840,-5132.839837
21208.417856,-4145.153275,-11917.315666,-2451.505594
21208.418189,-74.020594,-9474.636058,-2834.553343
21208.418522,592.164754,-8956.491898,6281.983084
21208.418856,5921.647536,-8068.244768,12180.918418
21208.419189,2590.720797,-4811.338623,3677.258390
21208.419523,740.205942,-4885.359217,1225.752797
21208.419856,2368.659014,-8660.409521,995.924147
21208.420190,2960.823768,-8512.368333,1685.410096
21208.420523,2220.617826,-10066.800811,229.828649
21208.420856,-4737.318029,-10732.986159,-4903.011187
21208.421190,-5699.585753,-11251.130318,-9576.193725
21208.421523,-5847.626942,-12213.398043,-6128.763984
21208.421857,-3404.947333,-12139.377449,-1378.971896
21208.422190,-962.267725,-9474.636058,2451.505594
21208.422523,1184.329507,-5403.503377,4903.011187
21208.422857,4663.297435,-7105.977043,6665.030833
21208.423190,1998.556043,-3923.091493,3677.258390
21208.423524,2072.576638,-11547.212695,4213.525239
21208.423857,3478.967927,-8290.306550,1455.581446
21208.424191,0.000000,-7179.997637,0.000000
21208.424524,1110.308913,-8586.388927,-1455.581446
21208.424857,-3627.009116,-11843.295072,-4673.182538
21208.425191,-6439.791695,-11621.233289,-7048.078582
21208.425524,-3256.906145,-12435.459826,-2604.724693
21208.425858,-1258.350101,-11251.130318,-1915.238745
21208.426191,1184.329507,-7179.997637,1225.752797
21208.426524,3552.988522,-9104.533087,7277.907231
21208.426858,3775.050304,-6069.688724,4136.915689
21208.427191,3552.988522,-8512.368333,7277.907231
21208.427525,4737.318029,-7476.080014,4596.572988
21208.427858,4663.297435,-7994.224174,4213.525239
21208.428192,2368.659014,-7550.100608,536.266849
21208.428525,-74.020594,-9178.553681,-3753.867940
21208.428858,-3627.009116,-10362.883188,-9806.022374
21208.429192,-3849.070898,-13841.851115,-5286.058936
21208.429525,-2442.679609,-14211.954086,-76.609550
21208.429859,-74.020594,-7476.080014,-995.924147
21208.430192,2886.803174,-10658.965565,2987.772442
21208.430525,3108.864956,-8364.327145,4749.792088
21208.430859,3034.844362,-8142.265362,4826.401637
21208.431192,3627.009116,-7698.141797,4366.744339
21208.431526,1776.494261,-7179.997637,3140.991542
21208.431859,2960.823768,-6587.832884,2451.505594
21208.432193,4663.297435,-11251.130318,-76.609550
21208.432526,-3552.988522,-9548.656652,-2451.505594
21208.432859,-5625.565159,-11029.068536,-4596.572988
21208.433193,-2442.679609,-12435.459826,-3753.867940
21208.433526,-1480.411884,-9326.594869,-842.705048
21208.433860,-592.164754,-8882.471304,459.657299
21208.434193,0.000000,-9252.574275,689.485948
21208.434526,-1406.391290,-8660.409521,0.000000
21208.434860,888.247130,-9104.533087,2757.943793
21208.435193,3775.050304,-7772.162391,3294.210641
21208.435527,5921.647536,-6809.894666,4979.620737
21208.435860,4293.194464,-10881.027347,6052.154434
21208.436194,3478.967927,-7698.141797,1149.143247
21208.436527,-1554.432478,-9548.656652,-4903.011187
21208.436860,-2664.741391,-12879.583391,-2528.115143
21208.437194,-666.185348,-13027.624579,-2221.676944
21208.437527,-3256.906145,-9474.636058,-612.876398
21208.437861,814.226536,-9474.636058,766.095498
21208.438194,-2294.638420,-8512.368333,-76.609550
21208.438527,1184.329507,-8734.430116,1915.238745
21208.438861,1554.432478,-7994.224174,2681.334243
21208.439194,1184.329507,-8068.244768,4903.011187
21208.439528,1184.329507,-4811.338623,3064.381992
21208.439861,2812.782580,-10362.883188,4213.525239
21208.440195,-2294.638420,-9474.636058,-2528.115143
21208.440528,-3330.926739,-10066.800811,-4060.306139
21208.440861,-2146.597232,-12435.459826,-3447.429741
21208.441195,-222.061783,-8734.430116,-229.828649
21208.441528,-518.144159,-10066.800811,1608.800546
21208.441862,-1776.494261,-8882.471304,-76.609550
21208.442195,-1258.350101,-11843.295072,-76.609550
21208.442528,-2368.659014,-9548.656652,1225.752797
21208.442862,5255.462188,-7698.141797,4213.525239
21208.443195,4293.194464,-6291.750507,4903.011187
21208.443529,3552.988522,-7772.162391,3983.696590
21208.443862,1406.391290,-8216.285956,-1685.410096
21208.444196,-222.061783,-9918.759623,-2757.943793
21208.444529,740.205942,-11769.274478,-1378.971896
21208.444862,-814.226536,-11695.253884,-689.485948
21208.445196,518.144159,-6365.771101,-2374.896044
21208.445529,0.000000,-10658.965565,1762.019645
21208.445863,-74.020594,-11843.295072,-1915.238745
21208.446196,-1480.411884,-8364.327145,0.000000
21208.446529,1184.329507,-10807.006753,3677.258390
21208.446863,2368.659014,-6291.750507,2757.943793
21208.447196,1406.391290,-7772.162391,2911.162892
21208.447530,666.185348,-8586.388927,229.828649
21208.447863,518.144159,-8290.306550,-612.876398
21208.448197,-1776.494261,-8956.491898,0.000000
21208.448530,4663.297435,-11251.130318,-76.609550
21208.448863,1110.308913,-7254.018232,612.876398
21208.449197,0.000000,-7772.162391,0.000000
21208.449530,1184.329507,-9474.636058,-536.266849
21208.449864,-2664.741391,-11473.192101,-3677.258390
21208.450197,-74.020594,-11029.068536,-612.876398
21208.450530,1110.308913,-9326.594869,919.314598
21208.450864,2738.761985,-6809.894666,3140.991542
21208.451197,1332.370696,-5995.668130,2451.505594
21208.451531,1702.473667,-8882.471304,-459.657299
21208.451864,1702.473667,-10510.924376,536.266849
21208.452198,962.267725,-9548.656652,0.000000
21208.452531,4663.297435,-9474.636058,2374.896044
21208.452864,814.226536,-8956.491898,1532.190996
21208.453198,2294.638420,-9474.636058,-76.609550
21208.453531,-2442.679609,-9252.574275,-4903.011187
21208.453865,-1184.329507,-11325.150913,-1915.238745
21208.454198,-74.020594,-11399.171507,-76.609550
21208.454531,0.000000,-7328.038826,153.219100
21208.454865,1628.453072,-7994.224174,1302.362347
21208.455198,74.020594,-8660.409521,1532.190996
21208.455532,296.082377,-8364.327145,306.438199
21208.455865,-74.020594,-7772.162391,2451.505594
21208.456199,1702.473667,-9474.636058,2987.772442
21208.456532,1110.308913,-8290.306550,-76.609550
21208.456865,-2368.659014,-9548.656652,1532.190996
21208.457199,-3034.844362,-9474.636058,-3140.991542
21208.457532,-6513.812290,-11103.089130,-2681.334243
21208.457866,-2442.679609,-7179.997637,-3294.210641
21208.458199,-1110.308913,-9770.718434,766.095498
21208.458532,1776.494261,-6143.709319,1838.629195
21208.458866,0.000000,-9548.656652,3677.258390
21208.459199,-74.020594,-9474.636058,-2528.115143
21208.459533,-2368.659014,-10732.986159,-612.876398
21208.459866,-74.020594,-12139.377449,2987.772442
21208.460200,2368.659014,-5403.503377,1225.752797
21208.460533,2442.679609,-9474.636058,3600.648841
21208.460866,370.102971,-7846.182985,229.828649
21208.461200,-1628.453072,-9844.739029,-842.705048
21208.461533,-74.020594,-11251.130318,1149.143247
21208.461867,0.000000,-8364.327145,995.924147
21208.462200,-74.020594,-8290.306550,-689.485948
21208.462533,0.000000,-7179.997637,306.438199
21208.462867,-74.020594,-10362.883188,-2528.115143
21208.463200,-74.020594,-9474.636058,-1302.362347
21208.463534,370.102971,-11843.295072,-689.485948
21208.463867,3923.091493,-9400.615463,3294.210641
21208.464201,5551.544565,-7772.162391,3447.429741
21208.464534,1850.514855,-9548.656652,1685.410096
21208.464867,1998.556043,-9474.636058,-76.609550
21208.465201,-3404.947333,-10140.821405,-1225.752797
21208.465534,0.000000,-7179.997637,3447.429741
21208.465868,-74.020594,-7105.977043,-2145.067394
21208.466201,2812.782580,-5699.585753,612.876398
21208.466534,-1406.391290,-10658.965565,-2757.943793
21208.466868,0.000000,-8142.265362,-3447.429741
21208.467201,148.041188,-11399.171507,383.047749
21208.467535,0.000000,-9548.656652,0.000000
21208.467868,4663.297435,-9474.636058,3907.087040
21208.468202,1406.391290,-9400.615463,3064.381992
21208.468535,2368.659014,-7920.203579,1915.238745
21208.468868,-2664.741391,-10140.821405,-612.876398
21208.469202,-666.185348,-9770.718434,-995.924147
21208.469535,-1110.308913,-9030.512492,2374.896044
21208.469869,-74.020594,-7105.977043,0.000000
21208.470202,-2368.659014,-8512.368333,-76.609550
21208.470535,-3404.947333,-8882.471304,-3217.601092
21208.470869,-1850.514855,-8956.491898,-3370.820191
21208.471202,148.041188,-8734.430116,1608.800546
21208.471536,3701.029710,-8364.327145,3370.820191
21208.471869,4071.132681,-7994.224174,4826.401637
21208.472202,296.082377,-9548.656652,2451.505594
21208.472536,1702.473667,-9474.636058,-1915.238745
21208.472869,0.000000,-11917.315666,0.000000
21208.473203,1628.453072,-9474.636058,-76.609550
21208.473536,1702.473667,-9474.636058,1149.143247
21208.473870,-1776.494261,-5699.585753,-612.876398
21208.474203,-518.144159,-8808.450710,-4366.744339
21208.474536,-4293.194464,-11325.150913,-3753.867940
21208.474870,962.267725,-9548.656652,-306.438199
21208.475203,3849.070898,-9992.780217,5745.716235
21208.475537,8216.285956,-9474.636058,6052.154434
21208.475870,2960.823768,-7179.997637,5209.449386
21208.476203,2368.659014,-9696.697840,4060.306139
21208.476537,1702.473667,-9548.656652,0.000000
21208.476870,1184.329507,-12435.459826,2374.896044
21208.477204,962.267725,-9178.553681,-229.828649
21208.477537,-1554.432478,-9400.615463,-1225.752797
21208.477871,-814.226536,-8068.244768,-4060.306139
21208.478204,-3627.009116,-12731.542202,-3753.867940
21208.478537,-4293.194464,-8364.327145,-4596.572988
21208.478871,-2368.659014,-10140.821405,2757.943793
21208.479204,2146.597232,-5921.647536,4826.401637
21208.479538,4663.297435,-3923.091493,3064.381992
21208.479871,592.164754,-8808.450710,5439.278036
21208.480204,666.185348,-7179.997637,766.095498
21208.480538,444.123565,-10066.800811,919.314598
21208.480871,370.102971,-9474.636058,-536.266849
21208.481205,-814.226536,-8882.471304,-2834.553343
21208.481538,-3108.864956,-9992.780217,-3370.820191
21208.481872,-5773.606348,-11621.233289,-6894.859482
21208.482205,-4071.132681,-11843.295072,-4673.182538
21208.482538,-5921.647536,-11917.315666,-3370.820191
21208.482872,0.000000,-7476.080014,3217.601092
21208.483205,5847.626942,-5921.647536,5745.716235
21208.483539,2368.659014,-5107.421000,5132.839837
21208.483872,2368.659014,-6291.750507,5975.544884
21208.484205,1332.370696,-7179.997637,2145.067394
21208.484539,1924.535449,-10362.883188,4060.306139
21208.484872,1480.411884,-8364.327145,1762.019645
21208.485206,-1776.494261,-10362.883188,-1378.971896
21208.485539,-3034.844362,-11843.295072,-4979.620737
21208.485873,-6439.791695,-9548.656652,-7737.564530
21208.486206,-4219.173869,-12435.459826,-7048.078582
21208.486539,-2368.659014,-8956.491898,229.828649
21208.486873,1184.329507,-8068.244768,4903.011187
21208.487206,5033.400406,-7624.121203,7507.735880
21208.487540,1628.453072,-6587.832884,4903.011187
21208.487873,814.226536,-8734.430116,2757.943793
21208.488206,2960.823768,-7254.018232,3217.601092
21208.488540,2294.638420,-8142.265362,3600.648841
21208.488873,2368.659014,-5107.421000,842.705048
21208.489207,-1776.494261,-9548.656652,-4903.011187
21208.489540,-4737.318029,-12213.398043,-5745.716235
21208.489874,-2738.761985,-13767.830521,-4979.620737
21208.490207,-2886.803174,-10658.965565,-2834.553343
21208.490540,1702.473667,-9326.594869,-76.609550
21208.490874,1184.329507,-9474.636058,4060.306139
21208.491207,3849.070898,-5551.544565,4290.134789
21208.491541,1036.288319,-7624.121203,2911.162892
21208.491874,4663.297435,-9474.636058,5745.716235
21208.492207,592.164754,-7772.162391,4903.011187
21208.492541,1776.494261,-9252.574275,5439.278036
21208.492874,1702.473667,-6513.812290,-2681.334243
21208.493208,-7105.977043,-9548.656652,-6128.763984
21208.493541,-4367.215058,-8956.491898,-7354.516781
21208.493875,-3182.885551,-11473.192101,-2757.943793
21208.494208,-592.164754,-10288.862594,0.000000
21208.494541,296.082377,-8956.491898,3447.429741
21208.494875,2294.638420,-6957.935855,2987.772442
21208.495208,0.000000,-8364.327145,4519.963438
21208.495542,3478.967927,-8290.306550,2374.896044
21208.495875,1776.494261,-7179.997637,2451.505594
21208.496208,4737.318029,-5995.668130,4903.011187
21208.496542,4663.297435,-5699.585753,3677.258390
21208.496875,3108.864956,-6735.874072,-383.047749
21208.497209,-1036.288319,-10362.883188,-5745.716235
21208.497542,-2368.659014,-12139.377449,-4596.572988
21208.497876,1110.308913,-12435.459826,-4366.744339
21208.498209,3330.926739,-9326.594869,536.266849
21208.498542,4515.256246,-10658.965565,1685.410096
21208.498876,3701.029710,-8808.450710,1762.019645
21208.499209,4737.318029,-9992.780217,3677.258390
21208.499543,6439.791695,-8734.430116,2451.505594
21208.499876,7105.977043,-9474.636058,3677.258390
21208.500209,6957.935855,-11843.295072,4826.401637
21208.500543,2368.659014,-3627.009116,1838.629195
21208.500876,-4737.318029,-11917.315666,-612.876398
21208.501210,-2146.597232,-8660.409521,-3677.258390
21208.501543,-4737.318029,-12805.562797,-2298.286494
21208.501877,-2146.597232,-7476.080014,-1838.629195
21208.502210,-74.020594,-9474.636058,-76.609550
21208.502543,-1258.350101,-9474.636058,-3753.867940
21208.502877,-2960.823768,-10732.986159,1762.019645
21208.503210,-74.020594,-9474.636058,4826.401637
21208.503544,0.000000,-6291.750507,2757.943793
21208.503877,2294.638420,-6957.935855,6971.469032
21208.504210,2960.823768,-6291.750507,3140.991542
21208.504544,-5625.565159,-10732.986159,-689.485948
21208.504877,-3108.864956,-7772.162391,-5515.887586
21208.505210,-8808.450710,-13693.809927,-4903.011187
21208.505543,-3034.844362,-8290.306550,-6741.640382
21208.505876,-666.185348,-8734.430116,-995.924147
21208.506210,-1850.514855,-11547.212695,-76.609550
21208.506543,-74.020594,-6809.894666,-3294.210641
21208.506876,-4737.318029,-9548.656652,1302.362347
21208.507209,3849.070898,-8586.388927,7277.907231
21208.507543,3478.967927,-8290.306550,6665.030833
21208.507876,2368.659014,-7179.997637,5209.449386
21208.508209,4367.215058,-8290.306550,3600.648841
21208.508542,-5329.482782,-9548.656652,-1225.752797
21208.508876,-74.020594,-11843.295072,-2528.115143
21208.509209,-2738.761985,-12583.501014,-2451.505594
21208.509542,0.000000,-7179.997637,-1225.752797
21208.509875,-740.205942,-9474.636058,2374.896044
21208.510209,-1258.350101,-9104.533087,-3064.381992
21208.510542,-3330.926739,-9474.636058,-2528.115143
21208.510875,-1554.432478,-10510.924376,-689.485948
21208.511208,888.247130,-5403.503377,2451.505594
21208.511542,5847.626942,-8290.306550,4826.401637
21208.511875,3849.070898,-7772.162391,5209.449386
21208.512208,4663.297435,-11843.295072,2987.772442
21208.512541,1924.535449,-8660.409521,0.000000
21208.512875,1110.308913,-12435.459826,1149.143247
21208.513208,1998.556043,-8956.491898,-2145.067394
21208.513541,740.205942,-10140.821405,0.000000
21208.513874,-1776.494261,-8512.368333,-2068.457845
21208.514208,-3404.947333,-7179.997637,-4903.011187
21208.514541,-1406.391290,-11843.295072,-1915.238745
21208.514874,2368.659014,-8364.327145,2068.457845
21208.515207,2368.659014,-7550.100608,4060.306139
21208.515541,3108.864956,-6587.832884,3983.696590
21208.515874,0.000000,-6809.894666,0.000000
21208.516207,1036.288319,-9474.636058,-76.609550
21208.516540,2294.638420,-11843.295072,-689.485948
21208.516873,-1776.494261,-9548.656652,1225.752797
21208.517207,1480.411884,-11177.109724,919.314598
21208.517540,-74.020594,-7179.997637,0.000000
21208.517873,-888.247130,-8956.491898,-2911.162892
21208.518206,962.267725,-9326.594869,-842.705048
21208.518540,740.205942,-10584.944971,0.000000
21208.518873,2368.659014,-7772.162391,612.876398
21208.519206,7031.956449,-7994.224174,4826.401637
21208.519539,2664.741391,-5107.421000,612.876398
21208.519873,1184.329507,-9918.759623,-76.609550
21208.520206,-370.102971,-11251.130318,-2528.115143
21208.520539,-1776.494261,-11325.150913,306.438199
21208.520872,3627.009116,-6735.874072,1991.848295
21208.521206,5921.647536,-8216.285956,4290.134789
21208.521539,4293.194464,-7476.080014,2221.676944
21208.521872,-592.164754,-11991.336260,-76.609550
21208.522205,-74.020594,-9474.636058,-4979.620737
21208.522539,-2368.659014,-12213.398043,-1072.533697
21208.522872,2294.638420,-11843.295072,-76.609550
21208.523205,2590.720797,-6661.853478,1838.629195
21208.523538,-1628.453072,-11547.212695,1762.019645
21208.523872,-814.226536,-8364.327145,-995.924147
21208.524205,296.082377,-11991.336260,3600.648841
21208.524538,2294.638420,-7698.141797,4213.525239
21208.524871,3478.967927,-5921.647536,3600.648841
21208.525205,-1924.535449,-7476.080014,-3064.381992
21208.525538,-4737.318029,-11325.150913,-1608.800546
21208.525871,-3923.091493,-11251.130318,-2528.115143
21208.526204,-3330.926739,-7179.997637,-4903.011187
21208.526537,-2886.803174,-12287.418637,1762.019645
21208.526871,1036.288319,-6735.874072,1532.190996
21208.527204,-3627.009116,-10362.883188,459.657299
21208.527537,-3552.988522,-6809.894666,-2145.067394
21208.527870,-3034.844362,-11843.295072,-76.609550
21208.528204,0.000000,-7179.997637,3677.258390
21208.528537,3923.091493,-6809.894666,5975.544884
21208.528870,740.205942,-7328.038826,2834.553343
21208.529203,0.000000,-7772.162391,0.000000
21208.529537,-4441.235652,-11621.233289,-2528.115143
21208.529870,-74.020594,-10658.965565,-3294.210641
21208.530203,-2072.576638,-9548.656652,-3524.039291
21208.530536,0.000000,-8956.491898,0.000000
21208.530870,0.000000,-7920.203579,0.000000
21208.531203,-2294.638420,-11843.295072,-1302.362347
21208.531536,2368.659014,-8734.430116,2374.896044
21208.531869,1480.411884,-10288.862594,4903.011187
21208.532203,8512.368333,-7550.100608,9116.536426
21208.532536,2664.741391,-3627.009116,7354.516781
21208.532869,3478.967927,-7105.977043,76.609550
21208.533202,-3552.988522,-9252.574275,-689.485948
21208.533536,-1850.514855,-11843.295072,-3140.991542
21208.533869,-2442.679609,-11769.274478,-2528.115143
21208.534202,-1258.350101,-8290.306550,-2681.334243
21208.534535,0.000000,-10362.883188,-689.485948
21208.534869,-2294.638420,-9992.780217,-2221.676944
21208.535202,0.000000,-10140.821405,-1608.800546
21208.535535,1776.494261,-11473.192101,2374.896044
21208.535868,2960.823768,-9548.656652,4903.011187
21208.536201,6143.709319,-9474.636058,7890.783629
21208.536535,4959.379811,-6587.832884,4903.011187
21208.536868,3108.864956,-6513.812290,536.266849
21208.537201,3182.885551,-10955.047942,-689.485948
21208.537534,1702.473667,-11621.233289,-153.219100
21208.537868,-2072.576638,-10288.862594,-1378.971896
21208.538201,-3256.906145,-8660.409521,-3600.648841
21208.538534,-4811.338623,-10658.965565,-4979.620737
21208.538867,-4737.318029,-10732.986159,-3140.991542
21208.539201,-74.020594,-11029.068536,2987.772442
21208.539534,-666.185348,-8882.471304,2451.505594
21208.539867,2368.659014,-5403.503377,6128.763984
21208.540200,1184.329507,-8216.285956,8503.660028
21208.540534,1924.535449,-6143.709319,2068.457845
21208.540867,2220.617826,-7105.977043,995.924147
21208.541200,-1184.329507,-11843.295072,-919.314598
21208.541533,1480.411884,-7179.997637,0.000000
21208.541867,-74.020594,-11547.212695,-76.609550
21208.542200,1998.556043,-7846.182985,-3370.820191
21208.542533,-3849.070898,-7772.162391,-4903.011187
21208.542866,-2960.823768,-13989.892304,-4979.620737
21208.543200,148.041188,-11917.315666,306.438199
21208.543533,888.247130,-9770.718434,3677.258390
21208.543866,9474.636058,-4293.194464,7584.345430
21208.544199,5107.421000,-8586.388927,8656.879127
21208.544533,4145.153275,-4811.338623,3064.381992
21208.544866,2146.597232,-8068.244768,2374.896044
21208.545199,0.000000,-9400.615463,-1149.143247
21208.545532,1036.288319,-9104.533087,-1991.848295
21208.545865,-2146.597232,-10066.800811,-2528.115143
21208.546199,-962.267725,-7476.080014,-6128.763984
21208.546532,-6513.812290,-13471.748144,-3140.991542
21208.546865,-1258.350101,-11843.295072,-5898.935335
21208.547198,-4145.153275,-11325.150913,689.485948
21208.547532,3849.070898,-7328.038826,6052.154434
21208.547865,5033.400406,-6365.771101,6665.030833
21208.548198,2368.659014,-8142.265362,5515.887586
21208.548531,3330.926739,-7254.018232,3064.381992
21208.548865,0.000000,-7476.080014,153.219100
21208.549198,1702.473667,-7179.997637,0.000000
21208.549531,2294.638420,-9474.636058,-689.485948
21208.549864,-2960.823768,-9548.656652,-4443.353888
21208.550198,-5921.647536,-9844.739029,-6741.640382
21208.550531,-7772.162391,-15396.283594,-7431.126331
21208.550864,-3478.967927,-10584.944971,-2681.334243
21208.551197,-1850.514855,-10436.903782,3064.381992
21208.551531,3330.926739,-6217.729913,6665.030833
21208.551864,1184.329507,-6587.832884,7354.516781
21208.552197,0.000000,-5403.503377,1225.752797
21208.552530,4071.132681,-9474.636058,4213.525239
21208.552864,814.226536,-6587.832884,3064.381992
21208.553197,4737.318029,-8216.285956,5439.278036
21208.553530,-2368.659014,-6883.915261,-3064.381992
21208.553863,-5033.400406,-11547.212695,-7431.126331
21208.554197,-7328.038826,-11399.171507,-9116.536426
21208.554530,-6217.729913,-13545.768739,-6128.763984
21208.554863,-666.185348,-11843.295072,-689.485948
21208.555196,0.000000,-8364.327145,5286.058936
21208.555529,4367.215058,-7698.141797,6665.030833
21208.555863,74.020594,-6587.832884,3677.258390
21208.556196,3923.091493,-7994.224174,4903.011187
21208.556529,4367.215058,-10362.883188,6665.030833
21208.556862,5181.441594,-3182.885551,3677.258390
21208.557196,4219.173869,-8660.409521,2068.457845
21208.557529,-740.205942,-9770.718434,-4213.525239
21208.557862,-5107.421000,-11325.150913,-9652.803275
21208.558195,-3627.009116,-16580.613101,-7737.564530
21208.558529,-2368.659014,-10140.821405,-4290.134789
21208.558862,-4145.153275,-12213.398043,1225.752797
21208.559195,4663.297435,-8882.471304,3600.648841
21208.559528,2886.803174,-8882.471304,4826.401637
21208.559862,3182.885551,-6217.729913,4213.525239
21208.560195,5995.668130,-7772.162391,7814.174080
21208.560528,5181.441594,-6365.771101,7048.078582
21208.560861,3182.885551,-4071.132681,3064.381992
21208.561195,-666.185348,-9178.553681,-2068.457845
21208.561528,-4219.173869,-8882.471304,-7354.516781
21208.561861,-5995.668130,-13249.686362,-7507.735880
21208.562194,-3627.009116,-13027.624579,-4979.620737
21208.562528,-3034.844362,-9178.553681,-4749.792088
21208.562861,-518.144159,-12731.542202,2987.772442
21208.563194,5847.626942,-7105.977043,2987.772442
21208.563527,888.247130,-7476.080014,4290.134789
21208.563861,4737.318029,-5995.668130,6435.202183
21208.564194,5255.462188,-7698.141797,5439.278036
21208.564527,3923.091493,-8216.285956,4213.525239
21208.564860,4737.318029,-4367.215058,3217.601092
21208.565193,-1332.370696,-9178.553681,-4903.011187
21208.565527,-2960.823768,-8364.327145,-8273.831378
21208.565860,-3034.844362,-16580.613101,-6818.249932
21208.566193,0.000000,-11843.295072,-3753.867940
21208.566526,0.000000,-9548.656652,2451.505594
21208.566860,3478.967927,-10658.965565,3600.648841
21208.567193,2960.823768,-7179.997637,2451.505594
21208.567526,2516.700203,-8882.471304,2987.772442
21208.567859,5403.503377,-6883.915261,3677.258390
21208.568193,4663.297435,-9770.718434,5362.668486
21208.568526,7698.141797,-7031.956449,6665.030833
21208.568859,3478.967927,-10658.965565,2068.457845
21208.569192,-2146.597232,-8364.327145,-4596.572988
21208.569526,-7105.977043,-11029.068536,-4443.353888
21208.569859,-3627.009116,-13619.789333,-4673.182538
21208.570192,-2664.741391,-8956.491898,-1149.143247
21208.570525,-3330.926739,-10140.821405,-383.047749
21208.570859,-3552.988522,-9104.533087,-689.485948
21208.571192,-2886.803174,-8808.450710,766.095498
21208.571525,-1258.350101,-10362.883188,4519.963438
21208.571858,1702.473667,-3552.988522,2987.772442
21208.572192,296.082377,-8364.327145,7660.954980
21208.572525,7031.956449,-3552.988522,4213.525239
21208.572858,-666.185348,-11695.253884,-536.266849
21208.573191,-3404.947333,-7476.080014,-4673.182538
21208.573525,-4959.379811,-16580.613101,-4596.572988
21208.573858,-5625.565159,-11251.130318,-5286.058936
21208.574191,0.000000,-8364.327145,-919.314598
21208.574524,-5107.421000,-11251.130318,-383.047749
21208.574858,-666.185348,-6587.832884,-919.314598
21208.575191,-2294.638420,-9770.718434,2757.943793
21208.575524,5551.544565,-7031.956449,6128.763984
21208.575857,4737.318029,-3034.844362,6435.202183
21208.576190,592.164754,-7772.162391,4903.011187
21208.576524,4663.297435,-6513.812290,536.266849
21208.576857,-2442.679609,-8438.347739,-3447.429741
21208.577190,0.000000,-8956.491898,-2451.505594
21208.577523,-3552.988522,-11917.315666,-3370.820191
21208.577857,0.000000,-10140.821405,-2145.067394
21208.578190,-666.185348,-10066.800811,-459.657299
21208.578523,-2146.597232,-10658.965565,-2681.334243
21208.578856,-814.226536,-10658.965565,-76.609550
21208.579190,-1406.391290,-9696.697840,1149.143247
21208.579523,7031.956449,-7105.977043,4519.963438
21208.579856,5181.441594,-1850.514855,6741.640382
21208.580189,3849.070898,-7179.997637,7354.516781
21208.580523,4219.173869,-7994.224174,3753.867940
21208.580856,1554.432478,-11547.212695,-995.924147
21208.581189,1332.370696,-10140.821405,-2451.505594
21208.581522,222.061783,-12287.418637,-2834.553343
21208.581856,-74.020594,-11251.130318,-4060.306139
21208.582189,-4441.235652,-10732.986159,-2145.067394
21208.582522,-4737.318029,-9548.656652,-6435.202183
21208.582855,-3552.988522,-9844.739029,0.000000
21208.583189,1998.556043,-11251.130318,4826.401637
21208.583522,4071.132681,-6513.812290,4826.401637
21208.583855,2886.803174,-5921.647536,6052.154434
21208.584188,1184.329507,-5551.544565,2911.162892
21208.584522,0.000000,-8216.285956,842.705048
21208.584855,1850.514855,-8660.409521,1149.143247
21208.585188,1702.473667,-13027.624579,1762.019645
21208.585521,-2368.659014,-8364.327145,0.000000
21208.585854,-3552.988522,-10732.986159,-1532.190996
21208.586188,-1850.514855,-11843.295072,-5286.058936
21208.586521,-2368.659014,-9548.656652,-4903.011187
21208.586854,-666.185348,-11769.274478,-995.924147
21208.587187,4663.297435,-7476.080014,4136.915689
21208.587521,4071.132681,-6365.771101,6281.983084
21208.587854,4885.359217,-6365.771101,4519.963438
21208.588187,3478.967927,-6513.812290,-842.705048
21208.588520,2368.659014,-12805.562797,4060.306139
21208.588854,2886.803174,-10362.883188,2221.676944
21208.589187,1332.370696,-4811.338623,612.876398
21208.589520,0.000000,-9548.656652,0.000000
21208.589853,-74.020594,-7846.182985,-4826.401637
21208.590187,-2368.659014,-12065.356855,-3447.429741
21208.590520,-2886.803174,-10807.006753,-3447.429741
21208.590853,-2146.597232,-10584.944971,-1685.410096
21208.591186,-74.020594,-9474.636058,459.657299
21208.591520,1480.411884,-5847.626942,3447.429741
21208.591853,296.082377,-8290.306550,2221.676944
21208.592186,0.000000,-9548.656652,2911.162892
21208.592519,1184.329507,-9548.656652,5515.887586
21208.592853,2886.803174,-6957.935855,3217.601092
21208.593186,1184.329507,-5995.668130,0.000000
21208.593519,-1184.329507,-11177.109724,1149.143247
21208.593852,-1258.350101,-9178.553681,-3753.867940
21208.594186,-5329.482782,-10732.986159,-3677.258390
21208.594519,-2886.803174,-11399.171507,-3294.210641
21208.594852,-2960.823768,-9548.656652,-1991.848295
21208.595185,0.000000,-7772.162391,1225.752797
21208.595518,2886.803174,-9474.636058,3600.648841
21208.595852,-74.020594,-9474.636058,1149.143247
21208.596185,-2368.659014,-10732.986159,3217.601092
21208.596518,4663.297435,-9474.636058,4826.401637
21208.596851,2738.761985,-5107.421000,3064.381992
21208.597185,4145.153275,-9400.615463,6665.030833
21208.597518,-2294.638420,-6883.915261,-3524.039291
21208.597851,-3701.029710,-11843.295072,-5209.449386
21208.598184,-2368.659014,-10658.965565,-4596.572988
21208.598518,-1776.494261,-11991.336260,-995.924147
21208.598851,-74.020594,-7994.224174,-2528.115143
21208.599184,-2368.659014,-10140.821405,1685.410096
21208.599517,962.267725,-9474.636058,-76.609550
21208.599851,518.144159,-6883.915261,1378.971896
21208.600184,3775.050304,-9474.636058,4826.401637
21208.600517,5625.565159,-6883.915261,7354.516781
21208.600850,4367.215058,-7105.977043,5592.497135
21208.601184,2220.617826,-7550.100608,229.828649
21208.601517,-5921.647536,-11325.150913,-4290.134789
21208.601850,-5403.503377,-9548.656652,-8273.831378
21208.602183,-4145.153275,-12213.398043,-1378.971896
21208.602517,814.226536,-7994.224174,-1455.581446
21208.602850,0.000000,-8290.306550,-1302.362347
21208.603183,-2368.659014,-8660.409521,-1225.752797
21208.603516,2220.617826,-9918.759623,1455.581446
21208.603850,3775.050304,-10214.842000,5592.497135
21208.604183,7624.121203,-5551.544565,7048.078582
21208.604516,8216.285956,-7105.977043,7277.907231
21208.604849,2368.659014,-8364.327145,6052.154434
21208.605183,1110.308913,-7846.182985,-3753.867940
21208.605516,-3034.844362,-10140.821405,-7967.393179
21208.605849,-1184.329507,-11917.315666,-2528.115143
21208.606182,-3552.988522,-12509.480420,-3524.039291
21208.606516,-1036.288319,-9104.533087,-1608.800546
21208.606849,-4663.297435,-11103.089130,-3753.867940
21208.607182,-2812.782580,-8808.450710,-1838.629195
21208.607515,1998.556043,-9474.636058,5439.278036
21208.607849,2664.741391,-8956.491898,7890.783629
21208.608182,4737.318029,-5033.400406,7201.297681
21208.608515,2664.741391,-8734.430116,5745.716235
21208.608848,3701.029710,-4515.256246,2068.457845
21208.609182,1406.391290,-11251.130318,-76.609550
21208.609515,1184.329507,-8364.327145,-4290.134789
21208.609848,-1184.329507,-15248.242405,-76.609550
21208.610181,-1998.556043,-9326.594869,-4519.963438
21208.610515,-2960.823768,-6587.832884,-3983.696590
21208.610848,-5403.503377,-13027.624579,-6205.373534
21208.611181,-444.123565,-9622.677246,-3217.601092
21208.611514,-740.205942,-11251.130318,3294.210641
21208.611848,4811.338623,-7402.059420,5898.935335
21208.612181,6735.874072,-3552.988522,8197.221829
21208.612514,4737.318029,-7772.162391,8886.707777
21208.612847,5847.626942,-8290.306550,2374.896044
21208.613181,518.144159,-7772.162391,0.000000
21208.613514,2368.659014,-11325.150913,-2145.067394
21208.613847,1110.308913,-11251.130318,-4213.525239
21208.614181,-1850.514855,-13471.748144,-2221.676944
21208.614514,-2812.782580,-9474.636058,-4519.963438
21208.614847,-5255.462188,-12509.480420,-4443.353888
21208.615180,-2368.659014,-8512.368333,-1225.752797
21208.615514,0.000000,-10584.944971,6052.154434
21208.615847,4071.132681,-3478.967927,6205.373534
21208.616180,3182.885551,-3923.091493,3983.696590
21208.616513,1702.473667,-7105.977043,5439.278036
21208.616847,2072.576638,-6143.709319,2451.505594
21208.617180,-518.144159,-10288.862594,536.266849
21208.617513,222.061783,-8734.430116,-2757.943793
21208.617846,-3404.947333,-10584.944971,-4290.134789
21208.618180,-2368.659014,-11769.274478,-4903.011187
21208.618513,-1554.432478,-16580.613101,-4979.620737
21208.618846,-5107.421000,-11621.233289,-5822.325785
21208.619179,-1776.494261,-11621.233289,0.000000
21208.619513,3182.885551,-8882.471304,7277.907231
21208.619846,3627.009116,-4219.173869,9806.022374
21208.620179,2072.576638,-5995.668130,6358.592633
21208.620512,2220.617826,-5625.565159,3217.601092
21208.620846,-740.205942,-9252.574275,1225.752797
21208.621179,1184.329507,-8956.491898,0.000000
21208.621512,-1554.432478,-8290.306550,-1915.238745
21208.621845,-4293.194464,-10436.903782,-4903.011187
21208.622179,-4663.297435,-9992.780217,-6435.202183
21208.622512,-5995.668130,-12731.542202,-7584.345430
21208.622845,-3330.926739,-10140.821405,-3677.258390
21208.623178,-1184.329507,-11029.068536,2681.334243
21208.623512,6439.791695,-9474.636058,7277.907231
21208.623845,4071.132681,-5329.482782,6128.763984
21208.624178,2590.720797,-8290.306550,4826.401637
21208.624512,2886.803174,-6069.688724,2451.505594
21208.624845,1406.391290,-9696.697840,1838.629195
21208.625178,5551.544565,-5403.503377,2374.896044
21208.625511,0.000000,-8364.327145,0.000000
21208.625845,-74.020594,-10066.800811,-7354.516781
21208.626178,-2442.679609,-15988.448347,-7431.126331
21208.626511,-4737.318029,-13693.809927,-7354.516781
21208.626844,-2368.659014,-10732.986159,612.876398
21208.627178,2294.638420,-7402.059420,1762.019645
21208.627511,5329.482782,-7772.162391,8273.831378
21208.627844,2368.659014,-4885.359217,5898.935335
21208.628177,2738.761985,-5551.544565,2681.334243
21208.628511,4515.256246,-10658.965565,7277.907231
21208.628844,4959.379811,-6587.832884,4290.134789
21208.629177,2886.803174,-9474.636058,-76.609550
21208.629510,-3552.988522,-7772.162391,-4903.011187
21208.629844,-7179.997637,-12287.418637,-12027.699319
21208.630177,-5921.647536,-11473.192101,-7660.954980
21208.630510,-2664.741391,-15396.283594,-2681.334243
21208.630843,-962.267725,-9104.533087,0.000000
21208.631177,2146.597232,-7846.182985,3600.648841
21208.631510,222.061783,-9474.636058,4213.525239
21208.631843,3552.988522,-3923.091493,5209.449386
21208.632176,3478.967927,-5551.544565,3064.381992
21208.632510,4737.318029,-6587.832884,7354.516781
21208.632843,7031.956449,-6513.812290,4826.401637
21208.633176,2886.803174,-7698.141797,536.266849
21208.633509,-740.205942,-9474.636058,-4519.963438
21208.633843,-3849.070898,-9030.512492,-11031.775171
21208.634176,-5699.585753,-18653.189738,-8656.879127
21208.634509,-2442.679609,-11769.274478,-4826.401637
21208.634843,-74.020594,-14211.954086,-76.609550
21208.635176,222.061783,-7179.997637,1532.190996
21208.635509,4441.235652,-8290.306550,8197.221829
21208.635842,5847.626942,-6217.729913,5745.716235
21208.636176,6143.709319,-4737.318029,8197.221829
21208.636509,5699.585753,-8142.265362,5745.716235
21208.636842,5033.400406,-7254.018232,4673.182538
21208.637175,-592.164754,-8734.430116,-1072.533697
21208.637509,-3701.029710,-12435.459826,-7507.735880
21208.637842,-4811.338623,-14211.954086,-6818.249932
21208.638175,-5625.565159,-13545.768739,-4903.011187
21208.638508,-2368.659014,-9844.739029,-1378.971896
21208.638842,-2220.617826,-9474.636058,995.924147
21208.639175,-3849.070898,-6291.750507,0.000000
21208.639508,-740.205942,-6809.894666,4519.963438
21208.639841,3182.885551,-7105.977043,4519.963438
21208.640175,2368.659014,-5551.544565,9039.926876
21208.640508,4811.338623,-5921.647536,6511.811733
21208.640841,2886.803174,-6217.729913,0.000000
21208.641174,-1850.514855,-9918.759623,-3983.696590
21208.641508,-4145.153275,-12657.521608,-7967.393179
21208.641841,-4737.318029,-15988.448347,-5592.497135
21208.642174,-3256.906145,-11917.315666,-3677.258390
21208.642507,296.082377,-12731.542202,-76.609550
21208.642841,-2072.576638,-8364.327145,1225.752797
21208.643174,-3552.988522,-7179.997637,2451.505594
21208.643507,2294.638420,-8290.306550,5439.278036
21208.643840,2368.659014,-4811.338623,6128.763984
21208.644174,6143.709319,-3627.009116,6281.983084
21208.644507,4959.379811,-6217.729913,5439.278036
21208.644840,814.226536,-7550.100608,153.219100
21208.645174,-1258.350101,-11251.130318,-3753.867940
21208.645507,-2442.679609,-16580.613101,-6511.811733
21208.645840,-4737.318029,-12509.480420,-3983.696590
21208.646173,-740.205942,-11843.295072,-76.609550
21208.646507,-74.020594,-10658.965565,-1302.362347
21208.646840,-296.082377,-8660.409521,1149.143247
21208.647173,518.144159,-7328.038826,1225.752797
21208.647506,3552.988522,-7105.977043,5209.449386
21208.647840,5921.647536,-5477.523971,6588.421283
21208.648173,4737.318029,-4219.173869,4903.011187
21208.648506,3478.967927,-8586.388927,1149.143247
21208.648839,-1776.494261,-6291.750507,-3677.258390
21208.649173,-592.164754,-12361.439231,-3140.991542
21208.649506,-1258.350101,-16580.613101,-4979.620737
21208.649839,-370.102971,-10658.965565,-1915.238745
21208.650172,-1332.370696,-11547.212695,-76.609550
21208.650506,0.000000,-9696.697840,306.438199
21208.650839,-1924.535449,-8216.285956,-153.219100
21208.651172,0.000000,-8364.327145,2451.505594
21208.651505,2590.720797,-4811.338623,5515.887586
21208.651839,6439.791695,-5329.482782,7277.907231
21208.652172,4071.132681,-5625.565159,1532.190996
21208.652505,0.000000,-9696.697840,1149.143247
21208.652838,-1554.432478,-11251.130318,-4366.744339
21208.653172,-2368.659014,-12065.356855,-2911.162892
21208.653505,148.041188,-13175.665768,-1302.362347
21208.653838,-222.061783,-9844.739029,0.000000
21208.654171,-1776.494261,-10140.821405,612.876398
21208.654505,-2812.782580,-8956.491898,-1838.629195
21208.654838,-2072.576638,-9178.553681,-1149.143247
21208.655171,222.061783,-8808.450710,2298.286494
21208.655505,3997.112087,-6513.812290,6511.811733
21208.655838,1480.411884,-3034.844362,3677.258390
21208.656171,-74.020594,-5033.400406,-1302.362347
21208.656504,-3552.988522,-9844.739029,-76.609550
21208.656838,-2442.679609,-10658.965565,-3753.867940
21208.657171,-74.020594,-11843.295072,-76.609550
21208.657504,888.247130,-9844.739029,2068.457845
21208.657837,-222.061783,-9770.718434,-76.609550
21208.658171,-2812.782580,-9622.677246,-1915.238745
21208.658504,-3182.885551,-10732.986159,-2374.896044
21208.658837,-74.020594,-10658.965565,-76.609550
21208.659170,-1776.494261,-7179.997637,612.876398
21208.659504,0.000000,-3627.009116,3064.381992
21208.659837,2294.638420,-7698.141797,1149.143247
21208.660170,0.000000,-5403.503377,0.000000
21208.660503,3478.967927,-9474.636058,1149.143247
21208.660837,2960.823768,-9844.739029,3447.429741
21208.661170,3997.112087,-9622.677246,3677.258390
21208.661503,3108.864956,-9474.636058,1225.752797
21208.661836,-666.185348,-11251.130318,-3140.991542
21208.662170,-4145.153275,-9548.656652,-4596.572988
21208.662503,740.205942,-12879.583391,-1302.362347
21208.662836,2294.638420,-11251.130318,-383.047749
21208.663169,592.164754,-5403.503377,2451.505594
21208.663503,1998.556043,-6809.894666,459.657299
21208.663836,1184.329507,-8216.285956,1685.410096
21208.664169,0.000000,-8660.409521,459.657299
21208.664502,1628.453072,-9696.697840,1455.581446
21208.664836,1924.535449,-6587.832884,612.876398
21208.665169,2368.659014,-7179.997637,5975.544884
21208.665502,2886.803174,-9474.636058,536.266849
21208.665836,-3256.906145,-9548.656652,-4903.011187
21208.666169,-3256.906145,-11325.150913,-3064.381992
21208.666502,-666.185348,-10658.965565,-3677.258390
21208.666835,296.082377,-10436.903782,-76.609550
21208.667169,444.123565,-6883.915261,1532.190996
21208.667502,1258.350101,-8290.306550,2221.676944
21208.667835,0.000000,-5995.668130,842.705048
21208.668168,1850.514855,-8808.450710,1762.019645
21208.668502,1554.432478,-10955.047942,2911.162892
21208.668835,3034.844362,-6291.750507,4290.134789
21208.669168,3478.967927,-9474.636058,4826.401637
21208.669501,-74.020594,-10955.047942,-1915.238745
21208.669835,-4737.318029,-8364.327145,-4290.134789
21208.670168,-666.185348,-13471.748144,-1302.362347
21208.670501,1110.308913,-9474.636058,-229.828649
21208.670834,0.000000,-8956.491898,0.000000
21208.671168,-1258.350101,-8586.388927,-1072.533697
21208.671501,-2146.597232,-9770.718434,-1302.362347
21208.671834,-444.123565,-9696.697840,1608.800546
21208.672167,2886.803174,-7846.182985,2987.772442
21208.672501,2960.823768,-8290.306550,5439.278036
21208.672834,3552.988522,-5551.544565,5439.278036
21208.673167,814.226536,-10066.800811,153.219100
21208.673500,-74.020594,-9548.656652,-4290.134789
21208.673834,-1850.514855,-12435.459826,-2528.115143
21208.674167,-1850.514855,-11769.274478,-2145.067394
21208.674500,1554.432478,-8290.306550,0.000000
21208.674833,-444.123565,-8586.388927,2451.505594
21208.675167,-2368.659014,-6291.750507,0.000000
21208.675500,-74.020594,-9474.636058,-76.609550
21208.675833,592.164754,-11029.068536,6052.154434
21208.676167,3478.967927,-7994.224174,3600.648841
21208.676500,1184.329507,-4811.338623,4290.134789
21208.676833,0.000000,-5995.668130,919.314598
21208.677166,-1776.494261,-9104.533087,0.000000
21208.677500,-1110.308913,-9252.574275,-2911.162892
21208.677833,-3182.885551,-11991.336260,-2528.115143
21208.678166,-888.247130,-11399.171507,-459.657299
21208.678499,-666.185348,-7179.997637,-2451.505594
21208.678833,-74.020594,-10658.965565,-76.609550
21208.679166,-74.020594,-7994.224174,-3294.210641
21208.679499,-1184.329507,-10732.986159,1991.848295
21208.679832,2664.741391,-10881.027347,5515.887586
21208.680166,4737.318029,-5921.647536,5745.716235
21208.680499,5847.626942,-8216.285956,5439.278036
21208.680832,5255.462188,-6291.750507,3983.696590
21208.681165,1406.391290,-11251.130318,-76.609550
21208.681499,0.000000,-9548.656652,0.000000
21208.681832,-74.020594,-11843.295072,-3294.210641
21208.682165,-1776.494261,-9030.512492,-3294.210641
21208.682498,-2960.823768,-9548.656652,-76.609550
21208.682832,-4441.235652,-12657.521608,-4136.915689
21208.683165,-3552.988522,-8586.388927,-4443.353888
21208.683498,-1332.370696,-9844.739029,2068.457845
21208.683831,6069.688724,-5699.585753,6358.592633
21208.684165,4737.318029,-6217.729913,8503.660028
21208.684498,2960.823768,-6587.832884,5056.230287
21208.684831,3256.906145,-7624.121203,1302.362347
21208.685165,3034.844362,-10140.821405,-306.438199
21208.685498,3997.112087,-11029.068536,-612.876398
21208.685831,1702.473667,-13027.624579,-689.485948
21208.686164,-1184.329507,-11029.068536,-2145.067394
21208.686498,-1258.350101,-14211.954086,-2528.115143
21208.686831,-2590.720797,-9252.574275,-5286.058936
21208.687164,-4737.318029,-10732.986159,-1532.190996
21208.687497,-74.020594,-9178.553681,2374.896044
21208.687831,1850.514855,-4441.235652,5898.935335
21208.688164,2368.659014,-4737.318029,6818.249932
21208.688497,2220.617826,-5847.626942,4366.744339
21208.688830,0.000000,-5551.544565,-766.095498
21208.689164,0.000000,-9548.656652,0.000000
21208.689497,1998.556043,-11251.130318,-1302.362347
21208.689830,-74.020594,-10658.965565,-2987.772442
21208.690163,-2368.659014,-11325.150913,-3217.601092
21208.690497,-1554.432478,-12139.377449,-6281.983084
21208.690830,-3034.844362,-13767.830521,-3753.867940
21208.691163,-222.061783,-11843.295072,766.095498
21208.691496,2368.659014,-7402.059420,4673.182538
21208.691830,4145.153275,-4811.338623,7354.516781
21208.692163,592.164754,-4811.338623,8580.269578
21208.692496,2294.638420,-7105.977043,1149.143247
21208.692829,592.164754,-6587.832884,612.876398
21208.693163,1628.453072,-11843.295072,2374.896044
21208.693496,296.082377,-6587.832884,-1685.410096
21208.693829,-2590.720797,-10955.047942,-2834.553343
21208.694162,-5625.565159,-11917.315666,-6818.249932
21208.694496,-4811.338623,-11621.233289,-6128.763984
21208.694829,-2442.679609,-14063.912898,-1302.362347
21208.695162,296.082377,-10658.965565,4826.401637
21208.695496,2294.638420,-4811.338623,2604.724693
21208.695829,2664.741391,-5107.421000,7431.126331
21208.696162,2886.803174,-7105.977043,2374.896044
21208.696495,1184.329507,-7476.080014,3907.087040
21208.696829,3627.009116,-8586.388927,2145.067394
21208.697162,3478.967927,-9400.615463,1455.581446
21208.697495,2738.761985,-10214.842000,1378.971896
21208.697828,-1924.535449,-10066.800811,-4060.306139
21208.698162,-1258.350101,-13619.789333,-6205.373534
21208.698495,-4145.153275,-11325.150913,-4903.011187
21208.698828,-74.020594,-14211.954086,-689.485948
21208.699161,444.123565,-7179.997637,1225.752797
21208.699495,592.164754,-7772.162391,4673.182538
21208.699828,2294.638420,-6587.832884,4290.134789
21208.700161,2146.597232,-5847.626942,3983.696590
21208.700494,3404.947333,-6883.915261,4903.011187
21208.700828,3330.926739,-6513.812290,4596.572988
21208.701161,2590.720797,-7402.059420,1762.019645
21208.701494,962.267725,-8808.450710,-1072.533697
21208.701827,-4959.379811,-12139.377449,-6205.373534
21208.702161,-4293.194464,-13471.748144,-7507.735880
21208.702494,-4515.256246,-14211.954086,-4060.306139
21208.702827,-2368.659014,-9844.739029,-76.609550
21208.703160,1110.308913,-8290.306550,1149.143247
21208.703494,296.082377,-5107.421000,1225.752797
21208.703827,2368.659014,-7772.162391,5669.106685
21208.704158,962.267725,-6587.832884,3677.258390
21208.704492,3997.112087,-7402.059420,3370.820191
21208.704825,4737.318029,-8438.347739,5515.887586
21208.705158,3923.091493,-5847.626942,2757.943793
21208.705491,-2368.659014,-10140.821405,-1838.629195
21208.705824,-4811.338623,-11843.295072,-8044.002729
21208.706158,-5403.503377,-12805.562797,-8886.707777
21208.706491,-5921.647536,-11917.315666,-1072.533697
21208.706824,2886.803174,-8290.306550,-76.609550
21208.707157,-2072.576638,-8956.491898,2451.505594
21208.707490,444.123565,-6513.812290,1608.800546
21208.707823,1110.308913,-7105.977043,1915.238745
21208.708157,3849.070898,-7179.997637,5362.668486
21208.708490,6069.688724,-8216.285956,4903.011187
21208.708823,3552.988522,-8956.491898,6205.373534
21208.709156,4071.132681,-9474.636058,-76.609550
21208.709489,-2368.659014,-9548.656652,-7354.516781
21208.709822,-2368.659014,-12065.356855,-5515.887586
21208.710156,-1850.514855,-14804.118840,-2528.115143
21208.710489,0.000000,-9696.697840,76.609550
21208.710822,666.185348,-8068.244768,995.924147
21208.711155,-1628.453072,-8734.430116,995.924147
21208.711488,2294.638420,-7105.977043,2987.772442
21208.711822,1998.556043,-4811.338623,1225.752797
21208.712155,4145.153275,-6957.935855,6052.154434
21208.712488,4071.132681,-8290.306550,2374.896044
21208.712821,1406.391290,-6587.832884,0.000000
21208.713154,-740.205942,-11843.295072,-1302.362347
21208.713487,-1924.535449,-11547.212695,-5056.230287
21208.713821,-2294.638420,-14508.036463,-3140.991542
21208.714154,-1776.494261,-11621.233289,-2068.457845
21208.714487,2294.638420,-9474.636058,3294.210641
21208.714820,-444.123565,-8882.471304,1225.752797
21208.715153,-1776.494261,-8216.285956,-76.609550
21208.715487,296.082377,-7698.141797,383.047749
21208.715820,1480.411884,-7179.997637,3677.258390
21208.716153,3552.988522,-5403.503377,6435.202183
21208.716486,4663.297435,-7105.977043,4213.525239
21208.716819,0.000000,-5995.668130,0.000000
21208.717152,-1924.535449,-12435.459826,-2528.115143
21208.717486,-2442.679609,-12731.542202,-4366.744339
21208.717819,-2368.659014,-12361.439231,-2528.115143
21208.718152,-296.082377,-10362.883188,-153.219100
21208.718485,222.061783,-8808.450710,1455.581446
21208.718818,-1036.288319,-9474.636058,306.438199
21208.719152,-2368.659014,-7476.080014,1225.752797
21208.719485,1110.308913,-7920.203579,995.924147
21208.719818,3552.988522,-6439.791695,7354.516781
21208.720151,5255.462188,-6513.812290,5439.278036
21208.720484,0.000000,-7179.997637,0.000000
21208.720817,-222.061783,-11029.068536,-3677.258390
21208.721151,-222.061783,-12287.418637,-1991.848295
21208.721484,1332.370696,-12139.377449,-1762.019645
21208.721817,1702.473667,-12435.459826,1149.143247
21208.722150,1776.494261,-9844.739029,3294.210641
21208.722483,-74.020594,-7772.162391,0.000000
21208.722816,0.000000,-9474.636058,-76.609550
21208.723150,-74.020594,-10658.965565,-995.924147
21208.723483,814.226536,-9918.759623,2068.457845
21208.723816,3478.967927,-5033.400406,4366.744339
21208.724149,2516.700203,-5181.441594,4749.792088
21208.724482,666.185348,-7179.997637,689.485948
21208.724816,-2368.659014,-7476.080014,-2451.505594
21208.725149,1110.308913,-13027.624579,-76.609550
21208.725482,-1776.494261,-10732.986159,0.000000
21208.725815,-1776.494261,-9548.656652,766.095498
21208.726148,-1258.350101,-8882.471304,-2528.115143
21208.726481,-4441.235652,-8364.327145,-4519.963438
21208.726815,-1332.370696,-8956.491898,-1685.410096
21208.727148,-1036.288319,-9030.512492,-919.314598
21208.727481,2294.638420,-9770.718434,2604.724693
21208.727814,4737.318029,-6661.853478,5515.887586
21208.728147,3478.967927,-7550.100608,612.876398
21208.728481,2960.823768,-9474.636058,2068.457845
21208.728814,3478.967927,-11843.295072,-76.609550
21208.729147,0.000000,-10140.821405,306.438199
21208.729480,1776.494261,-7179.997637,1532.190996
21208.729813,0.000000,-10807.006753,1149.143247
21208.730146,-1702.473667,-9844.739029,-1915.238745
21208.730480,-3404.947333,-10288.862594,-3140.991542
21208.730813,-1776.494261,-10436.903782,-2145.067394
21208.731146,-1258.350101,-7254.018232,-1532.190996
21208.731479,1480.411884,-5847.626942,2145.067394
21208.731812,2220.617826,-6069.688724,2451.505594
21208.732146,-1998.556043,-10214.842000,536.266849
21208.732479,-2368.659014,-7179.997637,0.000000
21208.732812,-666.185348,-12731.542202,-1378.971896
21208.733145,0.000000,-7179.997637,3677.258390
21208.733478,4663.297435,-7994.224174,2374.896044
21208.733811,296.082377,-10510.924376,1149.143247
21208.734145,-1480.411884,-9844.739029,-1762.019645
21208.734478,-2590.720797,-12435.459826,-2298.286494
21208.734811,592.164754,-9400.615463,229.828649
21208.735144,148.041188,-8734.430116,995.924147
21208.735477,4071.132681,-7698.141797,4519.963438
21208.735810,-74.020594,-6217.729913,0.000000
21208.736144,-2368.659014,-5995.668130,-4290.134789
21208.736477,0.000000,-11399.171507,1762.019645
21208.736810,1998.556043,-10658.965565,1072.533697
21208.737143,2960.823768,-8290.306550,4826.401637
21208.737476,814.226536,-8586.388927,2221.676944
21208.737810,-1998.556043,-9400.615463,-2834.553343
21208.738143,-2368.659014,-11177.109724,-2528.115143
21208.738476,-962.267725,-10955.047942,-2221.676944
21208.738809,-74.020594,-6587.832884,-3677.258390
21208.739142,148.041188,-7031.956449,1455.581446
21208.739475,3478.967927,-9474.636058,-76.609550
21208.739809,0.000000,-8956.491898,0.000000
21208.740142,2294.638420,-9474.636058,536.266849
21208.740475,1258.350101,-10658.965565,1072.533697
21208.740808,3775.050304,-8512.368333,3600.648841
21208.741141,4145.153275,-7698.141797,4596.572988
21208.741475,0.000000,-7772.162391,766.095498
21208.741808,-2960.823768,-10140.821405,-3677.258390
21208.742141,-74.020594,-11843.295072,-3140.991542
21208.742474,-1702.473667,-10214.842000,0.000000
21208.742807,0.000000,-6291.750507,3677.258390
21208.743140,-74.020594,-7105.977043,-76.609550
21208.743474,-3478.967927,-7772.162391,-3140.991542
21208.743807,-1110.308913,-9474.636058,-4060.306139
21208.744140,-1998.556043,-12657.521608,995.924147
21208.744473,1776.494261,-7179.997637,1225.752797
21208.744806,3552.988522,-10362.883188,5745.716235
21208.745140,3256.906145,-8068.244768,3600.648841
21208.745473,1702.473667,-9474.636058,919.314598
21208.745806,1998.556043,-11843.295072,1762.019645
21208.746139,2294.638420,-11843.295072,-1302.362347
21208.746472,-2072.576638,-9844.739029,2451.505594
21208.746805,4071.132681,-6809.894666,2374.896044
21208.747139,-2442.679609,-9178.553681,-2374.896044
21208.747472,-2368.659014,-9992.780217,-3677.258390
21208.747805,-1480.411884,-9992.780217,229.828649
21208.748138,-666.185348,-8956.491898,919.314598
21208.748471,4219.173869,-6143.709319,3140.991542
21208.748804,74.020594,-9474.636058,4213.525239
21208.749138,-1776.494261,-7179.997637,1072.533697
21208.749471,-1776.494261,-5995.668130,0.000000
21208.749804,1406.391290,-12731.542202,-76.609550
21208.750137,222.061783,-9474.636058,-689.485948
21208.750470,148.041188,-8142.265362,1149.143247
21208.750804,2294.638420,-9474.636058,-1302.362347
21208.751137,-3404.947333,-9474.636058,-3600.648841
21208.751470,-1036.288319,-10732.986159,-2451.505594
21208.751803,222.061783,-10955.047942,842.705048
21208.752136,3478.967927,-9178.553681,4826.401637
21208.752469,2664.741391,-8068.244768,7354.516781
21208.752803,3997.112087,-8290.306550,4519.963438
21208.753136,0.000000,-5403.503377,612.876398
21208.753469,0.000000,-9548.656652,919.314598
21208.753802,518.144159,-8512.368333,0.000000
21208.754135,0.000000,-8660.409521,-919.314598
21208.754469,-1776.494261,-8808.450710,-1532.190996
21208.754802,-3404.947333,-10881.027347,-4060.306139
21208.755135,-5107.421000,-9548.656652,-6435.202183
21208.755468,-2812.782580,-13027.624579,-1302.362347
21208.755801,-370.102971,-11251.130318,-76.609550
21208.756134,592.164754,-4811.338623,5515.887586
21208.756468,6735.874072,-7994.224174,6665.030833
21208.756801,3849.070898,-7772.162391,4903.011187
21208.757134,3552.988522,-10214.842000,3600.648841
21208.757467,2368.659014,-10288.862594,2757.943793
21208.757800,2146.597232,-9992.780217,153.219100
21208.758134,0.000000,-7772.162391,-1225.752797
21208.758467,-74.020594,-11843.295072,-4979.620737
21208.758800,-4737.318029,-9548.656652,-5515.887586
21208.759133,-5921.647536,-9548.656652,-3677.258390
21208.759466,-666.185348,-13027.624579,-76.609550
21208.759799,444.123565,-7476.080014,4519.963438
21208.760133,2516.700203,-5995.668130,5209.449386
21208.760466,1184.329507,-6809.894666,3600.648841
21208.760799,1110.308913,-6957.935855,1991.848295
21208.761132,0.000000,-7179.997637,1225.752797
21208.761465,1924.535449,-10066.800811,2681.334243
21208.761798,2516.700203,-8586.388927,1149.143247
21208.762132,-888.247130,-9770.718434,-2145.067394
21208.762465,-2442.679609,-13027.624579,-4979.620737
21208.762798,-4737.318029,-11473.192101,-5515.887586
21208.763131,-4071.132681,-13027.624579,-689.485948
21208.763464,1998.556043,-8586.388927,-995.924147
21208.763798,2368.659014,-7772.162391,6741.640382
21208.764131,5847.626942,-7105.977043,8503.660028
21208.764464,1184.329507,-7031.956449,3677.258390
21208.764797,1850.514855,-5921.647536,1685.410096
21208.765130,1702.473667,-10658.965565,2911.162892
21208.765463,1480.411884,-5107.421000,1532.190996
21208.765797,-1480.411884,-4811.338623,0.000000
21208.766130,-2442.679609,-11251.130318,-6205.373534
21208.766463,-6291.750507,-8364.327145,-11031.775171
21208.766796,-5921.647536,-14434.015869,-5132.839837
21208.767129,-2442.679609,-11843.295072,-3140.991542
21208.767463,888.247130,-9326.594869,1072.533697
21208.767796,3182.885551,-9326.594869,5056.230287
21208.768129,3034.844362,-6883.915261,4903.011187
21208.768462,3552.988522,-6735.874072,4903.011187
21208.768795,3775.050304,-7179.997637,5515.887586
21208.769128,8216.285956,-9474.636058,4826.401637
21208.769462,3849.070898,-5995.668130,4290.134789
21208.769795,0.000000,-11325.150913,-76.609550
21208.770128,-4737.318029,-10140.821405,-8580.269578
21208.770461,-5107.421000,-12953.603985,-6205.373534
21208.770794,-2590.720797,-10436.903782,-3064.381992
21208.771128,-1850.514855,-8586.388927,-1072.533697
21208.771461,-74.020594,-8882.471304,2068.457845
21208.771794,-1776.494261,-7772.162391,3830.477490
21208.772127,-74.020594,-7105.977043,1149.143247
21208.772460,0.000000,-6587.832884,3370.820191
21208.772793,2294.638420,-10362.883188,3600.648841
21208.773127,4071.132681,-6217.729913,3447.429741
21208.773460,2442.679609,-7179.997637,689.485948
21208.773793,444.123565,-10658.965565,-2528.115143
21208.774126,-2664.741391,-10955.047942,-4903.011187
21208.774459,-4145.153275,-11917.315666,-5515.887586
21208.774792,2294.638420,-13619.789333,-1915.238745
21208.775126,-1554.432478,-9696.697840,612.876398
21208.775459,0.000000,-5995.668130,2451.505594
21208.775792,1998.556043,-8882.471304,2068.457845
21208.776125,4071.132681,-6661.853478,3600.648841
21208.776458,4145.153275,-6883.915261,5209.449386
21208.776792,4589.276840,-6587.832884,6588.421283
21208.777125,2072.576638,-6291.750507,3064.381992
21208.777458,-2368.659014,-8364.327145,-2145.067394
21208.777791,-1554.432478,-10658.965565,-5898.935335
21208.778124,-4367.215058,-12657.521608,-5745.716235
21208.778457,-3182.885551,-12583.501014,-4136.915689
21208.778791,-1332.370696,-9548.656652,-995.924147
21208.779124,-1258.350101,-7179.997637,0.000000
21208.779457,-1702.473667,-10066.800811,3600.648841
21208.779790,-74.020594,-7105.977043,76.609550
21208.780123,1776.494261,-7772.162391,4290.134789
21208.780457,5329.482782,-9992.780217,6435.202183
21208.780790,6291.750507,-4885.359217,6435.202183
21208.781123,2368.659014,-6809.894666,3294.210641
21208.781456,0.000000,-9548.656652,-1838.629195
21208.781789,-4145.153275,-13101.645173,-5439.278036
21208.782122,-4737.318029,-12213.398043,-6741.640382
21208.782456,-74.020594,-12435.459826,-2834.553343
21208.782789,-1628.453072,-10658.965565,-1302.362347
21208.783122,-2960.823768,-8364.327145,612.876398
21208.783455,-1258.350101,-9474.636058,-76.609550
21208.783788,0.000000,-6587.832884,2451.505594
21208.784122,1850.514855,-7328.038826,4903.011187
21208.784455,4145.153275,-4811.338623,5975.544884
21208.784788,2664.741391,-7105.977043,4213.525239
21208.785121,592.164754,-10140.821405,1149.143247
21208.785454,2294.638420,-9474.636058,-3753.867940
21208.785787,-3552.988522,-13397.727550,-2298.286494
21208.786121,0.000000,-11029.068536,-1225.752797
21208.786454,-74.020594,-11843.295072,-995.924147
21208.786787,-888.247130,-11177.109724,-76.609550
21208.787120,-814.226536,-7698.141797,-1532.190996
21208.787453,-1184.329507,-9252.574275,-1072.533697
21208.787787,3404.947333,-7772.162391,4290.134789
21208.788120,4663.297435,-7105.977043,7277.907231
21208.788453,4219.173869,-2442.679609,3140.991542
21208.788786,1184.329507,-8956.491898,4826.401637
21208.789119,2294.638420,-5921.647536,-2221.676944
21208.789452,-74.020594,-9548.656652,-5975.544884
21208.789786,148.041188,-13767.830521,-76.609550
21208.790119,222.061783,-9474.636058,-3370.820191
21208.790452,-1184.329507,-11843.295072,-1991.848295
21208.790785,666.185348,-10214.842000,-1762.019645
21208.791118,-1406.391290,-10955.047942,-3753.867940
21208.791451,296.082377,-10436.903782,306.438199
21208.791785,2590.720797,-8216.285956,4290.134789
21208.792118,5033.400406,-6291.750507,6052.154434
21208.792451,3256.906145,-5403.503377,5209.449386
21208.792784,1184.329507,-8956.491898,5286.058936
21208.793117,2886.803174,-7105.977043,-1302.362347
21208.793451,-1776.494261,-12805.562797,0.000000
21208.793784,1702.473667,-12435.459826,-689.485948
21208.794117,-2664.741391,-8956.491898,-1225.752797
21208.794450,-2368.659014,-9548.656652,-1915.238745
21208.794783,-2368.659014,-9104.533087,-1378.971896
21208.795116,-3034.844362,-8438.347739,-2757.943793
21208.795450,-1258.350101,-11251.130318,-76.609550
21208.795783,-1776.494261,-8660.409521,3524.039291
21208.796116,2294.638420,-3923.091493,1225.752797
21208.796449,666.185348,-7179.997637,4060.306139
21208.796782,-74.020594,-11251.130318,2374.896044
21208.797116,-666.185348,-7698.141797,-1915.238745
21208.797449,-444.123565,-11843.295072,1072.533697
21208.797782,3330.926739,-8216.285956,1532.190996
21208.798115,74.020594,-10066.800811,1685.410096
21208.798448,-1998.556043,-9474.636058,-2451.505594
21208.798781,-2442.679609,-11251.130318,-3140.991542
21208.799115,-2368.659014,-11177.109724,-76.609550
21208.799448,4071.132681,-9474.636058,1149.143247
21208.799781,2294.638420,-4959.379811,1225.752797
21208.800114,1184.329507,-9548.656652,5822.325785
21208.800447,-1332.370696,-8882.471304,-153.219100
21208.800781,-2146.597232,-9992.780217,-536.266849
21208.801114,296.082377,-9178.553681,612.876398
21208.801447,1850.514855,-9030.512492,3600.648841
21208.801780,592.164754,-5995.668130,612.876398
21208.802113,-74.020594,-9474.636058,-1915.238745
21208.802446,-3775.050304,-8512.368333,-5822.325785
21208.802780,-3552.988522,-9992.780217,-1685.410096
21208.803113,-74.020594,-11251.130318,-1302.362347
21208.803446,0.000000,-9252.574275,1838.629195
21208.803779,2886.803174,-5107.421000,1685.410096
21208.804112,370.102971,-10436.903782,612.876398
21208.804445,3478.967927,-6809.894666,-1685.410096
21208.804779,3478.967927,-15396.283594,4213.525239
21208.805112,5255.462188,-5995.668130,1225.752797
21208.805445,6217.729913,-9474.636058,8197.221829
21208.805778,2294.638420,-11843.295072,-76.609550
21208.806111,-74.020594,-6735.874072,-3830.477490
21208.806444,-4515.256246,-11769.274478,-3753.867940
21208.806777,-888.247130,-8364.327145,-3064.381992
21208.807111,-3034.844362,-9918.759623,-1378.971896
21208.807444,0.000000,-6143.709319,1302.362347
21208.807777,-2442.679609,-9474.636058,-76.609550
21208.808110,-1110.308913,-8882.471304,-689.485948
21208.808443,-3552.988522,-8364.327145,1532.190996
21208.808776,3404.947333,-8882.471304,3907.087040
21208.809109,2368.659014,-6291.750507,4903.011187
21208.809443,2664.741391,-10066.800811,4519.963438
21208.809776,2368.659014,-9326.594869,0.000000
21208.810109,-4737.318029,-9548.656652,-1225.752797
21208.810442,1702.473667,-13619.789333,-3753.867940
21208.810775,-1776.494261,-9548.656652,-3064.381992
21208.811108,1924.535449,-7698.141797,383.047749
21208.811441,296.082377,-8216.285956,0.000000
21208.811775,1850.514855,-7476.080014,1149.143247
21208.812108,1998.556043,-8882.471304,1762.019645
21208.812441,3256.906145,-11251.130318,3600.648841
21208.812774,1184.329507,-7179.997637,4290.134789
21208.813107,5773.606348,-8882.471304,6052.154434
21208.813440,6439.791695,-8882.471304,3140.991542
21208.813773,2368.659014,-9548.656652,-1225.752797
21208.814107,-74.020594,-10584.944971,-3830.477490
21208.814440,0.000000,-10658.965565,-2451.505594
21208.814773,1184.329507,-10140.821405,-1915.238745
21208.815106,-962.267725,-9178.553681,-2451.505594
21208.815439,-2368.659014,-12731.542202,-1915.238745
21208.815772,-4219.173869,-6587.832884,-3064.381992
21208.816105,2590.720797,-11843.295072,2987.772442
21208.816439,1406.391290,-6809.894666,4826.401637
21208.816772,4663.297435,-6513.812290,6665.030833
21208.817105,2738.761985,-6291.750507,5822.325785
21208.817438,2294.638420,-7476.080014,3830.477490
21208.817771,222.061783,-7846.182985,76.609550
21208.818104,-4145.153275,-10140.821405,-4136.915689
21208.818437,-74.020594,-11251.130318,-4979.620737
21208.818771,-4293.194464,-11621.233289,-2451.505594
21208.819104,-3923.091493,-11843.295072,-4060.306139
21208.819437,-6661.853478,-8660.409521,-6741.640382
21208.819770,-7105.977043,-11325.150913,-2451.505594
21208.820103,-888.247130,-8216.285956,3524.039291
21208.820436,2664.741391,-6143.709319,7048.078582
21208.820769,5255.462188,-5033.400406,9269.755526
21208.821103,5255.462188,-7105.977043,8810.098227
21208.821436,-666.185348,-4811.338623,0.000000
21208.821769,2294.638420,-10658.965565,-689.485948
21208.822102,-1850.514855,-14211.954086,-3447.429741
21208.822435,-1184.329507,-8660.409521,-3677.258390
21208.822768,-4145.153275,-10140.821405,-3983.696590
21208.823101,-5033.400406,-12287.418637,-5669.106685
21208.823435,-4885.359217,-11177.109724,-4519.963438
21208.823768,-1998.556043,-11843.295072,229.828649
21208.824101,4663.297435,-8290.306550,6665.030833
21208.824434,4885.359217,-4811.338623,8733.488677
21208.824767,4663.297435,-4885.359217,7354.516781
21208.825100,3034.844362,-5107.421000,4826.401637
21208.825433,0.000000,-7772.162391,1455.581446
21208.825766,1480.411884,-9696.697840,-76.609550
21208.826100,-666.185348,-10732.986159,-3983.696590
21208.826433,-4145.153275,-7772.162391,-2451.505594
21208.826766,-2442.679609,-13027.624579,-7431.126331
21208.827099,-1628.453072,-11177.109724,-7124.688131
21208.827432,-2368.659014,-14285.974681,-1225.752797
21208.827765,2146.597232,-11917.315666,3524.039291
21208.828098,8142.265362,-5625.565159,8350.440928
21208.828432,4145.153275,-6587.832884,7814.174080
21208.828765,5847.626942,-6957.935855,6665.030833
21208.829098,518.144159,-5995.668130,1532.190996
21208.829431,3330.926739,-8882.471304,2374.896044
21208.829764,2294.638420,-8216.285956,-1685.410096
21208.830097,-1776.494261,-8660.409521,-1072.533697
21208.830430,-2738.761985,-11251.130318,-5898.935335
21208.830764,-6809.894666,-10955.047942,-9039.926876
21208.831097,-5995.668130,-12583.501014,-7967.393179
21208.831430,-2516.700203,-11399.171507,-1685.410096
21208.831763,1924.535449,-7772.162391,2681.334243
21208.832096,518.144159,-3627.009116,5209.449386
21208.832429,5699.585753,-7698.141797,6052.154434
21208.832762,2886.803174,-7105.977043,2987.772442
21208.833096,3997.112087,-7772.162391,3983.696590
21208.833429,5255.462188,-10658.965565,3294.210641
21208.833762,3849.070898,-8512.368333,1991.848295
21208.834095,-814.226536,-9030.512492,-2604.724693
21208.834428,-3034.844362,-9844.739029,-5745.716235
21208.834761,-4737.318029,-11325.150913,-6741.640382
21208.835094,-2960.823768,-12213.398043,-3677.258390
21208.835428,-962.267725,-13619.789333,-1302.362347
21208.835761,2294.638420,-7698.141797,2145.067394
21208.836094,3256.906145,-4811.338623,9116.536426
21208.836427,5847.626942,-4145.153275,5439.278036
21208.836760,3775.050304,-7476.080014,4290.134789
21208.837093,4589.276840,-7920.203579,2528.115143
21208.837426,2886.803174,-8734.430116,2068.457845
21208.837760,0.000000,-9548.656652,-2145.067394
21208.838093,-1998.556043,-10510.924376,-4366.744339
21208.838426,-6365.771101,-12583.501014,-8044.002729
21208.838759,-3775.050304,-13767.830521,-5362.668486
21208.839092,-666.185348,-11843.295072,-689.485948
21208.839425,1110.308913,-10658.965565,2374.896044
21208.839758,2590.720797,-6513.812290,6665.030833
21208.840092,1184.329507,-6587.832884,5515.887586
21208.840425,4219.173869,-7105.977043,6052.154434
21208.840758,4663.297435,-7698.141797,5439.278036
21208.841091,3034.844362,-10807.006753,3907.087040
21208.841424,2368.659014,-6291.750507,766.095498
21208.841757,-148.041188,-12879.583391,-2834.553343
21208.842090,-3478.967927,-11769.274478,-7124.688131
21208.842424,-3849.070898,-13767.830521,-6818.249932
21208.842757,-8290.306550,-11917.315666,-4903.011187
21208.843090,-2812.782580,-13619.789333,-2221.676944
21208.843423,1702.473667,-7698.141797,2374.896044
21208.843756,0.000000,-5403.503377,5209.449386
21208.844089,3478.967927,-4589.276840,7277.907231
21208.844422,3849.070898,-2442.679609,7354.516781
21208.844756,1554.432478,-8586.388927,4519.963438
21208.845089,8068.244768,-5255.462188,6358.592633
21208.845422,-370.102971,-8882.471304,-76.609550
21208.845755,-74.020594,-11843.295072,-3140.991542
21208.846088,-4811.338623,-13619.789333,-9882.631924
21208.846421,-8068.244768,-15766.386565,-10342.289223
21208.846754,-3552.988522,-11325.150913,-3677.258390
21208.847088,-1480.411884,-10288.862594,153.219100
21208.847421,1258.350101,-8142.265362,3907.087040
21208.847754,222.061783,-6883.915261,5669.106685
21208.848087,2294.638420,-6439.791695,6128.763984
21208.848420,592.164754,-3627.009116,3064.381992
21208.848753,5847.626942,-9474.636058,4826.401637
21208.849086,4293.194464,-4737.318029,3600.648841
21208.849420,-2072.576638,-6587.832884,0.000000
21208.849753,2294.638420,-11843.295072,-4060.306139
21208.850086,-6217.729913,-15026.180623,-6281.983084
21208.850419,-3552.988522,-14211.954086,-7507.735880
21208.850752,-1036.288319,-11621.233289,-2604.724693
21208.851085,444.123565,-11843.295072,-383.047749
21208.851418,0.000000,-9252.574275,3064.381992
21208.851752,-74.020594,-8290.306550,2068.457845
21208.852085,2368.659014,-5403.503377,5209.449386
21208.852418,6883.915261,-7105.977043,9729.412825
21208.852751,7624.121203,-7105.977043,7277.907231
21208.853084,2516.700203,-6735.874072,5975.544884
21208.853417,-1702.473667,-9030.512492,-3064.381992
21208.853750,-2368.659014,-11103.089130,-6205.373534
21208.854084,-3552.988522,-14063.912898,-6511.811733
21208.854417,-2368.659014,-13101.645173,-2298.286494
21208.854750,-1554.432478,-9770.718434,383.047749
21208.855083,-740.205942,-7402.059420,-689.485948
21208.855416,-3404.947333,-10140.821405,383.047749
21208.855749,1110.308913,-7550.100608,1455.581446
21208.856082,2664.741391,-4219.173869,4903.011187
21208.856416,4367.215058,-7994.224174,8503.660028
21208.856749,5255.462188,-3108.864956,3524.039291
21208.857082,-1184.329507,-8364.327145,2528.115143
21208.857415,2294.638420,-8290.306550,-1302.362347
21208.857748,-1480.411884,-11769.274478,-4826.401637
21208.858081,-1924.535449,-14063.912898,-4366.744339
21208.858414,370.102971,-10288.862594,-2451.505594
21208.858748,-2072.576638,-9548.656652,-1838.629195
21208.859081,0.000000,-8660.409521,0.000000
21208.859414,2294.638420,-9474.636058,-689.485948
21208.859747,2516.700203,-8882.471304,2681.334243
21208.860080,3849.070898,-7179.997637,6894.859482
21208.860413,5625.565159,-3034.844362,5745.716235
21208.860746,2072.576638,-7476.080014,3447.429741
21208.861080,888.247130,-8956.491898,0.000000
21208.861413,-2294.638420,-10362.883188,-2834.553343
21208.861746,-74.020594,-12435.459826,-1762.019645
21208.862079,-1776.494261,-10732.986159,1378.971896
21208.862412,-74.020594,-9326.594869,-2451.505594
21208.862745,-2886.803174,-7772.162391,-1532.190996
21208.863078,-2664.741391,-11251.130318,-76.609550
21208.863412,0.000000,-7624.121203,0.000000
21208.863745,-740.205942,-10881.027347,2528.115143
21208.864078,3256.906145,-6069.688724,5362.668486
21208.864411,2738.761985,-5551.544565,4060.306139
21208.864744,518.144159,-10658.965565,1455.581446
21208.865077,2960.823768,-7772.162391,1762.019645
21208.865410,-3552.988522,-12509.480420,-2451.505594
21208.865744,0.000000,-9548.656652,-1072.533697
21208.866077,-1258.350101,-12879.583391,-76.609550
21208.866410,-666.185348,-9474.636058,-1608.800546
21208.866743,-2368.659014,-7920.203579,-2145.067394
21208.867076,-5033.400406,-11843.295072,-1608.800546
21208.867409,0.000000,-6513.812290,0.000000
21208.867742,-2368.659014,-8364.327145,5515.887586
21208.868076,7031.956449,-4737.318029,5745.716235
21208.868409,0.000000,-5403.503377,5822.325785
21208.868742,-2368.659014,-9844.739029,2374.896044
21208.869075,-74.020594,-7402.059420,-1838.629195
21208.869408,-1998.556043,-11843.295072,-689.485948
21208.869741,4071.132681,-7994.224174,229.828649
21208.870074,-1850.514855,-10658.965565,-1685.410096
21208.870408,-1924.535449,-11325.150913,-4826.401637
21208.870741,-3552.988522,-8364.327145,-3064.381992
21208.871074,-370.102971,-11251.130318,-1378.971896
21208.871407,740.205942,-8586.388927,1762.019645
21208.871740,2072.576638,-7772.162391,5056.230287
21208.872073,3775.050304,-4737.318029,4596.572988
21208.872406,0.000000,-4811.338623,306.438199
21208.872740,4071.132681,-10066.800811,2374.896044
21208.873073,0.000000,-8364.327145,1225.752797
21208.873406,2886.803174,-13027.624579,1762.019645
21208.873739,5551.544565,-8882.471304,2834.553343
21208.874072,-2960.823768,-11029.068536,-3064.381992
21208.874405,-1406.391290,-10658.965565,-5362.668486
21208.874738,-4293.194464,-11917.315666,-3447.429741
21208.875072,-2072.576638,-10140.821405,-2221.676944
21208.875405,0.000000,-6883.915261,3677.258390
21208.875738,2886.803174,-8882.471304,4213.525239
21208.876071,0.000000,-3627.009116,0.000000
21208.876404,-1036.288319,-10066.800811,2374.896044
21208.876737,518.144159,-7105.977043,-689.485948
21208.877070,0.000000,-9844.739029,3753.867940
21208.877404,4219.173869,-7179.997637,3370.820191
21208.877737,3256.906145,-8660.409521,1302.362347
21208.878070,-2442.679609,-11843.295072,-3907.087040
21208.878403,1110.308913,-11251.130318,-1455.581446
21208.878736,-74.020594,-13027.624579,-4979.620737
21208.879069,1184.329507,-8068.244768,1225.752797
21208.879402,0.000000,-7476.080014,3370.820191
21208.879736,2294.638420,-7994.224174,383.047749
21208.880069,1998.556043,-7105.977043,2987.772442
21208.880402,1924.535449,-6883.915261,-459.657299
21208.880735,3849.070898,-9770.718434,3600.648841
21208.881068,3552.988522,-7624.121203,4519.963438
21208.881401,5033.400406,-7105.977043,2068.457845
21208.881734,592.164754,-7772.162391,-2451.505594
21208.882068,2960.823768,-11473.192101,-689.485948
21208.882401,-74.020594,-12139.377449,-4366.744339
21208.882734,888.247130,-9548.656652,-3677.258390
21208.883067,2590.720797,-11843.295072,-76.609550
21208.883400,-1406.391290,-9474.636058,689.485948
21208.883733,222.061783,-8808.450710,306.438199
21208.884066,-1554.432478,-8808.450710,1455.581446
21208.884400,1110.308913,-6217.729913,1762.019645
21208.884733,1924.535449,-7772.162391,6358.592633
21208.885066,4367.215058,-5255.462188,5898.935335
21208.885399,592.164754,-7328.038826,2987.772442
21208.885732,-4145.153275,-9548.656652,-1838.629195
21208.886065,-1258.350101,-12435.459826,-3753.867940
21208.886398,-4811.338623,-11917.315666,-5515.887586
21208.886732,-2664.741391,-10732.986159,-2451.505594
21208.887065,-2590.720797,-10658.965565,-689.485948
21208.887398,-5329.482782,-9548.656652,-2451.505594
21208.887731,-74.020594,-9178.553681,1149.143247
21208.888064,-1406.391290,-9696.697840,3524.039291
21208.888397,2368.659014,-5329.482782,3447.429741
21208.888730,1998.556043,-11251.130318,6052.154434
21208.889063,2368.659014,-4219.173869,5592.497135
21208.889397,1110.308913,-6883.915261,0.000000
21208.889730,0.000000,-10140.821405,-842.705048
21208.890063,-1776.494261,-10807.006753,-2528.115143
21208.890396,-2738.761985,-14211.954086,-2528.115143
21208.890729,1480.411884,-8808.450710,-383.047749
21208.891062,-4737.318029,-11029.068536,-2374.896044
21208.891395,-3182.885551,-11103.089130,-3447.429741
21208.891729,-2220.617826,-8364.327145,153.219100
21208.892062,2960.823768,-9844.739029,5745.716235
21208.892395,3552.988522,-4811.338623,4903.011187
21208.892728,4737.318029,-6883.915261,8503.660028
21208.893061,4071.132681,-5921.647536,2681.334243
21208.893394,0.000000,-7476.080014,306.438199
21208.893727,2886.803174,-10362.883188,-1608.800546
21208.894061,-2220.617826,-12361.439231,-3753.867940
21208.894394,-1332.370696,-11695.253884,-3677.258390
21208.894727,-1480.411884,-10807.006753,-1455.581446
21208.895060,-1258.350101,-9474.636058,-1302.362347
21208.895393,-1776.494261,-8364.327145,-76.609550
21208.895726,0.000000,-10140.821405,4213.525239
21208.896059,2294.638420,-8290.306550,2834.553343
21208.896393,3552.988522,-3627.009116,6435.202183
21208.896726,3330.926739,-6883.915261,4519.963438
21208.897059,1406.391290,-7698.141797,536.266849
21208.897392,518.144159,-9252.574275,-2374.896044
21208.897725,666.185348,-11177.109724,-3217.601092
21208.898058,0.000000,-10288.862594,-4903.011187
21208.898391,2368.659014,-11843.295072,-76.609550
21208.898725,-74.020594,-10140.821405,-2911.162892
21208.899058,-3182.885551,-8364.327145,-4903.011187
21208.899391,-2368.659014,-11917.315666,-1225.752797
21208.899724,-444.123565,-9992.780217,153.219100
21208.900057,5847.626942,-6365.771101,5592.497135
21208.900390,4219.173869,-7031.956449,8810.098227
21208.900723,3552.988522,-5329.482782,4366.744339
21208.901057,1628.453072,-7476.080014,612.876398
21208.901390,2294.638420,-8586.388927,-153.219100
21208.901723,1776.494261,-10436.903782,459.657299
21208.902056,-814.226536,-10140.821405,-1762.019645
21208.902389,-74.020594,-10658.965565,-1915.238745
21208.902722,-5551.544565,-11029.068536,-6741.640382
21208.903055,-2960.823768,-9548.656652,-4903.011187
21208.903389,-2442.679609,-13027.624579,-1915.238745
21208.903722,1702.473667,-8660.409521,1608.800546
21208.904055,2368.659014,-4811.338623,7967.393179
21208.904388,4367.215058,-5699.585753,5439.278036
21208.904721,5847.626942,-6957.935855,4826.401637
21208.905054,2886.803174,-11103.089130,3600.648841
21208.905387,4663.297435,-7105.977043,1149.143247
21208.905721,3478.967927,-10362.883188,-1149.143247
21208.906054,592.164754,-9400.615463,-383.047749
21208.906387,-2442.679609,-14211.954086,-6205.373534
21208.906720,-6587.832884,-12657.521608,-8273.831378
21208.907053,-3034.844362,-11843.295072,-3753.867940
21208.907386,-4145.153275,-9844.739029,-766.095498
21208.907719,2220.617826,-6957.935855,5362.668486
21208.908052,666.185348,-5329.482782,7584.345430
21208.908385,0.000000,-3034.844362,3677.258390
21208.908718,1702.473667,-4811.338623,0.000000
21208.909052,2886.803174,-8068.244768,1225.752797
21208.909385,3775.050304,-9474.636058,3600.648841
21208.909718,1702.473667,-9252.574275,-1532.190996
21208.910051,-3552.988522,-10140.821405,-4903.011187
21208.910384,-2368.659014,-15100.201217,-4979.620737
21208.910717,-2738.761985,-13471.748144,-4979.620737
21208.911050,-3997.112087,-12583.501014,-2987.772442
21208.911383,-370.102971,-9474.636058,1149.143247
21208.911716,592.164754,-7772.162391,7431.126331
21208.912049,1110.308913,-7105.977043,6052.154434
21208.912382,2590.720797,-3034.844362,6128.763984
21208.912715,3182.885551,-7994.224174,4826.401637
21208.913048,4663.297435,-8882.471304,4519.963438
21208.913381,2146.597232,-6883.915261,1532.190996
21208.913714,666.185348,-9696.697840,-1838.629195
21208.914047,-4663.297435,-12065.356855,-6588.421283
21208.914380,-6513.812290,-11917.315666,-8580.269578
21208.914714,-2442.679609,-14211.954086,-5592.497135
21208.915047,-4145.153275,-11325.150913,-1838.629195
21208.915380,0.000000,-7179.997637,4903.011187
21208.915713,2294.638420,-7994.224174,4519.963438
21208.916046,5847.626942,-4737.318029,6665.030833
21208.916379,4589.276840,-5699.585753,5898.935335
21208.916712,3997.112087,-7179.997637,5209.449386
21208.917045,5329.482782,-7105.977043,4136.915689
21208.917378,2442.679609,-9548.656652,1532.190996
21208.917711,1406.391290,-10955.047942,-383.047749
21208.918044,-2738.761985,-9770.718434,-7277.907231
21208.918377,-2146.597232,-14952.160028,-5898.935335
21208.918710,-2220.617826,-12657.521608,-4366.744339
21208.919043,-962.267725,-10658.965565,-2834.553343
21208.919376,-296.082377,-9474.636058,4519.963438
21208.919709,-74.020594,-7698.141797,1149.143247
21208.920042,0.000000,-6587.832884,5822.325785
21208.920376,4145.153275,-6365.771101,6665.030833
21208.920709,2886.803174,-5329.482782,1838.629195
21208.921042,5403.503377,-6735.874072,5439.278036
21208.921375,1998.556043,-9844.739029,2145.067394
21208.921708,222.061783,-8512.368333,-3830.477490
21208.922041,-5921.647536,-12509.480420,-8580.269578
21208.922374,-2442.679609,-15396.283594,-6818.249932
21208.922707,-3627.009116,-14211.954086,-3753.867940
21208.923040,0.000000,-8364.327145,0.000000
21208.923373,-1258.350101,-11547.212695,3600.648841
21208.923706,-3108.864956,-6587.832884,2451.505594
21208.924039,4663.297435,-4737.318029,5975.544884
21208.924372,2220.617826,-7920.203579,6971.469032
21208.924705,7550.100608,-4219.173869,7124.688131
21208.925038,3997.112087,-7328.038826,6052.154434
21208.925371,2886.803174,-10658.965565,-1915.238745
21208.925704,-2368.659014,-8512.368333,-4290.134789
21208.926038,-4737.318029,-13101.645173,-5822.325785
21208.926371,-666.185348,-14211.954086,-6511.811733
21208.926704,-1776.494261,-12287.418637,-995.924147
21208.927037,-296.082377,-9992.780217,-1532.190996
21208.927370,-1554.432478,-9474.636058,0.000000
21208.927703,3182.885551,-7105.977043,3447.429741
21208.928036,4663.297435,-7698.141797,5745.716235
21208.928369,7105.977043,-4811.338623,4903.011187
21208.928702,5921.647536,-6143.709319,8427.050478
21208.929035,5847.626942,-8882.471304,4213.525239
21208.929368,2886.803174,-7476.080014,-2987.772442
21208.929701,-1776.494261,-13175.665768,-2834.553343
21208.930034,-4515.256246,-13101.645173,-6741.640382
21208.930367,-2442.679609,-12139.377449,-4673.182538
21208.930700,-3034.844362,-11695.253884,-612.876398
21208.931033,-2442.679609,-8734.430116,-995.924147
21208.931366,-3775.050304,-7624.121203,459.657299
21208.931700,-888.247130,-7031.956449,2451.505594
21208.932033,2220.617826,-5625.565159,5745.716235
21208.932366,3552.988522,-4811.338623,6128.763984
21208.932699,2960.823768,-5699.585753,5209.449386
21208.933032,-74.020594,-8882.471304,-1915.238745
21208.933365,-1480.411884,-10732.986159,-3677.258390
21208.933698,-2812.782580,-14508.036463,-4060.306139
21208.934031,-3256.906145,-13693.809927,-4596.572988
21208.934364,-1184.329507,-12287.418637,-689.485948
21208.934697,-3108.864956,-9326.594869,-1225.752797
21208.935030,-1776.494261,-9548.656652,383.047749
21208.935363,-74.020594,-8882.471304,4826.401637
21208.935696,1332.370696,-4515.256246,5745.716235
21208.936029,4663.297435,-3552.988522,4366.744339
21208.936362,2960.823768,-5107.421000,7124.688131
21208.936695,2294.638420,-9474.636058,2374.896044
21208.937028,-592.164754,-10510.924376,-1838.629195
21208.937362,-3256.906145,-12953.603985,-3753.867940
21208.937695,-2368.659014,-13397.727550,-4826.401637
21208.938028,-1554.432478,-11029.068536,-2987.772442
21208.938361,-74.020594,-10510.924376,-689.485948
21208.938694,-2368.659014,-9548.656652,383.047749
21208.939027,-2220.617826,-6217.729913,-995.924147
21208.939360,0.000000,-7772.162391,3370.820191
21208.939693,4663.297435,-7105.977043,5439.278036
21208.940026,4663.297435,-4737.318029,5745.716235
21208.940359,4663.297435,-7994.224174,3907.087040
21208.940692,1702.473667,-8882.471304,-1302.362347
21208.941025,1480.411884,-10955.047942,-2681.334243
21208.941358,0.000000,-13027.624579,-3140.991542
21208.941691,2886.803174,-14211.954086,-76.609550
21208.942024,-1776.494261,-11325.150913,612.876398
21208.942357,0.000000,-8364.327145,919.314598
21208.942690,-74.020594,-9474.636058,-689.485948
21208.943024,-1776.494261,-4811.338623,0.000000
21208.943357,-1036.288319,-7105.977043,919.314598
21208.943690,1850.514855,-5995.668130,4519.963438
21208.944023,2368.659014,-5033.400406,4136.915689
21208.944356,740.205942,-8290.306550,2068.457845
21208.944689,-74.020594,-7920.203579,-3907.087040
21208.945022,0.000000,-11917.315666,-229.828649
21208.945355,2146.597232,-12435.459826,-1455.581446
21208.945688,4663.297435,-9548.656652,0.000000
21208.946021,0.000000,-11325.150913,612.876398
21208.946354,222.061783,-9178.553681,-3677.258390
21208.946687,-1554.432478,-11103.089130,-995.924147
21208.947020,370.102971,-9030.512492,-842.705048
21208.947353,1332.370696,-8438.347739,2681.334243
21208.947686,4071.132681,-6809.894666,4290.134789
21208.948019,1628.453072,-6439.791695,3677.258390
21208.948352,-518.144159,-8438.347739,1762.019645
21208.948686,-962.267725,-8142.265362,-1838.629195
21208.949019,-592.164754,-10881.027347,1838.629195
21208.949352,1406.391290,-9178.553681,995.924147
21208.949685,0.000000,-8364.327145,0.000000
21208.950018,-2664.741391,-12879.583391,-995.924147
21208.950351,-3108.864956,-8956.491898,-3677.258390
21208.950684,-5329.482782,-9844.739029,-2451.505594
21208.951017,518.144159,-10066.800811,-306.438199
21208.951350,-370.102971,-10066.800811,2987.772442
21208.951683,-1554.432478,-7476.080014,3677.258390
21208.952016,1998.556043,-5625.565159,3294.210641
21208.952349,1702.473667,-5921.647536,0.000000
21208.952682,1184.329507,-8956.491898,3294.210641
21208.953015,4663.297435,-12731.542202,4213.525239
21208.953348,2294.638420,-9400.615463,1072.533697
21208.953681,-888.247130,-11325.150913,-1455.581446
21208.954014,-2664.741391,-11917.315666,-4903.011187
21208.954348,-3478.967927,-11473.192101,-5132.839837
21208.954681,-1998.556043,-11547.212695,-2681.334243
21208.955014,296.082377,-7328.038826,229.828649
21208.955347,1702.473667,-5477.523971,0.000000
21208.955680,592.164754,-8068.244768,4673.182538
21208.956013,2886.803174,-7105.977043,3600.648841
21208.956346,2294.638420,-8142.265362,229.828649
21208.956679,1332.370696,-9474.636058,2068.457845
21208.957012,3849.070898,-8734.430116,3983.696590
21208.957345,3775.050304,-9030.512492,1455.581446
21208.957678,592.164754,-10510.924376,-689.485948
21208.958011,-1776.494261,-11843.295072,-3524.039291
21208.958344,-4071.132681,-9548.656652,-4903.011187
21208.958677,-74.020594,-13027.624579,-76.609550
21208.959010,3478.967927,-8068.244768,1915.238745
21208.959343,-2368.659014,-9844.739029,1838.629195
21208.959676,-1184.329507,-6291.750507,-1838.629195
21208.960010,2220.617826,-6883.915261,3907.087040
21208.960343,3849.070898,-6513.812290,4903.011187
21208.960676,5329.482782,-5107.421000,5975.544884
21208.961009,3478.967927,-8882.471304,3600.648841
21208.961342,0.000000,-10436.903782,-76.609550
21208.961675,-1850.514855,-11843.295072,-6358.592633
21208.962008,-3034.844362,-11917.315666,-7354.516781
21208.962341,370.102971,-13027.624579,-1302.362347
21208.962674,888.247130,-10140.821405,0.000000
21208.963007,1702.473667,-8290.306550,689.485948
21208.963340,0.000000,-8290.306550,76.609550
21208.963673,2738.761985,-7550.100608,919.314598
21208.964006,2886.803174,-8882.471304,2987.772442
21208.964339,3552.988522,-9844.739029,4366.744339
21208.964672,2960.823768,-9400.615463,4443.353888
21208.965005,2146.597232,-7846.182985,2757.943793
21208.965338,1480.411884,-8956.491898,1225.752797
21208.965672,1110.308913,-10955.047942,-76.609550
21208.966005,-3256.906145,-9696.697840,-4903.011187
21208.966338,-1332.370696,-13027.624579,-1915.238745
21208.966671,-3034.844362,-8586.388927,-2451.505594
21208.967004,-5773.606348,-8364.327145,-3064.381992
21208.967337,-2590.720797,-10066.800811,-1302.362347
21208.967670,-3627.009116,-9696.697840,-229.828649
21208.968003,296.082377,-7105.977043,2451.505594
21208.968336,3775.050304,-7550.100608,7201.297681
21208.968669,4071.132681,-5625.565159,3600.648841
21208.969002,1184.329507,-9548.656652,4826.401637
21208.969335,2294.638420,-9474.636058,-1608.800546
21208.969668,0.000000,-10732.986159,612.876398
21208.970001,0.000000,-11843.295072,-995.924147
21208.970334,-74.020594,-9622.677246,-2451.505594
21208.970667,-3775.050304,-11251.130318,-2911.162892
21208.971000,-1332.370696,-9474.636058,-3447.429741
21208.971334,-4589.276840,-10881.027347,-1378.971896
21208.971667,-2072.576638,-7179.997637,306.438199
21208.972000,1776.494261,-8882.471304,6971.469032
21208.972333,2886.803174,-5329.482782,6128.763984
21208.972666,148.041188,-3923.091493,2451.505594
21208.972999,2294.638420,-11843.295072,-76.609550
21208.973332,0.000000,-6587.832884,0.000000
21208.973665,2294.638420,-10288.862594,-1762.019645
21208.973998,2294.638420,-11251.130318,-383.047749
21208.974331,-962.267725,-10881.027347,-2298.286494
21208.974664,-2220.617826,-12065.356855,-3370.820191
21208.974997,-74.020594,-13619.789333,-2528.115143
21208.975330,-4515.256246,-10732.986159,-2451.505594
21208.975663,2664.741391,-6143.709319,3677.258390
21208.975996,5847.626942,-9474.636058,6052.154434
21208.976329,5033.400406,-4811.338623,7967.393179
21208.976662,2590.720797,-7920.203579,3907.087040
21208.976996,1628.453072,-8068.244768,229.828649
21208.977329,0.000000,-10807.006753,-1302.362347
21208.977662,444.123565,-12509.480420,-1225.752797
21208.977995,1406.391290,-9474.636058,-1685.410096
21208.978328,-7476.080014,-13101.645173,-4290.134789
21208.978661,-1998.556043,-8438.347739,-3907.087040
21208.978994,-4367.215058,-9178.553681,-2911.162892
21208.979327,-3256.906145,-7179.997637,1991.848295
21208.979660,2516.700203,-7105.977043,4826.401637
21208.979993,518.144159,-9474.636058,4213.525239
21208.980326,3775.050304,-3404.947333,2451.505594
21208.980659,2590.720797,-9474.636058,2681.334243
21208.980992,3849.070898,-7772.162391,1302.362347
21208.981325,1702.473667,-9770.718434,536.266849
21208.981658,2960.823768,-9918.759623,-459.657299
21208.981991,-2368.659014,-11917.315666,-3677.258390
21208.982325,-1554.432478,-13027.624579,-5209.449386
21208.982658,-74.020594,-11843.295072,-4060.306139
21208.982991,-814.226536,-9548.656652,-1149.143247
21208.983324,370.102971,-5995.668130,2451.505594
21208.983657,2368.659014,-4811.338623,5592.497135
21208.983990,4441.235652,-4515.256246,6588.421283
21208.984323,3997.112087,-4959.379811,3447.429741
21208.984656,2220.617826,-9622.677246,689.485948
21208.984989,1702.473667,-11251.130318,-689.485948
21208.985322,-962.267725,-11917.315666,0.000000
21208.985655,2146.597232,-9474.636058,-2528.115143
21208.985988,-2960.823768,-12213.398043,-2451.505594
21208.986321,1850.514855,-9474.636058,-1302.362347
21208.986654,-1258.350101,-13619.789333,-689.485948
21208.986987,-888.247130,-10066.800811,-76.609550
21208.987320,-592.164754,-7476.080014,3753.867940
21208.987653,-518.144159,-7624.121203,2451.505594
21208.987987,2368.659014,-5699.585753,4903.011187
21208.988320,0.000000,-7179.997637,4979.620737
21208.988653,518.144159,-5403.503377,0.000000
21208.988986,-3256.906145,-7772.162391,2451.505594
21208.989319,4367.215058,-8882.471304,-76.609550
21208.989652,-1850.514855,-10362.883188,-1455.581446
21208.989985,-3627.009116,-12879.583391,-6511.811733
21208.990318,-5477.523971,-13027.624579,-7814.174080
21208.990651,-7105.977043,-14952.160028,-2834.553343
21208.990984,0.000000,-7846.182985,1225.752797
21208.991317,-74.020594,-9474.636058,6665.030833
21208.991650,0.000000,-4811.338623,5669.106685
21208.991983,2146.597232,-5921.647536,3600.648841
21208.992316,-666.185348,-4811.338623,1225.752797
21208.992649,0.000000,-7031.956449,1532.190996
21208.992982,1406.391290,-10658.965565,1685.410096
21208.993315,-74.020594,-8882.471304,-842.705048
21208.993649,-1628.453072,-11103.089130,-4366.744339
21208.993982,-3108.864956,-12287.418637,-5822.325785
21208.994315,-666.185348,-13027.624579,-4979.620737
21208.994648,-370.102971,-11843.295072,842.705048
21208.994981,2368.659014,-7920.203579,3677.258390
21208.995314,888.247130,-8068.244768,3217.601092
21208.995647,592.164754,-5995.668130,1225.752797
21208.995980,4071.132681,-7698.141797,3600.648841
21208.996313,1776.494261,-4811.338623,0.000000
21208.996646,3552.988522,-8808.450710,4826.401637
21208.996979,3478.967927,-9474.636058,2068.457845
21208.997312,1110.308913,-6883.915261,-3064.381992
21208.997645,-74.020594,-10807.006753,-3370.820191
21208.997978,-3034.844362,-12213.398043,-5209.449386
21208.998311,-2664.741391,-11177.109724,-4136.915689
21208.998644,-888.247130,-10288.862594,1532.190996
21208.998977,888.247130,-8290.306550,-76.609550
21208.999311,-2294.638420,-5551.544565,0.000000
21208.999644,0.000000,-7179.997637,1225.752797
21208.999977,2812.782580,-8882.471304,2374.896044
21209.000310,1480.411884,-7179.997637,4290.134789
21209.000643,4663.297435,-7698.141797,2298.286494
21209.000976,2664.741391,-11029.068536,1378.971896
21209.001309,3552.988522,-10288.862594,-536.266849
21209.001642,3182.885551,-11843.295072,-1302.362347
21209.001975,2294.638420,-14211.954086,-689.485948
21209.002308,0.000000,-9548.656652,1225.752797
21209.002641,-1184.329507,-8660.409521,612.876398
21209.002974,-1776.494261,-8882.471304,-76.609550
21209.003307,-2590.720797,-8216.285956,-1302.362347
21209.003640,-1998.556043,-7328.038826,-995.924147
21209.003973,-740.205942,-7772.162391,2145.067394
21209.004306,1998.556043,-6365.771101,4290.134789
21209.004639,-1776.494261,-5107.421000,306.438199
21209.004973,-74.020594,-9770.718434,-2068.457845
21209.005306,-3552.988522,-8364.327145,-612.876398
21209.005639,1110.308913,-12879.583391,-1302.362347
21209.005972,-1184.329507,-9548.656652,-1915.238745
21209.006305,2072.576638,-8290.306550,2374.896044
21209.006638,148.041188,-9622.677246,3217.601092
21209.006971,2664.741391,-7328.038826,2681.334243
21209.007304,1036.288319,-6661.853478,1455.581446
21209.007637,1184.329507,-9178.553681,-612.876398
21209.007970,0.000000,-7772.162391,0.000000
21209.008303,1110.308913,-10658.965565,-76.609550
21209.008636,-74.020594,-8068.244768,-4290.134789
21209.008970,-1480.411884,-12509.480420,-306.438199
21209.009303,-592.164754,-10658.965565,-1302.362347
21209.009636,-2220.617826,-9918.759623,306.438199
21209.009969,3478.967927,-6809.894666,0.000000
21209.010302,1480.411884,-7105.977043,3600.648841
21209.010635,296.082377,-8512.368333,3370.820191
21209.010968,0.000000,-6587.832884,76.609550
21209.011301,-4293.194464,-9770.718434,-2987.772442
21209.011635,-370.102971,-9474.636058,-1685.410096
21209.011968,740.205942,-9400.615463,1302.362347
21209.012301,0.000000,-8364.327145,0.000000
21209.012634,518.144159,-9474.636058,-3753.867940
21209.012967,0.000000,-10732.986159,1608.800546
21209.013300,1110.308913,-11547.212695,-76.609550
21209.013633,4071.132681,-8290.306550,3600.648841
21209.013966,2368.659014,-9770.718434,5286.058936
21209.014299,296.082377,-7550.100608,1378.971896
21209.014633,-1480.411884,-9252.574275,-612.876398
21209.014966,-2294.638420,-9474.636058,-2451.505594
21209.015299,-1258.350101,-9474.636058,-76.609550
21209.015632,0.000000,-6587.832884,2451.505594
21209.015965,2960.823768,-8956.491898,6665.030833
21209.016298,-74.020594,-7105.977043,0.000000
21209.016631,-3552.988522,-7179.997637,-2451.505594
21209.016964,-1258.350101,-11843.295072,-2068.457845
21209.017298,-2146.597232,-10140.821405,-689.485948
21209.017631,-888.247130,-9252.574275,1225.752797
21209.017964,-370.102971,-7846.182985,536.266849
21209.018297,-74.020594,-7476.080014,-1608.800546
21209.018630,-2368.659014,-8364.327145,1838.629195
21209.018963,1110.308913,-9474.636058,-76.609550
21209.019296,-74.020594,-8216.285956,-1991.848295
21209.019629,2368.659014,-10140.821405,4290.134789
21209.019962,814.226536,-8364.327145,0.000000
21209.020296,2812.782580,-9178.553681,536.266849
21209.020629,1702.473667,-9548.656652,0.000000
21209.020962,1480.411884,-10510.924376,842.705048
21209.021295,2516.700203,-7179.997637,2451.505594
21209.021628,2368.659014,-8364.327145,5592.497135
21209.021961,3478.967927,-9474.636058,-229.828649
21209.022294,-1776.494261,-7772.162391,-3677.258390
21209.022627,-1776.494261,-10732.986159,0.000000
21209.022961,-666.185348,-8734.430116,-2298.286494
21209.023294,444.123565,-8290.306550,-76.609550
21209.023627,-592.164754,-8438.347739,-153.219100
21209.023960,-1628.453072,-9622.677246,0.000000
21209.024293,-1184.329507,-6587.832884,-2145.067394
21209.024626,962.267725,-10066.800811,229.828649
21209.024959,3256.906145,-10362.883188,4826.401637
21209.025292,6439.791695,-6291.750507,5975.544884
21209.025625,7031.956449,-10658.965565,7277.907231
21209.025959,1702.473667,-10066.800811,-2298.286494
21209.026292,-3552.988522,-11917.315666,-3600.648841
21209.026625,-3034.844362,-11843.295072,-4979.620737
21209.026958,-2738.761985,-8660.409521,-4290.134789
21209.027291,-666.185348,-10658.965565,-76.609550
21209.027624,-4219.173869,-8808.450710,-1991.848295
21209.027957,-2072.576638,-8290.306550,-76.609550
21209.028290,-740.205942,-6587.832884,1991.848295
21209.028624,-1850.514855,-8142.265362,1608.800546
21209.028957,2886.803174,-6143.709319,2681.334243
21209.029290,1184.329507,-8364.327145,6971.469032
21209.029623,2294.638420,-8142.265362,2374.896044
21209.029956,1702.473667,-7846.182985,-1838.629195
21209.030289,-1258.350101,-10510.924376,-3753.867940
21209.030622,-666.185348,-11325.150913,-2757.943793
21209.030955,-74.020594,-11843.295072,-1302.362347
21209.031289,-1036.288319,-10881.027347,-1532.190996
21209.031622,-4145.153275,-10140.821405,-2451.505594
21209.031955,3478.967927,-7698.141797,0.000000
21209.032288,1184.329507,-8956.491898,6665.030833
21209.032621,5551.544565,-5921.647536,4290.134789
21209.032954,2368.659014,-3627.009116,3830.477490
21209.033287,0.000000,-6587.832884,3064.381992
21209.033620,1776.494261,-8216.285956,1838.629195
21209.033953,-888.247130,-9178.553681,-1608.800546
21209.034287,-666.185348,-10510.924376,-5362.668486
21209.034620,-1258.350101,-12435.459826,-2528.115143
21209.034953,-2146.597232,-8660.409521,-3677.258390
21209.035286,-74.020594,-10658.965565,-2528.115143
21209.035619,-74.020594,-11843.295072,-2528.115143
21209.035952,0.000000,-9548.656652,383.047749
21209.036285,4071.132681,-10066.800811,5898.935335
21209.036618,6291.750507,-7031.956449,7890.783629
21209.036952,4959.379811,-7254.018232,7354.516781
21209.037285,4071.132681,-6587.832884,3600.648841
21209.037618,2442.679609,-10510.924376,689.485948
21209.037951,-1776.494261,-12509.480420,1762.019645
21209.038284,-74.020594,-9918.759623,-3217.601092
21209.038617,-2960.823768,-8660.409521,-3370.820191
21209.038950,-1184.329507,-10288.862594,-76.609550
21209.039283,-1850.514855,-11251.130318,-3753.867940
21209.039616,-4737.318029,-11177.109724,-2221.676944
21209.039950,-2960.823768,-8068.244768,-919.314598
21209.040283,888.247130,-7772.162391,3524.039291
21209.040616,1776.494261,-6883.915261,5822.325785
21209.040949,1776.494261,-6069.688724,4136.915689
21209.041282,1628.453072,-8364.327145,1991.848295
21209.041615,2812.782580,-6957.935855,1149.143247
21209.041948,2294.638420,-9918.759623,-766.095498
21209.042281,1110.308913,-11843.295072,-1302.362347
21209.042615,-1776.494261,-10436.903782,-2451.505594
21209.042948,-4737.318029,-12509.480420,-3294.210641
21209.043281,-74.020594,-10955.047942,-3140.991542
21209.043614,-3256.906145,-8956.491898,-1762.019645
21209.043947,3478.967927,-9474.636058,4826.401637
21209.044280,3108.864956,-6587.832884,8580.269578
21209.044613,1850.514855,-3627.009116,4290.134789
21209.044946,888.247130,-7698.141797,2604.724693
21209.045279,0.000000,-7179.997637,766.095498
21209.045613,0.000000,-8364.327145,1378.971896
21209.045946,-74.020594,-9548.656652,-1532.190996
21209.046279,-2960.823768,-7179.997637,-3370.820191
21209.046612,-4737.318029,-11843.295072,-4366.744339
21209.046945,-1850.514855,-10658.965565,-6358.592633
21209.047278,-3404.947333,-12879.583391,-3753.867940
21209.047611,-1480.411884,-10510.924376,-689.485948
21209.047944,3849.070898,-9474.636058,4903.011187
21209.048278,4441.235652,-7846.182985,8580.269578
21209.048611,4737.318029,-5107.421000,10955.165621
21209.048944,3478.967927,-5181.441594,2451.505594
21209.049277,2664.741391,-7698.141797,3524.039291
21209.049610,3478.967927,-9474.636058,-1915.238745
21209.049943,0.000000,-9548.656652,-1838.629195
21209.050276,-3330.926739,-10584.944971,-6052.154434
21209.050609,-4737.318029,-12361.439231,-7124.688131
21209.050942,-3034.844362,-11695.253884,-3907.087040
21209.051276,-3034.844362,-11177.109724,-2528.115143
21209.051609,-74.020594,-9474.636058,1149.143247
21209.051942,3478.967927,-7105.977043,5209.449386
21209.052275,2368.659014,-5403.503377,8120.612279
21209.052608,6439.791695,-7550.100608,8503.660028
21209.052941,2886.803174,-8290.306550,3907.087040
21209.053274,4663.297435,-7328.038826,1455.581446
21209.053607,2664.741391,-11029.068536,3677.258390
21209.053941,3108.864956,-9252.574275,-766.095498
21209.054274,-4737.318029,-10732.986159,-5822.325785
21209.054607,-2442.679609,-11843.295072,-8503.660028
21209.054940,-5921.647536,-11917.315666,-7354.516781
21209.055273,-1776.494261,-11029.068536,-76.609550
21209.055606,1702.473667,-7994.224174,3294.210641
21209.055939,2294.638420,-6513.812290,6665.030833
21209.056272,4737.318029,-4071.132681,6665.030833
21209.056606,2294.638420,-5625.565159,5056.230287
21209.056939,4959.379811,-6439.791695,2374.896044
21209.057272,2368.659014,-7179.997637,1225.752797
21209.057605,1702.473667,-10140.821405,-1072.533697
21209.057938,-370.102971,-9918.759623,-5822.325785
21209.058271,-4589.276840,-13767.830521,-7507.735880
21209.058604,-3404.947333,-13619.789333,-6665.030833
21209.058937,-1998.556043,-11843.295072,-3140.991542
21209.059270,4071.132681,-13027.624579,4213.525239
21209.059604,1702.473667,-5699.585753,3983.696590
21209.059937,3330.926739,-6513.812290,4903.011187
21209.060270,5329.482782,-8734.430116,7354.516781
21209.060603,2664.741391,-4811.338623,3370.820191
21209.060936,2812.782580,-9918.759623,3064.381992
21209.061269,3182.885551,-9918.759623,3907.087040
21209.061602,-888.247130,-8660.409521,-229.828649
21209.061935,-4737.318029,-10732.986159,-6128.763984
21209.062269,-4811.338623,-11251.130318,-7048.078582
21209.062602,-7105.977043,-9548.656652,-6128.763984
21209.062935,-2368.659014,-10658.965565,-76.609550
21209.063268,-74.020594,-8882.471304,2374.896044
21209.063601,-2960.823768,-6439.791695,2681.334243
21209.063934,666.185348,-7254.018232,3753.867940
21209.064267,1554.432478,-7994.224174,4060.306139
21209.064600,1924.535449,-7476.080014,2528.115143
21209.064933,2516.700203,-10807.006753,4826.401637
21209.065267,1702.473667,-7328.038826,0.000000
21209.065600,-1184.329507,-9548.656652,-4596.572988
21209.065933,-1184.329507,-13323.706956,-689.485948
21209.066266,-4959.379811,-9548.656652,-6128.763984
21209.066599,-1258.350101,-11103.089130,-2528.115143
21209.066932,370.102971,-9548.656652,2681.334243
21209.067265,74.020594,-6957.935855,2145.067394
21209.067598,-1332.370696,-7920.203579,1608.800546
21209.067932,2146.597232,-6513.812290,2374.896044
21209.068265,0.000000,-4811.338623,1225.752797
21209.068598,2738.761985,-8882.471304,3600.648841
21209.068931,2590.720797,-9474.636058,1762.019645
21209.069264,-2368.659014,-7772.162391,-2451.505594
21209.069597,1554.432478,-11843.295072,-1608.800546
21209.069930,-1184.329507,-11621.233289,-2374.896044
21209.070263,-814.226536,-9474.636058,-2681.334243
21209.070596,592.164754,-9548.656652,0.000000
21209.070930,4071.132681,-9474.636058,2068.457845
21209.071263,2368.659014,-7772.162391,2145.067394
21209.071596,3552.988522,-8808.450710,1302.362347
21209.071929,370.102971,-10807.006753,2145.067394
21209.072262,0.000000,-9548.656652,1838.629195
21209.072595,4663.297435,-9474.636058,3600.648841
21209.072928,1406.391290,-7179.997637,1532.190996
21209.073261,0.000000,-5995.668130,1762.019645
21209.073595,-74.020594,-8882.471304,-1532.190996
21209.073928,-3552.988522,-9844.739029,-4136.915689
21209.074261,-1258.350101,-11843.295072,-1608.800546
21209.074594,-2146.597232,-8882.471304,0.000000
21209.074927,-1036.288319,-7254.018232,-1072.533697
21209.075260,-74.020594,-9474.636058,-76.609550
21209.075593,-74.020594,-10658.965565,-76.609550
21209.075926,-2368.659014,-7179.997637,1225.752797
21209.076259,2960.823768,-9474.636058,4826.401637
21209.076593,3478.967927,-6291.750507,3677.258390
21209.076926,3256.906145,-9326.594869,3677.258390
21209.077259,1628.453072,-11325.150913,0.000000
21209.077592,0.000000,-10881.027347,-76.609550
21209.077925,0.000000,-9548.656652,-1149.143247
21209.078258,1332.370696,-7105.977043,0.000000
21209.078591,1480.411884,-9474.636058,1149.143247
21209.078924,-2664.741391,-5995.668130,-1838.629195
21209.079258,-1406.391290,-11843.295072,-689.485948
21209.079591,-2886.803174,-7698.141797,-4060.306139
21209.079924,222.061783,-11251.130318,1149.143247
21209.080257,4367.215058,-4811.338623,5515.887586
21209.080590,2368.659014,-7328.038826,3600.648841
21209.080923,1554.432478,-8512.368333,1149.143247
21209.081256,592.164754,-9548.656652,1532.190996
21209.081589,-74.020594,-9474.636058,-2834.553343
21209.081922,3552.988522,-9992.780217,3983.696590
21209.082256,2886.803174,-9474.636058,-76.609550
21209.082589,0.000000,-9548.656652,-459.657299
21209.082922,0.000000,-9548.656652,-1685.410096
21209.083255,814.226536,-9770.718434,-383.047749
21209.083588,-2590.720797,-10881.027347,-1532.190996
21209.083921,3701.029710,-9696.697840,3677.258390
21209.084254,3478.967927,-9474.636058,4213.525239
21209.084587,0.000000,-7179.997637,0.000000
21209.084921,2294.638420,-14211.954086,1149.143247
21209.085254,-74.020594,-9474.636058,-76.609550
21209.085587,0.000000,-8364.327145,3370.820191
21209.085920,2368.659014,-5995.668130,6128.763984
21209.086253,-3108.864956,-7476.080014,-76.609550
21209.086586,-2886.803174,-6883.915261,-2298.286494
21209.086919,-2960.823768,-9030.512492,-2911.162892
21209.087252,-3034.844362,-11843.295072,-2528.115143
21209.087586,-2368.659014,-6735.874072,-919.314598
21209.087919,-2516.700203,-10881.027347,76.609550
21209.088252,0.000000,-9178.553681,0.000000
21209.088585,1184.329507,-8956.491898,383.047749
21209.088918,4293.194464,-13027.624579,4826.401637
21209.089251,2738.761985,-7476.080014,1991.848295
21209.089584,4737.318029,-10140.821405,9116.536426
21209.089917,2294.638420,-7179.997637,2451.505594
21209.090250,296.082377,-8068.244768,1608.800546
21209.090584,-888.247130,-10807.006753,-229.828649
21209.090917,-2812.782580,-9696.697840,-3600.648841
21209.091250,-2294.638420,-9992.780217,-2528.115143
21209.091583,-1628.453072,-8512.368333,0.000000
21209.091916,-74.020594,-10658.965565,2221.676944
21209.092249,-1554.432478,-7179.997637,0.000000
21209.092582,1110.308913,-11547.212695,1532.190996
21209.092915,-666.185348,-9474.636058,-995.924147
21209.093249,0.000000,-6587.832884,2451.505594
21209.093582,4663.297435,-9474.636058,4826.401637
21209.093915,2368.659014,-6291.750507,2987.772442
21209.094248,-296.082377,-8660.409521,-842.705048
21209.094581,0.000000,-10510.924376,153.219100
21209.094914,-2368.659014,-8956.491898,-3677.258390
21209.095247,-3552.988522,-9548.656652,612.876398
21209.095580,4663.297435,-9474.636058,-1302.362347
21209.095913,0.000000,-10140.821405,-1991.848295
21209.096247,2368.659014,-8956.491898,4826.401637
21209.096580,518.144159,-6291.750507,612.876398
21209.096913,1554.432478,-8734.430116,766.095498
21209.097246,4293.194464,-8438.347739,4826.401637
21209.097579,1184.329507,-7179.997637,1838.629195
21209.097912,4071.132681,-6513.812290,-76.609550
21209.098245,-2960.823768,-13027.624579,-1302.362347
21209.098578,-1258.350101,-8290.306550,-5132.839837
21209.098912,-2960.823768,-11029.068536,-995.924147
21209.099245,4071.132681,-10955.047942,-76.609550
21209.099578,-1628.453072,-9548.656652,-2451.505594
21209.099911,-1850.514855,-11695.253884,-2374.896044
21209.100244,0.000000,-9030.512492,842.705048
21209.100577,-222.061783,-9252.574275,2374.896044
21209.100910,5033.400406,-6735.874072,5822.325785
21209.101243,5847.626942,-7105.977043,6971.469032
21209.101576,1776.494261,-8364.327145,3677.258390
21209.101910,1702.473667,-10658.965565,1762.019645
21209.102243,-3256.906145,-9548.656652,-4290.134789
21209.102576,-1702.473667,-12287.418637,-2834.553343
21209.102909,-1406.391290,-9918.759623,306.438199
21209.103242,-2294.638420,-9252.574275,-1838.629195
21209.103575,-4071.132681,-9696.697840,-3677.258390
21209.103908,-3552.988522,-9548.656652,-2298.286494
21209.104241,-1406.391290,-7105.977043,0.000000
21209.104575,0.000000,-8734.430116,4749.792088
21209.104908,4589.276840,-5551.544565,5898.935335
21209.105241,4441.235652,-6661.853478,4136.915689
21209.105574,1776.494261,-5995.668130,2068.457845
21209.105907,8216.285956,-9474.636058,-76.609550
21209.106240,0.000000,-9548.656652,-3677.258390
21209.106573,4367.215058,-11843.295072,-3677.258390
21209.106906,1110.308913,-13027.624579,-1455.581446
21209.107240,0.000000,-10732.986159,-6128.763984
21209.107573,-2368.659014,-12509.480420,-4903.011187
21209.107906,-1184.329507,-13249.686362,306.438199
21209.108239,2516.700203,-5477.523971,3983.696590
21209.108572,8142.265362,-6735.874072,12563.966167
21209.108905,7031.956449,-3330.926739,7660.954980
21209.109238,1184.329507,-4811.338623,7048.078582
21209.109572,2294.638420,-9178.553681,842.705048
21209.109905,-3552.988522,-5995.668130,-4903.011187
21209.110238,-3849.070898,-11769.274478,-3140.991542
21209.110571,-3404.947333,-11029.068536,-3983.696590
21209.110904,-4219.173869,-13619.789333,-4979.620737
21209.111237,-3627.009116,-10955.047942,-7431.126331
21209.111571,-4219.173869,-12953.603985,-3753.867940
21209.111904,-148.041188,-9474.636058,-76.609550
21209.112237,0.000000,-8364.327145,6128.763984
21209.112570,5403.503377,-7698.141797,10955.165621
21209.112903,5847.626942,-7698.141797,6971.469032
21209.113236,3182.885551,-7179.997637,4903.011187
21209.113570,3182.885551,-7254.018232,2681.334243
21209.113903,-1776.494261,-9104.533087,-919.314598
21209.114236,-74.020594,-9770.718434,-1991.848295
21209.114569,-4737.318029,-8364.327145,-6128.763984
21209.114902,-4737.318029,-11917.315666,-3753.867940
21209.115235,-3034.844362,-11843.295072,-5286.058936
21209.115569,-7105.977043,-9548.656652,-6741.640382
21209.115902,-3552.988522,-9548.656652,1225.752797
21209.116235,1406.391290,-6439.791695,3677.258390
21209.116568,2294.638420,-6069.688724,6511.811733
21209.116901,3108.864956,-7031.956449,5822.325785
21209.117234,3034.844362,-8216.285956,6052.154434
21209.117567,1776.494261,-5995.668130,1685.410096
21209.117901,1998.556043,-7994.224174,1762.019645
21209.118234,1406.391290,-10362.883188,-536.266849
21209.118567,-1332.370696,-11177.109724,-5592.497135
21209.118900,-666.185348,-13619.789333,-4366.744339
21209.119233,-1850.514855,-12435.459826,-4443.353888
21209.119566,-4441.235652,-11325.150913,-1915.238745
21209.119900,2886.803174,-12435.459826,2987.772442
21209.120233,1998.556043,-6587.832884,5515.887586
21209.120566,3478.967927,-4737.318029,5515.887586
21209.120899,3478.967927,-7402.059420,4290.134789
21209.121232,1480.411884,-7846.182985,2374.896044
21209.121565,1184.329507,-7846.182985,1455.581446
21209.121899,962.267725,-6439.791695,1072.533697
21209.122232,1924.535449,-9474.636058,-3140.991542
21209.122565,-4145.153275,-11917.315666,-3753.867940
21209.122898,-2442.679609,-11251.130318,-6818.249932
21209.123231,-2442.679609,-11843.295072,-6971.469032
21209.123564,-3034.844362,-12287.418637,-2528.115143
21209.123897,2960.823768,-8068.244768,3677.258390
21209.124231,2516.700203,-7698.141797,5745.716235
21209.124564,4293.194464,-8142.265362,5439.278036
21209.124897,4737.318029,-5107.421000,6128.763984
