#time,accel_x,accel_y,accel_z
20565.067320,5773.606348,-5403.503377,2451.505594
20565.067653,7402.059420,-9474.636058,2374.896044
20565.067986,3478.967927,-7624.121203,-4136.915689
20565.068320,296.082377,-8364.327145,-4290.134789
20565.068653,2812.782580,-9400.615463,-5822.325785
20565.068987,2886.803174,-10510.924376,-4443.353888
20565.069320,5033.400406,-10066.800811,-1608.800546
20565.069653,8808.450710,-10658.965565,2987.772442
20565.069987,13841.851115,-11843.295072,7277.907231
20565.070320,11769.274478,-7179.997637,3677.258390
20565.070654,14137.933492,-10362.883188,8503.660028
20565.070987,14137.933492,-7698.141797,2681.334243
20565.071321,11843.295072,-8068.244768,3447.429741
20565.071654,10066.800811,-8734.430116,-1225.752797
20565.071987,7994.224174,-9770.718434,-2911.162892
20565.072321,5847.626942,-11769.274478,-4366.744339
20565.072654,4219.173869,-10807.006753,-5209.449386
20565.072988,2886.803174,-13027.624579,-4673.182538
20565.073321,814.226536,-9844.739029,-4290.134789
20565.073654,2960.823768,-10140.821405,3830.477490
20565.073988,9030.512492,-7698.141797,9422.974625
20565.074321,10288.862594,-5921.647536,9116.536426
20565.074655,11251.130318,-5403.503377,9729.412825
20565.074988,11769.274478,-4811.338623,7354.516781
20565.075322,9918.759623,-5181.441594,3524.039291
20565.075655,8290.306550,-6883.915261,-1225.752797
20565.075988,5403.503377,-7772.162391,-7354.516781
20565.076322,4145.153275,-11991.336260,-9806.022374
20565.076655,4293.194464,-12805.562797,-7431.126331
20565.076989,5551.544565,-13323.706956,-7890.783629
20565.077322,5847.626942,-14211.954086,-4366.744339
20565.077655,7328.038826,-12731.542202,995.924147
20565.077989,9178.553681,-10807.006753,4979.620737
20565.078322,9696.697840,-8290.306550,6741.640382
20565.078656,11843.295072,-7179.997637,10725.336972
20565.078989,12065.356855,-3775.050304,9193.145976
20565.079323,9770.718434,-5921.647536,7890.783629
20565.079656,6439.791695,-7105.977043,1915.238745
20565.079989,1702.473667,-9104.533087,-3294.210641
20565.080323,-3552.988522,-9844.739029,-8427.050478
20565.080656,-3627.009116,-13027.624579,-8656.879127
20565.080990,-6809.894666,-9548.656652,-7354.516781
20565.081323,-4737.318029,-11769.274478,-4903.011187
20565.081657,-74.020594,-11843.295072,1762.019645
20565.081990,2960.823768,-6883.915261,5898.935335
20565.082323,7105.977043,-6957.935855,8044.002729
20565.082657,7550.100608,-5921.647536,6588.421283
20565.082990,7105.977043,-6365.771101,4136.915689
20565.083324,7254.018232,-7846.182985,2451.505594
20565.083657,3775.050304,-6291.750507,-4290.134789
20565.083990,0.000000,-8364.327145,-4903.011187
20565.084324,1998.556043,-13471.748144,-5745.716235
20565.084657,-1258.350101,-11695.253884,-4903.011187
20565.084991,-74.020594,-13323.706956,-2528.115143
20565.085324,1850.514855,-10732.986159,229.828649
20565.085658,6291.750507,-8956.491898,6281.983084
20565.085991,11547.212695,-4663.297435,9269.755526
20565.086324,14137.933492,-4737.318029,9116.536426
20565.086658,10658.965565,-4811.338623,5515.887586
20565.086991,10807.006753,-8882.471304,3217.601092
20565.087325,8808.450710,-9474.636058,-3140.991542
20565.087658,2368.659014,-9548.656652,-7354.516781
20565.087991,1110.308913,-11103.089130,-10801.946522
20565.088325,-2442.679609,-14508.036463,-8044.002729
20565.088658,-2368.659014,-12731.542202,-5286.058936
20565.088992,-1480.411884,-13027.624579,-1072.533697
20565.089325,2368.659014,-10140.821405,4366.744339
20565.089659,4737.318029,-6291.750507,12563.966167
20565.089992,12953.603985,-5625.565159,12180.918418
20565.090325,10066.800811,-1258.350101,7354.516781
20565.090659,7105.977043,-4811.338623,5209.449386
20565.090992,7624.121203,-7105.977043,-1302.362347
20565.091326,3627.009116,-8808.450710,-4826.401637
20565.091659,-2220.617826,-11621.233289,-10342.289223
20565.091992,-7254.018232,-14582.057057,-11491.432470
20565.092326,-8438.347739,-13767.830521,-9882.631924
20565.092659,-3923.091493,-13027.624579,-2298.286494
20565.092993,740.205942,-8882.471304,3600.648841
20565.093326,3108.864956,-7624.121203,7890.783629
20565.093660,7402.059420,-8142.265362,12793.794817
20565.093993,9400.615463,-5921.647536,10342.289223
20565.094326,4219.173869,-7179.997637,6435.202183
20565.094660,592.164754,-4811.338623,1838.629195
20565.094993,-74.020594,-10066.800811,-2528.115143
20565.095327,-3997.112087,-10288.862594,-6741.640382
20565.095660,-3923.091493,-9474.636058,-8120.612279
20565.095993,-3256.906145,-9918.759623,-5132.839837
20565.096327,-3256.906145,-9252.574275,-3983.696590
20565.096660,-1258.350101,-9474.636058,-1302.362347
20565.096994,-1850.514855,-13027.624579,-76.609550
20565.097327,-3404.947333,-11325.150913,2451.505594
20565.097661,1332.370696,-11177.109724,6741.640382
20565.097994,1406.391290,-9474.636058,4826.401637
20565.098327,1110.308913,-8882.471304,4826.401637
20565.098661,1110.308913,-7254.018232,2987.772442
20565.098994,3552.988522,-6735.874072,4903.011187
20565.099328,2294.638420,-5403.503377,3447.429741
20565.099661,0.000000,-4219.173869,-1838.629195
20565.099995,-1850.514855,-8290.306550,-4979.620737
20565.100328,-5921.647536,-7772.162391,-5515.887586
20565.100661,-2516.700203,-11843.295072,-4366.744339
20565.100995,-2442.679609,-15396.283594,-3753.867940
20565.101328,-6143.709319,-13397.727550,-4060.306139
20565.101662,-4737.318029,-14285.974681,153.219100
20565.101995,740.205942,-9918.759623,5056.230287
20565.102328,3552.988522,-4959.379811,8427.050478
20565.102662,6809.894666,-4959.379811,10572.117872
20565.102995,7031.956449,-1332.370696,4903.011187
20565.103329,5995.668130,-5921.647536,6665.030833
20565.103662,4663.297435,-6513.812290,-1608.800546
20565.103996,-3552.988522,-8660.409521,-4443.353888
20565.104329,-4441.235652,-12213.398043,-7967.393179
20565.104662,-3478.967927,-13767.830521,-7507.735880
20565.104996,-2220.617826,-12583.501014,-4903.011187
20565.105329,-1184.329507,-11399.171507,-2911.162892
20565.105663,2294.638420,-13027.624579,1762.019645
20565.105996,2368.659014,-7772.162391,6128.763984
20565.106329,7031.956449,-10658.965565,6665.030833
20565.106663,3849.070898,-8882.471304,6665.030833
20565.106996,1184.329507,-5403.503377,5515.887586
20565.107330,296.082377,-8068.244768,3370.820191
20565.107663,1850.514855,-6809.894666,1149.143247
20565.107997,1036.288319,-5847.626942,-689.485948
20565.108330,518.144159,-6957.935855,-2221.676944
20565.108663,-222.061783,-9326.594869,-4366.744339
20565.108997,-4737.318029,-10732.986159,-5975.544884
20565.109330,-1850.514855,-12657.521608,-5439.278036
20565.109664,-1998.556043,-13027.624579,-2374.896044
20565.109997,-1480.411884,-11917.315666,229.828649
20565.110330,2886.803174,-11695.253884,4213.525239
20565.110664,2886.803174,-9030.512492,6128.763984
20565.110997,2368.659014,-6587.832884,10648.727422
20565.111331,5847.626942,-4737.318029,5439.278036
20565.111664,2368.659014,-5699.585753,4290.134789
20565.111998,1036.288319,-6957.935855,-76.609550
20565.112331,-518.144159,-7402.059420,-1915.238745
20565.112664,-1258.350101,-8660.409521,-4136.915689
20565.112998,-4885.359217,-10807.006753,-6358.592633
20565.113331,-6587.832884,-12583.501014,-7431.126331
20565.113665,-4441.235652,-12805.562797,-2451.505594
20565.113998,2294.638420,-10955.047942,3294.210641
20565.114331,6439.791695,-9178.553681,4213.525239
20565.114665,3182.885551,-7772.162391,5515.887586
20565.114998,4071.132681,-8586.388927,3600.648841
20565.115332,2590.720797,-7994.224174,3294.210641
20565.115665,1184.329507,-7920.203579,1838.629195
20565.115999,-1406.391290,-8734.430116,-995.924147
20565.116332,-4737.318029,-7476.080014,-4903.011187
20565.116665,-7105.977043,-6587.832884,-4903.011187
20565.116999,-666.185348,-9474.636058,-2834.553343
20565.117332,1110.308913,-9474.636058,-689.485948
20565.117666,888.247130,-7772.162391,2451.505594
20565.117999,1406.391290,-7476.080014,1838.629195
20565.118332,2294.638420,-10436.903782,2528.115143
20565.118666,1480.411884,-9992.780217,2681.334243
20565.118999,-1480.411884,-10436.903782,1149.143247
20565.119333,-1554.432478,-9474.636058,-76.609550
20565.119666,-2368.659014,-11325.150913,1838.629195
20565.119999,-74.020594,-8290.306550,-1915.238745
20565.120333,-2368.659014,-6735.874072,153.219100
20565.120666,-962.267725,-3627.009116,0.000000
20565.120999,1406.391290,-8882.471304,2068.457845
20565.121333,814.226536,-6809.894666,-1302.362347
20565.121666,1184.329507,-8660.409521,1991.848295
20565.122000,1406.391290,-9696.697840,536.266849
20565.122333,-518.144159,-9696.697840,-689.485948
20565.122666,-74.020594,-11843.295072,-842.705048
20565.123000,888.247130,-9178.553681,536.266849
20565.123333,0.000000,-8364.327145,3753.867940
20565.123666,3182.885551,-9030.512492,2068.457845
20565.124000,-74.020594,-8364.327145,536.266849
20565.124333,0.000000,-7179.997637,-1838.629195
20565.124666,-74.020594,-7402.059420,-1378.971896
20565.125000,-1850.514855,-8882.471304,-2298.286494
20565.125333,-3552.988522,-7772.162391,-3064.381992
20565.125667,-74.020594,-10955.047942,-1378.971896
20565.126000,4663.297435,-8438.347739,3217.601092
20565.126333,5699.585753,-7624.121203,4673.182538
20565.126667,6735.874072,-9104.533087,4519.963438
20565.127000,4219.173869,-9178.553681,2681.334243
20565.127333,4737.318029,-12435.459826,4213.525239
20565.127667,1998.556043,-9400.615463,-2298.286494
20565.128000,-3997.112087,-12805.562797,-3064.381992
20565.128334,-4663.297435,-10881.027347,-4290.134789
20565.128667,-5107.421000,-9548.656652,-3677.258390
20565.129000,-370.102971,-7476.080014,0.000000
20565.129334,296.082377,-5699.585753,1991.848295
20565.129667,1998.556043,-7328.038826,4060.306139
20565.130000,2664.741391,-3627.009116,2757.943793
20565.130334,4663.297435,-8290.306550,3294.210641
20565.130667,5551.544565,-7698.141797,1455.581446
20565.131000,0.000000,-10732.986159,689.485948
20565.131334,-1258.350101,-13619.789333,-2528.115143
20565.131667,-4737.318029,-13471.748144,-3140.991542
20565.132001,-3108.864956,-12065.356855,-1838.629195
20565.132334,148.041188,-9030.512492,536.266849
20565.132667,-370.102971,-9030.512492,1608.800546
20565.133001,-888.247130,-7920.203579,2068.457845
20565.133334,-74.020594,-7105.977043,-1225.752797
20565.133667,0.000000,-7179.997637,612.876398
20565.134001,296.082377,-7772.162391,4826.401637
20565.134334,-666.185348,-6513.812290,536.266849
20565.134667,-74.020594,-9178.553681,1149.143247
20565.135001,1776.494261,-8586.388927,2145.067394
20565.135334,2886.803174,-8290.306550,2681.334243
20565.135668,1924.535449,-9178.553681,995.924147
20565.136001,-1258.350101,-11843.295072,-1915.238745
20565.136334,-3627.009116,-8956.491898,-6741.640382
20565.136668,-4737.318029,-11991.336260,-2528.115143
20565.137001,-3627.009116,-11843.295072,-3140.991542
20565.137334,-8290.306550,-7179.997637,-2451.505594
20565.137668,-1554.432478,-9474.636058,-76.609550
20565.138001,2960.823768,-6661.853478,6511.811733
20565.138335,4293.194464,-5107.421000,8427.050478
20565.138668,5921.647536,-3997.112087,7660.954980
20565.139001,5847.626942,-7105.977043,4826.401637
20565.139335,3997.112087,-9104.533087,1455.581446
20565.139668,2368.659014,-10288.862594,-2911.162892
20565.140001,-2220.617826,-13693.809927,-5362.668486
20565.140335,-4737.318029,-12213.398043,-7354.516781
20565.140668,-3997.112087,-15100.201217,-4979.620737
20565.141001,-2368.659014,-10140.821405,0.000000
20565.141335,0.000000,-8364.327145,3907.087040
20565.141668,5255.462188,-7105.977043,4826.401637
20565.142002,4293.194464,-3627.009116,5209.449386
20565.142335,5551.544565,-6439.791695,5592.497135
20565.142668,5181.441594,-6883.915261,4519.963438
20565.143002,2812.782580,-8216.285956,919.314598
20565.143335,-74.020594,-10658.965565,-689.485948
20565.143668,-2220.617826,-13027.624579,-3140.991542
20565.144002,-3701.029710,-9548.656652,-4903.011187
20565.144335,962.267725,-11251.130318,-1302.362347
20565.144669,2886.803174,-10066.800811,-1302.362347
20565.145002,592.164754,-9548.656652,0.000000
20565.145335,814.226536,-10362.883188,-689.485948
20565.145669,2294.638420,-10362.883188,1762.019645
20565.146002,2072.576638,-7920.203579,2757.943793
20565.146335,1702.473667,-8290.306550,2068.457845
20565.146669,1776.494261,-10510.924376,3600.648841
20565.147002,0.000000,-7772.162391,4903.011187
20565.147335,2516.700203,-7105.977043,4060.306139
20565.147669,1850.514855,-7698.141797,842.705048
20565.148002,-370.102971,-7698.141797,-689.485948
20565.148336,-2442.679609,-8660.409521,-3524.039291
20565.148669,-3404.947333,-10658.965565,-3983.696590
20565.149002,-5329.482782,-11251.130318,-4979.620737
20565.149336,-7994.224174,-11917.315666,-5515.887586
20565.149669,-2442.679609,-11843.295072,-1608.800546
20565.150002,592.164754,-10140.821405,3064.381992
20565.150336,4589.276840,-8734.430116,7277.907231
20565.150669,3108.864956,-5403.503377,6128.763984
20565.151002,2368.659014,-5995.668130,5209.449386
20565.151336,1406.391290,-6291.750507,3753.867940
20565.151669,1702.473667,-7402.059420,766.095498
20565.152003,-2146.597232,-9326.594869,-2451.505594
20565.152336,-3923.091493,-11843.295072,-3140.991542
20565.152669,-5995.668130,-9548.656652,-6128.763984
20565.153003,-2664.741391,-13471.748144,-2528.115143
20565.153336,-1776.494261,-11843.295072,-689.485948
20565.153669,0.000000,-7772.162391,3064.381992
20565.154003,2960.823768,-7476.080014,4213.525239
20565.154336,2516.700203,-6439.791695,3983.696590
20565.154670,3627.009116,-8290.306550,3064.381992
20565.155003,2738.761985,-8512.368333,2681.334243
20565.155336,1702.473667,-9474.636058,1762.019645
20565.155670,-1628.453072,-9844.739029,-2451.505594
20565.156003,-370.102971,-9622.677246,-2145.067394
20565.156336,666.185348,-8808.450710,-1915.238745
20565.156670,1850.514855,-8882.471304,383.047749
20565.157003,2220.617826,-11103.089130,995.924147
20565.157336,1110.308913,-9548.656652,-1225.752797
20565.157670,0.000000,-9548.656652,2451.505594
20565.158003,4663.297435,-10066.800811,1762.019645
20565.158337,888.247130,-8956.491898,1225.752797
20565.158670,0.000000,-10214.842000,1608.800546
20565.159003,3552.988522,-9696.697840,3600.648841
20565.159337,2590.720797,-6883.915261,3370.820191
20565.159670,3478.967927,-7698.141797,3140.991542
20565.160003,-74.020594,-8290.306550,-76.609550
20565.160337,-2220.617826,-7476.080014,-3677.258390
20565.160670,-74.020594,-8882.471304,-1915.238745
20565.161004,-74.020594,-11251.130318,-4366.744339
20565.161337,-4737.318029,-11029.068536,-3064.381992
20565.161670,-2146.597232,-14211.954086,-2528.115143
20565.162004,0.000000,-10807.006753,2528.115143
20565.162337,4071.132681,-6883.915261,4903.011187
20565.162670,6291.750507,-7624.121203,7584.345430
20565.163004,4737.318029,-5107.421000,5822.325785
20565.163337,0.000000,-4811.338623,3677.258390
20565.163670,2294.638420,-9474.636058,1149.143247
20565.164004,-4367.215058,-8290.306550,-5286.058936
20565.164337,-7105.977043,-9548.656652,-5669.106685
20565.164671,-6291.750507,-10362.883188,-6894.859482
20565.165004,-5551.544565,-11621.233289,-4060.306139
20565.165337,-4145.153275,-9104.533087,-689.485948
20565.165671,-1110.308913,-8808.450710,2911.162892
20565.166004,2960.823768,-5847.626942,5209.449386
20565.166337,4145.153275,-8290.306550,7277.907231
20565.166671,4663.297435,-7105.977043,2298.286494
20565.167004,0.000000,-8956.491898,2604.724693
20565.167337,-1258.350101,-11843.295072,-689.485948
20565.167671,-1258.350101,-9548.656652,-4136.915689
20565.168004,-1628.453072,-11251.130318,-1302.362347
20565.168338,592.164754,-8512.368333,-995.924147
20565.168671,-444.123565,-8290.306550,-689.485948
20565.169004,-1036.288319,-8512.368333,-1532.190996
20565.169338,-74.020594,-10066.800811,-1302.362347
20565.169671,2294.638420,-10584.944971,1149.143247
20565.170004,2368.659014,-8512.368333,2681.334243
20565.170338,2146.597232,-9474.636058,1762.019645
20565.170671,222.061783,-8586.388927,-383.047749
20565.171005,1776.494261,-9548.656652,5056.230287
20565.171338,4663.297435,-7550.100608,2068.457845
20565.171671,2368.659014,-6587.832884,2451.505594
20565.172005,-74.020594,-9178.553681,-1302.362347
20565.172338,-74.020594,-9474.636058,-3140.991542
20565.172671,666.185348,-8882.471304,-2604.724693
20565.173005,444.123565,-10066.800811,-1991.848295
20565.173338,-962.267725,-11177.109724,-1915.238745
20565.173671,-74.020594,-12435.459826,-76.609550
20565.174005,0.000000,-9548.656652,4826.401637
20565.174338,6291.750507,-7698.141797,3447.429741
20565.174672,4737.318029,-7179.997637,3677.258390
20565.175005,5329.482782,-6143.709319,4290.134789
20565.175338,2886.803174,-9030.512492,1685.410096
20565.175672,1998.556043,-8956.491898,0.000000
20565.176005,-2812.782580,-11251.130318,-3140.991542
20565.176338,-3997.112087,-10140.821405,-5286.058936
20565.176672,-4663.297435,-8882.471304,-5898.935335
20565.177005,-1258.350101,-11843.295072,-1302.362347
20565.177338,1702.473667,-8882.471304,-76.609550
20565.177672,0.000000,-8364.327145,2757.943793
20565.178005,5625.565159,-10362.883188,6894.859482
20565.178339,1554.432478,-8068.244768,3677.258390
20565.178672,3034.844362,-9474.636058,3447.429741
20565.179005,1406.391290,-7624.121203,995.924147
20565.179339,-1628.453072,-9326.594869,-842.705048
20565.179672,-3552.988522,-9548.656652,-3370.820191
20565.180005,-2442.679609,-11843.295072,-2834.553343
20565.180339,-2368.659014,-7179.997637,-3064.381992
20565.180672,-3552.988522,-9252.574275,1608.800546
20565.181006,-74.020594,-8882.471304,-1302.362347
20565.181339,-3552.988522,-9548.656652,-459.657299
20565.181672,-592.164754,-8660.409521,689.485948
20565.182006,888.247130,-7698.141797,2757.943793
20565.182339,0.000000,-8660.409521,3217.601092
20565.182672,-74.020594,-10510.924376,3600.648841
20565.183006,-74.020594,-9474.636058,383.047749
20565.183339,296.082377,-7772.162391,4136.915689
20565.183672,4663.297435,-9326.594869,4519.963438
20565.184006,-74.020594,-8882.471304,-1302.362347
20565.184339,-1184.329507,-9474.636058,-1455.581446
20565.184673,-2812.782580,-8956.491898,-3524.039291
20565.185006,-1850.514855,-9770.718434,-4060.306139
20565.185339,-4293.194464,-11547.212695,-3217.601092
20565.185673,-2072.576638,-10881.027347,-76.609550
20565.186006,962.267725,-9548.656652,2681.334243
20565.186339,4959.379811,-6735.874072,5439.278036
20565.186673,7402.059420,-6587.832884,6435.202183
20565.187006,5625.565159,-5995.668130,4903.011187
20565.187340,4145.153275,-7772.162391,4366.744339
20565.187673,4071.132681,-8438.347739,-1685.410096
20565.188006,-2368.659014,-9548.656652,-1532.190996
20565.188340,-1702.473667,-13027.624579,-4519.963438
20565.188673,-3034.844362,-12731.542202,-4979.620737
20565.189006,-2368.659014,-11769.274478,-3753.867940
20565.189340,-74.020594,-9844.739029,-612.876398
20565.189673,3775.050304,-7772.162391,3600.648841
20565.190006,5625.565159,-6587.832884,7354.516781
20565.190340,4737.318029,-5403.503377,8120.612279
20565.190673,6439.791695,-7105.977043,3294.210641
20565.191007,2812.782580,-6217.729913,383.047749
20565.191340,-2368.659014,-9844.739029,-306.438199
20565.191673,-2368.659014,-10140.821405,-5898.935335
20565.192007,-3552.988522,-12805.562797,-3830.477490
20565.192340,-1258.350101,-10066.800811,-2911.162892
20565.192673,-740.205942,-9252.574275,-306.438199
20565.193007,-74.020594,-9474.636058,-76.609550
20565.193340,0.000000,-8956.491898,2221.676944
20565.193673,1998.556043,-8364.327145,612.876398
20565.194007,2368.659014,-7328.038826,3983.696590
20565.194340,1480.411884,-9474.636058,4519.963438
20565.194674,-666.185348,-10066.800811,1072.533697
20565.195007,-592.164754,-9844.739029,842.705048
20565.195340,0.000000,-8512.368333,1991.848295
20565.195674,740.205942,-7031.956449,1762.019645
20565.196007,-3997.112087,-8364.327145,-2221.676944
20565.196340,-2442.679609,-11251.130318,-2528.115143
20565.196674,-4737.318029,-8364.327145,-3907.087040
20565.197007,-3552.988522,-9992.780217,-689.485948
20565.197341,-4367.215058,-10658.965565,-2834.553343
20565.197674,-5329.482782,-9844.739029,-1991.848295
20565.198007,-1480.411884,-8956.491898,2451.505594
20565.198341,2812.782580,-7105.977043,6281.983084
20565.198674,5551.544565,-5847.626942,6128.763984
20565.199007,4737.318029,-6883.915261,5515.887586
20565.199341,4071.132681,-7105.977043,0.000000
20565.199674,0.000000,-9252.574275,536.266849
20565.200007,-74.020594,-13027.624579,-2528.115143
20565.200341,-4737.318029,-9548.656652,-4903.011187
20565.200674,-5329.482782,-10658.965565,-4979.620737
20565.201008,-3108.864956,-11621.233289,-3983.696590
20565.201341,-1998.556043,-11325.150913,-612.876398
20565.201674,1036.288319,-7772.162391,2528.115143
20565.202008,4737.318029,-7476.080014,7354.516781
20565.202341,6439.791695,-5181.441594,5822.325785
20565.202674,5921.647536,-6439.791695,5209.449386
20565.203008,4589.276840,-7920.203579,3907.087040
20565.203341,962.267725,-8808.450710,-612.876398
20565.203675,-3256.906145,-10732.986159,-2451.505594
20565.204008,-1554.432478,-11103.089130,-4979.620737
20565.204341,-3552.988522,-9548.656652,-1838.629195
20565.204675,-74.020594,-9474.636058,-3600.648841
20565.205008,1110.308913,-9474.636058,-1302.362347
20565.205341,0.000000,-8956.491898,0.000000
20565.205675,4367.215058,-9474.636058,1838.629195
20565.206008,5033.400406,-9400.615463,4826.401637
20565.206341,3849.070898,-8142.265362,3370.820191
20565.206675,2960.823768,-10584.944971,3294.210641
20565.207008,4071.132681,-9474.636058,1762.019645
20565.207342,3552.988522,-9474.636058,5515.887586
20565.207675,5255.462188,-8882.471304,2374.896044
20565.208008,518.144159,-8956.491898,-1532.190996
20565.208342,-2368.659014,-10436.903782,-1608.800546
20565.208675,-2294.638420,-9474.636058,-3447.429741
20565.209008,-2442.679609,-9918.759623,-3447.429741
20565.209342,-4885.359217,-11843.295072,-2987.772442
20565.209675,-4219.173869,-11843.295072,-2834.553343
20565.210008,-1258.350101,-7476.080014,0.000000
20565.210342,4071.132681,-8882.471304,4826.401637
20565.210675,2368.659014,-3627.009116,4060.306139
20565.211009,2960.823768,-7179.997637,6281.983084
20565.211342,2886.803174,-8290.306550,1608.800546
20565.211675,592.164754,-8882.471304,-76.609550
20565.212009,-2442.679609,-10732.986159,-2451.505594
20565.212342,-5107.421000,-11695.253884,-4366.744339
20565.212675,-8290.306550,-10732.986159,-5515.887586
20565.213009,-6809.894666,-10436.903782,-4903.011187
20565.213342,-1258.350101,-11251.130318,-383.047749
20565.213676,444.123565,-6587.832884,2451.505594
20565.214009,1332.370696,-5403.503377,7354.516781
20565.214342,3478.967927,-7698.141797,4213.525239
20565.214676,2368.659014,-8364.327145,3370.820191
20565.215009,2590.720797,-8438.347739,2374.896044
20565.215342,-666.185348,-10510.924376,-612.876398
20565.215676,-3256.906145,-9548.656652,-3677.258390
20565.216009,-4441.235652,-12879.583391,-2681.334243
20565.216342,-1628.453072,-9104.533087,-1225.752797
20565.216676,740.205942,-6143.709319,306.438199
20565.217009,3478.967927,-9474.636058,2987.772442
20565.217343,1110.308913,-9474.636058,-76.609550
20565.217676,1406.391290,-7772.162391,0.000000
20565.218009,2368.659014,-9548.656652,1225.752797
20565.218343,2886.803174,-10510.924376,2068.457845
20565.218676,1332.370696,-11547.212695,919.314598
20565.219009,2220.617826,-10510.924376,1762.019645
20565.219342,3478.967927,-8512.368333,2987.772442
20565.219675,4293.194464,-7179.997637,2834.553343
20565.220008,2072.576638,-7476.080014,1838.629195
20565.220341,0.000000,-9548.656652,-459.657299
20565.220674,518.144159,-9474.636058,-1608.800546
20565.221007,-1776.494261,-9844.739029,-1915.238745
20565.221340,-666.185348,-14063.912898,-1302.362347
20565.221673,-2442.679609,-10658.965565,-3447.429741
20565.222006,-74.020594,-10214.842000,0.000000
20565.222339,4441.235652,-8290.306550,6052.154434
20565.222672,4293.194464,-7476.080014,5439.278036
20565.223005,6143.709319,-7105.977043,5592.497135
20565.223338,4663.297435,-8882.471304,3294.210641
20565.223671,3552.988522,-8660.409521,0.000000
20565.224004,1924.535449,-11843.295072,-76.609550
20565.224338,-3552.988522,-9548.656652,-4903.011187
20565.224671,-5921.647536,-11029.068536,-4903.011187
20565.225004,-4071.132681,-10881.027347,-5362.668486
20565.225337,-3034.844362,-11399.171507,-1838.629195
20565.225670,0.000000,-8068.244768,1225.752797
20565.226003,3478.967927,-7105.977043,4979.620737
20565.226336,2220.617826,-4811.338623,3677.258390
20565.226669,5625.565159,-8882.471304,5439.278036
20565.227002,1406.391290,-8882.471304,2987.772442
20565.227335,-2368.659014,-8364.327145,1225.752797
20565.227668,-666.185348,-12435.459826,-1302.362347
20565.228001,-5625.565159,-10140.821405,-3677.258390
20565.228334,-2812.782580,-10140.821405,-2604.724693
20565.228667,-2294.638420,-9104.533087,-1302.362347
20565.229000,-370.102971,-9030.512492,-689.485948
20565.229333,-2960.823768,-9548.656652,153.219100
20565.229666,3478.967927,-9474.636058,1149.143247
20565.229999,888.247130,-8068.244768,3983.696590
20565.230332,2368.659014,-8364.327145,6971.469032
20565.230665,2294.638420,-9474.636058,2987.772442
20565.230998,0.000000,-8364.327145,2757.943793
20565.231332,1998.556043,-8216.285956,2068.457845
20565.231665,2072.576638,-8216.285956,1378.971896
20565.231998,-888.247130,-9400.615463,-536.266849
20565.232331,-4737.318029,-8364.327145,-3064.381992
20565.232664,-2146.597232,-9326.594869,-4443.353888
20565.232997,-1776.494261,-10214.842000,-2221.676944
20565.233330,-2886.803174,-10066.800811,-1915.238745
20565.233663,-2442.679609,-10658.965565,-1915.238745
20565.233996,-2368.659014,-9548.656652,2451.505594
20565.234329,3775.050304,-9178.553681,7277.907231
20565.234662,7031.956449,-5329.482782,4596.572988
20565.234995,4737.318029,-7179.997637,6971.469032
20565.235328,5847.626942,-9178.553681,3600.648841
20565.235661,1776.494261,-9474.636058,-689.485948
20565.235994,-444.123565,-11621.233289,-2221.676944
20565.236327,-2442.679609,-10658.965565,-4673.182538
20565.236660,-5921.647536,-9548.656652,-6741.640382
20565.236993,-4737.318029,-10732.986159,-4903.011187
20565.237326,-74.020594,-11843.295072,-1915.238745
20565.237659,2220.617826,-8882.471304,2374.896044
20565.237992,2368.659014,-6587.832884,6741.640382
20565.238326,5847.626942,-5921.647536,5745.716235
20565.238659,4145.153275,-7920.203579,5209.449386
20565.238992,4811.338623,-7846.182985,3753.867940
20565.239325,1850.514855,-8808.450710,612.876398
20565.239658,-3256.906145,-11843.295072,-2451.505594
20565.239991,-4737.318029,-9548.656652,-3677.258390
20565.240324,-3034.844362,-11843.295072,-4979.620737
20565.240657,-2220.617826,-7550.100608,-1378.971896
20565.240990,0.000000,-8956.491898,1149.143247
20565.241323,-2368.659014,-8364.327145,-2451.505594
20565.241656,2738.761985,-8512.368333,1225.752797
20565.241989,2368.659014,-9178.553681,4443.353888
20565.242322,2960.823768,-8068.244768,3600.648841
20565.242655,-74.020594,-9474.636058,536.266849
20565.242988,1184.329507,-11177.109724,3294.210641
20565.243321,740.205942,-6587.832884,153.219100
20565.243654,1776.494261,-7179.997637,2987.772442
20565.243987,-74.020594,-9252.574275,-1762.019645
20565.244320,-1406.391290,-10584.944971,-1608.800546
20565.244653,-2442.679609,-9548.656652,-3677.258390
20565.244986,-2146.597232,-9844.739029,-3064.381992
20565.245319,-3182.885551,-10288.862594,-2834.553343
20565.245653,-5625.565159,-10140.821405,-2451.505594
20565.245986,-74.020594,-10658.965565,995.924147
20565.246319,592.164754,-8364.327145,5975.544884
20565.246652,5847.626942,-8882.471304,7277.907231
20565.246985,5255.462188,-5403.503377,4290.134789
20565.247318,3330.926739,-8290.306550,4826.401637
20565.247651,3182.885551,-7476.080014,0.000000
20565.247984,0.000000,-9844.739029,-1302.362347
20565.248317,-2442.679609,-10955.047942,-5132.839837
20565.248650,-7105.977043,-11917.315666,-5822.325785
20565.248983,-4811.338623,-12435.459826,-4673.182538
20565.249316,-3108.864956,-11769.274478,-612.876398
20565.249649,814.226536,-7698.141797,2068.457845
20565.249982,4367.215058,-6809.894666,5745.716235
20565.250315,2960.823768,-3627.009116,5515.887586
20565.250648,5847.626942,-7105.977043,7277.907231
20565.250981,4663.297435,-8882.471304,2068.457845
20565.251314,0.000000,-8660.409521,459.657299
20565.251647,-74.020594,-13619.789333,-1302.362347
20565.251980,-3034.844362,-10732.986159,-4903.011187
20565.252313,-1628.453072,-11917.315666,-2681.334243
20565.252647,0.000000,-8956.491898,-306.438199
20565.252980,1850.514855,-7846.182985,0.000000
20565.253313,0.000000,-9548.656652,1225.752797
20565.253646,2294.638420,-9474.636058,-1302.362347
20565.253979,1184.329507,-7772.162391,306.438199
20565.254312,0.000000,-9400.615463,3600.648841
20565.254645,-74.020594,-9178.553681,-383.047749
20565.254978,0.000000,-8956.491898,2911.162892
20565.255311,962.267725,-9548.656652,3140.991542
20565.255644,2664.741391,-5995.668130,2604.724693
20565.255977,-592.164754,-9252.574275,383.047749
20565.256310,-74.020594,-9474.636058,-842.705048
20565.256643,-74.020594,-11547.212695,-4979.620737
20565.256976,-2368.659014,-8660.409521,-2298.286494
20565.257309,-1258.350101,-15100.201217,-689.485948
20565.257642,-4515.256246,-10436.903782,-3677.258390
20565.257975,-74.020594,-11547.212695,2068.457845
20565.258308,1036.288319,-9252.574275,4366.744339
20565.258641,5773.606348,-6513.812290,5822.325785
20565.258974,4515.256246,-7105.977043,5132.839837
20565.259307,1702.473667,-5625.565159,1762.019645
20565.259641,0.000000,-7179.997637,-3064.381992
20565.259974,592.164754,-9400.615463,-76.609550
20565.260307,-1258.350101,-9918.759623,-4596.572988
20565.260640,-3627.009116,-9548.656652,-6128.763984
20565.260973,-2072.576638,-12435.459826,-4519.963438
20565.261306,-1998.556043,-11695.253884,-2068.457845
20565.261639,3330.926739,-8734.430116,1991.848295
20565.261972,3552.988522,-8364.327145,4903.011187
20565.262305,3701.029710,-5921.647536,3294.210641
20565.262638,3552.988522,-7994.224174,3064.381992
20565.262971,4737.318029,-8068.244768,4443.353888
20565.263304,1776.494261,-7772.162391,1991.848295
20565.263637,0.000000,-10066.800811,612.876398
20565.263970,-74.020594,-11769.274478,-2068.457845
20565.264303,-74.020594,-10658.965565,-3447.429741
20565.264636,888.247130,-8068.244768,0.000000
20565.264969,2516.700203,-10658.965565,-76.609550
20565.265302,0.000000,-9548.656652,-1225.752797
20565.265635,2072.576638,-10140.821405,229.828649
20565.265968,5551.544565,-9030.512492,3294.210641
20565.266301,4959.379811,-8068.244768,3370.820191
20565.266635,1406.391290,-10658.965565,1762.019645
20565.266968,0.000000,-9548.656652,306.438199
20565.267301,666.185348,-7179.997637,612.876398
20565.267634,4071.132681,-9474.636058,2374.896044
20565.267967,888.247130,-7105.977043,0.000000
20565.268300,-1258.350101,-9474.636058,-689.485948
20565.268633,-1850.514855,-9474.636058,-3140.991542
20565.268966,-2146.597232,-9252.574275,-2757.943793
20565.269299,-3923.091493,-10066.800811,-3524.039291
20565.269632,-4811.338623,-11251.130318,-2987.772442
20565.269965,-2442.679609,-12139.377449,1149.143247
20565.270298,0.000000,-8364.327145,2451.505594
20565.270631,2368.659014,-8808.450710,6971.469032
20565.270964,4367.215058,-6217.729913,3983.696590
20565.271297,0.000000,-7476.080014,2451.505594
20565.271630,-962.267725,-7772.162391,0.000000
20565.271963,-2516.700203,-10658.965565,-1685.410096
20565.272296,-5329.482782,-10658.965565,-3677.258390
20565.272629,-6069.688724,-10288.862594,-4826.401637
20565.272962,-4959.379811,-11547.212695,-4366.744339
20565.273295,-3552.988522,-10140.821405,1455.581446
20565.273629,-74.020594,-9030.512492,4673.182538
20565.273962,2886.803174,-6069.688724,3217.601092
20565.274295,592.164754,-6587.832884,5515.887586
20565.274628,2368.659014,-6439.791695,3064.381992
20565.274961,3034.844362,-7920.203579,3677.258390
20565.275294,1184.329507,-9252.574275,459.657299
20565.275627,-2072.576638,-11399.171507,-1991.848295
20565.275960,-5625.565159,-8956.491898,-6128.763984
20565.276293,-1628.453072,-14211.954086,-689.485948
20565.276626,0.000000,-5403.503377,-1072.533697
20565.276959,222.061783,-7179.997637,0.000000
20565.277292,1776.494261,-7179.997637,1838.629195
20565.277625,1776.494261,-8068.244768,612.876398
20565.277958,3034.844362,-8734.430116,2298.286494
20565.278291,3404.947333,-8142.265362,2604.724693
20565.278624,0.000000,-10066.800811,-1072.533697
20565.278957,1406.391290,-8364.327145,0.000000
20565.279290,2886.803174,-10288.862594,1072.533697
20565.279623,5551.544565,-7846.182985,2451.505594
20565.279956,3552.988522,-8734.430116,1378.971896
20565.280289,4663.297435,-11843.295072,-76.609550
20565.280623,666.185348,-8512.368333,-3370.820191
20565.280956,1480.411884,-10881.027347,-2451.505594
20565.281289,1628.453072,-11843.295072,-2528.115143
20565.281622,-3108.864956,-10140.821405,-2451.505594
20565.281955,0.000000,-10140.821405,1762.019645
20565.282288,1480.411884,-9770.718434,4290.134789
20565.282621,4441.235652,-7476.080014,4826.401637
20565.282954,4441.235652,-6587.832884,5439.278036
20565.283287,2590.720797,-7994.224174,2374.896044
20565.283620,2294.638420,-5107.421000,-2451.505594
20565.283953,0.000000,-11547.212695,-76.609550
20565.284286,-1258.350101,-11843.295072,-3753.867940
20565.284619,-5921.647536,-10732.986159,-5515.887586
20565.284952,-4811.338623,-12435.459826,-4979.620737
20565.285285,-4737.318029,-11621.233289,-2604.724693
20565.285618,-1628.453072,-9400.615463,1455.581446
20565.285951,1406.391290,-7328.038826,3983.696590
20565.286284,592.164754,-5995.668130,3983.696590
20565.286617,814.226536,-5107.421000,1225.752797
20565.286950,2738.761985,-9474.636058,4826.401637
20565.287283,-666.185348,-7550.100608,919.314598
20565.287617,-4737.318029,-8364.327145,0.000000
20565.287950,-6365.771101,-11917.315666,-4213.525239
20565.288283,-3997.112087,-11029.068536,-2987.772442
20565.288616,-3775.050304,-10732.986159,-1762.019645
20565.288949,-1554.432478,-7698.141797,-2298.286494
20565.289282,-1258.350101,-10955.047942,-76.609550
20565.289615,-1480.411884,-8364.327145,306.438199
20565.289948,0.000000,-10658.965565,2987.772442
20565.290281,0.000000,-7179.997637,4903.011187
20565.290614,-74.020594,-10362.883188,3600.648841
20565.290947,-74.020594,-7698.141797,2374.896044
20565.291280,592.164754,-8882.471304,3600.648841
20565.291613,2294.638420,-5033.400406,3447.429741
20565.291946,2590.720797,-8290.306550,1149.143247
20565.292279,-3552.988522,-7476.080014,-2451.505594
20565.292612,-370.102971,-11843.295072,-4979.620737
20565.292945,-4589.276840,-9548.656652,-4903.011187
20565.293278,-4737.318029,-10140.821405,-3370.820191
20565.293611,-1850.514855,-11547.212695,-4366.744339
20565.293944,-2590.720797,-10288.862594,0.000000
20565.294277,2738.761985,-8512.368333,3370.820191
20565.294610,7031.956449,-5847.626942,6741.640382
20565.294944,8290.306550,-4811.338623,7431.126331
20565.295277,8290.306550,-6291.750507,5515.887586
20565.295610,4663.297435,-7772.162391,0.000000
20565.295943,1998.556043,-9992.780217,-3677.258390
20565.296276,0.000000,-10955.047942,-5362.668486
20565.296609,-2664.741391,-12213.398043,-5898.935335
20565.296942,-3256.906145,-10732.986159,-6128.763984
20565.297275,-666.185348,-12435.459826,-3140.991542
20565.297608,1406.391290,-8364.327145,0.000000
20565.297941,6291.750507,-9178.553681,5745.716235
20565.298274,9400.615463,-7105.977043,7890.783629
20565.298607,7105.977043,-4811.338623,6435.202183
20565.298940,6587.832884,-6291.750507,4290.134789
20565.299273,4811.338623,-7772.162391,1532.190996
20565.299606,-1036.288319,-9770.718434,-2374.896044
20565.299939,-666.185348,-11547.212695,-4979.620737
20565.300272,-3627.009116,-12805.562797,-7354.516781
20565.300605,-592.164754,-11695.253884,-1685.410096
20565.300938,740.205942,-11843.295072,-76.609550
20565.301271,222.061783,-7994.224174,-1991.848295
20565.301604,2960.823768,-9474.636058,4060.306139
20565.301938,5847.626942,-9474.636058,4979.620737
20565.302271,6883.915261,-5847.626942,5745.716235
20565.302604,2072.576638,-8808.450710,3600.648841
20565.302937,-2146.597232,-8882.471304,-1915.238745
20565.303270,-2220.617826,-7179.997637,0.000000
20565.303603,-74.020594,-10658.965565,1762.019645
20565.303936,814.226536,-8290.306550,-76.609550
20565.304269,-3775.050304,-9548.656652,-2451.505594
20565.304602,-3034.844362,-9178.553681,-3753.867940
20565.304935,-1924.535449,-9992.780217,-1762.019645
20565.305268,-4811.338623,-9104.533087,-2451.505594
20565.305601,-3997.112087,-9400.615463,-1072.533697
20565.305934,-6809.894666,-11917.315666,1225.752797
20565.306267,-1480.411884,-7994.224174,4826.401637
20565.306600,-74.020594,-7105.977043,3140.991542
20565.306933,1480.411884,-5107.421000,7354.516781
20565.307266,1184.329507,-7920.203579,7277.907231
20565.307599,-666.185348,-7105.977043,-1608.800546
20565.307932,-2442.679609,-9326.594869,-2834.553343
20565.308265,-5847.626942,-9844.739029,-4366.744339
20565.308598,-5477.523971,-10510.924376,-4673.182538
20565.308932,-7105.977043,-11621.233289,-4903.011187
20565.309265,-4145.153275,-11621.233289,-1608.800546
20565.309598,-740.205942,-9178.553681,1302.362347
20565.309931,1554.432478,-8216.285956,4366.744339
20565.310264,2738.761985,-7105.977043,4213.525239
20565.310597,1184.329507,-7105.977043,2374.896044
20565.310930,1184.329507,-8364.327145,5209.449386
20565.311263,4959.379811,-7994.224174,4826.401637
20565.311596,2294.638420,-9474.636058,-689.485948
20565.311929,-1850.514855,-12435.459826,-2528.115143
20565.312262,-1776.494261,-10066.800811,-4213.525239
20565.312595,-962.267725,-11843.295072,-2145.067394
20565.312928,4219.173869,-6513.812290,-1225.752797
20565.313261,2368.659014,-9696.697840,919.314598
20565.313594,3775.050304,-11103.089130,995.924147
20565.313927,2664.741391,-7179.997637,3064.381992
20565.314260,4885.359217,-11695.253884,3600.648841
20565.314593,4663.297435,-8882.471304,1455.581446
20565.314926,1776.494261,-8364.327145,2451.505594
20565.315259,4367.215058,-9326.594869,1762.019645
20565.315592,5921.647536,-6735.874072,4290.134789
20565.315926,4071.132681,-7105.977043,1149.143247
20565.316259,3108.864956,-7772.162391,-383.047749
20565.316592,-1258.350101,-11251.130318,-3753.867940
20565.316925,592.164754,-11547.212695,-2528.115143
20565.317258,-1554.432478,-12435.459826,-4979.620737
20565.317591,-3552.988522,-9548.656652,-5515.887586
20565.317924,-1776.494261,-11621.233289,0.000000
20565.318257,1850.514855,-8512.368333,3217.601092
20565.318587,6587.832884,-7179.997637,6818.249932
20565.318920,6291.750507,-7328.038826,7507.735880
20565.319253,5921.647536,-7031.956449,5439.278036
20565.319586,1776.494261,-6587.832884,306.438199
20565.319919,2886.803174,-12435.459826,-689.485948
20565.320252,-2738.761985,-8882.471304,-4673.182538
20565.320585,-7698.141797,-10732.986159,-4596.572988
20565.320918,-4811.338623,-12435.459826,-4979.620737
20565.321251,-7698.141797,-13175.665768,-689.485948
20565.321584,-2442.679609,-10362.883188,1762.019645
20565.321917,-592.164754,-7105.977043,4136.915689
20565.322250,222.061783,-5995.668130,5056.230287
20565.322583,1184.329507,-5477.523971,5975.544884
20565.322916,2294.638420,-9474.636058,3600.648841
20565.323249,-1776.494261,-6587.832884,2451.505594
20565.323582,-2738.761985,-10658.965565,-76.609550
20565.323915,-5255.462188,-14211.954086,-3753.867940
20565.324248,-8290.306550,-12213.398043,-4596.572988
20565.324581,-4367.215058,-10214.842000,-2681.334243
20565.324914,-1924.535449,-7624.121203,-919.314598
20565.325247,-1406.391290,-7476.080014,0.000000
20565.325580,740.205942,-8216.285956,1225.752797
20565.325913,1702.473667,-9474.636058,3294.210641
20565.326246,2294.638420,-7698.141797,4366.744339
20565.326579,518.144159,-8956.491898,2911.162892
20565.326912,-740.205942,-7476.080014,0.000000
20565.327245,-2960.823768,-7179.997637,1225.752797
20565.327578,2294.638420,-10658.965565,2374.896044
20565.327911,0.000000,-4811.338623,-2451.505594
20565.328244,-2072.576638,-9696.697840,-1838.629195
20565.328577,-74.020594,-9474.636058,-2681.334243
20565.328910,0.000000,-10436.903782,-1991.848295
20565.329243,1258.350101,-9844.739029,-1455.581446
20565.329576,222.061783,-10140.821405,-2145.067394
20565.329909,148.041188,-13397.727550,153.219100
20565.330242,2294.638420,-9992.780217,2451.505594
20565.330575,8216.285956,-8290.306550,4213.525239
20565.330908,3552.988522,-5995.668130,7354.516781
20565.331241,8586.388927,-6809.894666,6665.030833
20565.331574,2368.659014,-6291.750507,919.314598
20565.331907,1184.329507,-9548.656652,-229.828649
20565.332240,962.267725,-9992.780217,-2757.943793
20565.332573,-3404.947333,-10732.986159,-5745.716235
20565.332906,-666.185348,-11843.295072,-4979.620737
20565.333239,-4737.318029,-11029.068536,-4596.572988
20565.333572,1702.473667,-8734.430116,-2221.676944
20565.333905,3552.988522,-7179.997637,4903.011187
20565.334238,9104.533087,-7698.141797,8503.660028
20565.334571,8808.450710,-6809.894666,5745.716235
20565.334904,6291.750507,-9326.594869,6128.763984
20565.335237,5847.626942,-7550.100608,1455.581446
20565.335570,-666.185348,-10436.903782,-1225.752797
20565.335903,-2368.659014,-11843.295072,-5056.230287
20565.336236,-4219.173869,-14211.954086,-3753.867940
20565.336569,-3552.988522,-8956.491898,-3064.381992
20565.336902,-2368.659014,-7179.997637,612.876398
20565.337235,2590.720797,-8882.471304,1149.143247
20565.337568,1184.329507,-5699.585753,0.000000
20565.337901,4663.297435,-8808.450710,3907.087040
20565.338234,4515.256246,-8438.347739,4290.134789
20565.338567,2220.617826,-7402.059420,1915.238745
20565.338900,-1184.329507,-12509.480420,689.485948
20565.339233,-1258.350101,-9474.636058,-2528.115143
20565.339566,-2368.659014,-9844.739029,2911.162892
20565.339900,-74.020594,-8882.471304,-76.609550
20565.340233,-666.185348,-7550.100608,-2298.286494
20565.340566,-4737.318029,-7772.162391,-2451.505594
20565.340899,-1850.514855,-7624.121203,-2757.943793
20565.341232,-3997.112087,-9326.594869,-1762.019645
20565.341565,-4737.318029,-9992.780217,-2451.505594
20565.341898,-5699.585753,-10214.842000,0.000000
20565.342231,-2738.761985,-9178.553681,842.705048
20565.342564,740.205942,-7402.059420,4290.134789
20565.342897,2146.597232,-7698.141797,6205.373534
20565.343230,962.267725,-7031.956449,4826.401637
20565.343563,-1480.411884,-7179.997637,1838.629195
20565.343896,-74.020594,-9474.636058,-1608.800546
20565.344229,-4737.318029,-9548.656652,-4903.011187
20565.344562,-4737.318029,-11547.212695,-2528.115143
20565.344895,-5403.503377,-10955.047942,-5669.106685
20565.345228,-7105.977043,-10140.821405,-3677.258390
20565.345561,-1554.432478,-9474.636058,0.000000
20565.345894,740.205942,-7105.977043,3294.210641
20565.346227,1184.329507,-7179.997637,3753.867940
20565.346560,4663.297435,-8290.306550,4826.401637
20565.346893,5551.544565,-9474.636058,4213.525239
20565.347226,3552.988522,-5995.668130,5209.449386
20565.347559,4071.132681,-11843.295072,3600.648841
20565.347892,-2442.679609,-10584.944971,-4290.134789
20565.348225,-2368.659014,-10881.027347,-2604.724693
20565.348558,-2368.659014,-11621.233289,-2604.724693
20565.348891,3182.885551,-7105.977043,-1532.190996
20565.349224,3034.844362,-9474.636058,766.095498
20565.349557,1850.514855,-7402.059420,-612.876398
20565.349890,6439.791695,-6883.915261,0.000000
20565.350223,5329.482782,-10658.965565,6052.154434
20565.350556,5551.544565,-7402.059420,1302.362347
20565.350889,296.082377,-8364.327145,1225.752797
20565.351222,3478.967927,-10658.965565,-76.609550
20565.351555,4663.297435,-9770.718434,1685.410096
20565.351888,3552.988522,-8512.368333,536.266849
20565.352221,1998.556043,-10288.862594,-306.438199
20565.352554,0.000000,-11029.068536,-1838.629195
20565.352887,1110.308913,-8660.409521,-3677.258390
20565.353220,0.000000,-11029.068536,-76.609550
20565.353553,-74.020594,-8290.306550,-3447.429741
20565.353886,-2368.659014,-8364.327145,-1991.848295
20565.354219,1480.411884,-8364.327145,1991.848295
20565.354552,4885.359217,-7846.182985,5132.839837
20565.354885,5403.503377,-7772.162391,5822.325785
20565.355218,4071.132681,-6809.894666,3217.601092
20565.355551,2294.638420,-9474.636058,1149.143247
20565.355884,0.000000,-9548.656652,459.657299
20565.356217,-2442.679609,-9104.533087,-4903.011187
20565.356550,-4811.338623,-9548.656652,-5975.544884
20565.356883,-6217.729913,-13915.871710,-3753.867940
20565.357216,-7328.038826,-11325.150913,-6358.592633
20565.357549,-4367.215058,-10362.883188,459.657299
20565.357882,-592.164754,-6735.874072,4596.572988
20565.358215,1776.494261,-4811.338623,7967.393179
20565.358548,2886.803174,-4737.318029,6665.030833
20565.358881,592.164754,-7179.997637,6052.154434
20565.359214,-1480.411884,-7920.203579,1991.848295
20565.359547,-4737.318029,-9696.697840,-2681.334243
20565.359880,-7179.997637,-12139.377449,-6052.154434
20565.360213,-7476.080014,-14211.954086,-4979.620737
20565.360546,-7105.977043,-9548.656652,-7354.516781
20565.360879,-1554.432478,-11251.130318,-76.609550
20565.361212,-1554.432478,-6587.832884,612.876398
20565.361545,0.000000,-5403.503377,1838.629195
20565.361878,2738.761985,-9474.636058,4826.401637
20565.362211,2812.782580,-7105.977043,5209.449386
20565.362544,814.226536,-8660.409521,3140.991542
20565.362877,-814.226536,-9252.574275,689.485948
20565.363210,-74.020594,-8290.306550,-1302.362347
20565.363543,0.000000,-8956.491898,2451.505594
20565.363876,4663.297435,-11843.295072,2068.457845
20565.364209,-666.185348,-7328.038826,-3064.381992
20565.364542,-888.247130,-11621.233289,-1838.629195
20565.364875,1110.308913,-8068.244768,-4290.134789
20565.365208,444.123565,-10807.006753,-2221.676944
20565.365541,-74.020594,-9770.718434,-2681.334243
20565.365874,-592.164754,-10584.944971,-536.266849
20565.366207,0.000000,-7624.121203,0.000000
20565.366540,7105.977043,-8660.409521,8197.221829
20565.366873,8216.285956,-6291.750507,5898.935335
20565.367206,7179.997637,-3627.009116,3677.258390
20565.367539,7624.121203,-9474.636058,2987.772442
20565.367872,3256.906145,-8956.491898,-2451.505594
20565.368205,3923.091493,-10807.006753,-2987.772442
20565.368538,74.020594,-12065.356855,-4060.306139
20565.368871,222.061783,-12065.356855,-4596.572988
20565.369204,-2664.741391,-12879.583391,-4596.572988
20565.369537,2294.638420,-14211.954086,-76.609550
20565.369870,3034.844362,-6587.832884,3217.601092
20565.370203,6365.771101,-7031.956449,9652.803275
20565.370536,6735.874072,-7105.977043,6665.030833
20565.370869,2960.823768,-5551.544565,3677.258390
20565.371202,5255.462188,-7476.080014,2528.115143
20565.371535,0.000000,-6587.832884,0.000000
20565.371868,-3552.988522,-10732.986159,-4903.011187
20565.372201,-6365.771101,-11621.233289,-7354.516781
20565.372534,-3330.926739,-13027.624579,-4366.744339
20565.372867,-814.226536,-9474.636058,-1149.143247
20565.373200,1110.308913,-9104.533087,766.095498
20565.373533,1702.473667,-8290.306550,1149.143247
20565.373866,1406.391290,-7772.162391,3983.696590
20565.374199,5625.565159,-7402.059420,7277.907231
20565.374532,3182.885551,-9474.636058,4213.525239
20565.374865,-666.185348,-7476.080014,0.000000
20565.375198,-2442.679609,-10955.047942,-76.609550
20565.375531,-3182.885551,-9696.697840,-919.314598
20565.375864,-1258.350101,-9104.533087,153.219100
20565.376197,-5033.400406,-8438.347739,-1991.848295
20565.376530,-4737.318029,-7772.162391,-1838.629195
20565.376863,-3627.009116,-9474.636058,-4290.134789
20565.377196,-1850.514855,-11843.295072,-1302.362347
20565.377529,-6291.750507,-8068.244768,-3064.381992
20565.377862,-6957.935855,-7476.080014,0.000000
20565.378195,-3552.988522,-9104.533087,1532.190996
20565.378528,-1184.329507,-7772.162391,3907.087040
20565.378861,2146.597232,-7994.224174,5056.230287
20565.379194,1184.329507,-6217.729913,2987.772442
20565.379527,2072.576638,-9474.636058,3907.087040
20565.379860,-1554.432478,-7476.080014,-1225.752797
20565.380193,-74.020594,-11843.295072,-2528.115143
20565.380526,-5329.482782,-8956.491898,-3983.696590
20565.380859,-2738.761985,-12805.562797,-4290.134789
20565.381192,-2590.720797,-11621.233289,-1991.848295
20565.381525,-370.102971,-10362.883188,-76.609550
20565.381858,1850.514855,-7846.182985,3524.039291
20565.382191,3997.112087,-6809.894666,4903.011187
20565.382524,4515.256246,-6513.812290,3294.210641
20565.382857,3552.988522,-7179.997637,5362.668486
20565.383190,5847.626942,-6661.853478,2451.505594
20565.383523,1332.370696,-5995.668130,612.876398
20565.383856,1702.473667,-13619.789333,-2528.115143
20565.384189,-2442.679609,-10362.883188,-6205.373534
20565.384522,-1924.535449,-14063.912898,-4366.744339
20565.384855,3923.091493,-7105.977043,-1225.752797
20565.385188,2220.617826,-10732.986159,612.876398
20565.385521,4293.194464,-6291.750507,1225.752797
20565.385854,5255.462188,-11843.295072,4213.525239
20565.386187,4367.215058,-6587.832884,2757.943793
20565.386520,7624.121203,-7698.141797,6052.154434
20565.386853,2294.638420,-12435.459826,-76.609550
20565.387186,222.061783,-6439.791695,-1762.019645
20565.387519,2294.638420,-10658.965565,1149.143247
20565.387852,5921.647536,-9030.512492,2757.943793
20565.388185,2886.803174,-9252.574275,2068.457845
20565.388518,296.082377,-10140.821405,-2068.457845
20565.388851,-444.123565,-11843.295072,-4060.306139
20565.389184,-2220.617826,-11399.171507,-2834.553343
20565.389517,-1628.453072,-8660.409521,-3294.210641
20565.389850,-3775.050304,-9844.739029,0.000000
20565.390183,-2664.741391,-7179.997637,0.000000
20565.390516,148.041188,-10362.883188,5132.839837
20565.390849,5551.544565,-8290.306550,7277.907231
20565.391182,296.082377,-4811.338623,5669.106685
20565.391515,1406.391290,-8586.388927,2987.772442
20565.391848,-1258.350101,-8142.265362,-3370.820191
20565.392181,-2960.823768,-9992.780217,-3753.867940
20565.392514,-4589.276840,-9252.574275,-4213.525239
20565.392847,-5551.544565,-11547.212695,-4826.401637
20565.393180,-6809.894666,-11769.274478,-3677.258390
20565.393513,-4071.132681,-14211.954086,-76.609550
20565.393846,-1258.350101,-6291.750507,1225.752797
20565.394179,0.000000,-4811.338623,4903.011187
20565.394512,2072.576638,-6957.935855,6971.469032
20565.394845,0.000000,-4811.338623,4903.011187
20565.395178,2590.720797,-6661.853478,4290.134789
20565.395511,-592.164754,-8142.265362,842.705048
20565.395844,-5181.441594,-11621.233289,-4290.134789
20565.396177,-6883.915261,-13027.624579,-5592.497135
20565.396510,-5403.503377,-14211.954086,-4979.620737
20565.396843,-3182.885551,-7179.997637,-2451.505594
20565.397176,296.082377,-7476.080014,0.000000
20565.397509,1184.329507,-9178.553681,2068.457845
20565.397842,4663.297435,-8956.491898,4826.401637
20565.398175,4737.318029,-9030.512492,5209.449386
20565.398508,4737.318029,-7402.059420,4826.401637
20565.398841,1924.535449,-10288.862594,2374.896044
20565.399174,740.205942,-6883.915261,-689.485948
20565.399507,2886.803174,-10066.800811,229.828649
20565.399840,0.000000,-8364.327145,2911.162892
20565.400173,2738.761985,-8586.388927,-689.485948
20565.400506,-1776.494261,-8882.471304,-4213.525239
20565.400839,148.041188,-9474.636058,-2528.115143
20565.401172,-444.123565,-10584.944971,-1838.629195
20565.401506,-74.020594,-9474.636058,-2528.115143
20565.401839,-74.020594,-10362.883188,536.266849
20565.402172,592.164754,-9844.739029,2451.505594
20565.402505,2368.659014,-6587.832884,3064.381992
20565.402838,7031.956449,-8882.471304,6052.154434
20565.403171,7031.956449,-6513.812290,3447.429741
20565.403504,1776.494261,-9548.656652,3217.601092
20565.403837,2442.679609,-8882.471304,-689.485948
20565.404170,-296.082377,-10807.006753,-3447.429741
20565.404503,0.000000,-9696.697840,-4213.525239
20565.404836,-1554.432478,-11177.109724,-3983.696590
20565.405169,-3552.988522,-12583.501014,-3370.820191
20565.405502,-1776.494261,-10140.821405,-919.314598
20565.405835,2072.576638,-10658.965565,4290.134789
20565.406168,5625.565159,-5995.668130,6358.592633
20565.406501,5329.482782,-5995.668130,7048.078582
20565.406834,3552.988522,-7179.997637,3217.601092
20565.407167,3182.885551,-5921.647536,1149.143247
20565.407500,0.000000,-7179.997637,2451.505594
20565.407833,-666.185348,-11251.130318,-3524.039291
20565.408166,-4811.338623,-11843.295072,-5592.497135
20565.408499,-5921.647536,-11917.315666,-4366.744339
20565.408832,-2812.782580,-10436.903782,-2757.943793
20565.409165,444.123565,-8142.265362,459.657299
20565.409498,740.205942,-8364.327145,1455.581446
20565.409831,4663.297435,-9474.636058,4826.401637
20565.410164,2960.823768,-6587.832884,4903.011187
20565.410497,1184.329507,-7179.997637,5669.106685
20565.410830,2294.638420,-9474.636058,1762.019645
20565.411163,-2368.659014,-7179.997637,-1838.629195
20565.411496,1110.308913,-11843.295072,-76.609550
20565.411829,-814.226536,-10066.800811,-612.876398
20565.412162,-370.102971,-8438.347739,-1532.190996
20565.412495,-2368.659014,-10066.800811,-1608.800546
20565.412828,-1554.432478,-9178.553681,-1608.800546
20565.413161,-4737.318029,-9548.656652,612.876398
20565.413494,-1480.411884,-9474.636058,-76.609550
20565.413827,-2442.679609,-8068.244768,-2451.505594
20565.414160,-3552.988522,-10288.862594,2757.943793
20565.414493,518.144159,-7105.977043,1532.190996
20565.414826,1702.473667,-8734.430116,5286.058936
20565.415159,3701.029710,-4589.276840,4519.963438
20565.415492,-962.267725,-7920.203579,689.485948
20565.415825,-1184.329507,-7179.997637,-3370.820191
20565.416158,-4737.318029,-10140.821405,-1991.848295
20565.416491,-2442.679609,-11251.130318,-4060.306139
20565.416824,-3923.091493,-9178.553681,-5592.497135
20565.417157,-7105.977043,-12509.480420,-2451.505594
20565.417490,-1850.514855,-9474.636058,-2757.943793
20565.417823,370.102971,-9474.636058,3370.820191
20565.418156,4737.318029,-6291.750507,5822.325785
20565.418489,4145.153275,-6439.791695,5669.106685
20565.418822,2960.823768,-6291.750507,3294.210641
20565.419155,4293.194464,-7698.141797,3447.429741
20565.419488,3108.864956,-8068.244768,2145.067394
20565.419822,-74.020594,-10955.047942,-2221.676944
20565.420155,-3034.844362,-13619.789333,-4979.620737
20565.420488,-3627.009116,-11843.295072,-6665.030833
20565.420821,-3256.906145,-9548.656652,-2145.067394
20565.421154,0.000000,-8364.327145,766.095498
20565.421487,2294.638420,-7698.141797,153.219100
20565.421821,2812.782580,-11251.130318,4826.401637
20565.422154,2664.741391,-4811.338623,3677.258390
20565.422487,3997.112087,-7031.956449,4979.620737
20565.422820,2368.659014,-10140.821405,2987.772442
20565.423153,1480.411884,-5995.668130,612.876398
20565.423486,2886.803174,-10658.965565,0.000000
20565.423819,6069.688724,-10362.883188,2987.772442
20565.424153,1702.473667,-7476.080014,-2145.067394
20565.424486,-1406.391290,-9548.656652,-3677.258390
20565.424819,-1184.329507,-9326.594869,-3907.087040
20565.425152,-1036.288319,-10807.006753,-2757.943793
20565.425485,370.102971,-9696.697840,-1838.629195
20565.425818,-222.061783,-9474.636058,842.705048
20565.426152,1184.329507,-9104.533087,2757.943793
20565.426485,1554.432478,-7179.997637,1838.629195
20565.426818,5847.626942,-11843.295072,7277.907231
20565.427151,3627.009116,-2738.761985,4903.011187
20565.427484,2072.576638,-8660.409521,2451.505594
20565.427817,1776.494261,-7402.059420,-1608.800546
20565.428150,-1480.411884,-12435.459826,-2528.115143
20565.428484,-2738.761985,-10066.800811,-5209.449386
20565.428817,-3923.091493,-11177.109724,-4903.011187
20565.429150,-7179.997637,-13619.789333,-6205.373534
20565.429483,-5921.647536,-10732.986159,-1072.533697
20565.429816,-1850.514855,-9104.533087,1991.848295
20565.430149,2368.659014,-3034.844362,6741.640382
20565.430483,5551.544565,-6217.729913,7890.783629
20565.430816,4663.297435,-5773.606348,6052.154434
20565.431149,3108.864956,-6217.729913,4060.306139
20565.431482,-814.226536,-9104.533087,459.657299
20565.431815,-2590.720797,-10140.821405,-4903.011187
20565.432148,-8586.388927,-13323.706956,-7507.735880
20565.432482,-5847.626942,-14211.954086,-4979.620737
20565.432815,-4663.297435,-9844.739029,-4290.134789
20565.433148,-222.061783,-10658.965565,2374.896044
20565.433481,1998.556043,-7994.224174,842.705048
20565.433814,2294.638420,-7105.977043,3600.648841
20565.434147,5403.503377,-8290.306550,6052.154434
20565.434480,2664.741391,-7105.977043,5515.887586
20565.434814,740.205942,-8586.388927,2298.286494
20565.435147,-1702.473667,-8364.327145,153.219100
20565.435480,444.123565,-10658.965565,-76.609550
20565.435813,1406.391290,-9400.615463,-76.609550
20565.436146,-962.267725,-8438.347739,-2068.457845
20565.436479,-1924.535449,-9770.718434,-3217.601092
20565.436813,-1998.556043,-9548.656652,-4903.011187
20565.437146,-592.164754,-11695.253884,-689.485948
20565.437479,1110.308913,-11843.295072,-383.047749
20565.437812,-2886.803174,-9548.656652,0.000000
20565.438145,-74.020594,-9474.636058,1762.019645
20565.438478,1702.473667,-7550.100608,1378.971896
20565.438812,5995.668130,-8068.244768,6665.030833
20565.439145,7031.956449,-5255.462188,6358.592633
20565.439478,4663.297435,-6735.874072,3830.477490
20565.439811,1184.329507,-9548.656652,0.000000
20565.440144,0.000000,-11843.295072,-1915.238745
20565.440477,-2960.823768,-10732.986159,-4290.134789
20565.440810,-3552.988522,-9548.656652,-3677.258390
20565.441144,-1850.514855,-13767.830521,-3753.867940
20565.441477,-1924.535449,-9548.656652,-3064.381992
20565.441810,3997.112087,-10955.047942,3447.429741
20565.442143,6143.709319,-7402.059420,5822.325785
20565.442476,7402.059420,-5477.523971,6435.202183
20565.442809,7031.956449,-7994.224174,7277.907231
20565.443143,9400.615463,-9474.636058,6665.030833
20565.443476,3330.926739,-5699.585753,612.876398
20565.443809,888.247130,-11177.109724,-76.609550
20565.444142,-2442.679609,-10658.965565,-7354.516781
20565.444475,-6513.812290,-13397.727550,-3753.867940
20565.444808,-666.185348,-10214.842000,-3907.087040
20565.445142,-222.061783,-9474.636058,-842.705048
20565.445475,518.144159,-7920.203579,0.000000
20565.445808,814.226536,-8882.471304,1455.581446
20565.446141,5551.544565,-7105.977043,3447.429741
20565.446474,3923.091493,-6735.874072,2451.505594
20565.446807,3552.988522,-7994.224174,5439.278036
20565.447140,518.144159,-9474.636058,-76.609550
20565.447474,-1406.391290,-11251.130318,-76.609550
20565.447807,74.020594,-11251.130318,0.000000
20565.448140,-592.164754,-9474.636058,-383.047749
20565.448473,-962.267725,-9474.636058,-536.266849
20565.448806,-3256.906145,-9548.656652,-1685.410096
20565.449139,-4219.173869,-8068.244768,-3370.820191
20565.449473,-4145.153275,-10658.965565,-76.609550
20565.449806,-2442.679609,-9474.636058,-1915.238745
20565.450139,-6513.812290,-9548.656652,1225.752797
20565.450472,-1258.350101,-9474.636058,3294.210641
20565.450805,148.041188,-8142.265362,6281.983084
20565.451138,1628.453072,-5181.441594,5056.230287
20565.451472,-222.061783,-6439.791695,2298.286494
20565.451805,-2368.659014,-8660.409521,0.000000
20565.452138,-2960.823768,-9918.759623,-2834.553343
20565.452471,-4737.318029,-10658.965565,-3447.429741
20565.452804,-4219.173869,-10881.027347,-4136.915689
20565.453137,-6957.935855,-11029.068536,-5209.449386
20565.453470,-5329.482782,-9548.656652,-3677.258390
20565.453804,370.102971,-7402.059420,842.705048
20565.454137,2368.659014,-6291.750507,6741.640382
20565.454470,5551.544565,-6809.894666,7277.907231
20565.454803,4071.132681,-7698.141797,4213.525239
20565.455136,4737.318029,-7179.997637,4519.963438
20565.455469,3552.988522,-9030.512492,2221.676944
20565.455803,2294.638420,-9918.759623,-1762.019645
20565.456136,-3552.988522,-11917.315666,-5132.839837
20565.456469,-3034.844362,-13915.871710,-3753.867940
20565.456802,-1184.329507,-8364.327145,-3370.820191
20565.457135,0.000000,-8364.327145,1225.752797
20565.457468,3478.967927,-8290.306550,-383.047749
20565.457802,2368.659014,-5107.421000,1225.752797
20565.458135,5255.462188,-9474.636058,3600.648841
20565.458468,7328.038826,-6809.894666,4826.401637
20565.458801,3256.906145,-8364.327145,2757.943793
20565.459134,3034.844362,-9030.512492,383.047749
20565.459467,3478.967927,-9474.636058,-76.609550
20565.459800,0.000000,-10732.986159,0.000000
20565.460134,4663.297435,-9474.636058,-1302.362347
20565.460467,1110.308913,-10066.800811,-3294.210641
20565.460800,0.000000,-9548.656652,-2451.505594
20565.461133,1702.473667,-10066.800811,-2451.505594
20565.461466,1406.391290,-9992.780217,-229.828649
20565.461799,592.164754,-8660.409521,995.924147
20565.462133,222.061783,-8586.388927,1378.971896
20565.462466,1184.329507,-6587.832884,1225.752797
20565.462799,1184.329507,-8364.327145,7660.954980
20565.463132,5847.626942,-5329.482782,3753.867940
20565.463465,592.164754,-8364.327145,2451.505594
20565.463798,-1184.329507,-10140.821405,-919.314598
20565.464131,-3034.844362,-9918.759623,-5669.106685
20565.464465,-3627.009116,-11843.295072,-3600.648841
20565.464798,-3627.009116,-9622.677246,-4136.915689
20565.465131,-7105.977043,-11103.089130,-3983.696590
20565.465464,-7105.977043,-9548.656652,-3753.867940
20565.465797,-1554.432478,-9770.718434,4213.525239
20565.466130,1924.535449,-6291.750507,7660.954980
20565.466464,2590.720797,-5033.400406,7354.516781
20565.466797,2294.638420,-7698.141797,6052.154434
20565.467130,1406.391290,-8290.306550,2221.676944
20565.467463,-3552.988522,-7772.162391,919.314598
20565.467796,-666.185348,-12435.459826,-689.485948
20565.468129,-7772.162391,-11399.171507,-7737.564530
20565.468463,-8586.388927,-13989.892304,-7048.078582
20565.468796,-4515.256246,-10510.924376,-3294.210641
20565.469129,-1406.391290,-8068.244768,689.485948
20565.469462,1332.370696,-6069.688724,3064.381992
20565.469795,2886.803174,-7105.977043,3600.648841
20565.470128,4367.215058,-8290.306550,4826.401637
20565.470461,1184.329507,-7476.080014,6128.763984
20565.470795,1702.473667,-10658.965565,2987.772442
20565.471128,-74.020594,-8882.471304,-2145.067394
20565.471461,-962.267725,-10066.800811,-689.485948
20565.471794,1110.308913,-10140.821405,-536.266849
20565.472127,1110.308913,-8142.265362,-995.924147
20565.472460,518.144159,-9474.636058,-1532.190996
20565.472794,0.000000,-7179.997637,-1225.752797
20565.473127,1702.473667,-10658.965565,-2068.457845
20565.473460,0.000000,-8364.327145,1225.752797
20565.473793,1924.535449,-10658.965565,1762.019645
20565.474126,74.020594,-7254.018232,0.000000
20565.474459,2368.659014,-8364.327145,2757.943793
20565.474793,4885.359217,-10066.800811,4749.792088
20565.475126,8290.306550,-5847.626942,5745.716235
20565.475459,6735.874072,-7994.224174,3600.648841
20565.475792,5255.462188,-10066.800811,-76.609550
20565.476125,-814.226536,-8364.327145,-4596.572988
20565.476458,-74.020594,-11843.295072,-3140.991542
20565.476791,-74.020594,-10362.883188,-5669.106685
20565.477125,-4737.318029,-11325.150913,-3370.820191
20565.477458,-370.102971,-11843.295072,-995.924147
20565.477791,296.082377,-10140.821405,2451.505594
20565.478124,6217.729913,-6365.771101,6971.469032
20565.478457,6661.853478,-5403.503377,7507.735880
20565.478790,6439.791695,-6809.894666,6281.983084
20565.479124,4737.318029,-6587.832884,6894.859482
20565.479457,2294.638420,-8290.306550,-1225.752797
20565.479790,-1184.329507,-9548.656652,-4903.011187
20565.480123,-7105.977043,-12065.356855,-4979.620737
20565.480456,-5699.585753,-13915.871710,-5592.497135
20565.480789,-5329.482782,-12065.356855,-4290.134789
20565.481123,-814.226536,-9474.636058,-76.609550
20565.481456,-444.123565,-7698.141797,2221.676944
20565.481789,2590.720797,-6143.709319,4136.915689
20565.482122,1480.411884,-8068.244768,6971.469032
20565.482455,3552.988522,-5847.626942,4979.620737
20565.482788,1924.535449,-8364.327145,3600.648841
20565.483121,-518.144159,-8512.368333,0.000000
20565.483455,-1258.350101,-11251.130318,-1915.238745
20565.483788,-3552.988522,-11029.068536,-1685.410096
20565.484121,-74.020594,-13027.624579,-76.609550
20565.484454,-5329.482782,-8364.327145,-2451.505594
20565.484787,-2368.659014,-8808.450710,-1838.629195
20565.485120,-2442.679609,-11251.130318,-1915.238745
20565.485454,-2072.576638,-8364.327145,-306.438199
20565.485787,-2664.741391,-8364.327145,1685.410096
20565.486120,-2146.597232,-7328.038826,995.924147
20565.486453,-1776.494261,-6587.832884,1838.629195
20565.486786,0.000000,-8364.327145,6281.983084
20565.487119,4663.297435,-5921.647536,4213.525239
20565.487453,370.102971,-4811.338623,2451.505594
20565.487786,148.041188,-9696.697840,-1302.362347
20565.488119,-1258.350101,-10214.842000,-6052.154434
20565.488452,-2442.679609,-13323.706956,-3064.381992
20565.488785,-2220.617826,-9844.739029,-4519.963438
20565.489118,-4367.215058,-11843.295072,-2987.772442
20565.489451,-3256.906145,-9844.739029,-1838.629195
20565.489785,1776.494261,-10732.986159,8197.221829
20565.490118,5847.626942,-3627.009116,5515.887586
20565.490451,6809.894666,-4959.379811,7354.516781
20565.490784,5847.626942,-8290.306550,4826.401637
20565.491117,2368.659014,-5995.668130,2451.505594
20565.491450,3775.050304,-9918.759623,-76.609550
20565.491784,1480.411884,-11769.274478,-2834.553343
20565.492117,-3849.070898,-11917.315666,-6052.154434
20565.492450,-3627.009116,-14211.954086,-6205.373534
20565.492783,-666.185348,-12435.459826,-1302.362347
20565.493116,1702.473667,-9474.636058,-383.047749
20565.493449,2368.659014,-5403.503377,3677.258390
20565.493783,888.247130,-7179.997637,4290.134789
20565.494116,7031.956449,-6809.894666,6052.154434
20565.494449,3552.988522,-7476.080014,4903.011187
20565.494782,3627.009116,-7994.224174,3217.601092
20565.495115,2072.576638,-7994.224174,153.219100
20565.495448,-2960.823768,-11325.150913,-2145.067394
20565.495781,2294.638420,-9326.594869,-4366.744339
20565.496115,-2368.659014,-11325.150913,-3677.258390
20565.496448,0.000000,-9844.739029,-76.609550
20565.496781,814.226536,-9474.636058,-689.485948
20565.497114,-74.020594,-10584.944971,-76.609550
20565.497447,1258.350101,-9104.533087,1991.848295
20565.497780,-962.267725,-9104.533087,1762.019645
20565.498114,-592.164754,-7846.182985,1762.019645
20565.498447,-2960.823768,-7179.997637,612.876398
20565.498780,1702.473667,-8882.471304,2757.943793
20565.499113,2812.782580,-6365.771101,4826.401637
20565.499446,1702.473667,-6291.750507,2451.505594
20565.499779,-814.226536,-9178.553681,-1991.848295
20565.500112,-4219.173869,-8882.471304,-4366.744339
20565.500446,-74.020594,-14211.954086,-1915.238745
20565.500779,-3701.029710,-7772.162391,-3370.820191
20565.501112,-4145.153275,-11843.295072,-2451.505594
20565.501445,-4145.153275,-11843.295072,-2911.162892
20565.501778,-3552.988522,-10732.986159,2451.505594
20565.502111,1480.411884,-6883.915261,4826.401637
20565.502445,3182.885551,-5921.647536,6281.983084
20565.502778,1702.473667,-6291.750507,3753.867940
20565.503111,1184.329507,-6587.832884,2451.505594
20565.503444,1998.556043,-7624.121203,612.876398
20565.503777,0.000000,-6587.832884,0.000000
20565.504110,-2738.761985,-12731.542202,-3753.867940
20565.504444,-4811.338623,-12879.583391,-5592.497135
20565.504777,-4145.153275,-12879.583391,-3140.991542
20565.505110,-2072.576638,-9548.656652,-1072.533697
20565.505443,1702.473667,-7994.224174,612.876398
20565.505776,2368.659014,-7402.059420,3907.087040
20565.506109,5773.606348,-7698.141797,6052.154434
20565.506442,4663.297435,-5699.585753,2757.943793
20565.506776,4219.173869,-9252.574275,4903.011187
20565.507109,3478.967927,-9474.636058,-76.609550
20565.507442,-4441.235652,-9548.656652,-2451.505594
20565.507775,1110.308913,-11547.212695,-2068.457845
20565.508108,222.061783,-9622.677246,-689.485948
20565.508441,592.164754,-8216.285956,-689.485948
20565.508775,0.000000,-9252.574275,-1149.143247
20565.509108,-666.185348,-9474.636058,-2834.553343
20565.509441,-2368.659014,-8364.327145,0.000000
20565.509774,1702.473667,-9474.636058,1149.143247
20565.510107,-1258.350101,-7698.141797,-689.485948
20565.510440,-4145.153275,-8364.327145,612.876398
20565.510774,4071.132681,-9474.636058,2987.772442
20565.511107,4441.235652,-7994.224174,5745.716235
20565.511440,6143.709319,-5625.565159,4366.744339
20565.511773,3182.885551,-8512.368333,383.047749
20565.512106,-1258.350101,-11843.295072,-3753.867940
20565.512439,-2220.617826,-11103.089130,-3907.087040
20565.512772,-2812.782580,-11473.192101,-4443.353888
20565.513106,-2886.803174,-9770.718434,-4213.525239
20565.513439,-5921.647536,-11917.315666,-1838.629195
20565.513772,1998.556043,-10658.965565,1762.019645
20565.514105,2960.823768,-5995.668130,5515.887586
20565.514438,4737.318029,-6291.750507,9422.974625
20565.514771,4367.215058,-7105.977043,5056.230287
20565.515105,2368.659014,-5403.503377,2451.505594
20565.515438,4145.153275,-7476.080014,3447.429741
20565.515771,814.226536,-8512.368333,-766.095498
20565.516104,-3923.091493,-10584.944971,-5439.278036
20565.516437,-4811.338623,-13619.789333,-6205.373534
20565.516770,-3108.864956,-14211.954086,-2528.115143
20565.517104,-2960.823768,-7179.997637,-1838.629195
20565.517437,0.000000,-8512.368333,612.876398
20565.517770,2072.576638,-8734.430116,2987.772442
20565.518103,3775.050304,-8734.430116,4903.011187
20565.518436,7031.956449,-6809.894666,5132.839837
20565.518769,5847.626942,-8956.491898,5439.278036
20565.519102,3404.947333,-7994.224174,2834.553343
20565.519435,-1258.350101,-9548.656652,-1455.581446
20565.519769,666.185348,-12731.542202,-1302.362347
20565.520102,-3552.988522,-9548.656652,0.000000
20565.520435,-296.082377,-9918.759623,-76.609550
20565.520768,-1850.514855,-9474.636058,-3447.429741
20565.521101,-2442.679609,-9474.636058,-1762.019645
20565.521434,-1554.432478,-8660.409521,0.000000
20565.521767,-1036.288319,-8068.244768,1991.848295
20565.522100,-2960.823768,-7179.997637,0.000000
20565.522434,-3256.906145,-9844.739029,612.876398
20565.522767,1110.308913,-9474.636058,2374.896044
20565.523100,1184.329507,-4811.338623,4903.011187
20565.523433,4441.235652,-7698.141797,4826.401637
20565.523766,1110.308913,-10658.965565,-689.485948
20565.524099,-4145.153275,-10140.821405,-3677.258390
20565.524432,-2368.659014,-12435.459826,-3064.381992
20565.524765,-2368.659014,-9844.739029,-4060.306139
20565.525099,-4219.173869,-10140.821405,-4290.134789
20565.525432,-4219.173869,-11843.295072,-2528.115143
20565.525765,-3256.906145,-8364.327145,1225.752797
20565.526098,4515.256246,-8586.388927,6665.030833
20565.526431,3923.091493,-3849.070898,5745.716235
20565.526764,2960.823768,-8068.244768,8503.660028
20565.527097,1776.494261,-7328.038826,2451.505594
20565.527430,0.000000,-8512.368333,1072.533697
20565.527764,-962.267725,-9622.677246,-2834.553343
20565.528097,-4071.132681,-10288.862594,-5822.325785
20565.528430,-4811.338623,-13619.789333,-4979.620737
20565.528763,-5329.482782,-12509.480420,-3064.381992
20565.529096,-370.102971,-9178.553681,-842.705048
20565.529429,592.164754,-8512.368333,1455.581446
20565.529762,4737.318029,-5921.647536,4213.525239
20565.530095,6439.791695,-8882.471304,6665.030833
20565.530429,6587.832884,-6439.791695,3983.696590
20565.530762,3552.988522,-9548.656652,6435.202183
20565.531095,3478.967927,-9474.636058,383.047749
20565.531428,0.000000,-9548.656652,0.000000
20565.531761,-888.247130,-12361.439231,-995.924147
20565.532094,518.144159,-9252.574275,-2298.286494
20565.532427,-296.082377,-8956.491898,-1149.143247
20565.532760,1036.288319,-8142.265362,-1455.581446
20565.533094,-74.020594,-8882.471304,-1302.362347
20565.533427,0.000000,-7476.080014,0.000000
20565.533760,2294.638420,-9474.636058,2987.772442
20565.534093,-74.020594,-7994.224174,-995.924147
20565.534426,-1480.411884,-8068.244768,0.000000
20565.534759,3478.967927,-11251.130318,2987.772442
20565.535092,5329.482782,-7179.997637,5822.325785
20565.535425,4885.359217,-6439.791695,3830.477490
20565.535758,2886.803174,-9918.759623,306.438199
20565.536092,-2368.659014,-9548.656652,-4903.011187
20565.536425,-4737.318029,-9548.656652,-4290.134789
20565.536758,-74.020594,-11843.295072,-2834.553343
20565.537091,-3627.009116,-12731.542202,-4060.306139
20565.537424,-5921.647536,-9548.656652,-3064.381992
20565.537757,-1258.350101,-9548.656652,612.876398
20565.538090,1554.432478,-7254.018232,5822.325785
20565.538423,3627.009116,-5329.482782,6818.249932
20565.538757,1776.494261,-7031.956449,5669.106685
20565.539090,1184.329507,-6143.709319,2451.505594
20565.539423,1554.432478,-10066.800811,3600.648841
20565.539756,-666.185348,-8882.471304,-2374.896044
20565.540089,-6513.812290,-9548.656652,-4213.525239
20565.540422,-7105.977043,-12509.480420,-4979.620737
20565.540755,-4219.173869,-10436.903782,-5515.887586
20565.541088,-2812.782580,-11843.295072,-689.485948
20565.541422,-148.041188,-7328.038826,1149.143247
20565.541755,1998.556043,-8142.265362,3140.991542
20565.542088,4737.318029,-6587.832884,6128.763984
20565.542421,6143.709319,-7698.141797,5898.935335
20565.542754,3256.906145,-8216.285956,4136.915689
20565.543087,814.226536,-8068.244768,0.000000
20565.543420,-2886.803174,-10658.965565,-2834.553343
20565.543753,-2960.823768,-9696.697840,-4060.306139
20565.544087,-3552.988522,-9548.656652,-612.876398
20565.544420,-74.020594,-8882.471304,-1302.362347
20565.544753,-74.020594,-7698.141797,-2451.505594
20565.545086,-666.185348,-8882.471304,-1915.238745
20565.545419,1110.308913,-9474.636058,536.266849
20565.545752,592.164754,-8734.430116,1455.581446
20565.546085,1332.370696,-8216.285956,1532.190996
20565.546418,666.185348,-9474.636058,1455.581446
20565.546752,4071.132681,-11251.130318,3600.648841
20565.547085,2368.659014,-7476.080014,6971.469032
20565.547418,6439.791695,-7698.141797,2681.334243
20565.547751,2960.823768,-5995.668130,0.000000
20565.548084,0.000000,-9548.656652,-2757.943793
20565.548417,-74.020594,-9918.759623,-4903.011187
20565.548750,-74.020594,-10658.965565,-4213.525239
20565.549083,-2368.659014,-11769.274478,-4136.915689
20565.549417,-2368.659014,-9844.739029,-3370.820191
20565.549750,0.000000,-8512.368333,383.047749
20565.550083,6735.874072,-8290.306550,8197.221829
20565.550416,7031.956449,-6809.894666,5132.839837
20565.550749,4145.153275,-7179.997637,6588.421283
20565.551082,6439.791695,-8586.388927,4443.353888
20565.551415,2368.659014,-7624.121203,1838.629195
20565.551748,1702.473667,-10214.842000,-689.485948
20565.552082,-4737.318029,-10955.047942,-5592.497135
20565.552415,-6957.935855,-11621.233289,-7354.516781
20565.552748,-5921.647536,-11917.315666,-4903.011187
20565.553081,1998.556043,-9474.636058,-1608.800546
20565.553414,0.000000,-5699.585753,919.314598
20565.553747,592.164754,-7328.038826,4519.963438
20565.554080,4071.132681,-7105.977043,2374.896044
20565.554413,4145.153275,-8290.306550,4213.525239
20565.554746,5033.400406,-9104.533087,4596.572988
20565.555080,2072.576638,-7920.203579,1762.019645
20565.555413,-1554.432478,-11399.171507,-1455.581446
20565.555746,-370.102971,-13619.789333,-1302.362347
20565.556079,-666.185348,-9918.759623,-3677.258390
20565.556412,-1184.329507,-9548.656652,1455.581446
20565.556745,-74.020594,-10658.965565,-76.609550
20565.557078,-3627.009116,-9178.553681,-3753.867940
20565.557411,-2072.576638,-9474.636058,842.705048
20565.557745,-518.144159,-7179.997637,3064.381992
20565.558078,-1036.288319,-7254.018232,2374.896044
20565.558411,-2960.823768,-8512.368333,842.705048
20565.558744,-1406.391290,-10288.862594,2681.334243
20565.559077,888.247130,-7105.977043,2911.162892
20565.559410,2072.576638,-6809.894666,3524.039291
20565.559743,888.247130,-8882.471304,0.000000
20565.560076,-4145.153275,-8364.327145,-4903.011187
20565.560410,-2960.823768,-12361.439231,-2221.676944
20565.560743,-74.020594,-10362.883188,-2528.115143
20565.561076,-2442.679609,-9326.594869,-4903.011187
20565.561409,-3552.988522,-9844.739029,-2757.943793
20565.561742,-666.185348,-11251.130318,1149.143247
20565.562075,4145.153275,-8364.327145,6358.592633
20565.562408,6809.894666,-5847.626942,8044.002729
20565.562741,5773.606348,-6291.750507,6052.154434
20565.563075,3701.029710,-7179.997637,3370.820191
20565.563408,3256.906145,-9548.656652,3600.648841
20565.563741,1702.473667,-9548.656652,-3294.210641
20565.564074,-4145.153275,-10140.821405,-7354.516781
20565.564407,-5625.565159,-13175.665768,-6665.030833
20565.564740,-4737.318029,-11917.315666,-5975.544884
20565.565073,-74.020594,-11251.130318,-76.609550
20565.565406,2516.700203,-7031.956449,2757.943793
20565.565740,4959.379811,-6513.812290,4443.353888
20565.566073,7031.956449,-7105.977043,5439.278036
20565.566406,5921.647536,-8216.285956,6971.469032
20565.566739,5847.626942,-9326.594869,2604.724693
20565.567072,888.247130,-8364.327145,1532.190996
20565.567405,-2368.659014,-11029.068536,-153.219100
20565.567738,-74.020594,-11843.295072,-1915.238745
20565.568071,-814.226536,-10732.986159,-1685.410096
20565.568405,148.041188,-8364.327145,-689.485948
20565.568738,-74.020594,-8438.347739,-1762.019645
20565.569071,-3108.864956,-7179.997637,-2451.505594
20565.569404,1702.473667,-9474.636058,-76.609550
20565.569737,0.000000,-7179.997637,612.876398
20565.570070,592.164754,-8364.327145,4060.306139
20565.570403,-1554.432478,-8808.450710,-1225.752797
20565.570736,-1480.411884,-9548.656652,612.876398
20565.571069,1850.514855,-8364.327145,3983.696590
20565.571403,3330.926739,-7698.141797,4366.744339
20565.571736,1850.514855,-8586.388927,1149.143247
20565.572069,-2368.659014,-10140.821405,-1838.629195
20565.572402,-666.185348,-9622.677246,-5669.106685
20565.572735,-2368.659014,-11473.192101,-1302.362347
20565.573068,-3034.844362,-12731.542202,-2528.115143
20565.573401,-7105.977043,-8364.327145,-3677.258390
20565.573734,-3849.070898,-9770.718434,536.266849
20565.574068,1258.350101,-6587.832884,5362.668486
20565.574401,3775.050304,-5699.585753,6818.249932
20565.574734,2960.823768,-5921.647536,5822.325785
20565.575067,2368.659014,-6291.750507,3677.258390
20565.575400,2294.638420,-7994.224174,306.438199
20565.575733,2146.597232,-10288.862594,-766.095498
20565.576066,-3552.988522,-11399.171507,-4903.011187
20565.576399,-6809.894666,-12583.501014,-7584.345430
20565.576733,-5625.565159,-11473.192101,-5515.887586
20565.577066,-1258.350101,-11547.212695,-1915.238745
20565.577399,1702.473667,-5995.668130,306.438199
20565.577732,2960.823768,-7402.059420,5439.278036
20565.578065,4071.132681,-8290.306550,4519.963438
20565.578398,1776.494261,-5403.503377,4903.011187
20565.578731,4219.173869,-8068.244768,4136.915689
20565.579064,3701.029710,-6883.915261,1915.238745
20565.579398,296.082377,-10584.944971,-612.876398
20565.579731,666.185348,-13027.624579,-1302.362347
20565.580064,-74.020594,-11103.089130,-4213.525239
20565.580397,148.041188,-11251.130318,-76.609550
20565.580730,2886.803174,-9474.636058,-1915.238745
20565.581063,518.144159,-9474.636058,-2681.334243
20565.581396,1332.370696,-10436.903782,1455.581446
20565.581729,2886.803174,-8364.327145,2834.553343
20565.582063,3404.947333,-7698.141797,3140.991542
20565.582396,444.123565,-8068.244768,1838.629195
20565.582729,1110.308913,-10658.965565,1762.019645
20565.583062,3478.967927,-6291.750507,0.000000
20565.583395,4145.153275,-8290.306550,4519.963438
20565.583728,4367.215058,-11251.130318,-76.609550
20565.584061,-1480.411884,-8364.327145,-3294.210641
20565.584394,-74.020594,-10955.047942,-3753.867940
20565.584728,-1184.329507,-11325.150913,-2681.334243
20565.585061,-3552.988522,-9844.739029,-3907.087040
20565.585394,-5107.421000,-10584.944971,-4443.353888
20565.585727,-3256.906145,-9548.656652,0.000000
20565.586060,1776.494261,-8068.244768,4903.011187
20565.586393,7031.956449,-7105.977043,8197.221829
20565.586726,2960.823768,-5107.421000,6128.763984
20565.587059,2368.659014,-6587.832884,5209.449386
20565.587392,1702.473667,-10066.800811,-76.609550
20565.587726,-740.205942,-10510.924376,-2451.505594
20565.588059,-4811.338623,-11325.150913,-5898.935335
20565.588392,-7476.080014,-11991.336260,-6894.859482
20565.588725,-6513.812290,-10732.986159,-5439.278036
20565.589058,-4737.318029,-10140.821405,459.657299
20565.589391,1776.494261,-7179.997637,5439.278036
20565.589724,3478.967927,-6809.894666,4826.401637
20565.590057,3552.988522,-6217.729913,6128.763984
20565.590391,3182.885551,-6217.729913,2987.772442
20565.590724,3108.864956,-8660.409521,4213.525239
20565.591057,1554.432478,-7550.100608,383.047749
20565.591390,-2294.638420,-10436.903782,-2068.457845
20565.591723,-3404.947333,-11029.068536,-4903.011187
20565.592056,-3108.864956,-12287.418637,-3524.039291
20565.592389,-592.164754,-9548.656652,-1685.410096
20565.592722,444.123565,-9178.553681,-536.266849
20565.593056,740.205942,-9474.636058,-76.609550
20565.593389,0.000000,-7772.162391,1455.581446
20565.593722,4071.132681,-6365.771101,1378.971896
20565.594055,4145.153275,-7476.080014,4826.401637
20565.594388,2886.803174,-9474.636058,2987.772442
20565.594721,-74.020594,-11251.130318,536.266849
20565.595054,3478.967927,-9474.636058,1991.848295
20565.595387,3849.070898,-8290.306550,3140.991542
20565.595721,3108.864956,-8068.244768,153.219100
20565.596054,-370.102971,-9178.553681,-3524.039291
20565.596387,-74.020594,-12435.459826,-1915.238745
20565.596720,-2072.576638,-9548.656652,-3677.258390
20565.597053,-3256.906145,-10436.903782,-995.924147
20565.597386,-4811.338623,-9770.718434,-4749.792088
20565.597719,-4145.153275,-7476.080014,-612.876398
20565.598052,2294.638420,-7994.224174,3753.867940
20565.598386,5625.565159,-5403.503377,7507.735880
20565.598719,5033.400406,-5403.503377,7431.126331
20565.599052,3552.988522,-6883.915261,3677.258390
20565.599385,3478.967927,-7105.977043,229.828649
20565.599718,2664.741391,-11917.315666,-76.609550
20565.600051,-1554.432478,-13027.624579,-6205.373534
20565.600384,-7105.977043,-11917.315666,-7354.516781
20565.600717,-5181.441594,-14359.995275,-5056.230287
20565.601051,-2368.659014,-12065.356855,-536.266849
20565.601384,814.226536,-8882.471304,2145.067394
20565.601717,2516.700203,-6217.729913,5286.058936
20565.602050,2072.576638,-3775.050304,4903.011187
20565.602383,2368.659014,-6291.750507,5056.230287
20565.602716,5847.626942,-8290.306550,3600.648841
20565.603049,0.000000,-6587.832884,1838.629195
20565.603382,-2368.659014,-10140.821405,-76.609550
20565.603716,-2442.679609,-13027.624579,-5592.497135
20565.604049,-3404.947333,-12953.603985,-2987.772442
20565.604382,-1480.411884,-11695.253884,-1685.410096
20565.604715,74.020594,-9548.656652,-842.705048
20565.605048,-370.102971,-10658.965565,-76.609550
20565.605381,1480.411884,-8808.450710,3217.601092
20565.605714,3330.926739,-7772.162391,4979.620737
20565.606047,2886.803174,-6661.853478,4596.572988
20565.606380,-444.123565,-7624.121203,1915.238745
20565.606714,-2368.659014,-8364.327145,0.000000
20565.607047,296.082377,-7772.162391,2911.162892
20565.607380,4071.132681,-6513.812290,2374.896044
20565.607713,814.226536,-5403.503377,0.000000
20565.608046,-1998.556043,-10584.944971,-3140.991542
20565.608379,-3034.844362,-13027.624579,-4979.620737
20565.608712,-1924.535449,-12213.398043,-3600.648841
20565.609045,-2220.617826,-10807.006753,-3064.381992
20565.609379,-2590.720797,-9992.780217,-2451.505594
20565.609712,-1776.494261,-10140.821405,1225.752797
20565.610045,1184.329507,-5995.668130,6741.640382
20565.610378,7624.121203,-5625.565159,5898.935335
20565.610711,5329.482782,-4811.338623,5209.449386
20565.611044,4737.318029,-6291.750507,4826.401637
20565.611377,1332.370696,-8660.409521,-1225.752797
20565.611710,1332.370696,-10584.944971,-1455.581446
20565.612044,-2886.803174,-11399.171507,-5286.058936
20565.612377,-4589.276840,-11843.295072,-6818.249932
20565.612710,-3034.844362,-13619.789333,-4979.620737
20565.613043,-3552.988522,-11917.315666,-76.609550
20565.613376,1702.473667,-7920.203579,153.219100
20565.613709,1480.411884,-6291.750507,5515.887586
20565.614042,2368.659014,-4811.338623,7354.516781
20565.614375,4663.297435,-6513.812290,5975.544884
20565.614709,5107.421000,-6809.894666,4979.620737
20565.615042,3034.844362,-7105.977043,2834.553343
20565.615375,-740.205942,-9104.533087,-1608.800546
20565.615708,-4737.318029,-10140.821405,-7048.078582
20565.616041,-3775.050304,-15100.201217,-6205.373534
20565.616374,-4145.153275,-11843.295072,-4673.182538
20565.616707,-2368.659014,-9844.739029,-1149.143247
20565.617040,1110.308913,-10066.800811,-76.609550
20565.617374,1702.473667,-7698.141797,842.705048
20565.617707,2960.823768,-8068.244768,5515.887586
20565.618040,3775.050304,-6291.750507,6435.202183
20565.618373,1480.411884,-6513.812290,3447.429741
20565.618706,-2368.659014,-9548.656652,2451.505594
20565.619039,2294.638420,-7698.141797,0.000000
20565.619372,0.000000,-8364.327145,3600.648841
20565.619705,2294.638420,-9474.636058,-76.609550
20565.620038,-2442.679609,-8882.471304,-5439.278036
20565.620371,-5329.482782,-11029.068536,-5515.887586
20565.620704,-2442.679609,-10955.047942,-3677.258390
20565.621037,-3923.091493,-10584.944971,-3753.867940
20565.621370,-4071.132681,-10140.821405,-2834.553343
20565.621703,-1776.494261,-8660.409521,1225.752797
20565.622036,4663.297435,-7698.141797,6128.763984
20565.622370,6809.894666,-5329.482782,8810.098227
20565.622703,4811.338623,-4811.338623,6128.763984
20565.623036,4515.256246,-6809.894666,2528.115143
20565.623369,1184.329507,-8956.491898,0.000000
20565.623702,814.226536,-10436.903782,-3524.039291
20565.624035,-4737.318029,-10732.986159,-2987.772442
20565.624368,-4811.338623,-12435.459826,-8886.707777
20565.624701,-4959.379811,-13619.789333,-4979.620737
20565.625034,-4589.276840,-11029.068536,-919.314598
20565.625367,2294.638420,-7402.059420,3447.429741
20565.625700,5477.523971,-4737.318029,7201.297681
20565.626033,4441.235652,-4959.379811,6358.592633
20565.626366,4663.297435,-6809.894666,6052.154434
20565.626699,4367.215058,-8290.306550,2374.896044
20565.627032,2664.741391,-7476.080014,0.000000
20565.627365,-74.020594,-12435.459826,-2528.115143
20565.627699,-4293.194464,-11621.233289,-7354.516781
20565.628032,-5921.647536,-13693.809927,-5515.887586
20565.628365,-2220.617826,-12435.459826,-2528.115143
20565.628698,1110.308913,-9178.553681,766.095498
20565.629031,2220.617826,-7105.977043,1608.800546
20565.629364,2886.803174,-7994.224174,2374.896044
20565.629697,5847.626942,-6069.688724,2451.505594
20565.630030,3552.988522,-7179.997637,6281.983084
20565.630363,3478.967927,-9474.636058,1762.019645
20565.630696,-2146.597232,-10140.821405,-1532.190996
20565.631029,814.226536,-10658.965565,-76.609550
20565.631362,1776.494261,-9178.553681,1762.019645
20565.631695,1184.329507,-9252.574275,536.266849
20565.632028,-370.102971,-9326.594869,-2834.553343
20565.632361,-3997.112087,-9548.656652,-3983.696590
20565.632694,-1184.329507,-10732.986159,0.000000
20565.633027,-74.020594,-11251.130318,-2528.115143
20565.633361,-5181.441594,-8956.491898,-2451.505594
20565.633694,-3552.988522,-8364.327145,2374.896044
20565.634027,1702.473667,-7476.080014,2221.676944
20565.634360,4811.338623,-7328.038826,6741.640382
20565.634693,3478.967927,-7328.038826,5975.544884
20565.635026,2738.761985,-5551.544565,2451.505594
20565.635359,1184.329507,-8660.409521,1225.752797
20565.635692,1628.453072,-10436.903782,-1302.362347
20565.636025,-1110.308913,-10881.027347,-3140.991542
20565.636358,-4959.379811,-11473.192101,-5362.668486
20565.636691,-4367.215058,-11843.295072,-5592.497135
20565.637024,-5477.523971,-11843.295072,-3294.210641
20565.637357,0.000000,-7772.162391,3677.258390
20565.637690,3478.967927,-7105.977043,7277.907231
20565.638023,3478.967927,-4663.297435,3294.210641
20565.638356,3330.926739,-7105.977043,3600.648841
20565.638689,3404.947333,-9474.636058,3907.087040
20565.639023,1702.473667,-7550.100608,2068.457845
20565.639356,-1554.432478,-9770.718434,-1072.533697
20565.639689,-3108.864956,-11843.295072,-4903.011187
20565.640022,-666.185348,-13619.789333,-2068.457845
20565.640355,0.000000,-10140.821405,2145.067394
20565.640688,2886.803174,-9474.636058,-76.609550
20565.641021,1702.473667,-10658.965565,-76.609550
20565.641354,0.000000,-6587.832884,0.000000
20565.641687,3182.885551,-9030.512492,2681.334243
20565.642020,4441.235652,-7105.977043,3753.867940
20565.642353,518.144159,-7920.203579,766.095498
20565.642686,-666.185348,-10362.883188,459.657299
20565.643019,222.061783,-8882.471304,-76.609550
20565.643352,3478.967927,-10658.965565,4213.525239
20565.643685,3478.967927,-8290.306550,-995.924147
20565.644018,-2368.659014,-8364.327145,-2145.067394
20565.644352,-2368.659014,-11843.295072,-2757.943793
20565.644685,-1554.432478,-8512.368333,-3064.381992
20565.645018,-1258.350101,-10288.862594,-1915.238745
20565.645351,-2294.638420,-8956.491898,-2145.067394
20565.645684,-1850.514855,-10362.883188,-229.828649
20565.646017,0.000000,-7772.162391,1225.752797
20565.646350,6439.791695,-9474.636058,5439.278036
20565.646683,4441.235652,-5773.606348,4826.401637
20565.647016,2960.823768,-6291.750507,5669.106685
20565.647349,3478.967927,-9474.636058,2374.896044
20565.647682,148.041188,-10436.903782,-76.609550
20565.648015,-2886.803174,-10288.862594,-3294.210641
20565.648348,-5255.462188,-11029.068536,-5669.106685
20565.648681,-6365.771101,-10881.027347,-5515.887586
20565.649014,-3552.988522,-11917.315666,-995.924147
20565.649347,-74.020594,-8290.306550,-76.609550
20565.649680,1184.329507,-5995.668130,6281.983084
20565.650014,4737.318029,-5403.503377,8963.317327
20565.650347,4663.297435,-7105.977043,3600.648841
20565.650680,4145.153275,-8660.409521,4749.792088
20565.651013,2072.576638,-9030.512492,1685.410096
20565.651346,148.041188,-10214.842000,-1762.019645
20565.651679,-3108.864956,-13101.645173,-4290.134789
20565.652012,-3256.906145,-11917.315666,-3370.820191
20565.652345,-1628.453072,-12879.583391,-76.609550
20565.652678,1036.288319,-7476.080014,536.266849
20565.653011,888.247130,-7550.100608,1225.752797
20565.653344,74.020594,-6069.688724,0.000000
20565.653677,3552.988522,-5403.503377,5822.325785
20565.654010,3478.967927,-8290.306550,7277.907231
20565.654343,1702.473667,-7105.977043,-842.705048
20565.654676,-4145.153275,-10732.986159,-1532.190996
20565.655009,-74.020594,-11843.295072,-1302.362347
20565.655342,3404.947333,-9548.656652,1838.629195
20565.655676,3182.885551,-10066.800811,1378.971896
20565.656009,1184.329507,-8586.388927,-1455.581446
20565.656342,-2960.823768,-10140.821405,-3370.820191
20565.656675,0.000000,-9548.656652,-1838.629195
20565.657008,-74.020594,-10658.965565,-1915.238745
20565.657341,-2294.638420,-7179.997637,-3983.696590
20565.657674,-2368.659014,-9548.656652,766.095498
20565.658007,0.000000,-7328.038826,1991.848295
20565.658340,4885.359217,-7476.080014,6665.030833
20565.658673,4219.173869,-7031.956449,6128.763984
20565.659006,2368.659014,-6291.750507,2451.505594
20565.659339,1110.308913,-9474.636058,1149.143247
20565.659672,0.000000,-9844.739029,-842.705048
20565.660005,-1258.350101,-8734.430116,-5515.887586
20565.660338,-5329.482782,-11029.068536,-4136.915689
20565.660671,-3552.988522,-12435.459826,-3140.991542
20565.661004,-4293.194464,-11695.253884,-3064.381992
20565.661338,222.061783,-9770.718434,1532.190996
20565.661671,2812.782580,-7105.977043,5745.716235
20565.662004,3330.926739,-5255.462188,4903.011187
20565.662337,2294.638420,-4811.338623,2681.334243
20565.662670,4441.235652,-10658.965565,5439.278036
20565.663003,2960.823768,-4811.338623,1225.752797
20565.663336,0.000000,-11325.150913,1455.581446
20565.663669,-3034.844362,-10732.986159,-6052.154434
20565.664002,-4811.338623,-12879.583391,-5286.058936
20565.664335,-3552.988522,-12583.501014,-2451.505594
20565.664668,814.226536,-8512.368333,-306.438199
20565.665001,-1110.308913,-9178.553681,536.266849
20565.665334,0.000000,-6291.750507,1838.629195
20565.665667,3478.967927,-7105.977043,2528.115143
20565.666000,3552.988522,-5699.585753,7814.174080
20565.666333,2886.803174,-9474.636058,3294.210641
20565.666667,-2368.659014,-7772.162391,612.876398
20565.667000,0.000000,-10362.883188,229.828649
20565.667333,518.144159,-9548.656652,0.000000
20565.667666,2368.659014,-8290.306550,-766.095498
20565.667999,-962.267725,-9474.636058,-3677.258390
20565.668332,-2960.823768,-10732.986159,-4749.792088
20565.668665,-74.020594,-10362.883188,-4136.915689
20565.668998,518.144159,-10436.903782,-1302.362347
20565.669331,0.000000,-8734.430116,-536.266849
20565.669664,0.000000,-8956.491898,1378.971896
20565.669997,0.000000,-6587.832884,2451.505594
20565.670330,5847.626942,-8882.471304,5439.278036
20565.670663,3701.029710,-5403.503377,5209.449386
20565.670996,5847.626942,-8882.471304,4826.401637
20565.671329,3478.967927,-9178.553681,-76.609550
20565.671662,0.000000,-9548.656652,-1838.629195
20565.671995,-962.267725,-11251.130318,-4519.963438
20565.672329,-4885.359217,-12435.459826,-5745.716235
20565.672662,-6365.771101,-12139.377449,-6435.202183
20565.672995,-4811.338623,-12879.583391,-1915.238745
20565.673328,-74.020594,-9474.636058,459.657299
20565.673661,2516.700203,-4811.338623,4903.011187
20565.673994,4737.318029,-5625.565159,7890.783629
20565.674327,3182.885551,-4737.318029,3064.381992
20565.674660,2960.823768,-8512.368333,5362.668486
20565.674993,2886.803174,-7994.224174,2528.115143
20565.675326,-962.267725,-9548.656652,-1225.752797
20565.675659,-4293.194464,-11695.253884,-6435.202183
20565.675992,-5403.503377,-14211.954086,-6205.373534
20565.676325,-2442.679609,-10436.903782,-4903.011187
20565.676658,592.164754,-10288.862594,2987.772442
20565.676991,-74.020594,-9474.636058,2374.896044
20565.677324,-1702.473667,-5551.544565,0.000000
20565.677657,1998.556043,-8882.471304,3600.648841
20565.677991,3182.885551,-5773.606348,5132.839837
20565.678324,592.164754,-6957.935855,2068.457845
20565.678657,-1332.370696,-9548.656652,0.000000
20565.678990,-2072.576638,-8808.450710,-1072.533697
20565.679323,0.000000,-9844.739029,0.000000
20565.679656,4663.297435,-11251.130318,-383.047749
20565.679989,0.000000,-9622.677246,-3217.601092
20565.680322,-4145.153275,-11325.150913,-2451.505594
20565.680655,-74.020594,-11843.295072,-2221.676944
20565.680988,0.000000,-10140.821405,536.266849
20565.681321,-444.123565,-7994.224174,383.047749
20565.681654,-814.226536,-8586.388927,1378.971896
20565.681987,592.164754,-6291.750507,1532.190996
20565.682320,3701.029710,-7105.977043,6358.592633
20565.682653,4737.318029,-6883.915261,5975.544884
20565.682986,4367.215058,-6143.709319,2757.943793
20565.683320,2738.761985,-10214.842000,2068.457845
20565.683653,2294.638420,-12435.459826,-2528.115143
20565.683986,-2738.761985,-10732.986159,-5515.887586
20565.684319,-3775.050304,-12213.398043,-4903.011187
20565.684652,-2738.761985,-13619.789333,-5592.497135
20565.684985,-3256.906145,-11177.109724,-1838.629195
20565.685318,1850.514855,-11029.068536,2987.772442
20565.685651,4959.379811,-5477.523971,7124.688131
20565.685984,6957.935855,-3627.009116,6435.202183
20565.686317,5107.421000,-5329.482782,3600.648841
20565.686650,2960.823768,-7179.997637,3064.381992
20565.686983,0.000000,-7179.997637,306.438199
20565.687316,1406.391290,-11843.295072,-1302.362347
20565.687649,-3627.009116,-13619.789333,-5592.497135
20565.687982,-3923.091493,-12435.459826,-6205.373534
20565.688315,-1850.514855,-13841.851115,-1915.238745
20565.688648,1628.453072,-9104.533087,766.095498
20565.688982,74.020594,-8068.244768,1762.019645
20565.689315,1332.370696,-6809.894666,1608.800546
20565.689648,4663.297435,-8882.471304,4826.401637
20565.689981,2368.659014,-7772.162391,4903.011187
20565.690314,296.082377,-7476.080014,3524.039291
20565.690647,-814.226536,-8512.368333,-1685.410096
20565.690980,-2368.659014,-9548.656652,0.000000
20565.691313,1702.473667,-9474.636058,383.047749
20565.691646,888.247130,-10288.862594,229.828649
20565.691979,-1480.411884,-9178.553681,-3370.820191
20565.692312,-1924.535449,-10658.965565,-3294.210641
20565.692645,-666.185348,-9030.512492,-3140.991542
20565.692978,1776.494261,-11843.295072,1762.019645
20565.693311,-74.020594,-11251.130318,-76.609550
20565.693644,-3256.906145,-7772.162391,1532.190996
20565.693977,1184.329507,-10362.883188,3907.087040
20565.694310,1184.329507,-7179.997637,4903.011187
20565.694644,4367.215058,-6957.935855,5592.497135
20565.694977,2368.659014,-6217.729913,3370.820191
20565.695310,888.247130,-8068.244768,612.876398
20565.695643,-2960.823768,-10140.821405,-2451.505594
20565.695976,-74.020594,-12731.542202,-3140.991542
20565.696309,-5329.482782,-10140.821405,-4903.011187
20565.696642,-7105.977043,-9844.739029,-5822.325785
20565.696975,-4885.359217,-13027.624579,-1608.800546
20565.697308,-2368.659014,-8956.491898,612.876398
20565.697641,3034.844362,-6365.771101,5592.497135
20565.697974,5255.462188,-5181.441594,7277.907231
20565.698307,4663.297435,-5477.523971,4749.792088
20565.698640,1924.535449,-5699.585753,3064.381992
20565.698973,3923.091493,-8438.347739,1608.800546
20565.699306,1554.432478,-9548.656652,-383.047749
20565.699639,-2960.823768,-11843.295072,-5362.668486
20565.699972,-3034.844362,-13619.789333,-6511.811733
20565.700306,-4589.276840,-13693.809927,-3064.381992
20565.700639,1924.535449,-10658.965565,-76.609550
20565.700972,2294.638420,-8290.306550,536.266849
20565.701305,592.164754,-6291.750507,1685.410096
20565.701638,4663.297435,-8216.285956,6971.469032
20565.701971,4071.132681,-5403.503377,5669.106685
20565.702304,4145.153275,-5921.647536,3907.087040
20565.702637,0.000000,-9548.656652,1072.533697
20565.702970,-2220.617826,-8808.450710,-3064.381992
20565.703303,-2960.823768,-9548.656652,-1838.629195
20565.703636,1406.391290,-11843.295072,-1608.800546
20565.703969,-74.020594,-8290.306550,-3753.867940
20565.704302,-3330.926739,-10140.821405,-4290.134789
20565.704635,-370.102971,-9474.636058,-1915.238745
20565.704968,0.000000,-9844.739029,-383.047749
20565.705301,1332.370696,-9474.636058,1149.143247
20565.705635,888.247130,-7550.100608,2145.067394
20565.705968,0.000000,-9844.739029,3064.381992
20565.706301,2960.823768,-7476.080014,6128.763984
20565.706634,6439.791695,-8882.471304,4826.401637
20565.706967,3552.988522,-5995.668130,5515.887586
20565.707300,592.164754,-7772.162391,2528.115143
20565.707633,-592.164754,-10140.821405,-3600.648841
20565.707966,-1998.556043,-11177.109724,-3524.039291
20565.708299,-5403.503377,-11843.295072,-5209.449386
20565.708632,-5477.523971,-11177.109724,-6205.373534
20565.708965,-5107.421000,-13027.624579,-2528.115143
20565.709298,-2072.576638,-8956.491898,2451.505594
20565.709631,1998.556043,-4737.318029,4519.963438
20565.709964,2368.659014,-3627.009116,7967.393179
20565.710297,3478.967927,-5921.647536,3600.648841
20565.710630,3182.885551,-8882.471304,3600.648841
20565.710963,3034.844362,-8438.347739,1225.752797
20565.711297,962.267725,-9770.718434,-1072.533697
20565.711630,-2220.617826,-12139.377449,-4366.744339
20565.711963,-4737.318029,-10140.821405,-6971.469032
20565.712296,-1258.350101,-15396.283594,-2528.115143
20565.712629,0.000000,-8364.327145,919.314598
20565.712962,0.000000,-8364.327145,2757.943793
20565.713295,1110.308913,-6957.935855,229.828649
20565.713628,2590.720797,-6809.894666,4366.744339
20565.713961,3627.009116,-6735.874072,4290.134789
20565.714294,2368.659014,-6143.709319,3983.696590
20565.714627,-2072.576638,-9918.759623,229.828649
20565.714960,-3034.844362,-8364.327145,-2451.505594
20565.715293,-74.020594,-11843.295072,-76.609550
20565.715626,1628.453072,-11621.233289,-76.609550
20565.715959,666.185348,-8364.327145,-1685.410096
20565.716292,-1480.411884,-10510.924376,-3370.820191
20565.716625,-370.102971,-9548.656652,-3753.867940
20565.716959,2072.576638,-11843.295072,2834.553343
20565.717292,2294.638420,-10658.965565,-76.609550
20565.717625,-2368.659014,-7772.162391,1838.629195
20565.717958,296.082377,-9770.718434,2911.162892
20565.718291,3182.885551,-7624.121203,3294.210641
20565.718624,5551.544565,-6809.894666,7124.688131
20565.718957,3404.947333,-5699.585753,3830.477490
20565.719290,592.164754,-7550.100608,0.000000
20565.719623,-2072.576638,-9548.656652,-4290.134789
20565.719956,1110.308913,-12731.542202,-3753.867940
20565.720289,-3849.070898,-9548.656652,-6128.763984
20565.720622,-4737.318029,-11325.150913,-4596.572988
20565.720955,-3775.050304,-14211.954086,-3140.991542
20565.721288,-2960.823768,-10140.821405,1225.752797
20565.721621,4515.256246,-6217.729913,5669.106685
20565.721955,4885.359217,-5699.585753,7354.516781
20565.722288,6217.729913,-4737.318029,5209.449386
20565.722621,4737.318029,-9474.636058,5286.058936
20565.722954,0.000000,-7179.997637,4290.134789
20565.723287,1998.556043,-10658.965565,-1302.362347
20565.723620,-4737.318029,-9548.656652,-6971.469032
20565.723953,-6513.812290,-11917.315666,-5362.668486
20565.724287,-3627.009116,-14211.954086,-689.485948
20565.724620,814.226536,-9474.636058,-383.047749
20565.724953,-518.144159,-7550.100608,1608.800546
20565.725286,1850.514855,-7105.977043,2298.286494
20565.725619,296.082377,-5995.668130,3217.601092
20565.725952,4071.132681,-6809.894666,3140.991542
20565.726285,0.000000,-7179.997637,3064.381992
20565.726619,-74.020594,-9474.636058,-1302.362347
20565.726952,-2960.823768,-9548.656652,-3370.820191
20565.727285,-518.144159,-10362.883188,-76.609550
20565.727618,0.000000,-11177.109724,-76.609550
20565.727951,-740.205942,-9030.512492,-2374.896044
20565.728284,-1850.514855,-9770.718434,-3524.039291
20565.728617,1184.329507,-10510.924376,-612.876398
20565.728951,0.000000,-9548.656652,2451.505594
20565.729284,4367.215058,-9474.636058,4519.963438
20565.729617,1998.556043,-8290.306550,0.000000
20565.729950,1184.329507,-8142.265362,2834.553343
20565.730283,5773.606348,-9770.718434,3600.648841
20565.730616,5921.647536,-8142.265362,5745.716235
20565.730949,6291.750507,-7846.182985,3447.429741
20565.731283,2294.638420,-8882.471304,-995.924147
20565.731616,1924.535449,-11843.295072,-2068.457845
20565.731949,-1110.308913,-10732.986159,-2757.943793
20565.732282,-2072.576638,-10288.862594,-3370.820191
20565.732615,-4071.132681,-10881.027347,-4903.011187
20565.732948,-6069.688724,-10807.006753,-4519.963438
20565.733281,-2072.576638,-10584.944971,0.000000
20565.733615,4219.173869,-3404.947333,4826.401637
20565.733948,4737.318029,-5403.503377,9959.241474
20565.734281,4367.215058,-4737.318029,3600.648841
20565.734614,1110.308913,-8586.388927,536.266849
20565.734947,0.000000,-11843.295072,-76.609550
20565.735280,0.000000,-9696.697840,-2068.457845
20565.735613,-4959.379811,-12953.603985,-5132.839837
20565.735947,-5403.503377,-11843.295072,-6358.592633
20565.736280,-3034.844362,-14211.954086,-1302.362347
20565.736613,-1776.494261,-8364.327145,1838.629195
20565.736946,-2368.659014,-6587.832884,3983.696590
20565.737279,1036.288319,-7105.977043,2987.772442
20565.737612,0.000000,-4811.338623,2451.505594
20565.737945,2294.638420,-7994.224174,3600.648841
20565.738279,74.020594,-8068.244768,1532.190996
20565.738612,-2368.659014,-9474.636058,-229.828649
20565.738945,-3108.864956,-10436.903782,-2681.334243
20565.739278,-1258.350101,-11843.295072,-1608.800546
20565.739611,0.000000,-11325.150913,2451.505594
20565.739944,-74.020594,-8882.471304,-76.609550
20565.740277,-1258.350101,-8882.471304,-3294.210641
20565.740611,0.000000,-8068.244768,1838.629195
20565.740944,-666.185348,-7772.162391,0.000000
20565.741277,1184.329507,-6587.832884,1838.629195
20565.741610,-740.205942,-7920.203579,689.485948
20565.741943,-1110.308913,-8734.430116,153.219100
20565.742276,592.164754,-8660.409521,1838.629195
20565.742609,5477.523971,-10584.944971,7277.907231
20565.742943,3923.091493,-5107.421000,2451.505594
20565.743276,2368.659014,-8068.244768,0.000000
20565.743609,3108.864956,-12139.377449,-76.609550
20565.743942,962.267725,-10288.862594,-3677.258390
20565.744275,222.061783,-11843.295072,-2757.943793
20565.744608,-2516.700203,-11399.171507,-4519.963438
20565.744941,-4589.276840,-10807.006753,-4443.353888
20565.745275,0.000000,-9548.656652,0.000000
20565.745608,5551.544565,-7402.059420,6665.030833
20565.745941,8512.368333,-4441.235652,8120.612279
20565.746274,4293.194464,-6587.832884,4903.011187
20565.746607,4663.297435,-9474.636058,2374.896044
20565.746940,3478.967927,-8290.306550,-1225.752797
20565.747273,2664.741391,-11029.068536,536.266849
20565.747607,-666.185348,-13619.789333,-4979.620737
20565.747940,-5773.606348,-11325.150913,-7354.516781
20565.748273,-1998.556043,-13619.789333,-1915.238745
20565.748606,-518.144159,-10436.903782,-689.485948
20565.748939,370.102971,-8364.327145,2145.067394
20565.749272,666.185348,-7031.956449,2604.724693
20565.749605,740.205942,-4589.276840,1378.971896
20565.749939,4071.132681,-6513.812290,2374.896044
20565.750272,1776.494261,-8660.409521,4826.401637
20565.750605,814.226536,-8290.306550,842.705048
20565.750938,-5107.421000,-9548.656652,-2451.505594
20565.751271,-1702.473667,-11843.295072,-1915.238745
20565.751604,-2368.659014,-11325.150913,-919.314598
20565.751937,-1258.350101,-9622.677246,-1378.971896
20565.752271,-1850.514855,-8808.450710,-1838.629195
20565.752604,-2960.823768,-10140.821405,-1532.190996
20565.752937,-666.185348,-9400.615463,-1149.143247
20565.753270,0.000000,-8512.368333,4519.963438
20565.753603,-666.185348,-7402.059420,-383.047749
20565.753936,-2960.823768,-7179.997637,0.000000
20565.754269,0.000000,-10881.027347,4596.572988
20565.754603,2738.761985,-7846.182985,6281.983084
20565.754936,2886.803174,-7105.977043,5439.278036
20565.755269,1258.350101,-6587.832884,1455.581446
20565.755602,-1850.514855,-10658.965565,-1302.362347
20565.755935,-4441.235652,-9548.656652,-3677.258390
20565.756268,-2442.679609,-10955.047942,-4979.620737
20565.756601,-4811.338623,-11843.295072,-5592.497135
20565.756935,-7698.141797,-11029.068536,-3677.258390
20565.757268,-2146.597232,-10807.006753,2374.896044
20565.757601,3775.050304,-7698.141797,6052.154434
20565.757934,5773.606348,-4219.173869,8350.440928
20565.758267,6143.709319,-5033.400406,5362.668486
20565.758600,5329.482782,-7105.977043,3753.867940
20565.758933,5033.400406,-9844.739029,4826.401637
20565.759267,4071.132681,-9030.512492,-2451.505594
20565.759600,-2960.823768,-11325.150913,-7354.516781
20565.759933,-2960.823768,-15396.283594,-6511.811733
20565.760266,-1850.514855,-14804.118840,-6205.373534
20565.760599,888.247130,-12435.459826,-383.047749
20565.760932,2072.576638,-8512.368333,2451.505594
20565.761265,3701.029710,-6661.853478,4519.963438
20565.761599,4737.318029,-5107.421000,5132.839837
20565.761932,6217.729913,-7624.121203,6971.469032
20565.762265,4737.318029,-6883.915261,4213.525239
20565.762598,2368.659014,-8216.285956,1532.190996
20565.762931,-518.144159,-9696.697840,-2451.505594
20565.763264,814.226536,-9770.718434,-2834.553343
20565.763597,740.205942,-13397.727550,-229.828649
20565.763931,3478.967927,-11843.295072,-1608.800546
20565.764264,0.000000,-9548.656652,-3677.258390
20565.764597,444.123565,-10288.862594,-1991.848295
20565.764930,2886.803174,-11251.130318,-995.924147
20565.765263,3182.885551,-9474.636058,2604.724693
20565.765596,2886.803174,-8216.285956,3370.820191
20565.765929,1036.288319,-7402.059420,2068.457845
20565.766263,1184.329507,-7772.162391,2757.943793
20565.766596,2664.741391,-10140.821405,7277.907231
20565.766929,5551.544565,-4959.379811,3064.381992
20565.767262,0.000000,-7179.997637,2451.505594
20565.767595,-74.020594,-10362.883188,-2604.724693
20565.767928,-2738.761985,-9548.656652,-4903.011187
20565.768261,-3923.091493,-11843.295072,-4366.744339
20565.768595,-3997.112087,-9992.780217,-4519.963438
20565.768928,-7698.141797,-12361.439231,-4673.182538
20565.769261,-2442.679609,-11621.233289,919.314598
20565.769594,1036.288319,-9844.739029,9729.412825
20565.769927,2590.720797,-4959.379811,6741.640382
20565.770260,2664.741391,-4367.215058,7967.393179
20565.770593,296.082377,-8216.285956,4519.963438
20565.770927,0.000000,-7179.997637,1532.190996
20565.771260,-1258.350101,-10362.883188,-766.095498
20565.771593,-6809.894666,-10436.903782,-4749.792088
20565.771926,-7994.224174,-11695.253884,-7277.907231
20565.772259,-6587.832884,-12139.377449,-4979.620737
20565.772592,-1258.350101,-12435.459826,-76.609550
20565.772925,-1554.432478,-7772.162391,612.876398
20565.773259,0.000000,-6883.915261,4060.306139
20565.773592,1184.329507,-7105.977043,6052.154434
20565.773925,4071.132681,-7994.224174,6052.154434
20565.774258,1776.494261,-7772.162391,5745.716235
20565.774591,1036.288319,-7179.997637,1685.410096
20565.774924,-2072.576638,-9474.636058,-1302.362347
20565.775257,0.000000,-9548.656652,-2451.505594
20565.775591,-74.020594,-11917.315666,-2451.505594
20565.775924,148.041188,-10288.862594,0.000000
20565.776257,296.082377,-10658.965565,-383.047749
20565.776590,-370.102971,-8438.347739,-3064.381992
20565.776923,1998.556043,-10066.800811,1455.581446
20565.777256,3404.947333,-8660.409521,3830.477490
20565.777589,2960.823768,-7402.059420,3140.991542
20565.777923,962.267725,-7772.162391,1608.800546
20565.778256,592.164754,-8364.327145,1225.752797
20565.778589,5255.462188,-8586.388927,3753.867940
20565.778922,6143.709319,-7105.977043,3907.087040
20565.779255,4367.215058,-7772.162391,612.876398
20565.779588,2368.659014,-9400.615463,-2298.286494
20565.779921,0.000000,-10140.821405,-4366.744339
20565.780255,2590.720797,-13027.624579,-3140.991542
20565.780588,-3552.988522,-11325.150913,-3064.381992
20565.780921,-2442.679609,-12435.459826,-3753.867940
20565.781254,-74.020594,-12435.459826,842.705048
20565.781587,4737.318029,-6883.915261,7354.516781
20565.781920,8216.285956,-4219.173869,8656.879127
20565.782253,5847.626942,-5995.668130,6971.469032
20565.782587,2886.803174,-7476.080014,2604.724693
20565.782920,1480.411884,-9104.533087,612.876398
20565.783253,1998.556043,-8364.327145,-2451.505594
20565.783586,-5921.647536,-9548.656652,-4290.134789
20565.783919,-4811.338623,-13027.624579,-7737.564530
20565.784252,-5995.668130,-11251.130318,-6511.811733
20565.784585,-2960.823768,-13545.768739,-76.609550
20565.784919,-1480.411884,-8068.244768,1991.848295
20565.785252,-1998.556043,-7031.956449,3830.477490
20565.785585,296.082377,-4737.318029,3600.648841
20565.785918,2294.638420,-8882.471304,6052.154434
20565.786251,148.041188,-4811.338623,4903.011187
20565.786584,74.020594,-8882.471304,4596.572988
20565.786917,-2442.679609,-9178.553681,-3753.867940
20565.787251,-5921.647536,-10732.986159,-3370.820191
20565.787584,-2738.761985,-12139.377449,-2834.553343
20565.787917,-740.205942,-10658.965565,-995.924147
20565.788250,-2442.679609,-9474.636058,-2068.457845
20565.788583,-1258.350101,-9622.677246,-1915.238745
20565.788916,-1258.350101,-7698.141797,-383.047749
20565.789249,-2368.659014,-7179.997637,4290.134789
20565.789583,2294.638420,-7698.141797,2681.334243
20565.789916,-2960.823768,-5995.668130,0.000000
20565.790249,0.000000,-9548.656652,2911.162892
20565.790582,2294.638420,-8290.306550,3907.087040
20565.790915,3182.885551,-6735.874072,3907.087040
20565.791248,1924.535449,-6883.915261,766.095498
20565.791581,-1998.556043,-9696.697840,-3370.820191
20565.791915,-962.267725,-10658.965565,-4366.744339
20565.792248,-592.164754,-10658.965565,-2451.505594
20565.792581,-2368.659014,-11621.233289,-3294.210641
20565.792914,-4219.173869,-10807.006753,-4749.792088
20565.793247,-1184.329507,-12509.480420,766.095498
20565.793580,5255.462188,-9474.636058,5745.716235
20565.793913,6661.853478,-3627.009116,9193.145976
20565.794247,4737.318029,-6587.832884,9269.755526
20565.794580,6143.709319,-5329.482782,2374.896044
20565.794913,3552.988522,-7179.997637,612.876398
20565.795246,4515.256246,-9918.759623,-76.609550
20565.795579,-740.205942,-9844.739029,-4290.134789
20565.795912,-5107.421000,-13027.624579,-8120.612279
20565.796245,-3627.009116,-13027.624579,-6818.249932
20565.796579,-2146.597232,-15988.448347,-1302.362347
20565.796912,1184.329507,-7179.997637,2451.505594
20565.797245,5255.462188,-8216.285956,6128.763984
20565.797578,6513.812290,-6217.729913,6971.469032
20565.797911,7031.956449,-6513.812290,6971.469032
20565.798244,5255.462188,-8216.285956,4519.963438
20565.798577,4367.215058,-7846.182985,2221.676944
20565.798911,-2368.659014,-11473.192101,-2068.457845
20565.799244,-2960.823768,-8364.327145,-4903.011187
20565.799577,-666.185348,-12435.459826,-3140.991542
20565.799910,0.000000,-10140.821405,919.314598
20565.800243,1702.473667,-9474.636058,-1302.362347
20565.800576,-1184.329507,-7402.059420,-2834.553343
20565.800909,148.041188,-8956.491898,153.219100
20565.801243,2516.700203,-9696.697840,3677.258390
20565.801576,4589.276840,-6587.832884,4749.792088
20565.801909,1998.556043,-6661.853478,2298.286494
20565.802242,2960.823768,-9844.739029,2451.505594
20565.802575,4071.132681,-9696.697840,1532.190996
20565.802908,3997.112087,-10362.883188,3677.258390
20565.803241,2886.803174,-11843.295072,-76.609550
20565.803575,-5181.441594,-8364.327145,-4903.011187
20565.803908,-3552.988522,-11917.315666,-3524.039291
20565.804241,-2590.720797,-10362.883188,-1072.533697
20565.804574,-2368.659014,-8808.450710,-842.705048
20565.804907,-5403.503377,-8068.244768,-1915.238745
20565.805240,-2812.782580,-9474.636058,1149.143247
20565.805573,0.000000,-5403.503377,6128.763984
20565.805907,4663.297435,-5921.647536,5592.497135
20565.806240,1480.411884,-4811.338623,1532.190996
20565.806573,0.000000,-8808.450710,2374.896044
20565.806906,518.144159,-9844.739029,-612.876398
20565.807239,-1184.329507,-11769.274478,-1149.143247
20565.807572,-4367.215058,-10362.883188,-4673.182538
20565.807905,-7031.956449,-12139.377449,-6205.373534
20565.808239,-7031.956449,-13619.789333,-4366.744339
20565.808572,-3552.988522,-10140.821405,1532.190996
20565.808905,-370.102971,-8438.347739,4826.401637
20565.809238,2368.659014,-3923.091493,6128.763984
20565.809571,2294.638420,-5625.565159,5132.839837
20565.809904,4071.132681,-7105.977043,4826.401637
20565.810237,1184.329507,-8660.409521,3064.381992
20565.810571,1702.473667,-11843.295072,2374.896044
20565.810904,-4367.215058,-9548.656652,-4903.011187
20565.811237,-2738.761985,-13471.748144,-4060.306139
20565.811570,-296.082377,-13471.748144,-1608.800546
20565.811903,-370.102971,-12065.356855,689.485948
20565.812236,1998.556043,-5921.647536,0.000000
20565.812569,-1776.494261,-9918.759623,-383.047749
20565.812903,1998.556043,-6365.771101,-995.924147
20565.813236,2516.700203,-7179.997637,4903.011187
20565.813569,5255.462188,-7105.977043,4826.401637
20565.813902,4663.297435,-5921.647536,-995.924147
20565.814235,-2072.576638,-12509.480420,-612.876398
20565.814568,5847.626942,-10658.965565,1455.581446
20565.814901,4219.173869,-9400.615463,3294.210641
20565.815235,4737.318029,-9252.574275,1915.238745
20565.815568,1850.514855,-8068.244768,-2145.067394
20565.815901,0.000000,-9548.656652,-2451.505594
20565.816234,2368.659014,-8364.327145,2911.162892
20565.816567,-74.020594,-9474.636058,-1915.238745
20565.816900,-2960.823768,-7179.997637,-4903.011187
20565.817233,-4145.153275,-10140.821405,-919.314598
20565.817567,2738.761985,-6587.832884,1225.752797
20565.817900,6365.771101,-6513.812290,5286.058936
20565.818233,6883.915261,-7328.038826,5209.449386
20565.818566,5847.626942,-6661.853478,2528.115143
20565.818899,4663.297435,-11177.109724,2681.334243
20565.819232,3849.070898,-11695.253884,2987.772442
20565.819565,-74.020594,-10066.800811,-5975.544884
20565.819899,-3552.988522,-11917.315666,-4596.572988
20565.820232,-1258.350101,-14211.954086,-2528.115143
20565.820565,-2368.659014,-10732.986159,919.314598
20565.820898,74.020594,-8290.306550,3217.601092
20565.821231,-1406.391290,-6143.709319,3753.867940
20565.821564,444.123565,-5033.400406,3217.601092
20565.821897,814.226536,-5921.647536,3447.429741
20565.822230,3182.885551,-8290.306550,2987.772442
20565.822563,-3552.988522,-6587.832884,0.000000
20565.822896,-7105.977043,-8956.491898,-1455.581446
20565.823229,-5403.503377,-11843.295072,-5592.497135
20565.823563,-4959.379811,-11991.336260,-2145.067394
20565.823896,-3701.029710,-9548.656652,-1225.752797
20565.824229,-3997.112087,-8660.409521,0.000000
20565.824562,-3330.926739,-8068.244768,-1838.629195
20565.824895,-1924.535449,-6883.915261,0.000000
20565.825228,2886.803174,-8808.450710,4826.401637
20565.825561,1850.514855,-7031.956449,4673.182538
20565.825894,-1554.432478,-8142.265362,459.657299
20565.826227,-3701.029710,-10214.842000,0.000000
20565.826560,-814.226536,-9178.553681,995.924147
20565.826893,1184.329507,-9696.697840,6588.421283
20565.827226,2294.638420,-7698.141797,-76.609550
20565.827559,-4441.235652,-7772.162391,-1225.752797
20565.827892,-4737.318029,-10140.821405,-3370.820191
20565.828225,-74.020594,-8882.471304,-2911.162892
20565.828558,-3182.885551,-9992.780217,-2298.286494
20565.828891,-3923.091493,-8808.450710,-3907.087040
20565.829224,-3182.885551,-10510.924376,-612.876398
20565.829557,592.164754,-7179.997637,3677.258390
20565.829891,9400.615463,-7994.224174,7890.783629
20565.830224,6291.750507,-8290.306550,6052.154434
20565.830557,4737.318029,-5403.503377,3983.696590
20565.830890,5255.462188,-11843.295072,3600.648841
20565.831223,4219.173869,-9548.656652,0.000000
20565.831556,1110.308913,-10214.842000,-3830.477490
20565.831889,-2146.597232,-11769.274478,-5745.716235
20565.832222,-3108.864956,-12139.377449,-6358.592633
20565.832555,-1036.288319,-12065.356855,-1608.800546
20565.832888,6439.791695,-9474.636058,1762.019645
20565.833221,3552.988522,-6291.750507,5822.325785
20565.833554,5921.647536,-3034.844362,7048.078582
20565.833887,5551.544565,-7994.224174,3294.210641
20565.834220,7105.977043,-8808.450710,4826.401637
20565.834553,4145.153275,-7920.203579,1072.533697
20565.834886,296.082377,-11621.233289,-2911.162892
20565.835219,-1184.329507,-11547.212695,-5745.716235
20565.835552,-1406.391290,-13915.871710,-3140.991542
20565.835886,1554.432478,-9178.553681,-2681.334243
20565.836219,0.000000,-7920.203579,0.000000
20565.836552,2886.803174,-10658.965565,2374.896044
20565.836885,3478.967927,-7254.018232,-1149.143247
20565.837218,3849.070898,-9474.636058,5669.106685
20565.837551,4145.153275,-5995.668130,4673.182538
20565.837884,1036.288319,-7920.203579,1532.190996
20565.838217,1554.432478,-9252.574275,995.924147
20565.838550,518.144159,-11843.295072,2068.457845
20565.838883,2146.597232,-8068.244768,1685.410096
20565.839216,-962.267725,-10807.006753,229.828649
20565.839549,-3552.988522,-8216.285956,-3983.696590
20565.839882,-5921.647536,-10140.821405,-4290.134789
20565.840215,-3552.988522,-9548.656652,536.266849
20565.840548,-2590.720797,-9326.594869,-1608.800546
20565.840881,-8142.265362,-7254.018232,-4903.011187
20565.841214,-7105.977043,-8068.244768,0.000000
20565.841547,-3997.112087,-8956.491898,3064.381992
20565.841881,666.185348,-6587.832884,7048.078582
20565.842214,592.164754,-6809.894666,6511.811733
20565.842547,-666.185348,-6439.791695,2374.896044
20565.842880,-74.020594,-9474.636058,2911.162892
20565.843213,-1850.514855,-9548.656652,459.657299
20565.843546,-1258.350101,-8290.306550,-5439.278036
20565.843879,-9178.553681,-10881.027347,-6894.859482
20565.844212,-8882.471304,-12805.562797,-6665.030833
20565.844545,-3923.091493,-13841.851115,-1302.362347
20565.844878,-370.102971,-9992.780217,2604.724693
20565.845211,3330.926739,-6143.709319,6665.030833
20565.845544,3775.050304,-3997.112087,5669.106685
20565.845877,3478.967927,-6513.812290,4060.306139
20565.846210,2368.659014,-7772.162391,5592.497135
20565.846543,0.000000,-6143.709319,-1149.143247
20565.846876,-3552.988522,-10140.821405,-1685.410096
20565.847209,-3627.009116,-10510.924376,-7048.078582
20565.847542,-74.020594,-11103.089130,-3447.429741
20565.847875,3775.050304,-12139.377449,1149.143247
20565.848209,3627.009116,-7846.182985,842.705048
20565.848542,1850.514855,-9178.553681,-1302.362347
20565.848875,2516.700203,-8808.450710,-229.828649
20565.849208,6439.791695,-11843.295072,4213.525239
20565.849541,4737.318029,-5995.668130,4903.011187
20565.849874,1184.329507,-7476.080014,2451.505594
20565.850207,5255.462188,-10658.965565,-76.609550
20565.850540,3552.988522,-7476.080014,1838.629195
20565.850873,6883.915261,-8956.491898,3677.258390
20565.851206,5107.421000,-8586.388927,1149.143247
20565.851539,0.000000,-9622.677246,-3983.696590
20565.851872,148.041188,-10881.027347,-3830.477490
20565.852205,1406.391290,-8660.409521,-4366.744339
20565.852538,0.000000,-10732.986159,-76.609550
20565.852871,-1850.514855,-9030.512492,-3753.867940
20565.853204,-3034.844362,-8364.327145,-2451.505594
20565.853537,296.082377,-9548.656652,5209.449386
20565.853870,5255.462188,-5847.626942,5056.230287
20565.854204,5329.482782,-6069.688724,6358.592633
20565.854537,4071.132681,-6957.935855,3600.648841
20565.854870,1406.391290,-8660.409521,1149.143247
20565.855203,1110.308913,-10658.965565,-3294.210641
20565.855536,-2146.597232,-10658.965565,-4519.963438
20565.855869,-6143.709319,-12435.459826,-7124.688131
20565.856202,-8290.306550,-12805.562797,-7277.907231
20565.856535,-5329.482782,-12583.501014,-76.609550
20565.856868,-1258.350101,-9918.759623,1991.848295
20565.857201,296.082377,-4811.338623,5822.325785
20565.857534,0.000000,-3627.009116,8963.317327
20565.857867,1110.308913,-5329.482782,4826.401637
