#time,accel_x,accel_y,accel_z
20885.505443,2294.638420,-9474.636058,-4903.011187
20885.505776,5847.626942,-11325.150913,-76.609550
20885.506110,6513.812290,-8734.430116,1685.410096
20885.506444,9030.512492,-9252.574275,3140.991542
20885.506777,10436.903782,-9030.512492,3907.087040
20885.507111,9622.677246,-7179.997637,3830.477490
20885.507445,11177.109724,-6513.812290,306.438199
20885.507778,10658.965565,-9104.533087,3600.648841
20885.508112,9400.615463,-9474.636058,-689.485948
20885.508446,7328.038826,-8068.244768,-4290.134789
20885.508780,6883.915261,-9474.636058,-2528.115143
20885.509113,7105.977043,-9696.697840,-2834.553343
20885.509447,7031.956449,-10066.800811,-2374.896044
20885.509781,7920.203579,-10510.924376,-459.657299
20885.510114,7105.977043,-11621.233289,2451.505594
20885.510448,5551.544565,-9548.656652,1532.190996
20885.510782,7105.977043,-11843.295072,6665.030833
20885.511115,7031.956449,-8586.388927,3677.258390
20885.511449,6513.812290,-7179.997637,3983.696590
20885.511783,7105.977043,-4959.379811,3370.820191
20885.512117,6587.832884,-7328.038826,2068.457845
20885.512450,5181.441594,-6883.915261,76.609550
20885.512784,6143.709319,-7402.059420,-2374.896044
20885.513118,8216.285956,-8882.471304,-2528.115143
20885.513451,5329.482782,-9548.656652,-2068.457845
20885.513785,8808.450710,-10362.883188,-3753.867940
20885.514119,9400.615463,-11695.253884,-3447.429741
20885.514452,9474.636058,-11621.233289,1072.533697
20885.514786,10658.965565,-11621.233289,153.219100
20885.515120,10436.903782,-11399.171507,2757.943793
20885.515454,9696.697840,-9992.780217,3217.601092
20885.515787,10436.903782,-7772.162391,3140.991542
20885.516121,11177.109724,-7105.977043,4213.525239
20885.516455,9474.636058,-6365.771101,3753.867940
20885.516788,9178.553681,-6809.894666,2068.457845
20885.517122,7624.121203,-7105.977043,-1072.533697
20885.517456,5329.482782,-9474.636058,-2757.943793
20885.517789,6735.874072,-11695.253884,-1302.362347
20885.518123,3108.864956,-8660.409521,-4366.744339
20885.518457,2960.823768,-10140.821405,-1532.190996
20885.518790,6513.812290,-11251.130318,-76.609550
20885.519124,7772.162391,-7772.162391,1532.190996
20885.519458,10288.862594,-8882.471304,5132.839837
20885.519792,8438.347739,-6957.935855,2757.943793
20885.520125,7031.956449,-8882.471304,229.828649
20885.520459,6069.688724,-8956.491898,-1149.143247
20885.520793,6291.750507,-8290.306550,-2834.553343
20885.521126,3552.988522,-9548.656652,-1532.190996
20885.521460,3701.029710,-14211.954086,-76.609550
20885.521794,1110.308913,-12287.418637,-2451.505594
20885.522127,592.164754,-10732.986159,3064.381992
20885.522461,6735.874072,-7550.100608,4290.134789
20885.522795,9400.615463,-4737.318029,5822.325785
20885.523129,10214.842000,-4367.215058,6435.202183
20885.523462,8882.471304,-5477.523971,3600.648841
20885.523796,4145.153275,-5995.668130,-2451.505594
20885.524130,2368.659014,-9548.656652,-3600.648841
20885.524463,1702.473667,-12731.542202,-7124.688131
20885.524797,-1850.514855,-11177.109724,-9806.022374
20885.525131,-2590.720797,-15692.365970,-6205.373534
20885.525464,-1628.453072,-9548.656652,-4136.915689
20885.525798,4885.359217,-9474.636058,2528.115143
20885.526132,11325.150913,-6809.894666,9652.803275
20885.526466,12509.480420,-6069.688724,12640.575717
20885.526799,9474.636058,-7179.997637,8886.707777
20885.527133,14137.933492,-9474.636058,7277.907231
20885.527467,8216.285956,-6143.709319,766.095498
20885.527800,5625.565159,-8956.491898,0.000000
20885.528134,1702.473667,-11547.212695,-6205.373534
20885.528468,-4589.276840,-14285.974681,-11031.775171
20885.528801,-2146.597232,-12953.603985,-7737.564530
20885.529135,-666.185348,-11769.274478,-3524.039291
20885.529469,1998.556043,-9548.656652,1225.752797
20885.529803,1184.329507,-10436.903782,2451.505594
20885.530136,4219.173869,-9104.533087,7124.688131
20885.530470,6439.791695,-4885.359217,9576.193725
20885.530804,6957.935855,-5625.565159,9116.536426
20885.531137,7031.956449,-6513.812290,4826.401637
20885.531471,6735.874072,-7698.141797,1608.800546
20885.531805,1184.329507,-8956.491898,-766.095498
20885.532138,2294.638420,-11251.130318,-4060.306139
20885.532472,-3034.844362,-9548.656652,-9806.022374
20885.532806,-3627.009116,-12435.459826,-8656.879127
20885.533140,-4219.173869,-11325.150913,-7277.907231
20885.533473,-1554.432478,-10658.965565,-3524.039291
20885.533807,444.123565,-11473.192101,0.000000
20885.534141,3552.988522,-9548.656652,6128.763984
20885.534474,8808.450710,-7772.162391,7354.516781
20885.534808,7402.059420,-9178.553681,10955.165621
20885.535142,3478.967927,-6069.688724,3677.258390
20885.535475,0.000000,-7179.997637,3064.381992
20885.535809,2220.617826,-5995.668130,766.095498
20885.536143,1480.411884,-6883.915261,-919.314598
20885.536476,-1924.535449,-9548.656652,-3677.258390
20885.536810,-3034.844362,-10288.862594,-5975.544884
20885.537144,-2590.720797,-13027.624579,-4136.915689
20885.537478,-2590.720797,-8438.347739,-5975.544884
20885.537811,-4145.153275,-12509.480420,-995.924147
20885.538145,-1258.350101,-11547.212695,-1915.238745
20885.538479,-1480.411884,-9548.656652,1532.190996
20885.538812,1480.411884,-9326.594869,6435.202183
20885.539146,4737.318029,-6957.935855,8656.879127
20885.539480,3701.029710,-7994.224174,9116.536426
20885.539813,814.226536,-6291.750507,4749.792088
20885.540147,-1258.350101,-6513.812290,-689.485948
20885.540481,-5921.647536,-6587.832884,-2451.505594
20885.540815,-666.185348,-7698.141797,-3753.867940
20885.541148,-74.020594,-8882.471304,-3907.087040
20885.541482,-2960.823768,-8956.491898,-4596.572988
20885.541816,-1850.514855,-14211.954086,-1302.362347
20885.542149,-2812.782580,-13619.789333,-1915.238745
20885.542483,-3997.112087,-11621.233289,-2221.676944
20885.542817,-370.102971,-8808.450710,383.047749
20885.543150,4515.256246,-7105.977043,5592.497135
20885.543484,6291.750507,-8290.306550,8503.660028
20885.543818,7031.956449,-5477.523971,5439.278036
20885.544152,3849.070898,-7179.997637,3064.381992
20885.544485,2368.659014,-11621.233289,3294.210641
20885.544819,-74.020594,-10658.965565,-1915.238745
20885.545153,-2960.823768,-9918.759623,-6205.373534
20885.545486,-1628.453072,-9030.512492,-5439.278036
20885.545820,2220.617826,-6809.894666,-2604.724693
20885.546154,3478.967927,-10362.883188,689.485948
20885.546487,4293.194464,-13027.624579,2374.896044
20885.546821,1184.329507,-13471.748144,1149.143247
20885.547155,0.000000,-12361.439231,1302.362347
20885.547489,-296.082377,-8586.388927,842.705048
20885.547822,1110.308913,-4885.359217,0.000000
20885.548156,1776.494261,-5181.441594,2451.505594
20885.548490,3108.864956,-7105.977043,3600.648841
20885.548823,0.000000,-6587.832884,0.000000
20885.549157,-888.247130,-10436.903782,1455.581446
20885.549491,-2442.679609,-10658.965565,-3600.648841
20885.549824,-3552.988522,-9178.553681,-3677.258390
20885.550158,592.164754,-7846.182985,-689.485948
20885.550492,5181.441594,-7179.997637,2757.943793
20885.550825,4737.318029,-8956.491898,2757.943793
20885.551159,3552.988522,-11917.315666,6052.154434
20885.551493,-74.020594,-13841.851115,459.657299
20885.551827,-4145.153275,-9548.656652,0.000000
20885.552160,-1258.350101,-9474.636058,-2834.553343
20885.552494,-4219.173869,-4811.338623,-3677.258390
20885.552828,-1776.494261,-4219.173869,-153.219100
20885.553161,0.000000,-4885.359217,0.000000
20885.553495,-592.164754,-8586.388927,1302.362347
20885.553829,-74.020594,-10658.965565,2374.896044
20885.554162,-962.267725,-13619.789333,4213.525239
20885.554496,-1258.350101,-7772.162391,-2451.505594
20885.554830,592.164754,-7772.162391,0.000000
20885.555164,5551.544565,-9474.636058,2374.896044
20885.555497,4737.318029,-7179.997637,5515.887586
20885.555831,3775.050304,-10362.883188,2298.286494
20885.556165,370.102971,-13841.851115,1225.752797
20885.556498,-4071.132681,-13323.706956,-2221.676944
20885.556832,-4811.338623,-10658.965565,-4060.306139
20885.557166,-1258.350101,-7105.977043,-2528.115143
20885.557499,-2590.720797,-2738.761985,0.000000
20885.557833,1998.556043,-7105.977043,2374.896044
20885.558167,2886.803174,-8882.471304,2987.772442
20885.558501,3775.050304,-10362.883188,6511.811733
20885.558834,296.082377,-10140.821405,3983.696590
20885.559168,-1110.308913,-10436.903782,383.047749
20885.559502,148.041188,-7031.956449,-1378.971896
20885.559835,296.082377,-7179.997637,0.000000
20885.560169,4071.132681,-5403.503377,0.000000
20885.560503,-1628.453072,-11325.150913,-2451.505594
20885.560836,-1554.432478,-15988.448347,-2528.115143
20885.561170,-5403.503377,-11991.336260,-4290.134789
20885.561504,-3923.091493,-10955.047942,-1915.238745
20885.561838,-2072.576638,-7476.080014,-766.095498
20885.562171,1258.350101,-4959.379811,2068.457845
20885.562505,4959.379811,-5181.441594,5592.497135
20885.562838,3552.988522,-5107.421000,4903.011187
20885.563171,5329.482782,-9252.574275,4290.134789
20885.563504,3775.050304,-11177.109724,3677.258390
20885.563837,296.082377,-11547.212695,-536.266849
20885.564171,-1776.494261,-10658.965565,-4060.306139
20885.564504,-3552.988522,-8364.327145,-5822.325785
20885.564837,0.000000,-11843.295072,-76.609550
20885.565170,-962.267725,-7179.997637,-1838.629195
20885.565503,-2960.823768,-9548.656652,0.000000
20885.565836,-74.020594,-14211.954086,3600.648841
20885.566170,296.082377,-11843.295072,2374.896044
20885.566503,0.000000,-5403.503377,3677.258390
20885.566836,3775.050304,-3552.988522,2528.115143
20885.567169,4441.235652,-4959.379811,2911.162892
20885.567502,5847.626942,-8882.471304,3600.648841
20885.567835,1702.473667,-8364.327145,0.000000
20885.568168,0.000000,-12509.480420,1302.362347
20885.568502,-74.020594,-13027.624579,-1915.238745
20885.568835,-5329.482782,-9548.656652,-4596.572988
20885.569168,-1554.432478,-8734.430116,-3753.867940
20885.569501,0.000000,-7772.162391,-1302.362347
20885.569834,740.205942,-8660.409521,919.314598
20885.570167,3034.844362,-8586.388927,3140.991542
20885.570500,1110.308913,-11251.130318,4213.525239
20885.570834,-2960.823768,-9548.656652,4903.011187
20885.571167,-74.020594,-8142.265362,536.266849
20885.571500,2294.638420,-5329.482782,0.000000
20885.571833,1184.329507,-6957.935855,3217.601092
20885.572166,-74.020594,-6957.935855,-1532.190996
20885.572499,-1628.453072,-8734.430116,-2528.115143
20885.572832,-2738.761985,-13027.624579,-2298.286494
20885.573166,-2664.741391,-12139.377449,-1302.362347
20885.573499,-4737.318029,-10140.821405,-4136.915689
20885.573832,-4737.318029,-9548.656652,-612.876398
20885.574165,2294.638420,-7105.977043,-995.924147
20885.574498,4071.132681,-6513.812290,2374.896044
20885.574831,2368.659014,-8364.327145,7354.516781
20885.575164,2294.638420,-11103.089130,2911.162892
20885.575498,1702.473667,-10955.047942,2451.505594
20885.575831,-74.020594,-8512.368333,536.266849
20885.576164,370.102971,-7105.977043,-1378.971896
20885.576497,-1776.494261,-5995.668130,-2911.162892
20885.576830,-1184.329507,-8882.471304,-1915.238745
20885.577163,-2368.659014,-8956.491898,-3370.820191
20885.577496,-2442.679609,-13027.624579,-1302.362347
20885.577830,-1258.350101,-14211.954086,-76.609550
20885.578163,-1258.350101,-11251.130318,-995.924147
20885.578496,-2220.617826,-7179.997637,1838.629195
20885.578829,1776.494261,-5403.503377,5209.449386
20885.579162,7031.956449,-4663.297435,5286.058936
20885.579495,7846.182985,-7328.038826,6128.763984
20885.579828,4663.297435,-10066.800811,3600.648841
20885.580162,1258.350101,-12361.439231,306.438199
20885.580495,-3552.988522,-12509.480420,-2757.943793
20885.580828,-2146.597232,-8290.306550,-5209.449386
20885.581161,-2072.576638,-6661.853478,-3753.867940
20885.581494,0.000000,-6291.750507,-612.876398
20885.581827,-74.020594,-9178.553681,-689.485948
20885.582160,1406.391290,-10362.883188,0.000000
20885.582494,1554.432478,-11843.295072,4213.525239
20885.582827,0.000000,-9844.739029,3140.991542
20885.583160,444.123565,-9326.594869,1608.800546
20885.583493,2886.803174,-5921.647536,2221.676944
20885.583826,3552.988522,-4811.338623,3677.258390
20885.584159,7624.121203,-5921.647536,1455.581446
20885.584493,2960.823768,-11843.295072,2374.896044
20885.584826,-666.185348,-13175.665768,-3140.991542
20885.585159,-5921.647536,-11547.212695,-5745.716235
20885.585492,-4737.318029,-10732.986159,-6588.421283
20885.585825,-3552.988522,-10510.924376,-3907.087040
20885.586158,-518.144159,-7550.100608,-1149.143247
20885.586491,1924.535449,-9326.594869,4213.525239
20885.586825,4663.297435,-10066.800811,7277.907231
20885.587158,2368.659014,-8364.327145,5515.887586
20885.587491,2886.803174,-10658.965565,6052.154434
20885.587824,-74.020594,-5551.544565,0.000000
20885.588157,-1776.494261,-7105.977043,1149.143247
20885.588490,1554.432478,-6365.771101,-76.609550
20885.588823,0.000000,-6883.915261,-689.485948
20885.589157,-2442.679609,-9770.718434,-2681.334243
20885.589490,-4367.215058,-13471.748144,-3907.087040
20885.589823,-6069.688724,-13397.727550,-3983.696590
20885.590156,-4737.318029,-11325.150913,-153.219100
20885.590489,-74.020594,-7105.977043,-995.924147
20885.590822,592.164754,-4811.338623,1225.752797
20885.591155,4145.153275,-9474.636058,6052.154434
20885.591489,5255.462188,-9474.636058,6665.030833
20885.591822,3256.906145,-9696.697840,5745.716235
20885.592155,2664.741391,-9844.739029,3677.258390
20885.592488,-666.185348,-9474.636058,-383.047749
20885.592821,-2738.761985,-8438.347739,-4060.306139
20885.593154,-2960.823768,-8068.244768,-3447.429741
20885.593487,444.123565,-7846.182985,-2987.772442
20885.593821,1184.329507,-9548.656652,-1378.971896
20885.594154,1702.473667,-12287.418637,76.609550
20885.594487,1702.473667,-11843.295072,-76.609550
20885.594820,-1776.494261,-12509.480420,1991.848295
20885.595153,4293.194464,-10658.965565,4213.525239
20885.595486,4071.132681,-4811.338623,1225.752797
20885.595819,4145.153275,-6587.832884,3677.258390
20885.596153,4663.297435,-8882.471304,2068.457845
20885.596486,444.123565,-10214.842000,0.000000
20885.596819,-666.185348,-10732.986159,-229.828649
20885.597152,-2664.741391,-9474.636058,-1378.971896
20885.597485,-2960.823768,-7772.162391,-4290.134789
20885.597818,-2368.659014,-7179.997637,-1378.971896
20885.598151,2886.803174,-7031.956449,-1378.971896
20885.598485,4663.297435,-7846.182985,995.924147
20885.598818,2960.823768,-10732.986159,3983.696590
20885.599151,1554.432478,-12583.501014,153.219100
20885.599484,-740.205942,-12287.418637,1225.752797
20885.599817,-888.247130,-9770.718434,76.609550
20885.600150,444.123565,-5625.565159,-306.438199
20885.600483,0.000000,-7476.080014,612.876398
20885.600817,-1776.494261,-8956.491898,4826.401637
20885.601150,-4145.153275,-7179.997637,0.000000
20885.601483,-1998.556043,-11843.295072,612.876398
20885.601816,-3330.926739,-11251.130318,-229.828649
20885.602149,-3997.112087,-7179.997637,-1225.752797
20885.602482,1332.370696,-5921.647536,1915.238745
20885.602816,2812.782580,-6365.771101,2221.676944
20885.603149,5625.565159,-8290.306550,2681.334243
20885.603482,4663.297435,-10955.047942,2374.896044
20885.603815,1998.556043,-15396.283594,1762.019645
20885.604148,-2294.638420,-10732.986159,-2451.505594
20885.604481,-2960.823768,-13027.624579,-1915.238745
20885.604814,-1554.432478,-9178.553681,-2834.553343
20885.605148,-222.061783,-6809.894666,-76.609550
20885.605481,1258.350101,-6587.832884,383.047749
20885.605814,-1184.329507,-7994.224174,612.876398
20885.606147,1184.329507,-9474.636058,2374.896044
20885.606480,0.000000,-8364.327145,1915.238745
20885.606813,-74.020594,-7846.182985,0.000000
20885.607146,0.000000,-7031.956449,0.000000
20885.607480,4663.297435,-9178.553681,1762.019645
20885.607813,3330.926739,-6291.750507,0.000000
20885.608146,3478.967927,-11177.109724,1762.019645
20885.608479,-1036.288319,-12953.603985,-1608.800546
20885.608812,-2368.659014,-12879.583391,-4290.134789
20885.609145,-3552.988522,-13027.624579,-3983.696590
20885.609478,-2368.659014,-9548.656652,-2451.505594
20885.609812,-1110.308913,-5403.503377,0.000000
20885.610145,1702.473667,-5181.441594,2604.724693
20885.610478,3775.050304,-5773.606348,4366.744339
20885.610811,3849.070898,-8586.388927,6971.469032
20885.611144,2072.576638,-6217.729913,4519.963438
20885.611477,1110.308913,-10658.965565,-76.609550
20885.611810,-2368.659014,-8364.327145,-612.876398
20885.612144,-74.020594,-7179.997637,-2987.772442
20885.612477,1184.329507,-9104.533087,-612.876398
20885.612810,-1480.411884,-9252.574275,-2451.505594
20885.613143,-2738.761985,-13471.748144,-2987.772442
20885.613476,-2294.638420,-11843.295072,-2911.162892
20885.613809,-3701.029710,-11991.336260,-2681.334243
20885.614142,-3552.988522,-8956.491898,-2451.505594
20885.614476,2294.638420,-4811.338623,153.219100
20885.614809,2960.823768,-3627.009116,6128.763984
20885.615142,7624.121203,-6809.894666,7277.907231
20885.615475,4663.297435,-9326.594869,3294.210641
20885.615808,4737.318029,-11547.212695,5439.278036
20885.616141,-666.185348,-11029.068536,766.095498
20885.616474,-2220.617826,-9992.780217,-2681.334243
20885.616808,-3034.844362,-9474.636058,-4673.182538
20885.617141,-148.041188,-9474.636058,-1915.238745
20885.617474,-370.102971,-7179.997637,-4290.134789
20885.617807,0.000000,-10732.986159,-2451.505594
20885.618140,-1628.453072,-13915.871710,1762.019645
20885.618473,-3404.947333,-8956.491898,0.000000
20885.618806,518.144159,-8290.306550,1149.143247
20885.619140,1406.391290,-5181.441594,1915.238745
20885.619473,3997.112087,-5107.421000,4213.525239
20885.619806,4293.194464,-6143.709319,4060.306139
20885.620139,3330.926739,-7698.141797,1455.581446
20885.620472,-3404.947333,-10140.821405,0.000000
20885.620805,-1776.494261,-14508.036463,-689.485948
20885.621139,-3923.091493,-11843.295072,-4366.744339
20885.621472,-6513.812290,-7179.997637,-6128.763984
20885.621805,-74.020594,-8142.265362,-2834.553343
20885.622138,888.247130,-7476.080014,1149.143247
20885.622471,3404.947333,-8660.409521,4290.134789
20885.622804,2442.679609,-9770.718434,4749.792088
20885.623137,1998.556043,-10658.965565,3294.210641
20885.623471,-1184.329507,-10214.842000,1685.410096
20885.623804,518.144159,-6217.729913,-383.047749
20885.624137,814.226536,-6957.935855,306.438199
20885.624470,592.164754,-7179.997637,306.438199
20885.624803,1110.308913,-10658.965565,-1302.362347
20885.625136,-3849.070898,-11621.233289,-2451.505594
20885.625469,-4145.153275,-10140.821405,0.000000
20885.625803,-3627.009116,-11843.295072,-1915.238745
20885.626136,-2368.659014,-6587.832884,-3370.820191
20885.626469,2368.659014,-7105.977043,536.266849
20885.626802,5847.626942,-6809.894666,4673.182538
20885.627135,6587.832884,-6735.874072,5209.449386
20885.627468,6735.874072,-11843.295072,6052.154434
20885.627801,3997.112087,-12435.459826,4826.401637
20885.628135,-3256.906145,-10140.821405,0.000000
20885.628468,-1554.432478,-10214.842000,-1762.019645
20885.628801,-2442.679609,-8586.388927,-6665.030833
20885.629134,-1702.473667,-8216.285956,-1608.800546
20885.629467,-814.226536,-8142.265362,-1072.533697
20885.629800,-1850.514855,-10362.883188,1608.800546
20885.630133,-1258.350101,-10436.903782,1838.629195
20885.630467,-2812.782580,-7772.162391,2145.067394
20885.630800,2294.638420,-8882.471304,2987.772442
20885.631133,0.000000,-5107.421000,5362.668486
20885.631466,5699.585753,-7105.977043,3294.210641
20885.631799,3775.050304,-6513.812290,2221.676944
20885.632132,2960.823768,-8290.306550,919.314598
20885.632465,592.164754,-13767.830521,-1532.190996
20885.632799,-4293.194464,-13397.727550,-4903.011187
20885.633132,-4885.359217,-12065.356855,-7201.297681
20885.633465,-3552.988522,-9400.615463,-4136.915689
20885.633798,-74.020594,-7698.141797,-3677.258390
20885.634131,740.205942,-9474.636058,3677.258390
20885.634464,2072.576638,-10066.800811,6052.154434
20885.634797,2368.659014,-7476.080014,7354.516781
20885.635131,1480.411884,-9548.656652,7660.954980
20885.635464,740.205942,-8364.327145,2911.162892
20885.635797,814.226536,-6291.750507,0.000000
20885.636130,370.102971,-6143.709319,-1302.362347
20885.636463,3182.885551,-8882.471304,-1302.362347
20885.636796,-3256.906145,-9548.656652,-3064.381992
20885.637129,-666.185348,-14211.954086,-4979.620737
20885.637463,-5107.421000,-12435.459826,-6205.373534
20885.637796,-5625.565159,-12657.521608,-3140.991542
20885.638129,-1184.329507,-8956.491898,-1455.581446
20885.638462,1184.329507,-7402.059420,2451.505594
20885.638795,6365.771101,-5181.441594,6588.421283
20885.639128,6587.832884,-5847.626942,7201.297681
20885.639462,7920.203579,-10658.965565,6665.030833
20885.639795,4737.318029,-10140.821405,6741.640382
20885.640128,0.000000,-10658.965565,1225.752797
20885.640461,518.144159,-7846.182985,-1532.190996
20885.640794,-1776.494261,-7920.203579,-3217.601092
20885.641127,2886.803174,-7698.141797,-1915.238745
20885.641460,-1776.494261,-7476.080014,-2298.286494
20885.641794,-4737.318029,-11325.150913,-1838.629195
20885.642127,-2442.679609,-13027.624579,-3753.867940
20885.642460,-5181.441594,-12435.459826,-3677.258390
20885.642793,-1628.453072,-9252.574275,1149.143247
20885.643126,1184.329507,-6809.894666,2374.896044
20885.643459,4737.318029,-6587.832884,4903.011187
20885.643792,6069.688724,-6957.935855,6358.592633
20885.644126,4071.132681,-9030.512492,5439.278036
20885.644459,2590.720797,-7772.162391,3677.258390
20885.644792,-962.267725,-13027.624579,-76.609550
20885.645125,-1554.432478,-10066.800811,-4979.620737
20885.645458,-4145.153275,-6587.832884,-4903.011187
20885.645791,-74.020594,-9474.636058,-2834.553343
20885.646124,-518.144159,-9326.594869,-1762.019645
20885.646458,-74.020594,-12435.459826,1378.971896
20885.646791,-370.102971,-12213.398043,3294.210641
20885.647124,-3552.988522,-8956.491898,612.876398
20885.647457,-4737.318029,-7179.997637,3983.696590
20885.647790,-74.020594,-5921.647536,1149.143247
20885.648123,296.082377,-2442.679609,0.000000
20885.648456,1184.329507,-6661.853478,2374.896044
20885.648790,-814.226536,-8068.244768,-1225.752797
20885.649123,-1628.453072,-12287.418637,-842.705048
20885.649456,-4145.153275,-11917.315666,-2145.067394
20885.649789,-4663.297435,-9548.656652,-3753.867940
20885.650122,-1924.535449,-9474.636058,-1838.629195
20885.650455,740.205942,-8956.491898,4826.401637
20885.650788,5847.626942,-5921.647536,2681.334243
20885.651122,4145.153275,-8512.368333,4903.011187
20885.651455,5625.565159,-11843.295072,7277.907231
20885.651788,592.164754,-11917.315666,3983.696590
20885.652121,-296.082377,-8216.285956,-383.047749
20885.652454,-518.144159,-7772.162391,-2834.553343
20885.652787,-1406.391290,-7550.100608,-3140.991542
20885.653120,-74.020594,-7105.977043,-1915.238745
20885.653454,-74.020594,-10658.965565,-1302.362347
20885.653787,-2960.823768,-9844.739029,-2451.505594
20885.654120,-2368.659014,-10732.986159,1455.581446
20885.654453,-74.020594,-10658.965565,0.000000
20885.654786,2368.659014,-5403.503377,4290.134789
20885.655119,5255.462188,-6143.709319,4596.572988
20885.655452,6217.729913,-6143.709319,4519.963438
20885.655786,6661.853478,-9400.615463,4213.525239
20885.656119,4071.132681,-11251.130318,2528.115143
20885.656452,2738.761985,-12731.542202,-842.705048
20885.656785,-3256.906145,-11991.336260,-4903.011187
20885.657118,-4145.153275,-10732.986159,-6741.640382
20885.657451,-2590.720797,-7994.224174,-4749.792088
20885.657785,-74.020594,-8882.471304,-1608.800546
20885.658118,2886.803174,-11103.089130,3600.648841
20885.658451,1998.556043,-9252.574275,2604.724693
20885.658784,1480.411884,-9548.656652,4903.011187
20885.659117,0.000000,-8956.491898,4903.011187
20885.659450,-740.205942,-7031.956449,1838.629195
20885.659783,1702.473667,-6217.729913,2145.067394
20885.660117,592.164754,-7328.038826,1915.238745
20885.660450,1480.411884,-5403.503377,459.657299
20885.660783,-2960.823768,-10436.903782,-2374.896044
20885.661116,-666.185348,-12435.459826,-2528.115143
20885.661449,-3923.091493,-14211.954086,-4979.620737
20885.661782,-6661.853478,-9548.656652,-6741.640382
20885.662115,-1036.288319,-11103.089130,-842.705048
20885.662449,-1036.288319,-6883.915261,1302.362347
20885.662781,5181.441594,-6439.791695,6205.373534
20885.663114,2812.782580,-7179.997637,7354.516781
20885.663447,4071.132681,-9178.553681,5745.716235
20885.663780,0.000000,-10436.903782,5515.887586
20885.664113,-666.185348,-8290.306550,-995.924147
20885.664446,-1184.329507,-4811.338623,-3677.258390
20885.664779,-1480.411884,-9474.636058,-76.609550
20885.665112,-370.102971,-5921.647536,-5056.230287
20885.665445,-1850.514855,-12435.459826,-3140.991542
20885.665778,-1258.350101,-14211.954086,-4979.620737
20885.666111,-2960.823768,-12065.356855,-1378.971896
20885.666444,-2812.782580,-11029.068536,-1072.533697
20885.666777,2886.803174,-8290.306550,1762.019645
20885.667110,2886.803174,-4219.173869,612.876398
20885.667442,6661.853478,-7698.141797,6052.154434
20885.667775,7624.121203,-9474.636058,6052.154434
20885.668108,2812.782580,-7772.162391,3370.820191
20885.668441,3701.029710,-11843.295072,2681.334243
20885.668774,-3108.864956,-10584.944971,-3370.820191
20885.669107,-1850.514855,-9252.574275,-4519.963438
20885.669440,0.000000,-6809.894666,-2145.067394
20885.669773,4663.297435,-8808.450710,-76.609550
20885.670106,1628.453072,-10436.903782,689.485948
20885.670439,518.144159,-12139.377449,153.219100
20885.670772,-592.164754,-11399.171507,689.485948
20885.671105,-1776.494261,-8364.327145,0.000000
20885.671438,2664.741391,-9474.636058,1149.143247
20885.671771,3775.050304,-6957.935855,1072.533697
20885.672103,3182.885551,-3034.844362,2451.505594
20885.672436,3701.029710,-9770.718434,2374.896044
20885.672769,3182.885551,-10658.965565,1149.143247
20885.673102,740.205942,-13101.645173,766.095498
20885.673435,-2886.803174,-11843.295072,-1838.629195
20885.673768,-2738.761985,-8734.430116,-3064.381992
20885.674101,-74.020594,-7698.141797,-76.609550
20885.674434,3404.947333,-8142.265362,3294.210641
20885.674767,3182.885551,-5995.668130,3677.258390
20885.675100,2368.659014,-10140.821405,2451.505594
20885.675433,222.061783,-14211.954086,2068.457845
20885.675766,-2072.576638,-11695.253884,0.000000
20885.676099,-2590.720797,-7994.224174,-2221.676944
20885.676432,-1998.556043,-7550.100608,-1608.800546
20885.676765,-1924.535449,-6291.750507,-995.924147
20885.677097,-2738.761985,-8882.471304,-1608.800546
20885.677430,-2072.576638,-10658.965565,1149.143247
20885.677763,-4145.153275,-9548.656652,0.000000
20885.678096,-4737.318029,-11843.295072,842.705048
20885.678429,-740.205942,-8882.471304,2221.676944
20885.678762,-74.020594,-7105.977043,1762.019645
20885.679095,2146.597232,-5551.544565,3064.381992
20885.679428,3478.967927,-8586.388927,3140.991542
20885.679761,2294.638420,-10362.883188,3524.039291
20885.680094,0.000000,-9844.739029,1225.752797
20885.680427,-1258.350101,-13027.624579,-1915.238745
20885.680760,-6809.894666,-12213.398043,-4903.011187
20885.681093,-4737.318029,-8808.450710,-3140.991542
20885.681426,-1554.432478,-7105.977043,-2528.115143
20885.681758,0.000000,-5699.585753,0.000000
20885.682091,0.000000,-8586.388927,2681.334243
20885.682424,-888.247130,-11177.109724,2604.724693
20885.682757,1702.473667,-7994.224174,2451.505594
20885.683090,-74.020594,-11251.130318,3600.648841
20885.683423,1998.556043,-4811.338623,0.000000
20885.683756,7920.203579,-7105.977043,3600.648841
20885.684089,3775.050304,-5995.668130,0.000000
20885.684422,3552.988522,-9548.656652,919.314598
20885.684755,0.000000,-13397.727550,-2451.505594
20885.685088,-2072.576638,-13989.892304,-3064.381992
20885.685421,-3182.885551,-11991.336260,-4136.915689
20885.685754,-1110.308913,-8660.409521,-3600.648841
20885.686087,1702.473667,-8882.471304,-76.609550
20885.686419,1628.453072,-5699.585753,1532.190996
20885.686752,5847.626942,-6883.915261,4979.620737
20885.687085,6809.894666,-8586.388927,8044.002729
20885.687418,4959.379811,-8956.491898,5515.887586
20885.687751,1776.494261,-11029.068536,2757.943793
20885.688084,-1036.288319,-7328.038826,-2451.505594
20885.688417,0.000000,-8364.327145,1149.143247
20885.688750,2294.638420,-7550.100608,-2757.943793
20885.689083,740.205942,-10140.821405,-2068.457845
20885.689416,-2368.659014,-13101.645173,0.000000
20885.689749,-3552.988522,-11695.253884,-3600.648841
20885.690082,-3478.967927,-11029.068536,-2757.943793
20885.690415,-3849.070898,-9548.656652,-1225.752797
20885.690748,2886.803174,-7105.977043,2987.772442
20885.691080,2886.803174,-4219.173869,4903.011187
20885.691413,5107.421000,-8882.471304,8503.660028
20885.691746,3478.967927,-9178.553681,3907.087040
20885.692079,0.000000,-8364.327145,3677.258390
20885.692412,-74.020594,-10658.965565,-76.609550
20885.692745,-5625.565159,-10436.903782,-3983.696590
20885.693078,-3997.112087,-8290.306550,-4826.401637
20885.693411,-4663.297435,-7920.203579,-3370.820191
20885.693744,-1776.494261,-7476.080014,-3064.381992
20885.694077,-6439.791695,-9548.656652,0.000000
20885.694410,-3627.009116,-14804.118840,-383.047749
20885.694743,-3034.844362,-10658.965565,-1302.362347
20885.695076,-2664.741391,-8364.327145,919.314598
20885.695409,2886.803174,-5921.647536,2374.896044
20885.695741,2960.823768,-5403.503377,5592.497135
20885.696074,4145.153275,-5403.503377,4903.011187
20885.696407,2960.823768,-7179.997637,2451.505594
20885.696740,592.164754,-11325.150913,1225.752797
20885.697073,-1924.535449,-12139.377449,-76.609550
20885.697406,-3627.009116,-11843.295072,-5439.278036
20885.697739,-2368.659014,-8068.244768,-5822.325785
20885.698072,-2368.659014,-8364.327145,-76.609550
20885.698405,3330.926739,-5107.421000,0.000000
20885.698738,3997.112087,-9548.656652,3217.601092
20885.699071,3849.070898,-9770.718434,4826.401637
20885.699404,3330.926739,-9622.677246,3064.381992
20885.699737,3923.091493,-9474.636058,3600.648841
20885.700070,4737.318029,-5477.523971,2221.676944
20885.700402,4367.215058,-7105.977043,-383.047749
20885.700735,3552.988522,-6291.750507,0.000000
20885.701068,3478.967927,-11547.212695,-689.485948
20885.701401,222.061783,-13101.645173,-3677.258390
20885.701734,1998.556043,-13249.686362,-1915.238745
20885.702067,-2146.597232,-12953.603985,-2911.162892
20885.702400,3478.967927,-7698.141797,-2221.676944
20885.702733,4663.297435,-8290.306550,3907.087040
20885.703066,8364.327145,-5033.400406,6358.592633
20885.703399,6513.812290,-5403.503377,6128.763984
20885.703732,4515.256246,-9474.636058,4366.744339
20885.704065,3108.864956,-11029.068536,2451.505594
20885.704398,-1850.514855,-12435.459826,-76.609550
20885.704731,-4737.318029,-8364.327145,-2221.676944
20885.705063,-4219.173869,-8290.306550,-6818.249932
20885.705396,-4145.153275,-9548.656652,-4826.401637
20885.705729,-3256.906145,-8068.244768,-1838.629195
20885.706062,-5107.421000,-11399.171507,-536.266849
20885.706395,-2368.659014,-8882.471304,0.000000
20885.706728,-3182.885551,-9474.636058,3600.648841
20885.707061,-740.205942,-6365.771101,3524.039291
20885.707394,222.061783,-3108.864956,2451.505594
20885.707727,3182.885551,-7105.977043,3600.648841
20885.708060,1406.391290,-3627.009116,1225.752797
20885.708393,-296.082377,-11547.212695,2374.896044
20885.708726,-2442.679609,-13619.789333,-2221.676944
20885.709059,-8734.430116,-11325.150913,-5515.887586
20885.709392,-7476.080014,-11399.171507,-6818.249932
20885.709724,-4811.338623,-9252.574275,-4903.011187
20885.710057,-3108.864956,-7920.203579,-153.219100
20885.710390,740.205942,-8290.306550,4749.792088
20885.710723,2294.638420,-8142.265362,3370.820191
20885.711056,2960.823768,-8364.327145,6128.763984
20885.711389,2886.803174,-9474.636058,5439.278036
20885.711722,-1036.288319,-5403.503377,612.876398
20885.712055,1850.514855,-7105.977043,842.705048
20885.712388,1628.453072,-7105.977043,153.219100
20885.712721,3330.926739,-7920.203579,-766.095498
20885.713054,296.082377,-10732.986159,-2221.676944
20885.713387,-74.020594,-13619.789333,-2834.553343
20885.713720,-2738.761985,-10732.986159,-4903.011187
20885.714053,-1776.494261,-12139.377449,-1915.238745
20885.714386,-74.020594,-11251.130318,-2528.115143
20885.714718,1776.494261,-4811.338623,153.219100
20885.715051,6735.874072,-7105.977043,4826.401637
20885.715384,5921.647536,-7179.997637,5975.544884
20885.715717,6587.832884,-9474.636058,5898.935335
20885.716050,4737.318029,-8882.471304,4673.182538
20885.716383,3478.967927,-9474.636058,1149.143247
20885.716716,592.164754,-7772.162391,-2911.162892
20885.717049,814.226536,-8882.471304,-4290.134789
20885.717382,1406.391290,-9918.759623,-2987.772442
20885.717715,0.000000,-9548.656652,-3677.258390
20885.718048,0.000000,-15026.180623,-383.047749
20885.718381,-1850.514855,-11843.295072,-2834.553343
20885.718714,-74.020594,-9548.656652,-2451.505594
20885.719047,1184.329507,-9252.574275,3064.381992
20885.719379,3182.885551,-4811.338623,1455.581446
20885.719712,4589.276840,-8290.306550,6358.592633
20885.720045,4811.338623,-5773.606348,5209.449386
20885.720378,2960.823768,-10881.027347,5286.058936
20885.720711,3478.967927,-10658.965565,4213.525239
20885.721044,-3182.885551,-12435.459826,-76.609550
20885.721377,-7105.977043,-7772.162391,-3677.258390
20885.721710,-2960.823768,-9474.636058,-2451.505594
20885.722043,-1258.350101,-10658.965565,-2834.553343
20885.722376,-1036.288319,-8956.491898,-1225.752797
20885.722709,-3034.844362,-11843.295072,-229.828649
20885.723042,-1702.473667,-9474.636058,1072.533697
20885.723375,-3997.112087,-9474.636058,1225.752797
20885.723708,-1406.391290,-6365.771101,1838.629195
20885.724040,1258.350101,-6365.771101,4213.525239
20885.724373,0.000000,-3627.009116,3677.258390
20885.724706,4071.132681,-7994.224174,3294.210641
20885.725039,-666.185348,-11843.295072,-76.609550
20885.725372,-1850.514855,-12065.356855,-1302.362347
20885.725705,-4515.256246,-9992.780217,-2757.943793
20885.726038,-4663.297435,-11991.336260,-4596.572988
20885.726371,-1480.411884,-7031.956449,-3217.601092
20885.726704,0.000000,-8364.327145,1225.752797
20885.727037,6439.791695,-6513.812290,2374.896044
20885.727370,4145.153275,-9400.615463,6741.640382
20885.727703,3478.967927,-11547.212695,2374.896044
20885.728036,592.164754,-8364.327145,1225.752797
20885.728369,592.164754,-6587.832884,306.438199
20885.728701,1924.535449,-8660.409521,-766.095498
20885.729034,-222.061783,-7698.141797,-2221.676944
20885.729367,0.000000,-8808.450710,-3600.648841
20885.729700,1702.473667,-13619.789333,-689.485948
20885.730033,814.226536,-8660.409521,-2451.505594
20885.730366,1110.308913,-15988.448347,-76.609550
20885.730699,2886.803174,-9474.636058,-76.609550
20885.731032,2368.659014,-9548.656652,5056.230287
20885.731365,8734.430116,-6587.832884,6511.811733
20885.731698,7179.997637,-5995.668130,6128.763984
20885.732031,5551.544565,-9696.697840,3677.258390
20885.732364,3108.864956,-9548.656652,612.876398
20885.732697,-666.185348,-13323.706956,-1915.238745
20885.733030,-4441.235652,-11325.150913,-4903.011187
20885.733362,-3552.988522,-9918.759623,-4060.306139
20885.733695,-1110.308913,-9252.574275,-2451.505594
20885.734028,-518.144159,-7920.203579,-383.047749
20885.734361,-74.020594,-9474.636058,2068.457845
20885.734694,-2368.659014,-8956.491898,2451.505594
20885.735027,-2368.659014,-7476.080014,5515.887586
20885.735360,-74.020594,-9474.636058,2068.457845
20885.735693,222.061783,-7105.977043,2604.724693
20885.736026,3552.988522,-7105.977043,4519.963438
20885.736359,2368.659014,-6957.935855,3064.381992
20885.736692,1184.329507,-9178.553681,229.828649
20885.737025,-3182.885551,-12139.377449,-2451.505594
20885.737358,-5107.421000,-10732.986159,-5822.325785
20885.737691,-6513.812290,-13693.809927,-1915.238745
20885.738023,-3330.926739,-9474.636058,-3140.991542
20885.738356,-2442.679609,-8290.306550,-3370.820191
20885.738689,592.164754,-7179.997637,4826.401637
20885.739022,3478.967927,-10658.965565,6052.154434
20885.739355,1480.411884,-8364.327145,7124.688131
20885.739688,888.247130,-8512.368333,5056.230287
20885.740021,-740.205942,-8660.409521,3524.039291
20885.740354,-2368.659014,-6291.750507,0.000000
20885.740687,-74.020594,-5477.523971,-4903.011187
20885.741020,1184.329507,-9474.636058,-76.609550
20885.741353,-666.185348,-7994.224174,-3983.696590
20885.741686,-2442.679609,-11695.253884,-4903.011187
20885.742019,-4737.318029,-13619.789333,-4979.620737
20885.742352,-4589.276840,-12213.398043,-3753.867940
20885.742684,-1332.370696,-9844.739029,-459.657299
20885.743017,2368.659014,-6365.771101,2757.943793
20885.743350,4737.318029,-5995.668130,5515.887586
20885.743683,3552.988522,-5403.503377,4903.011187
20885.744016,7920.203579,-9474.636058,7277.907231
20885.744349,4071.132681,-8364.327145,2451.505594
20885.744682,2072.576638,-10955.047942,1838.629195
20885.745015,-2368.659014,-8956.491898,-4290.134789
20885.745348,-1554.432478,-9252.574275,-4673.182538
20885.745681,518.144159,-7994.224174,-3217.601092
20885.746014,1554.432478,-9992.780217,-1685.410096
20885.746347,2294.638420,-11251.130318,-229.828649
20885.746680,0.000000,-13841.851115,2681.334243
20885.747013,1702.473667,-8290.306550,-229.828649
20885.747345,1110.308913,-7179.997637,0.000000
20885.747678,4663.297435,-7994.224174,3294.210641
20885.748011,5773.606348,-7179.997637,1532.190996
20885.748344,4663.297435,-9104.533087,3447.429741
20885.748677,2960.823768,-8142.265362,1608.800546
20885.749010,0.000000,-13397.727550,153.219100
20885.749343,-666.185348,-11843.295072,-1302.362347
20885.749676,-3256.906145,-10955.047942,-689.485948
20885.750009,-2664.741391,-8512.368333,-1608.800546
20885.750342,-444.123565,-8216.285956,229.828649
20885.750675,3108.864956,-6587.832884,3524.039291
20885.751008,4071.132681,-10658.965565,4826.401637
20885.751341,888.247130,-7179.997637,1225.752797
20885.751674,-1924.535449,-14211.954086,1762.019645
20885.752007,-2220.617826,-7179.997637,-1838.629195
20885.752339,-4737.318029,-7179.997637,-1225.752797
20885.752672,-1554.432478,-8142.265362,-1608.800546
20885.753005,-2072.576638,-7772.162391,-229.828649
20885.753338,-4219.173869,-10362.883188,-612.876398
20885.753671,-1110.308913,-9548.656652,995.924147
20885.754004,-3923.091493,-9474.636058,76.609550
20885.754337,-4737.318029,-9548.656652,1455.581446
20885.754670,-1776.494261,-7179.997637,2987.772442
20885.755003,3478.967927,-6069.688724,1915.238745
20885.755336,5329.482782,-5995.668130,6128.763984
20885.755669,4663.297435,-8290.306550,2145.067394
20885.756002,3701.029710,-10436.903782,1149.143247
20885.756335,814.226536,-11547.212695,-689.485948
20885.756668,-592.164754,-11769.274478,-3370.820191
20885.757000,-4145.153275,-9548.656652,-4596.572988
20885.757333,-1776.494261,-11251.130318,-76.609550
20885.757666,1998.556043,-5995.668130,-459.657299
20885.757999,1998.556043,-5995.668130,-1838.629195
20885.758332,814.226536,-10658.965565,1762.019645
20885.758665,1332.370696,-8512.368333,2451.505594
20885.758998,1184.329507,-9548.656652,2987.772442
20885.759331,3256.906145,-6069.688724,2068.457845
20885.759664,3552.988522,-7328.038826,1149.143247
20885.759997,7105.977043,-7254.018232,3677.258390
20885.760330,8808.450710,-11843.295072,2374.896044
20885.760663,4071.132681,-10732.986159,-2451.505594
20885.760996,0.000000,-13693.809927,-4903.011187
20885.761329,-3552.988522,-14804.118840,-4979.620737
20885.761661,-3552.988522,-11325.150913,-3677.258390
20885.761994,-1480.411884,-9696.697840,-1532.190996
20885.762327,1998.556043,-5181.441594,1149.143247
20885.762660,1628.453072,-7550.100608,3524.039291
20885.762994,3849.070898,-7031.956449,6741.640382
20885.763327,2590.720797,-8216.285956,6128.763984
20885.763660,444.123565,-9252.574275,3753.867940
20885.763993,-148.041188,-7328.038826,1915.238745
20885.764326,-2146.597232,-6513.812290,-2221.676944
20885.764659,0.000000,-6587.832884,0.000000
20885.764992,0.000000,-10807.006753,-383.047749
20885.765325,-2442.679609,-11843.295072,-4519.963438
20885.765658,-7105.977043,-14285.974681,-2528.115143
20885.765991,-5107.421000,-13027.624579,-4979.620737
20885.766324,-7105.977043,-10732.986159,-3064.381992
20885.766658,-74.020594,-4589.276840,0.000000
20885.766991,888.247130,-5847.626942,5132.839837
20885.767324,2368.659014,-4811.338623,7354.516781
20885.767657,4367.215058,-5921.647536,4903.011187
20885.767990,3478.967927,-9474.636058,4213.525239
20885.768323,592.164754,-8364.327145,3064.381992
20885.768656,-5625.565159,-10140.821405,-612.876398
20885.768989,-3552.988522,-8364.327145,-4903.011187
20885.769322,-4293.194464,-10436.903782,-4213.525239
20885.769655,-370.102971,-9548.656652,-2757.943793
20885.769989,666.185348,-9548.656652,-1838.629195
20885.770322,-1258.350101,-14211.954086,-689.485948
20885.770655,-1702.473667,-9548.656652,-2298.286494
20885.770988,-74.020594,-11843.295072,1149.143247
20885.771321,2368.659014,-4811.338623,3677.258390
20885.771654,5847.626942,-5921.647536,4826.401637
20885.771987,5551.544565,-6957.935855,4290.134789
20885.772320,3330.926739,-7476.080014,3524.039291
20885.772653,2220.617826,-9622.677246,1455.581446
20885.772986,0.000000,-11029.068536,-1072.533697
20885.773320,-2960.823768,-11843.295072,-3217.601092
20885.773653,-4441.235652,-9548.656652,-3524.039291
20885.773986,-1258.350101,-10066.800811,-4366.744339
20885.774319,0.000000,-6291.750507,-1838.629195
20885.774652,3256.906145,-10288.862594,3294.210641
20885.774985,4663.297435,-7994.224174,2987.772442
20885.775318,2590.720797,-10955.047942,2374.896044
20885.775651,1776.494261,-8808.450710,1991.848295
20885.775984,2442.679609,-8660.409521,1608.800546
20885.776317,3775.050304,-7846.182985,1838.629195
20885.776650,6439.791695,-9474.636058,2068.457845
20885.776984,0.000000,-9844.739029,0.000000
20885.777317,814.226536,-11251.130318,-1302.362347
20885.777650,-1258.350101,-14211.954086,-3753.867940
20885.777983,-2442.679609,-11843.295072,-3294.210641
20885.778316,-3923.091493,-11843.295072,-2221.676944
20885.778649,-2442.679609,-8956.491898,-383.047749
20885.778982,1850.514855,-6365.771101,4060.306139
20885.779315,3997.112087,-6217.729913,7354.516781
20885.779648,8216.285956,-5921.647536,6971.469032
20885.779981,3330.926739,-10362.883188,5592.497135
20885.780315,222.061783,-8808.450710,536.266849
20885.780648,-4959.379811,-11325.150913,-3370.820191
20885.780981,-7105.977043,-9548.656652,-6741.640382
20885.781314,-2442.679609,-10362.883188,-4366.744339
20885.781647,-5107.421000,-8364.327145,-4826.401637
20885.781980,-2368.659014,-8956.491898,1149.143247
20885.782313,-3627.009116,-11843.295072,76.609550
20885.782646,-370.102971,-7920.203579,0.000000
20885.782979,-740.205942,-8290.306550,4519.963438
20885.783312,666.185348,-5625.565159,4673.182538
20885.783646,4367.215058,-4589.276840,4519.963438
20885.783979,5329.482782,-7476.080014,6281.983084
20885.784312,7920.203579,-8290.306550,3600.648841
20885.784645,1776.494261,-9548.656652,612.876398
20885.784978,-2368.659014,-12509.480420,-2068.457845
20885.785311,-3182.885551,-13027.624579,-6818.249932
20885.785644,-4737.318029,-9548.656652,-6128.763984
20885.785977,-1258.350101,-10658.965565,-5592.497135
20885.786310,-296.082377,-10510.924376,-1991.848295
20885.786643,2368.659014,-8216.285956,1072.533697
20885.786977,6439.791695,-9474.636058,7277.907231
20885.787310,8808.450710,-6513.812290,7277.907231
20885.787643,2960.823768,-7179.997637,8810.098227
20885.787976,5847.626942,-7105.977043,3600.648841
20885.788309,4071.132681,-7550.100608,0.000000
20885.788642,6439.791695,-8586.388927,2068.457845
20885.788975,2368.659014,-9992.780217,-1838.629195
20885.789308,-444.123565,-12287.418637,-5286.058936
20885.789641,-4293.194464,-15026.180623,-5822.325785
20885.789974,-5329.482782,-11917.315666,-7048.078582
20885.790307,-2442.679609,-11177.109724,-4903.011187
20885.790641,-4145.153275,-9548.656652,153.219100
20885.790974,5847.626942,-7105.977043,3600.648841
20885.791307,1924.535449,-3627.009116,6128.763984
20885.791640,3404.947333,-5921.647536,6971.469032
20885.791973,2072.576638,-9030.512492,6511.811733
20885.792306,1332.370696,-8216.285956,3907.087040
20885.792639,-1406.391290,-8290.306550,536.266849
20885.792972,-1776.494261,-8882.471304,-2145.067394
20885.793305,-3552.988522,-7772.162391,-3677.258390
20885.793638,-1850.514855,-11843.295072,-2528.115143
20885.793972,-1850.514855,-12731.542202,-4366.744339
20885.794305,-7105.977043,-12805.562797,-3370.820191
20885.794638,-6661.853478,-13175.665768,-3140.991542
20885.794971,-4219.173869,-9548.656652,-76.609550
20885.795304,1110.308913,-5699.585753,3830.477490
20885.795637,4071.132681,-5403.503377,6358.592633
20885.795970,4737.318029,-5403.503377,8886.707777
20885.796303,1184.329507,-7179.997637,5362.668486
20885.796636,1628.453072,-5995.668130,2145.067394
20885.796969,-1554.432478,-11621.233289,0.000000
20885.797303,-4219.173869,-9770.718434,-3907.087040
20885.797636,-4737.318029,-9548.656652,-4903.011187
20885.797969,-4145.153275,-8364.327145,-7354.516781
20885.798302,1184.329507,-8660.409521,-76.609550
20885.798635,1998.556043,-11251.130318,-76.609550
20885.798968,2294.638420,-11251.130318,536.266849
20885.799301,592.164754,-11251.130318,2374.896044
20885.799634,740.205942,-10732.986159,2068.457845
20885.799967,4219.173869,-7624.121203,4136.915689
20885.800300,3182.885551,-7254.018232,4519.963438
20885.800633,5847.626942,-5921.647536,4519.963438
20885.800967,0.000000,-7179.997637,1378.971896
20885.801300,0.000000,-9548.656652,-76.609550
20885.801633,-1258.350101,-10955.047942,-4366.744339
20885.801966,-4737.318029,-9548.656652,-4903.011187
20885.802299,-1850.514855,-11251.130318,-3753.867940
20885.802632,296.082377,-8438.347739,-766.095498
20885.802965,3256.906145,-7179.997637,2451.505594
20885.803298,2812.782580,-8216.285956,2451.505594
20885.803631,3775.050304,-9326.594869,995.924147
20885.803964,0.000000,-11325.150913,3677.258390
20885.804298,3478.967927,-10066.800811,4213.525239
20885.804631,2294.638420,-7105.977043,0.000000
20885.804964,3552.988522,-9030.512492,2604.724693
20885.805297,1702.473667,-7772.162391,-1685.410096
20885.805630,222.061783,-10362.883188,-995.924147
20885.805963,370.102971,-9548.656652,-1838.629195
20885.806296,-2220.617826,-11399.171507,-2374.896044
20885.806629,-4145.153275,-9548.656652,-3677.258390
20885.806962,-74.020594,-11843.295072,3600.648841
20885.807295,-1258.350101,-5995.668130,0.000000
20885.807629,3849.070898,-7105.977043,6665.030833
20885.807962,7031.956449,-9474.636058,7277.907231
20885.808295,2738.761985,-5551.544565,3064.381992
20885.808628,962.267725,-10362.883188,2068.457845
20885.808961,-3182.885551,-10510.924376,-3064.381992
20885.809294,-5773.606348,-12657.521608,-3830.477490
20885.809627,-5921.647536,-7772.162391,-6741.640382
20885.809960,-2812.782580,-9400.615463,-2911.162892
20885.810293,-3330.926739,-8290.306550,-1455.581446
20885.810626,-814.226536,-8586.388927,995.924147
20885.810959,-74.020594,-10658.965565,4213.525239
20885.811293,2294.638420,-5403.503377,3677.258390
20885.811626,0.000000,-5995.668130,4136.915689
20885.811959,4071.132681,-10658.965565,4826.401637
20885.812292,1998.556043,-5995.668130,153.219100
20885.812625,4367.215058,-9474.636058,3600.648841
20885.812958,1332.370696,-10214.842000,-2068.457845
20885.813291,-1480.411884,-12435.459826,-3370.820191
20885.813624,-3849.070898,-11621.233289,-4366.744339
20885.813957,-4589.276840,-8068.244768,-4060.306139
20885.814290,-962.267725,-7328.038826,-4903.011187
20885.814624,0.000000,-7179.997637,1762.019645
20885.814957,4663.297435,-7994.224174,3600.648841
20885.815290,7031.956449,-5033.400406,3907.087040
20885.815623,4885.359217,-7698.141797,4213.525239
20885.815956,3627.009116,-9252.574275,2298.286494
20885.816289,3478.967927,-10066.800811,842.705048
20885.816622,1480.411884,-8956.491898,-1225.752797
20885.816955,2664.741391,-12213.398043,-1225.752797
20885.817288,4071.132681,-8734.430116,-2911.162892
20885.817621,2886.803174,-14211.954086,-76.609550
20885.817955,3182.885551,-9104.533087,-2987.772442
20885.818288,-2368.659014,-10732.986159,-3064.381992
20885.818621,-1184.329507,-10436.903782,-1225.752797
20885.818954,1036.288319,-8660.409521,2451.505594
20885.819287,4293.194464,-5921.647536,4749.792088
20885.819620,5625.565159,-4959.379811,6971.469032
20885.819953,4071.132681,-7698.141797,5745.716235
20885.820286,592.164754,-7179.997637,3677.258390
20885.820619,-2442.679609,-10658.965565,-1149.143247
20885.820952,-2442.679609,-10288.862594,-5209.449386
20885.821286,-8290.306550,-10732.986159,-4749.792088
20885.821619,-3034.844362,-10658.965565,-3753.867940
20885.821952,-666.185348,-8734.430116,-1455.581446
20885.822285,-370.102971,-8660.409521,689.485948
20885.822618,1406.391290,-8142.265362,1608.800546
20885.822951,-3108.864956,-11695.253884,2451.505594
20885.823284,0.000000,-9844.739029,4826.401637
20885.823617,-2442.679609,-5995.668130,612.876398
20885.823950,1924.535449,-7105.977043,4903.011187
20885.824283,4663.297435,-8290.306550,2068.457845
20885.824616,814.226536,-8882.471304,2987.772442
20885.824950,370.102971,-11695.253884,1149.143247
20885.825283,-3552.988522,-10584.944971,-1608.800546
20885.825616,-5403.503377,-11843.295072,-3830.477490
20885.825949,-5255.462188,-8734.430116,-4213.525239
20885.826282,-4737.318029,-9474.636058,-1915.238745
20885.826615,-1702.473667,-7920.203579,306.438199
20885.826948,4071.132681,-5477.523971,3600.648841
20885.827281,2812.782580,-8068.244768,4826.401637
20885.827614,2886.803174,-6883.915261,2068.457845
20885.827947,-296.082377,-11473.192101,1762.019645
20885.828281,-74.020594,-11843.295072,-1302.362347
20885.828614,0.000000,-8364.327145,919.314598
20885.828947,2220.617826,-10066.800811,-76.609550
20885.829280,2886.803174,-9474.636058,-995.924147
20885.829613,962.267725,-9696.697840,-766.095498
20885.829946,1110.308913,-11547.212695,229.828649
20885.830279,-148.041188,-10140.821405,0.000000
20885.830612,-1776.494261,-7772.162391,0.000000
20885.830945,592.164754,-8068.244768,3600.648841
20885.831278,4663.297435,-4367.215058,2451.505594
20885.831612,3552.988522,-3627.009116,3677.258390
20885.831945,2738.761985,-9844.739029,2987.772442
20885.832278,2886.803174,-8068.244768,0.000000
20885.832611,-1258.350101,-11843.295072,-2451.505594
20885.832944,-1406.391290,-10807.006753,-2451.505594
20885.833277,-2442.679609,-10066.800811,-3370.820191
20885.833610,-370.102971,-9474.636058,-2145.067394
20885.833943,3478.967927,-11843.295072,2374.896044
20885.834276,0.000000,-7179.997637,0.000000
20885.834609,2368.659014,-9770.718434,4290.134789
20885.834942,2886.803174,-9474.636058,1762.019645
20885.835276,592.164754,-9548.656652,4596.572988
20885.835609,1850.514855,-7031.956449,2451.505594
20885.835942,3330.926739,-8142.265362,3217.601092
20885.836275,4737.318029,-7772.162391,2757.943793
20885.836608,2590.720797,-9474.636058,1455.581446
20885.836941,1998.556043,-11695.253884,-1302.362347
20885.837274,-7105.977043,-10732.986159,-3677.258390
20885.837607,-5625.565159,-13619.789333,-4979.620737
20885.837940,-7920.203579,-9548.656652,-6511.811733
20885.838273,-4219.173869,-9474.636058,-689.485948
20885.838607,-2590.720797,-6291.750507,919.314598
20885.838940,-592.164754,-5551.544565,4060.306139
20885.839273,3034.844362,-6291.750507,6741.640382
20885.839606,0.000000,-5995.668130,5515.887586
20885.839939,-74.020594,-6883.915261,612.876398
20885.840272,592.164754,-8882.471304,2298.286494
20885.840605,1702.473667,-11843.295072,-1608.800546
20885.840938,1480.411884,-7179.997637,0.000000
20885.841271,1554.432478,-11843.295072,-76.609550
20885.841604,-1184.329507,-11325.150913,-3524.039291
20885.841938,-1850.514855,-13027.624579,-3294.210641
20885.842271,-3552.988522,-11473.192101,-3370.820191
20885.842604,-3552.988522,-9548.656652,-2145.067394
20885.842937,-370.102971,-5995.668130,612.876398
20885.843270,2812.782580,-4515.256246,4903.011187
20885.843603,4441.235652,-4811.338623,6511.811733
20885.843936,5773.606348,-5995.668130,4826.401637
20885.844269,4145.153275,-8364.327145,3140.991542
20885.844602,4071.132681,-10658.965565,-76.609550
20885.844935,0.000000,-10140.821405,-612.876398
20885.845269,-74.020594,-11251.130318,-5362.668486
20885.845602,3034.844362,-11621.233289,-3753.867940
20885.845935,1480.411884,-11325.150913,-1149.143247
20885.846268,2072.576638,-11251.130318,-2451.505594
20885.846601,962.267725,-13323.706956,-1072.533697
20885.846934,-2368.659014,-11103.089130,-1378.971896
20885.847267,592.164754,-10436.903782,3064.381992
20885.847600,1850.514855,-4219.173869,3677.258390
20885.847933,4737.318029,-3627.009116,9499.584175
20885.848266,8216.285956,-4737.318029,7277.907231
20885.848599,1554.432478,-3330.926739,1532.190996
20885.848933,888.247130,-10955.047942,1149.143247
20885.849266,-4145.153275,-10881.027347,-3830.477490
20885.849599,-7031.956449,-13101.645173,-7354.516781
20885.849932,-7402.059420,-10732.986159,-7124.688131
20885.850265,-3627.009116,-11843.295072,-4366.744339
20885.850598,-3256.906145,-7772.162391,0.000000
20885.850931,1776.494261,-8512.368333,2451.505594
20885.851264,4367.215058,-10658.965565,4826.401637
20885.851597,0.000000,-8364.327145,3983.696590
20885.851930,-1258.350101,-9474.636058,2221.676944
20885.852264,1036.288319,-7254.018232,3140.991542
20885.852597,1258.350101,-5847.626942,2757.943793
20885.852930,3404.947333,-6883.915261,2757.943793
20885.853263,-962.267725,-8586.388927,-995.924147
20885.853596,-5921.647536,-9844.739029,-919.314598
20885.853929,-3627.009116,-13027.624579,-2681.334243
20885.854262,-5995.668130,-11843.295072,-5592.497135
20885.854595,-7105.977043,-9548.656652,0.000000
20885.854928,-2442.679609,-9474.636058,-383.047749
20885.855261,4219.173869,-4663.297435,4443.353888
20885.855595,4367.215058,-7402.059420,6818.249932
20885.855928,4737.318029,-7994.224174,4826.401637
20885.856261,2368.659014,-9178.553681,2068.457845
20885.856594,-1554.432478,-11251.130318,-1225.752797
20885.856927,-740.205942,-8882.471304,-3600.648841
20885.857260,-3256.906145,-10436.903782,-3907.087040
20885.857593,2072.576638,-10066.800811,-766.095498
20885.857926,1406.391290,-10362.883188,-76.609550
20885.858259,0.000000,-8660.409521,0.000000
20885.858592,0.000000,-10732.986159,2145.067394
20885.858925,1702.473667,-11251.130318,536.266849
20885.859259,888.247130,-8364.327145,2451.505594
20885.859592,3182.885551,-6957.935855,3830.477490
20885.859925,6365.771101,-5847.626942,4749.792088
20885.860258,5107.421000,-8068.244768,4596.572988
20885.860591,2294.638420,-8142.265362,-76.609550
20885.860924,-1332.370696,-11547.212695,-2528.115143
20885.861257,-4737.318029,-12805.562797,-3524.039291
20885.861590,-3034.844362,-10658.965565,-6511.811733
20885.861923,-3330.926739,-10510.924376,-4443.353888
20885.862256,1110.308913,-9474.636058,-76.609550
20885.862590,814.226536,-9474.636058,1149.143247
20885.862923,3627.009116,-9178.553681,3600.648841
20885.863256,2960.823768,-7920.203579,4673.182538
20885.863589,1480.411884,-7179.997637,4903.011187
20885.863922,3478.967927,-9474.636058,2987.772442
20885.864255,592.164754,-9548.656652,5286.058936
20885.864588,4663.297435,-7105.977043,1149.143247
20885.864921,2960.823768,-7179.997637,459.657299
20885.865254,296.082377,-9548.656652,-919.314598
20885.865587,-1776.494261,-10807.006753,-3524.039291
20885.865920,-3775.050304,-12731.542202,-4060.306139
20885.866253,-4811.338623,-11029.068536,-4903.011187
20885.866586,-5329.482782,-10955.047942,-2451.505594
20885.866919,-1850.514855,-5995.668130,-2451.505594
20885.867252,1702.473667,-7920.203579,3064.381992
20885.867585,2812.782580,-8290.306550,7890.783629
20885.867918,740.205942,-5403.503377,6128.763984
20885.868251,2072.576638,-9474.636058,7277.907231
20885.868584,1998.556043,-9178.553681,2374.896044
20885.868917,0.000000,-4811.338623,0.000000
20885.869250,74.020594,-11103.089130,-1378.971896
20885.869583,222.061783,-8438.347739,-3830.477490
20885.869916,-1628.453072,-13101.645173,-995.924147
20885.870249,-962.267725,-10140.821405,-6741.640382
20885.870582,-3552.988522,-11917.315666,-4903.011187
20885.870915,-2368.659014,-14211.954086,-76.609550
20885.871248,2294.638420,-8882.471304,3294.210641
20885.871581,2072.576638,-6291.750507,5286.058936
20885.871914,3701.029710,-4367.215058,5209.449386
20885.872247,4515.256246,-4515.256246,5515.887586
20885.872580,4293.194464,-7476.080014,3907.087040
20885.872913,1184.329507,-9548.656652,2374.896044
20885.873246,-2664.741391,-11473.192101,-4290.134789
20885.873579,-2960.823768,-11325.150913,-6128.763984
20885.873912,-1628.453072,-12509.480420,-4060.306139
20885.874245,2738.761985,-9326.594869,-3140.991542
20885.874578,2516.700203,-10140.821405,-76.609550
20885.874911,5255.462188,-13471.748144,2374.896044
20885.875244,2738.761985,-8364.327145,1225.752797
20885.875577,2812.782580,-10362.883188,4519.963438
20885.875910,4367.215058,-9474.636058,1762.019645
20885.876243,962.267725,-7994.224174,1685.410096
20885.876576,1776.494261,-5995.668130,2451.505594
20885.876908,2442.679609,-7254.018232,3830.477490
20885.877241,0.000000,-7772.162391,306.438199
20885.877574,-2960.823768,-9548.656652,612.876398
20885.877907,-4219.173869,-8956.491898,-3677.258390
20885.878240,-4219.173869,-8364.327145,-6128.763984
20885.878573,-4737.318029,-9548.656652,-2145.067394
20885.878906,-74.020594,-7179.997637,-1838.629195
20885.879239,4219.173869,-8290.306550,3140.991542
20885.879572,3404.947333,-7179.997637,3677.258390
20885.879905,2886.803174,-9918.759623,1991.848295
20885.880238,1258.350101,-10436.903782,2757.943793
20885.880571,-148.041188,-13323.706956,2374.896044
20885.880904,-2146.597232,-8364.327145,0.000000
20885.881237,-370.102971,-9474.636058,-76.609550
20885.881570,962.267725,-9474.636058,-689.485948
20885.881903,-2960.823768,-8364.327145,612.876398
20885.882236,-592.164754,-9030.512492,153.219100
20885.882569,-2072.576638,-8586.388927,306.438199
20885.882902,-2664.741391,-9474.636058,459.657299
20885.883235,-370.102971,-6809.894666,-76.609550
20885.883568,2294.638420,-9474.636058,2374.896044
20885.883901,1480.411884,-5403.503377,2451.505594
20885.884234,2960.823768,-8808.450710,4060.306139
20885.884567,2294.638420,-11843.295072,-76.609550
20885.884900,-74.020594,-12583.501014,-689.485948
20885.885233,-4219.173869,-12879.583391,-4903.011187
20885.885566,-4219.173869,-10807.006753,-4826.401637
20885.885899,-3034.844362,-9918.759623,-3447.429741
20885.886232,0.000000,-7772.162391,0.000000
20885.886565,-74.020594,-5699.585753,0.000000
20885.886898,3108.864956,-7698.141797,6052.154434
20885.887231,2886.803174,-6809.894666,2068.457845
20885.887564,1184.329507,-8660.409521,4826.401637
20885.887897,3478.967927,-9474.636058,2374.896044
20885.888230,2664.741391,-8068.244768,2068.457845
20885.888563,5329.482782,-8364.327145,1532.190996
20885.888896,4293.194464,-9696.697840,766.095498
20885.889228,592.164754,-10732.986159,-2451.505594
20885.889561,-1924.535449,-11399.171507,-6128.763984
20885.889894,-3701.029710,-13175.665768,-5439.278036
20885.890227,-3404.947333,-10658.965565,-4673.182538
20885.890560,-1998.556043,-8364.327145,-1838.629195
20885.890893,0.000000,-4811.338623,1915.238745
20885.891226,5847.626942,-7105.977043,4826.401637
20885.891559,3552.988522,-3034.844362,7354.516781
20885.891892,5255.462188,-7994.224174,6052.154434
20885.892225,2368.659014,-9252.574275,3370.820191
20885.892558,0.000000,-8660.409521,0.000000
20885.892891,0.000000,-10584.944971,-2298.286494
20885.893224,666.185348,-10732.986159,-2145.067394
20885.893557,1332.370696,-10362.883188,-2451.505594
20885.893890,0.000000,-12065.356855,-2451.505594
20885.894223,-1850.514855,-10732.986159,-4290.134789
20885.894556,-4441.235652,-9844.739029,-3064.381992
20885.894889,-3701.029710,-11473.192101,-76.609550
20885.895222,-74.020594,-6661.853478,0.000000
20885.895555,1924.535449,-7105.977043,6052.154434
20885.895888,3108.864956,-5181.441594,6435.202183
20885.896221,2294.638420,-6513.812290,5745.716235
20885.896554,222.061783,-7105.977043,2374.896044
20885.896887,-962.267725,-10362.883188,1762.019645
20885.897220,-6217.729913,-9548.656652,-3064.381992
20885.897553,-3034.844362,-10658.965565,-1915.238745
20885.897886,-74.020594,-10658.965565,-3907.087040
20885.898219,-1776.494261,-7772.162391,0.000000
20885.898552,518.144159,-9474.636058,-1608.800546
20885.898885,-740.205942,-10955.047942,-995.924147
20885.899218,0.000000,-10658.965565,995.924147
20885.899551,-1184.329507,-9400.615463,919.314598
20885.899884,666.185348,-6513.812290,842.705048
20885.900217,0.000000,-5995.668130,4903.011187
20885.900550,6291.750507,-7994.224174,4826.401637
20885.900883,2368.659014,-4811.338623,2451.505594
20885.901215,0.000000,-8364.327145,612.876398
20885.901548,-370.102971,-10658.965565,-2528.115143
20885.901881,-6513.812290,-11991.336260,-4519.963438
20885.902214,-3182.885551,-9474.636058,-5286.058936
20885.902547,-814.226536,-10510.924376,-1762.019645
20885.902880,2738.761985,-8290.306550,-76.609550
20885.903213,4959.379811,-7328.038826,3907.087040
20885.903546,2072.576638,-8512.368333,2451.505594
20885.903879,3627.009116,-9178.553681,2374.896044
20885.904212,592.164754,-10732.986159,1532.190996
20885.904545,2886.803174,-11547.212695,-689.485948
20885.904878,0.000000,-7179.997637,0.000000
20885.905211,3849.070898,-11769.274478,2374.896044
20885.905544,2294.638420,-7179.997637,0.000000
20885.905877,0.000000,-8364.327145,0.000000
20885.906210,518.144159,-10955.047942,-1302.362347
20885.906543,-3775.050304,-11177.109724,-1762.019645
20885.906876,-4145.153275,-8956.491898,-3217.601092
20885.907209,-666.185348,-9474.636058,2068.457845
20885.907542,3701.029710,-8290.306550,4826.401637
20885.907875,2516.700203,-4811.338623,5515.887586
20885.908208,4515.256246,-8882.471304,5439.278036
20885.908541,1702.473667,-9474.636058,76.609550
20885.908874,-1850.514855,-11843.295072,-842.705048
20885.909207,-4663.297435,-11325.150913,-4903.011187
20885.909540,-2960.823768,-9474.636058,-2528.115143
20885.909873,-962.267725,-8882.471304,-1455.581446
20885.910206,592.164754,-6587.832884,0.000000
20885.910539,1702.473667,-10510.924376,1149.143247
20885.910872,0.000000,-10140.821405,4136.915689
20885.911205,1998.556043,-8586.388927,2374.896044
20885.911538,-1480.411884,-7179.997637,383.047749
20885.911871,1776.494261,-6217.729913,3447.429741
20885.912204,2960.823768,-6587.832884,4290.134789
20885.912537,4811.338623,-6439.791695,3753.867940
20885.912870,4219.173869,-8290.306550,1915.238745
20885.913202,296.082377,-12583.501014,0.000000
20885.913535,-3034.844362,-11769.274478,-7048.078582
20885.913868,-5995.668130,-14211.954086,-4979.620737
20885.914201,-3627.009116,-9474.636058,-7354.516781
20885.914534,-3552.988522,-8660.409521,-1378.971896
20885.914867,1036.288319,-8512.368333,2911.162892
20885.915200,2516.700203,-6513.812290,5592.497135
20885.915533,3552.988522,-7179.997637,6128.763984
20885.915866,1924.535449,-6587.832884,4903.011187
20885.916199,814.226536,-9474.636058,2374.896044
20885.916532,296.082377,-5403.503377,1838.629195
20885.916865,4663.297435,-9474.636058,-76.609550
20885.917198,4293.194464,-7179.997637,-3064.381992
20885.917531,1184.329507,-12361.439231,-689.485948
20885.917864,-1628.453072,-13471.748144,-5209.449386
20885.918197,-3552.988522,-13249.686362,-4903.011187
20885.918530,-4737.318029,-12657.521608,-4749.792088
20885.918863,-3108.864956,-9326.594869,-3370.820191
20885.919196,666.185348,-8882.471304,2374.896044
20885.919529,2664.741391,-5403.503377,7354.516781
20885.919862,4441.235652,-4515.256246,8120.612279
20885.920195,3775.050304,-5995.668130,6511.811733
20885.920528,3478.967927,-6291.750507,4443.353888
20885.920861,-74.020594,-9474.636058,-76.609550
20885.921194,-4145.153275,-7920.203579,-4749.792088
20885.921527,-1850.514855,-14211.954086,-4979.620737
20885.921860,-1258.350101,-10732.986159,-4903.011187
20885.922193,1184.329507,-9992.780217,-919.314598
20885.922526,-592.164754,-13323.706956,-689.485948
20885.922859,-592.164754,-11843.295072,-1378.971896
20885.923192,-666.185348,-11843.295072,2374.896044
20885.923525,1184.329507,-6957.935855,3370.820191
20885.923858,3478.967927,-4737.318029,4519.963438
20885.924191,2368.659014,-5403.503377,7354.516781
20885.924524,5847.626942,-5625.565159,5669.106685
20885.924857,1702.473667,-4367.215058,612.876398
20885.925190,0.000000,-10214.842000,842.705048
20885.925522,-4219.173869,-10658.965565,-5592.497135
20885.925855,-6217.729913,-11473.192101,-6281.983084
20885.926188,-5033.400406,-9992.780217,-4443.353888
20885.926521,-1110.308913,-10214.842000,-2068.457845
20885.926854,148.041188,-6587.832884,0.000000
20885.927187,0.000000,-7772.162391,4290.134789
20885.927520,3182.885551,-9474.636058,2221.676944
20885.927853,0.000000,-5995.668130,153.219100
20885.928186,0.000000,-9844.739029,3140.991542
20885.928519,1110.308913,-6587.832884,1225.752797
20885.928852,1332.370696,-7772.162391,1762.019645
20885.929185,3182.885551,-7254.018232,1991.848295
20885.929518,1406.391290,-9474.636058,995.924147
20885.929851,-74.020594,-10214.842000,-689.485948
20885.930184,-2960.823768,-11621.233289,-76.609550
20885.930517,-3923.091493,-11547.212695,-5898.935335
20885.930850,-4737.318029,-9548.656652,-3370.820191
20885.931183,3404.947333,-10658.965565,4213.525239
20885.931516,3552.988522,-6587.832884,6741.640382
20885.931849,4737.318029,-4811.338623,4826.401637
20885.932182,2664.741391,-9622.677246,3140.991542
20885.932515,740.205942,-9918.759623,995.924147
20885.932848,-666.185348,-10510.924376,-1072.533697
20885.933181,-370.102971,-11843.295072,-2681.334243
20885.933514,-2960.823768,-7179.997637,-4903.011187
20885.933847,-1776.494261,-10436.903782,-76.609550
20885.934180,2294.638420,-7550.100608,-76.609550
20885.934513,1184.329507,-7772.162391,1991.848295
20885.934846,-370.102971,-9696.697840,-76.609550
20885.935179,-1702.473667,-9548.656652,0.000000
20885.935512,-1110.308913,-9178.553681,1149.143247
20885.935845,2886.803174,-7698.141797,2681.334243
20885.936178,5551.544565,-8290.306550,4826.401637
20885.936511,5625.565159,-7031.956449,4903.011187
20885.936844,592.164754,-9548.656652,2374.896044
20885.937177,-1184.329507,-9548.656652,-2221.676944
20885.937509,-4219.173869,-12731.542202,-4979.620737
20885.937842,-4145.153275,-11325.150913,-1455.581446
20885.938175,-1258.350101,-9178.553681,-2068.457845
20885.938508,-1776.494261,-5403.503377,-2451.505594
20885.938841,296.082377,-8364.327145,2451.505594
20885.939174,1850.514855,-7179.997637,1838.629195
20885.939507,3627.009116,-8734.430116,4060.306139
20885.939840,1184.329507,-8438.347739,2451.505594
20885.940173,296.082377,-10732.986159,1225.752797
20885.940506,592.164754,-6587.832884,842.705048
20885.940839,5847.626942,-9474.636058,2374.896044
20885.941172,4071.132681,-6291.750507,0.000000
20885.941505,1184.329507,-11843.295072,-76.609550
20885.941838,-370.102971,-12731.542202,-3907.087040
20885.942171,-5625.565159,-11029.068536,-4596.572988
20885.942504,-4811.338623,-10807.006753,-4903.011187
20885.942837,-3849.070898,-9770.718434,-2681.334243
20885.943170,148.041188,-7698.141797,1455.581446
20885.943503,2368.659014,-7328.038826,6128.763984
20885.943836,4663.297435,-4737.318029,3753.867940
20885.944169,2368.659014,-7476.080014,4903.011187
20885.944502,4071.132681,-9474.636058,2374.896044
20885.944835,-370.102971,-7624.121203,-1685.410096
20885.945168,1628.453072,-11251.130318,-76.609550
20885.945501,444.123565,-10658.965565,-1378.971896
20885.945834,962.267725,-10658.965565,-2068.457845
20885.946167,-370.102971,-10658.965565,-2451.505594
20885.946500,-74.020594,-12731.542202,-2834.553343
20885.946833,-4219.173869,-9548.656652,-4290.134789
20885.947166,-2664.741391,-11251.130318,-76.609550
20885.947499,814.226536,-7105.977043,2374.896044
20885.947832,0.000000,-3034.844362,3677.258390
20885.948165,5477.523971,-7698.141797,7277.907231
20885.948498,3701.029710,-5403.503377,5286.058936
20885.948831,2738.761985,-7994.224174,1762.019645
20885.949164,444.123565,-10362.883188,-76.609550
20885.949496,-2442.679609,-12139.377449,-2528.115143
20885.949829,-4293.194464,-10732.986159,-4903.011187
20885.950162,-2146.597232,-11843.295072,-3064.381992
20885.950495,814.226536,-9326.594869,-1072.533697
20885.950828,0.000000,-7179.997637,0.000000
20885.951161,1480.411884,-10955.047942,1762.019645
20885.951494,1702.473667,-8364.327145,612.876398
20885.951827,0.000000,-7179.997637,2451.505594
20885.952160,3108.864956,-10955.047942,4213.525239
20885.952493,2220.617826,-6513.812290,2987.772442
20885.952826,2812.782580,-9030.512492,3600.648841
20885.953159,3256.906145,-7402.059420,2757.943793
20885.953492,-74.020594,-9474.636058,-1072.533697
20885.953825,-1184.329507,-11843.295072,-1225.752797
20885.954158,-3923.091493,-12879.583391,-1302.362347
20885.954491,-5995.668130,-8956.491898,-6128.763984
20885.954824,-2960.823768,-9548.656652,0.000000
20885.955157,3923.091493,-9474.636058,2987.772442
20885.955490,3552.988522,-5403.503377,4903.011187
20885.955823,3330.926739,-7105.977043,4060.306139
20885.956156,1110.308913,-9844.739029,1532.190996
20885.956489,962.267725,-9178.553681,689.485948
20885.956822,-74.020594,-11547.212695,-76.609550
20885.957155,0.000000,-9252.574275,-76.609550
20885.957488,-2146.597232,-9548.656652,-3677.258390
20885.957821,-296.082377,-11251.130318,-76.609550
20885.958154,518.144159,-9474.636058,-76.609550
20885.958487,-74.020594,-10362.883188,1149.143247
20885.958820,-962.267725,-8734.430116,-766.095498
20885.959153,-1850.514855,-9844.739029,-459.657299
20885.959486,222.061783,-7550.100608,1838.629195
20885.959819,1184.329507,-7179.997637,3064.381992
20885.960152,8216.285956,-7698.141797,4213.525239
20885.960485,4737.318029,-8364.327145,2451.505594
20885.960818,3923.091493,-11843.295072,1762.019645
20885.961151,-1998.556043,-10436.903782,-3064.381992
20885.961484,-4737.318029,-10436.903782,-4749.792088
20885.961816,-3701.029710,-11843.295072,-3753.867940
20885.962149,-2960.823768,-9992.780217,-1838.629195
20885.962482,666.185348,-7476.080014,0.000000
20885.962815,0.000000,-8882.471304,3064.381992
20885.963148,2886.803174,-4811.338623,612.876398
20885.963481,2368.659014,-7698.141797,5745.716235
20885.963814,2294.638420,-9474.636058,3600.648841
20885.964147,0.000000,-7476.080014,3983.696590
20885.964480,3552.988522,-8734.430116,3600.648841
20885.964813,3849.070898,-9178.553681,2987.772442
20885.965146,3256.906145,-8512.368333,153.219100
20885.965479,-1702.473667,-11843.295072,-3907.087040
20885.965816,-4441.235652,-12879.583391,-3983.696590
20885.966149,-6143.709319,-11399.171507,-6358.592633
20885.966482,-5107.421000,-10066.800811,-4290.134789
20885.966815,-3478.967927,-9770.718434,-76.609550
20885.967148,1110.308913,-5847.626942,2911.162892
20885.967481,4737.318029,-5995.668130,7967.393179
20885.967814,2368.659014,-4811.338623,8580.269578
20885.968147,4663.297435,-8142.265362,3447.429741
20885.968481,0.000000,-9548.656652,2451.505594
20885.968814,-74.020594,-11843.295072,-1302.362347
20885.969147,666.185348,-12435.459826,-1302.362347
20885.969480,-2368.659014,-10732.986159,-1225.752797
20885.969813,-370.102971,-9770.718434,-3830.477490
20885.970146,-1184.329507,-11547.212695,-3140.991542
20885.970479,-1406.391290,-11251.130318,-3600.648841
20885.970812,-4441.235652,-8660.409521,-1838.629195
20885.971145,-370.102971,-9474.636058,1149.143247
20885.971478,2886.803174,-7105.977043,1762.019645
20885.971811,2516.700203,-5107.421000,5669.106685
20885.972144,6439.791695,-7105.977043,5439.278036
20885.972478,4219.173869,-7031.956449,5132.839837
20885.972811,1850.514855,-8364.327145,1991.848295
20885.973144,-592.164754,-9770.718434,-1378.971896
20885.973477,-3552.988522,-11917.315666,-4903.011187
20885.973810,-5921.647536,-10140.821405,-2451.505594
20885.974143,1110.308913,-10362.883188,-2911.162892
20885.974476,1406.391290,-7994.224174,-1302.362347
20885.974809,0.000000,-7772.162391,1838.629195
20885.975142,962.267725,-7328.038826,-1225.752797
20885.975475,1110.308913,-9474.636058,229.828649
20885.975808,-888.247130,-10140.821405,1532.190996
20885.976141,962.267725,-7994.224174,1991.848295
20885.976475,4663.297435,-8290.306550,5439.278036
20885.976808,2960.823768,-8734.430116,6665.030833
20885.977141,4663.297435,-7105.977043,1455.581446
20885.977474,-2368.659014,-10140.821405,612.876398
20885.977807,-2960.823768,-9548.656652,-2911.162892
20885.978140,-5329.482782,-11029.068536,-3983.696590
20885.978473,-4737.318029,-10881.027347,-4290.134789
20885.978806,-518.144159,-9474.636058,459.657299
20885.979139,1776.494261,-7328.038826,2298.286494
20885.979472,4663.297435,-6513.812290,4213.525239
20885.979805,3478.967927,-7698.141797,2068.457845
20885.980139,296.082377,-7179.997637,-1838.629195
20885.980472,0.000000,-11843.295072,1762.019645
20885.980805,-1406.391290,-10436.903782,-1838.629195
20885.981138,0.000000,-8956.491898,2221.676944
20885.981471,-370.102971,-11177.109724,995.924147
20885.981804,518.144159,-8882.471304,-383.047749
20885.982137,-222.061783,-9696.697840,1685.410096
20885.982470,-1776.494261,-7105.977043,-1532.190996
20885.982803,-2738.761985,-10066.800811,-1685.410096
20885.983136,-4071.132681,-9326.594869,-1149.143247
20885.983469,296.082377,-7031.956449,2451.505594
20885.983802,2812.782580,-7105.977043,4903.011187
20885.984136,4663.297435,-7105.977043,2374.896044
20885.984469,3330.926739,-10955.047942,3600.648841
20885.984802,-1184.329507,-7179.997637,-2451.505594
20885.985135,-296.082377,-13027.624579,-1532.190996
20885.985468,-3552.988522,-11029.068536,-4596.572988
20885.985801,-1924.535449,-10288.862594,-2911.162892
20885.986134,-1184.329507,-9770.718434,-306.438199
20885.986467,1554.432478,-8808.450710,1225.752797
20885.986800,222.061783,-7698.141797,689.485948
20885.987133,0.000000,-5403.503377,612.876398
20885.987466,1998.556043,-8882.471304,2374.896044
20885.987799,1998.556043,-8290.306550,2374.896044
20885.988133,1480.411884,-7179.997637,3830.477490
20885.988466,8808.450710,-9474.636058,6052.154434
20885.988799,3849.070898,-7476.080014,3753.867940
20885.989132,1850.514855,-10288.862594,-766.095498
20885.989465,-1702.473667,-11103.089130,-4826.401637
20885.989798,-3849.070898,-13249.686362,-6665.030833
20885.990131,-3552.988522,-12509.480420,-4903.011187
20885.990464,-666.185348,-11251.130318,-4060.306139
20885.990797,-1184.329507,-9548.656652,0.000000
20885.991130,2220.617826,-9474.636058,4213.525239
20885.991463,222.061783,-3330.926739,1838.629195
20885.991796,4441.235652,-6809.894666,6665.030833
20885.992130,2368.659014,-7772.162391,6588.421283
20885.992463,592.164754,-6291.750507,3140.991542
20885.992796,2146.597232,-7105.977043,1225.752797
20885.993129,4071.132681,-11251.130318,2374.896044
20885.993462,3478.967927,-8734.430116,-3064.381992
20885.993795,-1776.494261,-11325.150913,-3753.867940
20885.994128,-4737.318029,-13989.892304,-5286.058936
20885.994461,-5403.503377,-11843.295072,-8656.879127
20885.994794,-6513.812290,-12731.542202,-4213.525239
20885.995127,-3923.091493,-9252.574275,-1532.190996
20885.995460,0.000000,-7179.997637,5209.449386
20885.995793,4737.318029,-3701.029710,9193.145976
20885.996127,7624.121203,-4663.297435,10955.165621
20885.996460,4885.359217,-7476.080014,7737.564530
20885.996793,3478.967927,-6661.853478,2757.943793
20885.997126,-296.082377,-10362.883188,-229.828649
20885.997459,-1776.494261,-11325.150913,-2298.286494
20885.997792,-1776.494261,-14211.954086,-3753.867940
20885.998125,-666.185348,-11991.336260,-5132.839837
20885.998458,-1258.350101,-9548.656652,-6128.763984
20885.998791,-2368.659014,-11399.171507,-2068.457845
20885.999124,-1184.329507,-10732.986159,0.000000
20885.999457,-148.041188,-8882.471304,1608.800546
20885.999790,1998.556043,-6069.688724,4290.134789
20886.000124,2072.576638,-5403.503377,4903.011187
20886.000457,4663.297435,-6513.812290,4826.401637
20886.000790,3552.988522,-5403.503377,3600.648841
20886.001123,1184.329507,-7476.080014,3064.381992
20886.001456,1110.308913,-9178.553681,-3140.991542
20886.001789,-3182.885551,-11695.253884,-6205.373534
20886.002122,-4811.338623,-12287.418637,-5439.278036
20886.002455,-2294.638420,-10732.986159,-3600.648841
20886.002788,962.267725,-11103.089130,-459.657299
20886.003121,3404.947333,-9622.677246,2834.553343
20886.003454,1776.494261,-7772.162391,3370.820191
20886.003787,2294.638420,-8882.471304,1455.581446
20886.004121,592.164754,-9252.574275,4826.401637
20886.004454,1110.308913,-7402.059420,0.000000
20886.004787,2368.659014,-7179.997637,1225.752797
20886.005120,2960.823768,-7179.997637,1685.410096
20886.005453,592.164754,-9844.739029,612.876398
20886.005786,370.102971,-9622.677246,-2298.286494
20886.006119,-2220.617826,-12509.480420,-1378.971896
20886.006452,-1258.350101,-11843.295072,-76.609550
20886.006785,-4811.338623,-8364.327145,-4290.134789
20886.007118,-814.226536,-9474.636058,-76.609550
20886.007451,3478.967927,-8290.306550,2681.334243
20886.007784,2664.741391,-7179.997637,7201.297681
20886.008118,7031.956449,-7105.977043,6052.154434
20886.008451,1184.329507,-6883.915261,1838.629195
20886.008784,-148.041188,-9326.594869,-766.095498
20886.009117,-1702.473667,-10066.800811,-2528.115143
20886.009450,-2664.741391,-10288.862594,-5362.668486
20886.009783,-1184.329507,-11917.315666,-1302.362347
20886.010116,-1850.514855,-9548.656652,-3677.258390
20886.010449,1480.411884,-9696.697840,612.876398
20886.010782,2294.638420,-11843.295072,2374.896044
20886.011115,1702.473667,-9178.553681,842.705048
20886.011448,222.061783,-10362.883188,3600.648841
20886.011781,0.000000,-6291.750507,3217.601092
20886.012115,4071.132681,-6809.894666,4826.401637
20886.012448,4293.194464,-8882.471304,6588.421283
20886.012781,3552.988522,-7402.059420,4060.306139
20886.013114,-1110.308913,-8808.450710,-1838.629195
20886.013447,-2960.823768,-11473.192101,-5669.106685
20886.013780,-5551.544565,-12953.603985,-6818.249932
20886.014113,-7179.997637,-10288.862594,-6741.640382
20886.014446,-2960.823768,-9844.739029,-1762.019645
20886.014779,-74.020594,-11251.130318,3294.210641
20886.015112,2294.638420,-4811.338623,1915.238745
20886.015445,2368.659014,-6883.915261,6511.811733
20886.015779,3478.967927,-5625.565159,2681.334243
20886.016112,666.185348,-7624.121203,1991.848295
20886.016445,222.061783,-10362.883188,2068.457845
20886.016778,3034.844362,-8438.347739,2528.115143
20886.017111,1776.494261,-8660.409521,1838.629195
20886.017444,2960.823768,-10436.903782,2298.286494
20886.017777,-666.185348,-11103.089130,-4519.963438
20886.018110,-3627.009116,-11325.150913,-7967.393179
20886.018443,-4145.153275,-10732.986159,-4519.963438
20886.018776,-4219.173869,-9844.739029,-4443.353888
20886.019109,222.061783,-9326.594869,306.438199
20886.019442,3627.009116,-7846.182985,5822.325785
20886.019776,4959.379811,-4737.318029,6971.469032
20886.020109,6587.832884,-5477.523971,7584.345430
20886.020442,3775.050304,-11103.089130,6052.154434
20886.020775,1702.473667,-7105.977043,0.000000
20886.021108,-4737.318029,-11325.150913,-2451.505594
20886.021441,0.000000,-9844.739029,-1455.581446
20886.021774,0.000000,-11325.150913,1149.143247
20886.022107,3108.864956,-7476.080014,0.000000
20886.022440,2294.638420,-10288.862594,229.828649
20886.022773,-2368.659014,-10214.842000,-3983.696590
20886.023106,-1258.350101,-10658.965565,-3907.087040
20886.023439,-1554.432478,-11547.212695,-995.924147
20886.023773,1480.411884,-4811.338623,1225.752797
20886.024106,1258.350101,-9474.636058,4826.401637
20886.024439,4071.132681,-8290.306550,3600.648841
20886.024772,2886.803174,-7105.977043,5439.278036
20886.025105,888.247130,-7624.121203,2757.943793
20886.025438,370.102971,-8586.388927,-383.047749
20886.025771,-4515.256246,-11177.109724,-3140.991542
20886.026104,-3256.906145,-9844.739029,-3983.696590
20886.026437,-1258.350101,-9548.656652,-3064.381992
20886.026770,2368.659014,-10140.821405,1225.752797
20886.027103,1406.391290,-11695.253884,-76.609550
20886.027436,-666.185348,-10288.862594,-2145.067394
20886.027770,-370.102971,-11251.130318,1149.143247
20886.028103,-370.102971,-9474.636058,1225.752797
20886.028436,3182.885551,-6809.894666,3983.696590
20886.028769,2368.659014,-8142.265362,5592.497135
20886.029102,3849.070898,-5995.668130,4979.620737
20886.029435,518.144159,-7031.956449,995.924147
20886.029768,-2368.659014,-10140.821405,-2987.772442
20886.030101,-5625.565159,-9252.574275,-5592.497135
20886.030434,-7179.997637,-10214.842000,-7660.954980
20886.030767,-6513.812290,-8364.327145,-5286.058936
20886.031100,-74.020594,-10658.965565,-76.609550
20886.031433,2886.803174,-6587.832884,4903.011187
20886.031767,6735.874072,-8290.306550,6741.640382
20886.032100,7031.956449,-7994.224174,5745.716235
20886.032433,2368.659014,-9844.739029,3217.601092
20886.032766,2294.638420,-9844.739029,842.705048
20886.033099,1184.329507,-10732.986159,612.876398
20886.033432,2294.638420,-10362.883188,-1302.362347
20886.033765,2294.638420,-11843.295072,-76.609550
20886.034098,-2294.638420,-8956.491898,-2451.505594
20886.034431,-4145.153275,-8364.327145,0.000000
20886.034764,-1258.350101,-9474.636058,-2221.676944
20886.035097,-4515.256246,-6439.791695,-3524.039291
20886.035430,-814.226536,-8290.306550,2068.457845
20886.035764,2886.803174,-6809.894666,4519.963438
20886.036097,5847.626942,-6143.709319,6281.983084
20886.036430,6957.935855,-8808.450710,6511.811733
20886.036763,3775.050304,-7698.141797,1608.800546
20886.037096,-2368.659014,-10140.821405,-919.314598
20886.037429,-666.185348,-14211.954086,-2528.115143
20886.037762,-4219.173869,-11843.295072,-7737.564530
20886.038095,-3552.988522,-11621.233289,-1838.629195
20886.038428,-2368.659014,-9548.656652,766.095498
20886.038761,-1332.370696,-8956.491898,0.000000
20886.039094,1258.350101,-7846.182985,2757.943793
20886.039427,2516.700203,-6735.874072,4903.011187
20886.039761,3552.988522,-6439.791695,5209.449386
20886.040094,4071.132681,-9474.636058,4826.401637
20886.040427,1998.556043,-8734.430116,1225.752797
20886.040760,2960.823768,-9548.656652,2451.505594
20886.041093,4367.215058,-13027.624579,4213.525239
20886.041426,0.000000,-9844.739029,-919.314598
20886.041759,-3330.926739,-10362.883188,-5286.058936
20886.042092,-4811.338623,-11547.212695,-6205.373534
20886.042425,-5255.462188,-11103.089130,-3983.696590
20886.042758,-3256.906145,-9548.656652,-2451.505594
20886.043091,-1258.350101,-8438.347739,766.095498
20886.043424,1628.453072,-7105.977043,3983.696590
20886.043758,4071.132681,-5181.441594,5822.325785
20886.044091,3478.967927,-6809.894666,4213.525239
20886.044424,1998.556043,-4811.338623,612.876398
20886.044757,296.082377,-10066.800811,2068.457845
20886.045090,-74.020594,-10658.965565,-1608.800546
20886.045423,1850.514855,-9548.656652,-1225.752797
20886.045756,1998.556043,-11547.212695,-383.047749
20886.046089,0.000000,-11473.192101,-2145.067394
20886.046422,-1480.411884,-11177.109724,-2757.943793
20886.046755,-1702.473667,-10658.965565,-2834.553343
20886.047088,-4145.153275,-9548.656652,0.000000
20886.047421,-74.020594,-7179.997637,0.000000
20886.047755,2960.823768,-7772.162391,6665.030833
20886.048088,4663.297435,-5033.400406,5745.716235
20886.048421,3478.967927,-5477.523971,3677.258390
20886.048754,2368.659014,-5995.668130,2451.505594
20886.049087,0.000000,-8438.347739,-76.609550
20886.049420,-1924.535449,-10288.862594,-4596.572988
20886.049753,-4515.256246,-11769.274478,-5592.497135
20886.050086,-74.020594,-12435.459826,-1915.238745
20886.050419,518.144159,-10140.821405,-1838.629195
20886.050752,4367.215058,-11251.130318,2374.896044
20886.051085,-74.020594,-9474.636058,-1762.019645
20886.051419,0.000000,-9548.656652,0.000000
20886.051752,2442.679609,-9400.615463,3753.867940
20886.052085,1924.535449,-7105.977043,2451.505594
20886.052418,3627.009116,-7328.038826,4443.353888
20886.052751,4737.318029,-7031.956449,4290.134789
20886.053084,3182.885551,-8882.471304,2681.334243
20886.053417,0.000000,-7772.162391,1225.752797
20886.053750,-3034.844362,-9696.697840,-5515.887586
20886.054083,-5551.544565,-10140.821405,-7354.516781
20886.054416,-4737.318029,-12065.356855,-3753.867940
20886.054749,-3627.009116,-11843.295072,-2528.115143
20886.055082,2146.597232,-9474.636058,2374.896044
20886.055416,2368.659014,-7476.080014,6511.811733
20886.055749,4515.256246,-4885.359217,5439.278036
20886.056082,2886.803174,-6809.894666,3677.258390
20886.056415,2294.638420,-11251.130318,2374.896044
20886.056748,296.082377,-7179.997637,0.000000
20886.057081,1110.308913,-10658.965565,3294.210641
20886.057414,3478.967927,-8882.471304,-1915.238745
20886.057747,-370.102971,-9918.759623,-995.924147
20886.058080,-74.020594,-10955.047942,-1608.800546
20886.058413,-1480.411884,-10140.821405,-1072.533697
20886.058746,-4145.153275,-10066.800811,-2757.943793
20886.059079,-4515.256246,-9178.553681,-3753.867940
20886.059413,-2368.659014,-9474.636058,1149.143247
20886.059746,3256.906145,-6291.750507,4826.401637
20886.060079,5921.647536,-5181.441594,8044.002729
20886.060412,4959.379811,-6217.729913,5132.839837
20886.060745,1776.494261,-5403.503377,612.876398
20886.061078,-74.020594,-10955.047942,-1608.800546
20886.061411,-1332.370696,-9918.759623,-6511.811733
20886.061744,-4145.153275,-13101.645173,-2528.115143
20886.062077,-2442.679609,-12435.459826,-4060.306139
20886.062410,-666.185348,-11695.253884,-3524.039291
20886.062743,-1554.432478,-9400.615463,0.000000
20886.063076,888.247130,-7179.997637,1762.019645
20886.063410,1924.535449,-7254.018232,4136.915689
20886.063743,1184.329507,-6735.874072,4903.011187
20886.064076,2072.576638,-8586.388927,4826.401637
20886.064409,1480.411884,-7179.997637,3677.258390
20886.064742,2368.659014,-7772.162391,5669.106685
20886.065075,4071.132681,-9474.636058,995.924147
20886.065408,0.000000,-8364.327145,-2451.505594
20886.065741,-2442.679609,-10140.821405,-6665.030833
20886.066074,-4589.276840,-12805.562797,-6128.763984
20886.066407,-4145.153275,-10807.006753,-4060.306139
20886.066740,-1850.514855,-11547.212695,-1302.362347
20886.067073,1998.556043,-13027.624579,-76.609550
20886.067406,296.082377,-7179.997637,3677.258390
20886.067739,5181.441594,-6809.894666,8503.660028
20886.068072,5847.626942,-6217.729913,4673.182538
20886.068405,3849.070898,-8364.327145,5439.278036
20886.068738,1184.329507,-7772.162391,3064.381992
20886.069071,3182.885551,-10362.883188,995.924147
20886.069404,3627.009116,-9696.697840,0.000000
20886.069737,0.000000,-10140.821405,-2068.457845
20886.070070,-74.020594,-11843.295072,-3600.648841
20886.070403,-3849.070898,-9548.656652,-4290.134789
20886.070736,-4737.318029,-11843.295072,-2681.334243
20886.071069,-3034.844362,-11251.130318,-2528.115143
20886.071402,-2442.679609,-7994.224174,1762.019645
20886.071735,1406.391290,-7328.038826,5898.935335
20886.072068,2812.782580,-5255.462188,6205.373534
20886.072401,2146.597232,-5921.647536,5132.839837
20886.072734,2960.823768,-5403.503377,4903.011187
20886.073067,0.000000,-7476.080014,306.438199
20886.073400,-74.020594,-10955.047942,-76.609550
20886.073733,-2442.679609,-11843.295072,-6205.373534
20886.074066,-2812.782580,-11325.150913,-5515.887586
20886.074399,0.000000,-11843.295072,-383.047749
20886.074732,0.000000,-11177.109724,-536.266849
20886.075065,-1850.514855,-10214.842000,-1991.848295
20886.075398,-3627.009116,-11251.130318,-1149.143247
20886.075731,0.000000,-7624.121203,1225.752797
20886.076064,1332.370696,-7476.080014,5286.058936
20886.076397,3849.070898,-6143.709319,6435.202183
20886.076730,3478.967927,-7624.121203,5745.716235
20886.077063,1258.350101,-7476.080014,3600.648841
20886.077396,1776.494261,-7179.997637,0.000000
20886.077729,-3182.885551,-7920.203579,-5286.058936
20886.078062,-4737.318029,-13101.645173,-4979.620737
20886.078395,-6587.832884,-11325.150913,-7967.393179
20886.078728,-1406.391290,-12435.459826,-2528.115143
20886.079061,2368.659014,-9548.656652,3294.210641
20886.079394,3775.050304,-7772.162391,4443.353888
20886.079727,3997.112087,-6957.935855,3830.477490
20886.080060,2072.576638,-8882.471304,2987.772442
20886.080393,3478.967927,-10658.965565,3600.648841
20886.080727,0.000000,-7179.997637,1532.190996
20886.081060,1184.329507,-8364.327145,4673.182538
20886.081393,4663.297435,-9474.636058,1455.581446
20886.081726,0.000000,-6587.832884,0.000000
20886.082059,2294.638420,-9474.636058,-1302.362347
20886.082392,-1258.350101,-10214.842000,-2451.505594
20886.082725,-2516.700203,-9844.739029,-3907.087040
20886.083058,-3923.091493,-10732.986159,-3677.258390
20886.083391,-74.020594,-9474.636058,536.266849
20886.083724,1184.329507,-7179.997637,6128.763984
20886.084057,5699.585753,-7402.059420,7277.907231
20886.084390,4663.297435,-5921.647536,1378.971896
20886.084723,2368.659014,-9844.739029,3064.381992
20886.085056,-74.020594,-9844.739029,-1685.410096
20886.085389,-1406.391290,-11103.089130,-2221.676944
20886.085722,-2664.741391,-10732.986159,-3140.991542
20886.086055,-518.144159,-11769.274478,-919.314598
20886.086388,0.000000,-7772.162391,0.000000
20886.086721,0.000000,-8364.327145,3294.210641
20886.087054,814.226536,-8734.430116,-689.485948
20886.087387,-2368.659014,-7179.997637,-2451.505594
20886.087720,-2368.659014,-9844.739029,2757.943793
20886.088053,-666.185348,-7179.997637,0.000000
20886.088386,1184.329507,-9844.739029,3447.429741
20886.088719,4219.173869,-7402.059420,5362.668486
20886.089052,2368.659014,-7105.977043,2911.162892
20886.089385,-888.247130,-7772.162391,-2068.457845
20886.089718,-2812.782580,-10658.965565,-4366.744339
20886.090051,-4737.318029,-12361.439231,-4903.011187
20886.090384,-3552.988522,-10140.821405,-3064.381992
20886.090717,-74.020594,-12139.377449,-76.609550
20886.091050,-74.020594,-8882.471304,-76.609550
20886.091383,666.185348,-6883.915261,3064.381992
20886.091716,4885.359217,-6883.915261,7277.907231
20886.092049,4367.215058,-6809.894666,4060.306139
20886.092382,2664.741391,-8068.244768,3064.381992
20886.092715,2516.700203,-8364.327145,1225.752797
20886.093048,4071.132681,-11251.130318,2681.334243
20886.093381,5181.441594,-9326.594869,2374.896044
20886.093714,222.061783,-8956.491898,-2911.162892
20886.094047,592.164754,-9622.677246,-6205.373534
20886.094380,-3552.988522,-13101.645173,-2528.115143
20886.094713,-2146.597232,-10658.965565,-5132.839837
20886.095046,-3627.009116,-8660.409521,-4290.134789
20886.095379,1110.308913,-7994.224174,1762.019645
20886.095712,3034.844362,-6957.935855,5822.325785
20886.096045,6439.791695,-3849.070898,8120.612279
20886.096378,5625.565159,-6513.812290,5209.449386
20886.096711,2368.659014,-7476.080014,3983.696590
20886.097044,1998.556043,-10362.883188,-2757.943793
20886.097377,3478.967927,-15988.448347,-76.609550
20886.097710,-1258.350101,-11473.192101,-4749.792088
20886.098043,888.247130,-12583.501014,-2451.505594
20886.098376,-1184.329507,-10140.821405,-2451.505594
20886.098709,0.000000,-10584.944971,-1455.581446
20886.099042,-518.144159,-9178.553681,-1838.629195
20886.099375,-74.020594,-10658.965565,766.095498
20886.099708,1998.556043,-9474.636058,4826.401637
20886.100041,0.000000,-4811.338623,4903.011187
20886.100374,4071.132681,-7105.977043,4519.963438
20886.100707,2294.638420,-6513.812290,3294.210641
20886.101040,592.164754,-5403.503377,2757.943793
20886.101373,-962.267725,-9474.636058,995.924147
20886.101706,-5107.421000,-9992.780217,-4673.182538
20886.102039,-8512.368333,-12065.356855,-7201.297681
20886.102372,-5477.523971,-11399.171507,-3753.867940
20886.102705,-1036.288319,-11029.068536,-459.657299
20886.103038,592.164754,-9548.656652,5745.716235
20886.103371,2886.803174,-6513.812290,1225.752797
20886.103704,0.000000,-8660.409521,3677.258390
20886.104037,3182.885551,-9474.636058,536.266849
20886.104370,-74.020594,-9474.636058,1838.629195
20886.104703,2072.576638,-8956.491898,2987.772442
20886.105036,2442.679609,-8364.327145,2834.553343
20886.105369,1480.411884,-10881.027347,2911.162892
20886.105702,-962.267725,-8068.244768,76.609550
20886.106035,-2368.659014,-10436.903782,-76.609550
20886.106368,-3182.885551,-8734.430116,-2834.553343
20886.106701,-3923.091493,-9104.533087,-3600.648841
20886.107034,-4737.318029,-10807.006753,-1762.019645
20886.107367,1110.308913,-6513.812290,-76.609550
20886.107700,2960.823768,-7179.997637,4903.011187
20886.108033,5921.647536,-7179.997637,7584.345430
20886.108366,4071.132681,-6883.915261,612.876398
20886.108699,1776.494261,-11103.089130,-76.609550
20886.109032,-74.020594,-12435.459826,-2834.553343
20886.109365,-518.144159,-10955.047942,-3064.381992
20886.109698,222.061783,-11917.315666,-2221.676944
20886.110031,1850.514855,-11251.130318,383.047749
20886.110364,592.164754,-7772.162391,612.876398
20886.110697,592.164754,-8364.327145,3600.648841
20886.111030,222.061783,-6291.750507,0.000000
20886.111363,-2368.659014,-6291.750507,0.000000
20886.111696,1480.411884,-7994.224174,2374.896044
20886.112029,3478.967927,-6957.935855,1378.971896
20886.112362,5107.421000,-8882.471304,4366.744339
20886.112695,4145.153275,-7772.162391,3447.429741
20886.113028,1406.391290,-9178.553681,-383.047749
20886.113362,0.000000,-10732.986159,-3677.258390
20886.113695,-3404.947333,-14211.954086,-2528.115143
20886.114028,-4219.173869,-12583.501014,-6588.421283
20886.114361,-3404.947333,-10140.821405,-3677.258390
20886.114694,-148.041188,-12435.459826,2374.896044
20886.115027,0.000000,-5995.668130,4290.134789
20886.115360,3330.926739,-5181.441594,5056.230287
20886.115693,3330.926739,-6217.729913,5439.278036
20886.116026,814.226536,-6883.915261,3294.210641
20886.116359,-370.102971,-9474.636058,1149.143247
20886.116692,3478.967927,-10658.965565,2374.896044
20886.117025,1998.556043,-7179.997637,612.876398
20886.117358,3552.988522,-11177.109724,2374.896044
20886.117691,-666.185348,-11843.295072,-3140.991542
20886.118024,-2442.679609,-13471.748144,-4979.620737
20886.118357,-6587.832884,-12509.480420,-5975.544884
20886.118690,-5773.606348,-10510.924376,-4366.744339
20886.119023,-5107.421000,-10362.883188,-1378.971896
20886.119356,-2368.659014,-7179.997637,3370.820191
20886.119689,2886.803174,-4737.318029,5515.887586
20886.120022,4145.153275,-3997.112087,7354.516781
20886.120355,5847.626942,-8882.471304,7277.907231
20886.120688,0.000000,-6291.750507,2451.505594
20886.121021,-74.020594,-10288.862594,-76.609550
20886.121354,-1850.514855,-10584.944971,-2987.772442
20886.121687,518.144159,-13323.706956,-2221.676944
20886.122020,0.000000,-12361.439231,-2528.115143
20886.122353,0.000000,-10732.986159,-2451.505594
20886.122686,-1554.432478,-10807.006753,-4213.525239
20886.123019,-1184.329507,-10140.821405,-2451.505594
20886.123352,-740.205942,-9770.718434,229.828649
20886.123685,1702.473667,-7402.059420,3983.696590
20886.124018,2812.782580,-3701.029710,6665.030833
20886.124351,5847.626942,-7105.977043,6052.154434
20886.124684,4145.153275,-3923.091493,4903.011187
20886.125017,5107.421000,-7994.224174,3600.648841
20886.125350,3552.988522,-7550.100608,-1225.752797
20886.125683,-3256.906145,-11917.315666,-5209.449386
20886.126016,-3034.844362,-13101.645173,-7660.954980
20886.126349,-74.020594,-13323.706956,-4366.744339
20886.126682,3330.926739,-12139.377449,-536.266849
20886.127015,2368.659014,-9548.656652,1225.752797
20886.127348,2294.638420,-8512.368333,0.000000
20886.127681,592.164754,-5403.503377,3064.381992
20886.128014,4515.256246,-8882.471304,4519.963438
20886.128347,4071.132681,-7105.977043,1149.143247
20886.128680,3849.070898,-9474.636058,6052.154434
20886.129013,740.205942,-8956.491898,3370.820191
20886.129346,2442.679609,-6513.812290,1149.143247
20886.129679,-2220.617826,-10066.800811,-1685.410096
20886.130012,-518.144159,-11103.089130,-2528.115143
20886.130345,-6291.750507,-9548.656652,-6741.640382
20886.130678,-5773.606348,-11843.295072,-6128.763984
20886.131011,-3330.926739,-13027.624579,-76.609550
20886.131344,-2368.659014,-7476.080014,2451.505594
20886.131677,5551.544565,-6513.812290,6894.859482
20886.132010,2368.659014,-6661.853478,5592.497135
20886.132343,1332.370696,-6957.935855,2451.505594
20886.132676,-2664.741391,-9178.553681,-459.657299
20886.133009,-1258.350101,-8882.471304,-2221.676944
20886.133342,-4441.235652,-9548.656652,0.000000
20886.133675,-370.102971,-11547.212695,-689.485948
20886.134008,-3627.009116,-14211.954086,-3140.991542
20886.134341,-4737.318029,-7179.997637,-2451.505594
20886.134674,-1258.350101,-9474.636058,-995.924147
20886.135007,-3849.070898,-9104.533087,-229.828649
20886.135340,-2220.617826,-8068.244768,1149.143247
20886.135673,-2146.597232,-8882.471304,3140.991542
20886.136006,4367.215058,-5921.647536,5745.716235
20886.136339,3849.070898,-8216.285956,7584.345430
20886.136672,5551.544565,-5995.668130,4366.744339
20886.137005,1036.288319,-7476.080014,459.657299
20886.137338,-3552.988522,-11325.150913,-3524.039291
20886.137671,-2442.679609,-11843.295072,-8044.002729
20886.138004,-5921.647536,-12213.398043,-5822.325785
20886.138337,-4145.153275,-10732.986159,-2451.505594
20886.138670,1406.391290,-10658.965565,-76.609550
20886.139003,148.041188,-7476.080014,153.219100
20886.139336,4071.132681,-6809.894666,3600.648841
20886.139669,2664.741391,-6883.915261,3983.696590
20886.140002,2590.720797,-7476.080014,3600.648841
20886.140335,4071.132681,-8734.430116,4213.525239
20886.140668,5921.647536,-10658.965565,4826.401637
20886.141001,3552.988522,-7772.162391,4903.011187
20886.141334,5847.626942,-9474.636058,2374.896044
20886.141667,1110.308913,-10955.047942,-5439.278036
20886.142000,-1554.432478,-13693.809927,-5056.230287
20886.142333,-2590.720797,-10732.986159,-6435.202183
20886.142666,-2812.782580,-12435.459826,-3830.477490
20886.142999,0.000000,-8290.306550,-1225.752797
20886.143332,148.041188,-8364.327145,2451.505594
20886.143665,7031.956449,-7105.977043,7277.907231
20886.143998,2368.659014,-4811.338623,8886.707777
20886.144331,4367.215058,-7698.141797,2681.334243
20886.144664,-592.164754,-7402.059420,-766.095498
20886.144997,-1184.329507,-9622.677246,383.047749
20886.145330,2886.803174,-9104.533087,1838.629195
20886.145663,2072.576638,-11325.150913,153.219100
20886.145997,962.267725,-10214.842000,-2451.505594
20886.146330,-3997.112087,-12065.356855,-3983.696590
20886.146663,-2442.679609,-11251.130318,-7124.688131
20886.146996,-4219.173869,-13027.624579,-2528.115143
20886.147329,-3034.844362,-11251.130318,-3753.867940
20886.147662,-2368.659014,-8068.244768,3600.648841
20886.147995,1184.329507,-7920.203579,6128.763984
20886.148328,2516.700203,-5255.462188,7737.564530
20886.148661,2220.617826,-5699.585753,6818.249932
20886.148994,1332.370696,-5699.585753,2757.943793
20886.149327,-2294.638420,-10658.965565,-76.609550
20886.149660,-7105.977043,-9548.656652,-4903.011187
20886.149993,-2442.679609,-12435.459826,-4979.620737
20886.150326,-1924.535449,-10362.883188,-2528.115143
20886.150659,0.000000,-9548.656652,1225.752797
20886.150992,-1776.494261,-8956.491898,0.000000
20886.151325,-1480.411884,-10955.047942,-1532.190996
20886.151658,-1110.308913,-9326.594869,-1378.971896
20886.151991,518.144159,-9474.636058,1608.800546
20886.152324,2294.638420,-8882.471304,2987.772442
20886.152657,2960.823768,-6587.832884,6741.640382
20886.152990,3775.050304,-6661.853478,5898.935335
20886.153323,5625.565159,-4959.379811,3064.381992
20886.153656,1702.473667,-8586.388927,-995.924147
20886.153989,1998.556043,-11843.295072,-2528.115143
20886.154322,-5181.441594,-10140.821405,-6128.763984
20886.154655,-1776.494261,-14730.098246,-2528.115143
20886.154988,1702.473667,-9992.780217,-2451.505594
20886.155321,3256.906145,-10436.903782,3600.648841
20886.155654,7994.224174,-7105.977043,4826.401637
20886.155987,4145.153275,-8956.491898,4136.915689
20886.156320,4515.256246,-8882.471304,1455.581446
20886.156653,3701.029710,-9252.574275,2068.457845
20886.156986,1702.473667,-10955.047942,-76.609550
20886.157319,1776.494261,-8660.409521,1225.752797
20886.157652,1110.308913,-10658.965565,-76.609550
20886.157985,1998.556043,-7550.100608,-3370.820191
20886.158318,-1480.411884,-8956.491898,-689.485948
20886.158651,-666.185348,-9474.636058,-3753.867940
20886.158984,-3108.864956,-9474.636058,-2911.162892
20886.159317,-4145.153275,-11103.089130,-1378.971896
20886.159650,888.247130,-7698.141797,2145.067394
20886.159983,1776.494261,-7772.162391,4903.011187
20886.160316,2368.659014,-5995.668130,6741.640382
20886.160649,4071.132681,-8734.430116,1762.019645
20886.160982,0.000000,-9548.656652,0.000000
20886.161315,-888.247130,-11843.295072,-1915.238745
20886.161648,-5699.585753,-10732.986159,-4903.011187
20886.161981,-962.267725,-10658.965565,-2528.115143
20886.162314,-2664.741391,-10510.924376,153.219100
20886.162647,-962.267725,-9104.533087,842.705048
20886.162980,-518.144159,-7105.977043,1991.848295
20886.163313,-2812.782580,-9918.759623,3600.648841
20886.163646,-74.020594,-4737.318029,919.314598
20886.163979,-2368.659014,-8956.491898,4749.792088
20886.164312,2886.803174,-9474.636058,3600.648841
20886.164645,3552.988522,-6587.832884,6435.202183
20886.164978,4663.297435,-8290.306550,3447.429741
20886.165311,3849.070898,-7994.224174,1225.752797
20886.165644,-3997.112087,-11695.253884,-3983.696590
20886.165977,-5107.421000,-12139.377449,-7737.564530
20886.166310,-5699.585753,-13619.789333,-6818.249932
20886.166643,-4737.318029,-9548.656652,-4903.011187
20886.166976,-2368.659014,-8364.327145,2221.676944
20886.167309,1998.556043,-5625.565159,2681.334243
20886.167642,2664.741391,-5403.503377,7354.516781
20886.167975,3478.967927,-5255.462188,5286.058936
20886.168308,2072.576638,-7254.018232,2528.115143
20886.168641,-962.267725,-9770.718434,-459.657299
20886.168974,444.123565,-9474.636058,-1149.143247
20886.169307,4071.132681,-11251.130318,-76.609550
20886.169640,2960.823768,-10658.965565,-306.438199
20886.169973,74.020594,-10807.006753,-3064.381992
20886.170306,-2516.700203,-12509.480420,-4290.134789
20886.170639,-3552.988522,-9548.656652,-4903.011187
20886.170972,-2146.597232,-11547.212695,-2528.115143
20886.171305,-666.185348,-7846.182985,0.000000
20886.171638,2516.700203,-6291.750507,6741.640382
20886.171971,7920.203579,-6809.894666,9729.412825
20886.172304,5551.544565,-4219.173869,6128.763984
20886.172637,4219.173869,-7105.977043,3217.601092
20886.172970,1924.535449,-8216.285956,-766.095498
20886.173303,-1702.473667,-11917.315666,-4596.572988
20886.173636,-2368.659014,-11917.315666,-4136.915689
20886.173969,-74.020594,-13619.789333,-4366.744339
20886.174302,592.164754,-9548.656652,-2451.505594
20886.174635,592.164754,-9844.739029,1838.629195
20886.174969,-74.020594,-9474.636058,-689.485948
20886.175302,0.000000,-7179.997637,0.000000
20886.175635,148.041188,-8882.471304,2298.286494
20886.175968,1110.308913,-6587.832884,2987.772442
20886.176301,962.267725,-8882.471304,3447.429741
20886.176634,2886.803174,-9178.553681,5439.278036
20886.176967,4663.297435,-6513.812290,2068.457845
20886.177300,1184.329507,-8364.327145,4136.915689
20886.177633,-1184.329507,-10140.821405,-76.609550
20886.177966,-4219.173869,-11843.295072,-6052.154434
20886.178299,-5699.585753,-13619.789333,-4979.620737
20886.178632,-2368.659014,-10436.903782,-1838.629195
20886.178965,-222.061783,-9474.636058,1762.019645
20886.179298,3182.885551,-7031.956449,3524.039291
20886.179631,1110.308913,-5921.647536,1915.238745
20886.179964,0.000000,-5995.668130,0.000000
20886.180297,1332.370696,-9474.636058,2374.896044
20886.180630,-74.020594,-8586.388927,-1149.143247
20886.180963,0.000000,-7772.162391,0.000000
20886.181296,1406.391290,-12435.459826,2068.457845
20886.181629,0.000000,-9178.553681,306.438199
20886.181962,-1258.350101,-7920.203579,-1838.629195
20886.182295,-1332.370696,-9770.718434,-3064.381992
20886.182628,-2146.597232,-9326.594869,-3600.648841
20886.182961,-4589.276840,-11473.192101,-2451.505594
20886.183294,1554.432478,-8660.409521,1762.019645
20886.183627,3849.070898,-8808.450710,6052.154434
20886.183960,8290.306550,-6587.832884,8733.488677
20886.184293,7698.141797,-7550.100608,5898.935335
20886.184626,4071.132681,-8142.265362,0.000000
20886.184959,0.000000,-10584.944971,-76.609550
20886.185292,-1258.350101,-12435.459826,-4673.182538
20886.185625,-3552.988522,-11917.315666,-4596.572988
20886.185958,-1850.514855,-11177.109724,-2681.334243
20886.186291,-1184.329507,-10066.800811,229.828649
20886.186624,222.061783,-6291.750507,306.438199
20886.186957,1110.308913,-7105.977043,-76.609550
20886.187290,-2368.659014,-6587.832884,1838.629195
20886.187623,1702.473667,-5403.503377,0.000000
20886.187956,296.082377,-8956.491898,4136.915689
20886.188289,6217.729913,-9474.636058,6511.811733
20886.188622,6439.791695,-8882.471304,3600.648841
20886.188955,5181.441594,-10362.883188,2374.896044
20886.189288,1110.308913,-9992.780217,-1991.848295
20886.189621,-3627.009116,-13027.624579,-6665.030833
20886.189954,-4737.318029,-12287.418637,-6511.811733
20886.190287,-4811.338623,-14656.077652,-1302.362347
20886.190620,0.000000,-8364.327145,0.000000
20886.190953,-1480.411884,-9474.636058,5745.716235
20886.191286,1628.453072,-3330.926739,4290.134789
20886.191619,592.164754,-2442.679609,4903.011187
20886.191952,2294.638420,-4737.318029,3294.210641
20886.192285,74.020594,-8586.388927,1378.971896
20886.192618,-1554.432478,-10362.883188,-689.485948
20886.192951,740.205942,-10732.986159,-383.047749
20886.193284,1702.473667,-11843.295072,-76.609550
20886.193617,592.164754,-11695.253884,-76.609550
20886.193950,-74.020594,-11843.295072,-2834.553343
20886.194283,-3627.009116,-12287.418637,-6052.154434
20886.194616,-4737.318029,-12509.480420,-2451.505594
20886.194949,-4367.215058,-9548.656652,-1225.752797
20886.195282,-1036.288319,-8438.347739,3524.039291
20886.195615,2442.679609,-6069.688724,7048.078582
20886.195948,4885.359217,-3923.091493,8733.488677
20886.196281,3256.906145,-1850.514855,4903.011187
20886.196614,3256.906145,-9474.636058,3294.210641
20886.196947,-370.102971,-8364.327145,-4290.134789
20886.197280,-2960.823768,-10732.986159,-4903.011187
20886.197613,0.000000,-15544.324782,-2374.896044
20886.197947,0.000000,-10732.986159,-2451.505594
20886.198280,-592.164754,-10807.006753,-2374.896044
20886.198613,-1332.370696,-9548.656652,-2451.505594
20886.198946,-2812.782580,-8808.450710,-2451.505594
20886.199279,-3330.926739,-7179.997637,-1838.629195
20886.199612,-518.144159,-7624.121203,2451.505594
20886.199945,1998.556043,-5477.523971,5592.497135
20886.200278,3404.947333,-5847.626942,6281.983084
20886.200611,5847.626942,-8290.306550,7277.907231
20886.200944,4959.379811,-5625.565159,2604.724693
20886.201277,2368.659014,-8956.491898,0.000000
20886.201610,740.205942,-13027.624579,-3140.991542
20886.201943,-3923.091493,-12435.459826,-9806.022374
20886.202276,-3552.988522,-14878.139434,-3294.210641
20886.202609,0.000000,-12879.583391,-1302.362347
20886.202942,3330.926739,-9326.594869,2145.067394
20886.203275,2294.638420,-9030.512492,2834.553343
20886.203608,2146.597232,-5329.482782,2681.334243
20886.203941,1998.556043,-5107.421000,1225.752797
20886.204274,2738.761985,-7550.100608,4826.401637
20886.204607,1998.556043,-10658.965565,3600.648841
20886.204940,-1554.432478,-7698.141797,0.000000
20886.205273,518.144159,-9474.636058,2374.896044
20886.205606,296.082377,-8660.409521,766.095498
20886.205939,370.102971,-8290.306550,-1762.019645
20886.206272,-3330.926739,-10658.965565,-3907.087040
20886.206605,-4737.318029,-9548.656652,-6128.763984
20886.206938,-6291.750507,-11917.315666,-7354.516781
20886.207271,1036.288319,-12731.542202,1762.019645
20886.207604,1702.473667,-7328.038826,3677.258390
20886.207937,2664.741391,-5699.585753,6128.763984
20886.208270,4145.153275,-3182.885551,3294.210641
20886.208603,1924.535449,-8290.306550,1762.019645
20886.208936,1628.453072,-6883.915261,0.000000
20886.209269,-1850.514855,-11769.274478,-689.485948
20886.209602,-74.020594,-13471.748144,-76.609550
20886.209935,-2960.823768,-9548.656652,-1072.533697
20886.210268,-1258.350101,-11251.130318,-1302.362347
20886.210601,0.000000,-4811.338623,-1685.410096
20886.210934,-74.020594,-9474.636058,-76.609550
20886.211267,962.267725,-11251.130318,-1225.752797
20886.211600,-1332.370696,-9548.656652,766.095498
20886.211933,3034.844362,-9104.533087,3600.648841
20886.212266,6735.874072,-8290.306550,6511.811733
20886.212599,8068.244768,-5625.565159,5439.278036
20886.212932,9104.533087,-8290.306550,4826.401637
20886.213265,2368.659014,-7476.080014,0.000000
20886.213598,-4145.153275,-11325.150913,-4596.572988
20886.213931,-4219.173869,-14063.912898,-6205.373534
20886.214264,-2738.761985,-11695.253884,-5515.887586
20886.214597,-1480.411884,-11029.068536,-2298.286494
20886.214930,-74.020594,-8216.285956,2145.067394
20886.215263,1850.514855,-5255.462188,3600.648841
20886.215596,1554.432478,-4441.235652,3753.867940
20886.215929,1554.432478,-6809.894666,4213.525239
20886.216262,-740.205942,-8216.285956,1838.629195
20886.216595,74.020594,-9548.656652,1762.019645
20886.216928,1702.473667,-8956.491898,1225.752797
20886.217261,3478.967927,-9474.636058,842.705048
20886.217594,592.164754,-11843.295072,-76.609550
20886.217927,-3034.844362,-10066.800811,-7890.783629
20886.218260,-7105.977043,-13101.645173,-5439.278036
20886.218593,-5329.482782,-11917.315666,-5209.449386
20886.218926,-4811.338623,-11103.089130,-3677.258390
20886.219259,-666.185348,-7624.121203,2911.162892
20886.219592,1554.432478,-7179.997637,7814.174080
20886.219925,4959.379811,-2960.823768,8810.098227
20886.220258,888.247130,-3923.091493,4903.011187
20886.220591,-444.123565,-10658.965565,2374.896044
20886.220924,-1258.350101,-9474.636058,-2528.115143
20886.221258,-5921.647536,-11917.315666,-1225.752797
20886.221591,2294.638420,-13027.624579,-76.609550
20886.221924,-2072.576638,-7772.162391,-1225.752797
20886.222257,666.185348,-9474.636058,-2221.676944
20886.222590,-888.247130,-8956.491898,-2528.115143
20886.222923,-2590.720797,-10214.842000,-4290.134789
20886.223256,-2368.659014,-10436.903782,-2145.067394
20886.223589,1702.473667,-13027.624579,-76.609550
20886.223922,2368.659014,-7179.997637,4903.011187
20886.224255,3552.988522,-6587.832884,10265.679673
20886.224588,7031.956449,-6513.812290,6971.469032
20886.224921,4737.318029,-5403.503377,5822.325785
20886.225254,1702.473667,-9030.512492,459.657299
20886.225587,-444.123565,-10510.924376,-4443.353888
20886.225920,-2664.741391,-12435.459826,-5975.544884
20886.226253,-74.020594,-13619.789333,-1302.362347
20886.226586,1554.432478,-8290.306550,-995.924147
20886.226919,1776.494261,-7772.162391,2068.457845
20886.227252,-74.020594,-9474.636058,-1302.362347
20886.227585,-1258.350101,-5551.544565,-5745.716235
20886.227918,-2220.617826,-10584.944971,1149.143247
20886.228251,0.000000,-7328.038826,919.314598
20886.228584,888.247130,-8956.491898,2834.553343
20886.228917,1776.494261,-5551.544565,4519.963438
20886.229250,4663.297435,-7105.977043,5439.278036
20886.229583,1850.514855,-7920.203579,766.095498
20886.229916,296.082377,-11325.150913,-2681.334243
20886.230249,-4737.318029,-12509.480420,-5209.449386
20886.230582,-4737.318029,-10140.821405,-6128.763984
20886.230915,-3552.988522,-11325.150913,-919.314598
20886.231248,4367.215058,-11843.295072,2374.896044
20886.231581,3775.050304,-7105.977043,4519.963438
20886.231914,1850.514855,-5403.503377,3677.258390
20886.232247,1184.329507,-7179.997637,766.095498
20886.232580,-1184.329507,-9252.574275,1225.752797
20886.232913,-222.061783,-8512.368333,-919.314598
20886.233246,-1998.556043,-9770.718434,-76.609550
20886.233579,-74.020594,-12435.459826,1762.019645
20886.233912,-1850.514855,-7179.997637,383.047749
20886.234245,-2442.679609,-8290.306550,-2528.115143
20886.234578,-2072.576638,-6883.915261,536.266849
20886.234911,-3552.988522,-9770.718434,-76.609550
20886.235244,-1998.556043,-8512.368333,-1225.752797
20886.235577,0.000000,-9918.759623,3600.648841
20886.235910,3701.029710,-6439.791695,4979.620737
20886.236243,6661.853478,-8290.306550,6128.763984
20886.236576,4811.338623,-7105.977043,3294.210641
20886.236909,1184.329507,-8956.491898,612.876398
20886.237242,-1776.494261,-9548.656652,-6128.763984
20886.237575,444.123565,-14211.954086,-3140.991542
20886.237908,-3627.009116,-11917.315666,-4596.572988
20886.238241,-370.102971,-9918.759623,995.924147
20886.238574,-74.020594,-8290.306550,536.266849
20886.238907,888.247130,-5033.400406,2221.676944
20886.239240,3478.967927,-4589.276840,2451.505594
20886.239573,2146.597232,-7402.059420,2911.162892
20886.239906,4071.132681,-8290.306550,2987.772442
20886.240239,0.000000,-9548.656652,459.657299
20886.240572,4663.297435,-13619.789333,2987.772442
20886.240905,3478.967927,-8660.409521,0.000000
20886.241238,2960.823768,-9548.656652,919.314598
20886.241571,2590.720797,-10955.047942,-4673.182538
20886.241904,-1628.453072,-12953.603985,-6435.202183
20886.242237,-3034.844362,-13545.768739,-4213.525239
20886.242570,-1258.350101,-9918.759623,0.000000
20886.242903,962.267725,-7698.141797,1455.581446
20886.243236,592.164754,-8364.327145,8503.660028
20886.243569,3478.967927,-2590.720797,4903.011187
20886.243902,296.082377,-1554.432478,4903.011187
20886.244236,0.000000,-3923.091493,2451.505594
20886.244569,-2442.679609,-9622.677246,-2757.943793
20886.244902,-4515.256246,-12287.418637,-3140.991542
20886.245235,-4515.256246,-11325.150913,-2451.505594
20886.245568,-444.123565,-11029.068536,-1838.629195
20886.245901,2294.638420,-9326.594869,-2068.457845
20886.246234,-518.144159,-9770.718434,-229.828649
20886.246567,-1332.370696,-8734.430116,-2068.457845
20886.246900,-3256.906145,-10066.800811,-2298.286494
20886.247233,-2960.823768,-10288.862594,-76.609550
20886.247566,1110.308913,-9474.636058,2374.896044
20886.247899,1480.411884,-5699.585753,3983.696590
20886.248232,3552.988522,-5699.585753,7890.783629
20886.248565,4367.215058,-7105.977043,4519.963438
20886.248898,1184.329507,-4811.338623,2451.505594
20886.249231,-1924.535449,-10807.006753,-689.485948
20886.249564,-3034.844362,-10584.944971,-5056.230287
20886.249897,-5255.462188,-12731.542202,-4826.401637
20886.250230,-1258.350101,-13323.706956,-1302.362347
20886.250563,2294.638420,-9474.636058,842.705048
20886.250896,-2368.659014,-7179.997637,1991.848295
20886.251229,-1184.329507,-7179.997637,-76.609550
20886.251562,-666.185348,-9474.636058,-1149.143247
20886.251895,1184.329507,-8068.244768,2604.724693
20886.252228,518.144159,-8142.265362,1685.410096
20886.252561,2220.617826,-9548.656652,3447.429741
20886.252894,3256.906145,-8438.347739,3600.648841
20886.253227,3034.844362,-6661.853478,3217.601092
20886.253560,4663.297435,-6587.832884,-2451.505594
20886.253893,-1184.329507,-11547.212695,-689.485948
20886.254226,-2442.679609,-10955.047942,-4979.620737
20886.254559,-4071.132681,-9548.656652,-3677.258390
20886.254892,1258.350101,-11843.295072,-76.609550
20886.255225,2664.741391,-8512.368333,3677.258390
20886.255558,3923.091493,-6883.915261,4136.915689
20886.255891,3627.009116,-5773.606348,2451.505594
20886.256224,1776.494261,-7328.038826,306.438199
20886.256557,74.020594,-8364.327145,0.000000
20886.256890,2294.638420,-11251.130318,-76.609550
20886.257223,1702.473667,-10658.965565,-1608.800546
20886.257556,0.000000,-10732.986159,-2145.067394
20886.257889,0.000000,-8364.327145,-1685.410096
20886.258222,-518.144159,-8882.471304,-1608.800546
20886.258555,-74.020594,-8882.471304,-2298.286494
20886.258888,-2960.823768,-10140.821405,-1838.629195
20886.259221,-666.185348,-9474.636058,-76.609550
20886.259554,0.000000,-9104.533087,5132.839837
20886.259887,4663.297435,-7846.182985,5745.716235
20886.260220,4959.379811,-4811.338623,6128.763984
20886.260553,6439.791695,-8882.471304,3600.648841
20886.260886,2146.597232,-9844.739029,-1685.410096
20886.261219,-370.102971,-10658.965565,-1991.848295
20886.261552,-2368.659014,-12139.377449,-3907.087040
20886.261885,-3182.885551,-10658.965565,-3830.477490
20886.262218,-2442.679609,-12731.542202,-995.924147
20886.262551,-2960.823768,-9474.636058,689.485948
20886.262884,-2442.679609,-6883.915261,459.657299
20886.263217,-2368.659014,-6809.894666,689.485948
20886.263550,-1036.288319,-5477.523971,2068.457845
20886.263883,-74.020594,-9474.636058,2374.896044
20886.264216,592.164754,-7179.997637,2451.505594
20886.264549,3701.029710,-11843.295072,6665.030833
20886.264882,3552.988522,-6587.832884,3677.258390
20886.265215,1184.329507,-7179.997637,612.876398
20886.265548,814.226536,-11843.295072,-3140.991542
20886.265881,-3701.029710,-11917.315666,-6741.640382
20886.266214,-4663.297435,-13619.789333,-5898.935335
20886.266547,-3404.947333,-11917.315666,-3217.601092
20886.266880,-2146.597232,-9326.594869,-383.047749
20886.267213,0.000000,-8068.244768,5745.716235
20886.267547,2886.803174,-6513.812290,4213.525239
20886.267880,1850.514855,-3330.926739,5515.887586
20886.268213,3256.906145,-6809.894666,5439.278036
20886.268546,-74.020594,-7772.162391,153.219100
20886.268879,1702.473667,-8882.471304,383.047749
20886.269212,2220.617826,-11325.150913,842.705048
20886.269545,2442.679609,-10066.800811,-76.609550
20886.269878,0.000000,-8364.327145,-4596.572988
20886.270211,-74.020594,-15396.283594,-4979.620737
20886.270544,-2368.659014,-13101.645173,-3140.991542
20886.270877,-1850.514855,-12731.542202,-5592.497135
20886.271210,-2368.659014,-11029.068536,-76.609550
20886.271543,4145.153275,-8956.491898,9729.412825
20886.271876,5847.626942,-4219.173869,8580.269578
20886.272209,7105.977043,-1998.556043,10112.460574
20886.272542,5403.503377,-4515.256246,5745.716235
20886.272875,3478.967927,-6513.812290,1762.019645
20886.273208,-3034.844362,-11843.295072,-4979.620737
20886.273541,-4737.318029,-9548.656652,-5822.325785
20886.273875,-2442.679609,-13027.624579,-4979.620737
20886.274208,-74.020594,-13027.624579,-3753.867940
20886.274541,0.000000,-9622.677246,536.266849
20886.274874,-1480.411884,-9548.656652,-1378.971896
20886.275207,-1406.391290,-9474.636058,-1608.800546
20886.275540,-1554.432478,-10362.883188,2221.676944
20886.275873,2294.638420,-6513.812290,4519.963438
20886.276206,3182.885551,-6809.894666,5056.230287
20886.276539,4293.194464,-7994.224174,6128.763984
20886.276872,4737.318029,-6809.894666,4519.963438
20886.277205,1184.329507,-7179.997637,1838.629195
20886.277538,0.000000,-8364.327145,-919.314598
20886.277871,-3034.844362,-13027.624579,-6818.249932
20886.278204,-7105.977043,-11917.315666,-8733.488677
20886.278537,-4737.318029,-13101.645173,-1532.190996
20886.278870,-1850.514855,-10214.842000,153.219100
20886.279203,1184.329507,-6365.771101,5286.058936
20886.279537,296.082377,-6291.750507,4596.572988
20886.279870,1850.514855,-5477.523971,4213.525239
20886.280203,592.164754,-6439.791695,4290.134789
20886.280536,-74.020594,-7105.977043,0.000000
20886.280869,2886.803174,-10658.965565,-76.609550
20886.281202,-888.247130,-9548.656652,153.219100
20886.281535,1776.494261,-10584.944971,1762.019645
20886.281868,0.000000,-9474.636058,-1991.848295
20886.282201,-740.205942,-10584.944971,-2528.115143
20886.282534,-666.185348,-10658.965565,-2834.553343
20886.282867,-2220.617826,-10732.986159,-2528.115143
20886.283200,-74.020594,-10362.883188,-689.485948
20886.283533,3552.988522,-9548.656652,6435.202183
20886.283866,6439.791695,-8882.471304,6971.469032
20886.284199,4737.318029,-4811.338623,6128.763984
20886.284532,4071.132681,-7698.141797,2374.896044
20886.284866,-74.020594,-8882.471304,-2528.115143
20886.285199,-1036.288319,-10510.924376,-2987.772442
20886.285532,-2442.679609,-11251.130318,-3524.039291
20886.285865,-1702.473667,-10436.903782,-1915.238745
20886.286198,-1554.432478,-10140.821405,-689.485948
20886.286531,-74.020594,-9178.553681,2374.896044
20886.286864,-2368.659014,-6587.832884,612.876398
20886.287197,-3552.988522,-7772.162391,-612.876398
20886.287530,-74.020594,-10658.965565,-383.047749
20886.287863,-2072.576638,-7179.997637,0.000000
20886.288196,4071.132681,-9326.594869,4136.915689
20886.288529,4811.338623,-9178.553681,6665.030833
20886.288862,6735.874072,-7328.038826,5439.278036
20886.289195,3330.926739,-8956.491898,2528.115143
20886.289528,1406.391290,-9474.636058,-2528.115143
20886.289861,-4737.318029,-11917.315666,-3677.258390
20886.290194,-4145.153275,-13545.768739,-2528.115143
20886.290528,-2442.679609,-10362.883188,-3983.696590
20886.290861,-4737.318029,-7476.080014,0.000000
20886.291194,-74.020594,-7105.977043,2221.676944
20886.291527,-740.205942,-6069.688724,3294.210641
20886.291860,888.247130,-4737.318029,2757.943793
20886.292193,-1258.350101,-5107.421000,0.000000
20886.292526,-74.020594,-9474.636058,536.266849
20886.292859,1998.556043,-9252.574275,1838.629195
20886.293192,2516.700203,-11029.068536,5056.230287
20886.293525,3404.947333,-8364.327145,1302.362347
20886.293858,0.000000,-9844.739029,-1225.752797
20886.294191,-74.020594,-11547.212695,-4979.620737
20886.294524,-3552.988522,-11917.315666,-4903.011187
20886.294857,-2960.823768,-13027.624579,-1915.238745
20886.295190,-3330.926739,-9548.656652,-3370.820191
20886.295523,740.205942,-6883.915261,3064.381992
20886.295857,5699.585753,-6217.729913,8120.612279
20886.296190,6217.729913,-4293.194464,7354.516781
20886.296523,2368.659014,-6291.750507,3064.381992
