#time,accel_x,accel_y,accel_z
20437.854388,9252.574275,-7994.224174,1455.581446
20437.854721,7105.977043,-8512.368333,1838.629195
20437.855055,5847.626942,-9622.677246,-2987.772442
20437.855388,4145.153275,-10288.862594,-3600.648841
20437.855722,4885.359217,-9104.533087,-4443.353888
20437.856055,7031.956449,-11547.212695,-1378.971896
20437.856389,9400.615463,-11843.295072,-1915.238745
20437.856722,8734.430116,-8068.244768,2451.505594
20437.857056,9474.636058,-5995.668130,5515.887586
20437.857389,14730.098246,-8142.265362,4826.401637
20437.857722,13619.789333,-9474.636058,5286.058936
20437.858056,12657.521608,-8364.327145,2911.162892
20437.858389,10214.842000,-9844.739029,1225.752797
20437.858723,6439.791695,-11103.089130,-2451.505594
20437.859056,1110.308913,-12879.583391,-5592.497135
20437.859390,-2146.597232,-10658.965565,-7431.126331
20437.859723,0.000000,-8364.327145,-2451.505594
20437.860057,2960.823768,-8734.430116,2374.896044
20437.860390,5847.626942,-4811.338623,612.876398
20437.860724,9622.677246,-6513.812290,7890.783629
20437.861057,12213.398043,-4367.215058,9116.536426
20437.861391,12657.521608,-4737.318029,6128.763984
20437.861724,12953.603985,-7920.203579,2528.115143
20437.862057,11621.233289,-9326.594869,-689.485948
20437.862391,7179.997637,-11029.068536,-4673.182538
20437.862724,5847.626942,-12953.603985,-7737.564530
20437.863058,1924.535449,-14582.057057,-8350.440928
20437.863391,0.000000,-14582.057057,-6741.640382
20437.863725,0.000000,-11917.315666,-2451.505594
20437.864058,3478.967927,-11843.295072,-689.485948
20437.864392,2664.741391,-4811.338623,612.876398
20437.864725,8882.471304,-5181.441594,10955.165621
20437.865059,10658.965565,-2146.597232,12563.966167
20437.865392,10214.842000,-2590.720797,11184.994271
20437.865726,7402.059420,-6735.874072,6281.983084
20437.866059,4441.235652,-8290.306550,-76.609550
20437.866392,-74.020594,-12879.583391,-3753.867940
20437.866726,-4959.379811,-10436.903782,-9346.365076
20437.867059,-7179.997637,-15396.283594,-12334.137518
20437.867393,-8364.327145,-12509.480420,-9346.365076
20437.867726,-6809.894666,-9548.656652,-2451.505594
20437.868060,1036.288319,-8290.306550,3983.696590
20437.868393,5033.400406,-6513.812290,6971.469032
20437.868727,7846.182985,-4219.173869,9193.145976
20437.869060,9030.512492,-3627.009116,8580.269578
20437.869394,9400.615463,-3552.988522,4213.525239
20437.869727,7105.977043,-6587.832884,1532.190996
20437.870061,7031.956449,-10658.965565,-2528.115143
20437.870394,3552.988522,-9548.656652,-4290.134789
20437.870727,2072.576638,-13915.871710,-3753.867940
20437.871061,-666.185348,-14211.954086,-7584.345430
20437.871394,-74.020594,-14211.954086,-4979.620737
20437.871728,962.267725,-10510.924376,-1225.752797
20437.872061,5033.400406,-8956.491898,3217.601092
20437.872395,7550.100608,-6513.812290,5898.935335
20437.872728,12953.603985,-7105.977043,9729.412825
20437.873062,10066.800811,-5107.421000,8580.269578
20437.873395,10658.965565,-5699.585753,7277.907231
20437.873729,9400.615463,-6809.894666,0.000000
20437.874062,5329.482782,-7179.997637,-2451.505594
20437.874396,3182.885551,-9474.636058,-6894.859482
20437.874729,-148.041188,-12435.459826,-7890.783629
20437.875063,-3552.988522,-15840.407159,-5745.716235
20437.875396,-4515.256246,-15618.345376,-3983.696590
20437.875729,-1850.514855,-12213.398043,-689.485948
20437.876063,0.000000,-7772.162391,4903.011187
20437.876396,5551.544565,-6513.812290,8503.660028
20437.876730,8808.450710,-3404.947333,6128.763984
20437.877063,5921.647536,-3034.844362,6128.763984
20437.877397,7328.038826,-5181.441594,2221.676944
20437.877730,4367.215058,-7550.100608,-842.705048
20437.878064,1554.432478,-9992.780217,-3140.991542
20437.878397,-2664.741391,-10955.047942,-6128.763984
20437.878731,-2442.679609,-11547.212695,-7354.516781
20437.879064,-3997.112087,-13175.665768,-3140.991542
20437.879398,-148.041188,-11177.109724,383.047749
20437.879731,1406.391290,-9474.636058,4136.915689
20437.880064,888.247130,-10140.821405,5515.887586
20437.880398,1406.391290,-8882.471304,3447.429741
20437.880731,0.000000,-5995.668130,153.219100
20437.881065,1184.329507,-5995.668130,3370.820191
20437.881398,1924.535449,-6809.894666,-76.609550
20437.881732,-3034.844362,-8068.244768,-1838.629195
20437.882065,-5107.421000,-10362.883188,-2757.943793
20437.882399,-6735.874072,-9400.615463,-3447.429741
20437.882732,-1554.432478,-9326.594869,229.828649
20437.883066,-74.020594,-8290.306550,3600.648841
20437.883399,2886.803174,-11843.295072,3600.648841
20437.883733,-1776.494261,-7179.997637,3217.601092
20437.884066,-2368.659014,-10732.986159,2451.505594
20437.884399,1998.556043,-9474.636058,-842.705048
20437.884733,-2368.659014,-11325.150913,459.657299
20437.885066,-3108.864956,-9622.677246,-3600.648841
20437.885400,-4219.173869,-11251.130318,-2681.334243
20437.885733,-3034.844362,-10955.047942,-76.609550
20437.886067,2220.617826,-5773.606348,4826.401637
20437.886400,5847.626942,-4737.318029,4826.401637
20437.886734,4737.318029,-4219.173869,7354.516781
20437.887067,4367.215058,-7105.977043,4826.401637
20437.887401,4367.215058,-8290.306550,-1915.238745
20437.887734,2294.638420,-11547.212695,-2528.115143
20437.888068,-2072.576638,-14137.933492,-5209.449386
20437.888401,-5847.626942,-15396.283594,-7354.516781
20437.888734,-7920.203579,-15396.283594,-6205.373534
20437.889068,-4441.235652,-9548.656652,-2145.067394
20437.889401,2294.638420,-5995.668130,3677.258390
20437.889735,5329.482782,-1258.350101,9806.022374
20437.890068,10140.821405,-4441.235652,10955.165621
20437.890402,5921.647536,-1554.432478,5209.449386
20437.890735,5033.400406,-3923.091493,1915.238745
20437.891069,3256.906145,-9178.553681,-1302.362347
20437.891402,666.185348,-10955.047942,-6128.763984
20437.891736,-4219.173869,-13915.871710,-8580.269578
20437.892069,-4811.338623,-16580.613101,-7737.564530
20437.892403,-7994.224174,-14582.057057,-5515.887586
20437.892736,-74.020594,-13619.789333,2374.896044
20437.893069,4663.297435,-7994.224174,4979.620737
20437.893403,3849.070898,-5699.585753,10035.851024
20437.893736,4145.153275,-4811.338623,7277.907231
20437.894070,6661.853478,-4589.276840,8350.440928
20437.894403,6439.791695,-5033.400406,5898.935335
20437.894737,3627.009116,-6291.750507,919.314598
20437.895070,-3627.009116,-11621.233289,-4979.620737
20437.895404,-10362.883188,-13693.809927,-9729.412825
20437.895737,-9770.718434,-12139.377449,-9422.974625
20437.896071,-5329.482782,-11177.109724,-4903.011187
20437.896404,-814.226536,-8956.491898,842.705048
20437.896738,2368.659014,-9474.636058,4903.011187
20437.897071,2294.638420,-6291.750507,4519.963438
20437.897404,3552.988522,-6587.832884,8197.221829
20437.897738,6439.791695,-7105.977043,4596.572988
20437.898071,4367.215058,-6365.771101,4213.525239
20437.898405,-740.205942,-11103.089130,842.705048
20437.898738,-5107.421000,-9548.656652,-5209.449386
20437.899072,-6439.791695,-10436.903782,-5898.935335
20437.899405,-2960.823768,-8956.491898,-3753.867940
20437.899739,-74.020594,-8882.471304,-76.609550
20437.900072,0.000000,-6587.832884,612.876398
20437.900406,0.000000,-8956.491898,1838.629195
20437.900739,4071.132681,-10066.800811,1149.143247
20437.901073,2368.659014,-7772.162391,3064.381992
20437.901406,2294.638420,-11843.295072,2374.896044
20437.901739,-1480.411884,-11843.295072,229.828649
20437.902073,-3330.926739,-13027.624579,-995.924147
20437.902406,-1332.370696,-8586.388927,459.657299
20437.902740,814.226536,-7105.977043,1915.238745
20437.903073,0.000000,-3034.844362,3677.258390
20437.903407,2886.803174,-7031.956449,2911.162892
20437.903740,-74.020594,-7105.977043,-2221.676944
20437.904074,1776.494261,-7328.038826,-306.438199
20437.904407,222.061783,-10584.944971,-3370.820191
20437.904741,1702.473667,-11769.274478,-2145.067394
20437.905074,0.000000,-13989.892304,0.000000
20437.905407,222.061783,-13619.789333,919.314598
20437.905741,592.164754,-10140.821405,2451.505594
20437.906074,3256.906145,-9252.574275,3677.258390
20437.906408,4145.153275,-7920.203579,7277.907231
20437.906741,3478.967927,-5477.523971,2451.505594
20437.907075,1406.391290,-5403.503377,2604.724693
20437.907408,0.000000,-5403.503377,689.485948
20437.907742,2072.576638,-7254.018232,-842.705048
20437.908075,-2664.741391,-9030.512492,-4826.401637
20437.908409,-5921.647536,-14211.954086,-6205.373534
20437.908742,-5181.441594,-14656.077652,-4290.134789
20437.909076,-1554.432478,-10881.027347,0.000000
20437.909409,2886.803174,-8364.327145,5132.839837
20437.909743,4145.153275,-7254.018232,6665.030833
20437.910076,3256.906145,-7105.977043,4903.011187
20437.910410,2294.638420,-7328.038826,2757.943793
20437.910743,4145.153275,-8290.306550,2987.772442
20437.911077,1702.473667,-9474.636058,-1608.800546
20437.911410,-2664.741391,-8364.327145,-3983.696590
20437.911744,-5107.421000,-11843.295072,-5592.497135
20437.912077,-7105.977043,-11917.315666,-6128.763984
20437.912411,-3404.947333,-10436.903782,-2451.505594
20437.912744,-148.041188,-9770.718434,2221.676944
20437.913078,1776.494261,-7476.080014,6281.983084
20437.913411,4663.297435,-7476.080014,3677.258390
20437.913745,4441.235652,-8882.471304,6665.030833
20437.914078,7031.956449,-6513.812290,5439.278036
20437.914412,3923.091493,-6291.750507,1838.629195
20437.914745,-1184.329507,-9548.656652,-2145.067394
20437.915079,-7550.100608,-12657.521608,-6588.421283
20437.915412,-9178.553681,-12731.542202,-8120.612279
20437.915746,-5181.441594,-10436.903782,-4366.744339
20437.916079,1702.473667,-8290.306550,2987.772442
20437.916413,2294.638420,-4811.338623,3064.381992
20437.916746,6735.874072,-8882.471304,5439.278036
20437.917080,4367.215058,-6735.874072,3217.601092
20437.917413,5921.647536,-8438.347739,5056.230287
20437.917747,5625.565159,-11547.212695,2451.505594
20437.918080,1332.370696,-12287.418637,-76.609550
20437.918414,-2516.700203,-13323.706956,-3447.429741
20437.918747,-2664.741391,-11769.274478,-2604.724693
20437.919081,-74.020594,-11251.130318,-842.705048
20437.919414,0.000000,-7179.997637,2604.724693
20437.919748,-74.020594,-6513.812290,842.705048
20437.920081,-74.020594,-7105.977043,-1302.362347
20437.920415,-1036.288319,-8734.430116,1762.019645
20437.920748,2886.803174,-7105.977043,-76.609550
20437.921082,4071.132681,-8882.471304,1762.019645
20437.921415,370.102971,-9548.656652,0.000000
20437.921749,-2368.659014,-12509.480420,-1838.629195
20437.922082,-2146.597232,-11621.233289,-1149.143247
20437.922416,2294.638420,-11843.295072,3600.648841
20437.922749,3478.967927,-6143.709319,1838.629195
20437.923083,1184.329507,-7476.080014,2451.505594
20437.923416,3182.885551,-9474.636058,1762.019645
20437.923750,1110.308913,-7105.977043,-383.047749
20437.924083,2590.720797,-8882.471304,-842.705048
20437.924417,148.041188,-9178.553681,-2374.896044
20437.924750,-1850.514855,-11029.068536,-3447.429741
20437.925084,-3849.070898,-11473.192101,-2451.505594
20437.925417,-1702.473667,-11843.295072,-76.609550
20437.925751,888.247130,-9030.512492,3064.381992
20437.926084,3478.967927,-7624.121203,6128.763984
20437.926418,2590.720797,-7179.997637,5515.887586
20437.926751,666.185348,-6587.832884,1532.190996
20437.927085,296.082377,-8290.306550,-76.609550
20437.927418,2886.803174,-10658.965565,-76.609550
20437.927752,-2368.659014,-7772.162391,-3064.381992
20437.928085,-4293.194464,-12953.603985,-4979.620737
20437.928419,-7772.162391,-13915.871710,-8427.050478
20437.928752,-5699.585753,-13027.624579,-3907.087040
20437.929086,1110.308913,-9326.594869,3294.210641
20437.929419,6217.729913,-5403.503377,8120.612279
20437.929753,5921.647536,-4959.379811,8580.269578
20437.930086,5329.482782,-8290.306550,8197.221829
20437.930420,2886.803174,-5403.503377,2451.505594
20437.930753,2368.659014,-8364.327145,3600.648841
20437.931087,1110.308913,-9474.636058,-3830.477490
20437.931420,-5329.482782,-11917.315666,-7354.516781
20437.931754,-7772.162391,-13471.748144,-8656.879127
20437.932087,-6957.935855,-12805.562797,-6052.154434
20437.932421,-1628.453072,-9030.512492,-1225.752797
20437.932754,5255.462188,-7698.141797,6052.154434
20437.933088,7624.121203,-9474.636058,9729.412825
20437.933421,5255.462188,-4219.173869,5209.449386
20437.933755,5921.647536,-7179.997637,4903.011187
20437.934088,9252.574275,-8882.471304,5439.278036
20437.934422,4737.318029,-8364.327145,4903.011187
20437.934755,-222.061783,-10807.006753,-2604.724693
20437.935089,-6809.894666,-13915.871710,-7967.393179
20437.935422,-7994.224174,-12731.542202,-8427.050478
20437.935756,-4219.173869,-9918.759623,-3294.210641
20437.936089,2294.638420,-7698.141797,1455.581446
20437.936423,0.000000,-5995.668130,4903.011187
20437.936756,2294.638420,-8290.306550,4213.525239
20437.937090,1850.514855,-5329.482782,2987.772442
20437.937423,5255.462188,-7105.977043,4826.401637
20437.937757,4737.318029,-8142.265362,3600.648841
20437.938090,0.000000,-10732.986159,0.000000
20437.938424,-4589.276840,-11621.233289,-3677.258390
20437.938757,-5921.647536,-10436.903782,-3677.258390
20437.939091,-2442.679609,-9548.656652,-3370.820191
20437.939424,0.000000,-9992.780217,2451.505594
20437.939758,-296.082377,-10510.924376,1762.019645
20437.940091,-2368.659014,-7476.080014,0.000000
20437.940425,-74.020594,-7994.224174,-76.609550
20437.940758,3256.906145,-7550.100608,2145.067394
20437.941092,3478.967927,-9030.512492,3064.381992
20437.941425,-518.144159,-10732.986159,306.438199
20437.941759,-5329.482782,-11917.315666,-2145.067394
20437.942092,-3478.967927,-10140.821405,-766.095498
20437.942426,1036.288319,-7550.100608,2374.896044
20437.942759,2812.782580,-5329.482782,3447.429741
20437.943093,1554.432478,-7105.977043,2068.457845
20437.943426,-2368.659014,-8364.327145,-2145.067394
20437.943760,-1850.514855,-9474.636058,-3753.867940
20437.944093,-3552.988522,-8956.491898,-2451.505594
20437.944427,-1554.432478,-11843.295072,-1302.362347
20437.944760,-1850.514855,-11843.295072,-2221.676944
20437.945094,-4145.153275,-11473.192101,612.876398
20437.945427,-370.102971,-9252.574275,2681.334243
20437.945761,3034.844362,-7254.018232,5439.278036
20437.946094,5477.523971,-6291.750507,7584.345430
20437.946428,5181.441594,-6883.915261,7354.516781
20437.946761,2590.720797,-5107.421000,306.438199
20437.947095,1258.350101,-5403.503377,-2145.067394
20437.947428,3478.967927,-10658.965565,-1302.362347
20437.947762,-1258.350101,-9474.636058,-4673.182538
20437.948095,-4219.173869,-14211.954086,-6205.373534
20437.948429,-7698.141797,-14730.098246,-6741.640382
20437.948762,-3478.967927,-12435.459826,-3294.210641
20437.949096,1702.473667,-8142.265362,3830.477490
20437.949429,8216.285956,-5921.647536,9422.974625
20437.949763,4737.318029,-3627.009116,7354.516781
20437.950096,5625.565159,-7846.182985,8273.831378
20437.950430,7624.121203,-6809.894666,2374.896044
20437.950763,4737.318029,-5403.503377,612.876398
20437.951097,2294.638420,-10214.842000,-3753.867940
20437.951430,-4293.194464,-13249.686362,-6894.859482
20437.951764,-7698.141797,-14582.057057,-9193.145976
20437.952097,-4441.235652,-12731.542202,-5822.325785
20437.952431,-370.102971,-9918.759623,-1685.410096
20437.952764,0.000000,-8660.409521,6128.763984
20437.953098,5847.626942,-8734.430116,5745.716235
20437.953431,3182.885551,-4219.173869,3217.601092
20437.953765,5921.647536,-4811.338623,7354.516781
20437.954098,7920.203579,-6957.935855,4519.963438
20437.954432,2072.576638,-8660.409521,1608.800546
20437.954765,-3997.112087,-11621.233289,-4060.306139
20437.955099,-8438.347739,-13101.645173,-8120.612279
20437.955432,-6439.791695,-11251.130318,-6358.592633
20437.955766,-2368.659014,-9178.553681,-383.047749
20437.956099,518.144159,-7105.977043,2374.896044
20437.956433,148.041188,-7846.182985,2681.334243
20437.956766,1184.329507,-8290.306550,3907.087040
20437.957100,3478.967927,-8882.471304,2374.896044
20437.957433,2886.803174,-6735.874072,1532.190996
20437.957767,-2220.617826,-9548.656652,1225.752797
20437.958100,-2442.679609,-13619.789333,-383.047749
20437.958434,-5625.565159,-10436.903782,-2451.505594
20437.958767,-2072.576638,-8364.327145,1149.143247
20437.959101,666.185348,-8290.306550,2374.896044
20437.959434,0.000000,-5773.606348,1991.848295
20437.959768,-2442.679609,-8882.471304,-383.047749
20437.960101,-2368.659014,-9474.636058,-1302.362347
20437.960435,-2368.659014,-5995.668130,-1838.629195
20437.960769,1776.494261,-10658.965565,2374.896044
20437.961102,-74.020594,-11103.089130,-1915.238745
20437.961436,-3627.009116,-13471.748144,-766.095498
20437.961769,-3330.926739,-11695.253884,-2987.772442
20437.962103,666.185348,-10066.800811,2451.505594
20437.962436,4441.235652,-6809.894666,6128.763984
20437.962770,2960.823768,-4219.173869,4903.011187
20437.963103,4515.256246,-8290.306550,2374.896044
20437.963437,0.000000,-7179.997637,1838.629195
20437.963770,2294.638420,-8882.471304,-1915.238745
20437.964104,592.164754,-8364.327145,-4903.011187
20437.964437,-2812.782580,-11399.171507,-5362.668486
20437.964771,-3552.988522,-12509.480420,-5515.887586
20437.965104,-1554.432478,-12953.603985,-1225.752797
20437.965438,2664.741391,-9252.574275,3677.258390
20437.965771,6513.812290,-9252.574275,8273.831378
20437.966105,6735.874072,-5033.400406,4903.011187
20437.966438,6439.791695,-8290.306550,6665.030833
20437.966772,5551.544565,-7105.977043,1762.019645
20437.967105,2368.659014,-7179.997637,306.438199
20437.967439,2146.597232,-9474.636058,-2298.286494
20437.967772,-3182.885551,-11399.171507,-5898.935335
20437.968106,-6513.812290,-13101.645173,-7584.345430
20437.968439,-6069.688724,-13323.706956,-6052.154434
20437.968773,-1332.370696,-11251.130318,-1302.362347
20437.969106,2368.659014,-5403.503377,6741.640382
20437.969440,8216.285956,-7105.977043,7584.345430
20437.969773,3552.988522,-3627.009116,3677.258390
20437.970107,5921.647536,-8882.471304,6665.030833
20437.970440,5551.544565,-8882.471304,2681.334243
20437.970774,3923.091493,-7920.203579,229.828649
20437.971107,-2812.782580,-11769.274478,-4903.011187
20437.971441,-8586.388927,-13767.830521,-8044.002729
20437.971774,-8364.327145,-13915.871710,-7431.126331
20437.972108,-5625.565159,-9252.574275,-1991.848295
20437.972441,-592.164754,-7698.141797,2221.676944
20437.972775,444.123565,-7105.977043,5132.839837
20437.973108,592.164754,-6883.915261,5898.935335
20437.973442,5847.626942,-5329.482782,7277.907231
20437.973775,4885.359217,-5403.503377,4903.011187
20437.974109,1184.329507,-8364.327145,5515.887586
20437.974442,-74.020594,-10658.965565,-2911.162892
20437.974776,-8586.388927,-13101.645173,-7277.907231
20437.975109,-6661.853478,-14804.118840,-6818.249932
20437.975443,-3627.009116,-10807.006753,-3677.258390
20437.975776,1554.432478,-8290.306550,1608.800546
20437.976110,3182.885551,-7105.977043,3753.867940
20437.976443,1702.473667,-7254.018232,1455.581446
20437.976777,0.000000,-5995.668130,2451.505594
20437.977110,4663.297435,-8586.388927,2987.772442
20437.977444,4663.297435,-5551.544565,1225.752797
20437.977777,0.000000,-10436.903782,1838.629195
20437.978111,-1258.350101,-11843.295072,-2681.334243
20437.978444,-2442.679609,-9622.677246,-1685.410096
20437.978778,370.102971,-8660.409521,612.876398
20437.979111,3627.009116,-7179.997637,1378.971896
20437.979445,0.000000,-7772.162391,0.000000
20437.979778,-4737.318029,-6587.832884,-1225.752797
20437.980112,2294.638420,-9474.636058,-3447.429741
20437.980445,2368.659014,-5995.668130,-3064.381992
20437.980779,2368.659014,-11621.233289,1915.238745
20437.981112,-74.020594,-9548.656652,0.000000
20437.981446,-592.164754,-12583.501014,-689.485948
20437.981779,0.000000,-11029.068536,1608.800546
20437.982113,5181.441594,-7772.162391,4519.963438
20437.982446,6735.874072,-6809.894666,7431.126331
20437.982780,5329.482782,-6957.935855,8503.660028
20437.983113,2294.638420,-7698.141797,-1149.143247
20437.983447,0.000000,-8956.491898,-459.657299
20437.983780,-74.020594,-9474.636058,-4060.306139
20437.984114,-3256.906145,-9548.656652,-3677.258390
20437.984447,-5477.523971,-11473.192101,-6358.592633
20437.984781,-7031.956449,-13471.748144,-5745.716235
20437.985114,-3627.009116,-10881.027347,0.000000
20437.985448,2590.720797,-7550.100608,6052.154434
20437.985781,7031.956449,-7105.977043,8503.660028
20437.986115,2368.659014,-4811.338623,6128.763984
20437.986448,1184.329507,-5995.668130,5669.106685
20437.986782,2886.803174,-6661.853478,1608.800546
20437.987115,1184.329507,-7772.162391,153.219100
20437.987449,-3849.070898,-10807.006753,-4366.744339
20437.987782,-8586.388927,-13323.706956,-7890.783629
20437.988116,-9030.512492,-13841.851115,-8120.612279
20437.988449,-5699.585753,-11769.274478,-3140.991542
20437.988783,1110.308913,-8734.430116,2987.772442
20437.989116,3108.864956,-7105.977043,7507.735880
20437.989450,3775.050304,-5847.626942,6971.469032
20437.989783,2442.679609,-7105.977043,5286.058936
20437.990117,5255.462188,-7698.141797,4826.401637
20437.990450,2368.659014,-6587.832884,4443.353888
20437.990784,1702.473667,-10066.800811,-1915.238745
20437.991117,-4737.318029,-10732.986159,-7048.078582
20437.991451,-8882.471304,-12213.398043,-8273.831378
20437.991784,-6735.874072,-11991.336260,-5975.544884
20437.992118,-1776.494261,-8438.347739,-1378.971896
20437.992451,-1184.329507,-8882.471304,2374.896044
20437.992785,1998.556043,-6143.709319,2834.553343
20437.993118,2368.659014,-5403.503377,3217.601092
20437.993452,8216.285956,-6513.812290,7277.907231
20437.993785,8216.285956,-7105.977043,2681.334243
20437.994119,1184.329507,-10436.903782,2145.067394
20437.994452,-74.020594,-13323.706956,-689.485948
20437.994786,-6217.729913,-12213.398043,-4903.011187
20437.995119,-2368.659014,-11029.068536,-3370.820191
20437.995453,296.082377,-8438.347739,76.609550
20437.995786,2442.679609,-7031.956449,2451.505594
20437.996120,1184.329507,-6587.832884,2451.505594
20437.996453,3478.967927,-8290.306550,-689.485948
20437.996787,1628.453072,-5403.503377,-2451.505594
20437.997120,4145.153275,-10288.862594,3600.648841
20437.997454,4367.215058,-8290.306550,-76.609550
20437.997787,0.000000,-12361.439231,-459.657299
20437.998121,-666.185348,-12657.521608,-229.828649
20437.998454,370.102971,-9252.574275,842.705048
20437.998788,3552.988522,-8364.327145,4213.525239
20437.999121,4663.297435,-9474.636058,4519.963438
20437.999455,-74.020594,-7031.956449,-2451.505594
20437.999788,-1776.494261,-8808.450710,-76.609550
20438.000122,3478.967927,-8290.306550,-1302.362347
20438.000455,2294.638420,-8290.306550,-1608.800546
20438.000789,-296.082377,-11843.295072,-1302.362347
20438.001122,-5181.441594,-14137.933492,-3294.210641
20438.001456,-6439.791695,-12065.356855,-2757.943793
20438.001789,-962.267725,-9030.512492,2221.676944
20438.002123,5847.626942,-7476.080014,9422.974625
20438.002456,4811.338623,-3478.967927,8197.221829
20438.002790,2812.782580,-5033.400406,4903.011187
20438.003123,1702.473667,-7402.059420,1608.800546
20438.003457,0.000000,-6587.832884,-1838.629195
20438.003790,-2368.659014,-9548.656652,-2834.553343
20438.004124,-4811.338623,-11547.212695,-8656.879127
20438.004457,-10658.965565,-11917.315666,-8580.269578
20438.004791,-7179.997637,-13471.748144,-6281.983084
20438.005124,-1258.350101,-11843.295072,1149.143247
20438.005457,3997.112087,-7105.977043,7201.297681
20438.005790,4293.194464,-7254.018232,8733.488677
20438.006123,3849.070898,-6735.874072,7584.345430
20438.006457,3552.988522,-4663.297435,5209.449386
20438.006790,4367.215058,-3627.009116,2451.505594
20438.007123,4811.338623,-9474.636058,2374.896044
20438.007456,-2442.679609,-14211.954086,-3753.867940
20438.007789,-11843.295072,-12509.480420,-9806.022374
20438.008123,-11843.295072,-13101.645173,-8580.269578
20438.008456,-3627.009116,-10362.883188,-6818.249932
20438.008789,-1184.329507,-7624.121203,2451.505594
20438.009122,2442.679609,-6143.709319,6052.154434
20438.009455,4071.132681,-7105.977043,8350.440928
20438.009788,2960.823768,-6291.750507,7890.783629
20438.010122,7031.956449,-4811.338623,3064.381992
20438.010455,5329.482782,-7179.997637,4136.915689
20438.010788,4663.297435,-11843.295072,-76.609550
20438.011121,-2738.761985,-12361.439231,-5132.839837
20438.011454,-6291.750507,-12953.603985,-8733.488677
20438.011787,-3182.885551,-11843.295072,-5132.839837
20438.012121,444.123565,-10362.883188,0.000000
20438.012454,1332.370696,-6587.832884,766.095498
20438.012787,1998.556043,-10658.965565,2374.896044
20438.013120,2368.659014,-4811.338623,2451.505594
20438.013453,5921.647536,-5403.503377,7507.735880
20438.013787,7624.121203,-6365.771101,5132.839837
20438.014120,1776.494261,-9326.594869,689.485948
20438.014453,-2812.782580,-12065.356855,-2068.457845
20438.014786,-4071.132681,-11399.171507,-4213.525239
20438.015119,518.144159,-9178.553681,-1302.362347
20438.015452,2664.741391,-7179.997637,1532.190996
20438.015786,4663.297435,-6513.812290,-995.924147
20438.016119,1184.329507,-8956.491898,1149.143247
20438.016452,2886.803174,-11251.130318,-1302.362347
20438.016785,2368.659014,-7179.997637,0.000000
20438.017118,4737.318029,-9474.636058,1149.143247
20438.017452,2812.782580,-11843.295072,229.828649
20438.017785,-1776.494261,-11991.336260,0.000000
20438.018118,-1258.350101,-12287.418637,1149.143247
20438.018451,2368.659014,-7476.080014,4903.011187
20438.018784,4663.297435,-4885.359217,4290.134789
20438.019117,3701.029710,-5699.585753,3830.477490
20438.019451,-888.247130,-7402.059420,-76.609550
20438.019784,-518.144159,-7254.018232,-2068.457845
20438.020117,0.000000,-7772.162391,-2451.505594
20438.020450,-222.061783,-10066.800811,-3217.601092
20438.020783,-7698.141797,-10732.986159,-4903.011187
20438.021116,-7179.997637,-15396.283594,-4979.620737
20438.021450,-3923.091493,-11695.253884,-1608.800546
20438.021783,0.000000,-7179.997637,4443.353888
20438.022116,5329.482782,-7105.977043,8580.269578
20438.022449,4589.276840,-6809.894666,8503.660028
20438.022782,1702.473667,-6513.812290,3830.477490
20438.023116,1036.288319,-9030.512492,2374.896044
20438.023449,1110.308913,-7105.977043,-3064.381992
20438.023782,-2294.638420,-10658.965565,-1302.362347
20438.024115,-3034.844362,-11251.130318,-6205.373534
20438.024448,-8808.450710,-12805.562797,-7890.783629
20438.024781,-7105.977043,-13175.665768,-2528.115143
20438.025115,-1850.514855,-10584.944971,2145.067394
20438.025448,1924.535449,-8068.244768,7048.078582
20438.025781,2886.803174,-5625.565159,6894.859482
20438.026114,2294.638420,-7698.141797,5439.278036
20438.026447,4663.297435,-1850.514855,612.876398
20438.026781,4367.215058,-8290.306550,4213.525239
20438.027114,518.144159,-7698.141797,-2221.676944
20438.027447,-7698.141797,-11473.192101,-6435.202183
20438.027780,-8660.409521,-15100.201217,-8963.317327
20438.028113,-6661.853478,-10955.047942,-6128.763984
20438.028446,-1702.473667,-9400.615463,-536.266849
20438.028780,2738.761985,-7105.977043,3753.867940
20438.029113,3108.864956,-5699.585753,5515.887586
20438.029446,4145.153275,-6587.832884,4903.011187
20438.029779,8068.244768,-8882.471304,6665.030833
20438.030112,7476.080014,-6661.853478,2451.505594
20438.030445,3552.988522,-9548.656652,1225.752797
20438.030779,1702.473667,-12731.542202,-2528.115143
20438.031112,-2960.823768,-12805.562797,-5209.449386
20438.031445,-2442.679609,-11399.171507,-4903.011187
20438.031778,-148.041188,-10288.862594,-1532.190996
20438.032111,2072.576638,-5995.668130,459.657299
20438.032445,2368.659014,-7624.121203,2681.334243
20438.032778,1776.494261,-6883.915261,1225.752797
20438.033111,5181.441594,-7105.977043,2987.772442
20438.033444,8216.285956,-9178.553681,6665.030833
20438.033777,6439.791695,-10658.965565,2374.896044
20438.034110,-1998.556043,-10732.986159,-3064.381992
20438.034444,-1480.411884,-13545.768739,-842.705048
20438.034777,-74.020594,-12435.459826,-1915.238745
20438.035110,2368.659014,-9252.574275,1225.752797
20438.035443,1924.535449,-7698.141797,1378.971896
20438.035776,592.164754,-8512.368333,1378.971896
20438.036110,0.000000,-7624.121203,-306.438199
20438.036443,518.144159,-8882.471304,-689.485948
20438.036776,1184.329507,-7772.162391,0.000000
20438.037109,-962.267725,-8364.327145,-2451.505594
20438.037442,-1184.329507,-12435.459826,-76.609550
20438.037775,-1998.556043,-11547.212695,-689.485948
20438.038109,-74.020594,-11103.089130,2834.553343
20438.038442,3182.885551,-8882.471304,4826.401637
20438.038775,0.000000,-8068.244768,4903.011187
20438.039108,148.041188,-7402.059420,1915.238745
20438.039441,-2960.823768,-8660.409521,306.438199
20438.039775,-74.020594,-7698.141797,-76.609550
20438.040108,0.000000,-7476.080014,1225.752797
20438.040441,-2442.679609,-11843.295072,-4366.744339
20438.040774,-8882.471304,-10732.986159,-5822.325785
20438.041107,-10066.800811,-13101.645173,-5132.839837
20438.041440,-3182.885551,-8956.491898,76.609550
20438.041774,1850.514855,-7105.977043,6971.469032
20438.042107,3182.885551,-6513.812290,9116.536426
20438.042440,3849.070898,-5255.462188,7584.345430
20438.042773,1702.473667,-6809.894666,2987.772442
20438.043106,3552.988522,-7846.182985,3600.648841
20438.043439,-2072.576638,-6587.832884,-4596.572988
20438.043773,-3552.988522,-12509.480420,-3907.087040
20438.044106,-6439.791695,-12731.542202,-8273.831378
20438.044439,-8586.388927,-13101.645173,-7201.297681
20438.044772,-1554.432478,-11325.150913,-2451.505594
20438.045105,3108.864956,-9770.718434,4290.134789
20438.045439,6439.791695,-7476.080014,7507.735880
20438.045772,4737.318029,-4811.338623,4903.011187
20438.046105,9104.533087,-8882.471304,6052.154434
20438.046438,7254.018232,-4811.338623,4903.011187
20438.046771,4737.318029,-7772.162391,3983.696590
20438.047104,1776.494261,-11769.274478,-1225.752797
20438.047438,-6735.874072,-12805.562797,-7660.954980
20438.047771,-6439.791695,-14063.912898,-8656.879127
20438.048104,-3552.988522,-9992.780217,-3830.477490
20438.048437,1998.556043,-8882.471304,536.266849
20438.048770,2368.659014,-5403.503377,2451.505594
20438.049104,4441.235652,-6661.853478,4366.744339
20438.049437,5477.523971,-6735.874072,5669.106685
20438.049770,7105.977043,-6587.832884,4826.401637
20438.050103,8216.285956,-9474.636058,4213.525239
20438.050436,2072.576638,-8364.327145,0.000000
20438.050769,-1480.411884,-13619.789333,-689.485948
20438.051103,-3034.844362,-10510.924376,-7048.078582
20438.051436,-3552.988522,-11325.150913,-3294.210641
20438.051769,0.000000,-9548.656652,2374.896044
20438.052102,-592.164754,-7328.038826,1608.800546
20438.052435,-74.020594,-7772.162391,1149.143247
20438.052768,-592.164754,-7105.977043,919.314598
20438.053102,2738.761985,-6217.729913,1149.143247
20438.053435,2294.638420,-6587.832884,2451.505594
20438.053768,1702.473667,-10658.965565,1149.143247
20438.054101,-5107.421000,-11251.130318,-3753.867940
20438.054434,-6513.812290,-11473.192101,-1378.971896
20438.054768,-1258.350101,-10658.965565,-76.609550
20438.055101,1406.391290,-8290.306550,3217.601092
20438.055434,0.000000,-7550.100608,3370.820191
20438.055767,-2294.638420,-8660.409521,1149.143247
20438.056100,-3552.988522,-5995.668130,0.000000
20438.056433,222.061783,-6291.750507,0.000000
20438.056767,2294.638420,-10658.965565,-1302.362347
20438.057100,-2072.576638,-8956.491898,-1225.752797
20438.057433,-4145.153275,-12065.356855,1072.533697
20438.057766,-3256.906145,-9548.656652,-459.657299
20438.058099,-592.164754,-9400.615463,3600.648841
20438.058433,3182.885551,-7105.977043,4903.011187
20438.058766,2812.782580,-7179.997637,4596.572988
20438.059099,4663.297435,-7698.141797,4060.306139
20438.059432,0.000000,-7772.162391,1532.190996
20438.059765,2294.638420,-7105.977043,-2528.115143
20438.060098,-2072.576638,-9548.656652,-3064.381992
20438.060432,-2442.679609,-12435.459826,-6205.373534
20438.060765,-5329.482782,-12213.398043,-7354.516781
20438.061098,-1850.514855,-11991.336260,-3294.210641
20438.061431,4515.256246,-7846.182985,4060.306139
20438.061764,7031.956449,-6957.935855,7277.907231
20438.062097,6735.874072,-6809.894666,6205.373534
20438.062431,8512.368333,-10658.965565,6052.154434
20438.062764,4959.379811,-6883.915261,2451.505594
20438.063097,4737.318029,-7772.162391,3524.039291
20438.063430,2294.638420,-8882.471304,-4136.915689
20438.063763,-2368.659014,-11917.315666,-6128.763984
20438.064097,-4219.173869,-12879.583391,-6281.983084
20438.064430,-3182.885551,-12805.562797,-3753.867940
20438.064763,-1850.514855,-10436.903782,-612.876398
20438.065096,1406.391290,-6513.812290,1915.238745
20438.065429,3552.988522,-7698.141797,6358.592633
20438.065762,4145.153275,-5181.441594,6052.154434
20438.066096,4737.318029,-6661.853478,4826.401637
20438.066429,5921.647536,-6365.771101,4443.353888
20438.066762,2294.638420,-9474.636058,-76.609550
20438.067095,-4737.318029,-11917.315666,-4903.011187
20438.067428,-7179.997637,-15988.448347,-7431.126331
20438.067762,-9474.636058,-11917.315666,-6741.640382
20438.068095,-4737.318029,-9548.656652,-1838.629195
20438.068428,-74.020594,-7698.141797,919.314598
20438.068761,962.267725,-7994.224174,3983.696590
20438.069094,740.205942,-6439.791695,4519.963438
20438.069427,2664.741391,-6957.935855,4979.620737
20438.069761,1776.494261,-4811.338623,2451.505594
20438.070094,0.000000,-10658.965565,3294.210641
20438.070427,-1258.350101,-11251.130318,-1302.362347
20438.070760,-7105.977043,-10732.986159,-612.876398
20438.071093,-1258.350101,-13027.624579,-76.609550
20438.071426,-3997.112087,-7772.162391,0.000000
20438.071760,-1702.473667,-9918.759623,-76.609550
20438.072093,-1258.350101,-7698.141797,76.609550
20438.072426,-1406.391290,-8734.430116,-612.876398
20438.072759,0.000000,-7772.162391,612.876398
20438.073092,5551.544565,-9474.636058,1762.019645
20438.073426,592.164754,-9548.656652,1225.752797
20438.073759,-2368.659014,-9548.656652,2374.896044
20438.074092,-1850.514855,-12731.542202,-2528.115143
20438.074425,-1184.329507,-9548.656652,1838.629195
20438.074758,2812.782580,-7920.203579,3600.648841
20438.075091,4885.359217,-6217.729913,4749.792088
20438.075425,3330.926739,-7698.141797,2757.943793
20438.075758,2294.638420,-9474.636058,-76.609550
20438.076091,1702.473667,-9474.636058,-2528.115143
20438.076424,0.000000,-8956.491898,-2757.943793
20438.076757,-370.102971,-13027.624579,-3140.991542
20438.077091,-3330.926739,-9696.697840,-7354.516781
20438.077424,-2368.659014,-12361.439231,1149.143247
20438.077757,1924.535449,-8660.409521,3677.258390
20438.078090,5921.647536,-6809.894666,6741.640382
20438.078423,7105.977043,-6883.915261,8503.660028
20438.078756,5255.462188,-7105.977043,6052.154434
20438.079090,3775.050304,-7105.977043,919.314598
20438.079423,3330.926739,-7846.182985,-995.924147
20438.079756,2368.659014,-9400.615463,-2987.772442
20438.080089,-1776.494261,-9548.656652,-6128.763984
20438.080422,-7698.141797,-12509.480420,-7354.516781
20438.080755,-4811.338623,-15396.283594,-6818.249932
20438.081089,-4145.153275,-10732.986159,-3677.258390
20438.081422,3552.988522,-7772.162391,7124.688131
20438.081755,5551.544565,-5033.400406,8503.660028
20438.082088,4737.318029,-5403.503377,8963.317327
20438.082421,4663.297435,-5403.503377,5592.497135
20438.082755,3552.988522,-7031.956449,3294.210641
20438.083088,3256.906145,-7920.203579,1302.362347
20438.083421,-3627.009116,-11251.130318,-4903.011187
20438.083754,-5403.503377,-14211.954086,-8963.317327
20438.084087,-10066.800811,-12509.480420,-7814.174080
20438.084420,-6513.812290,-11029.068536,-2451.505594
20438.084754,0.000000,-10436.903782,2604.724693
20438.085087,1036.288319,-7624.121203,5132.839837
20438.085420,2812.782580,-6365.771101,5439.278036
20438.085753,2738.761985,-5921.647536,5286.058936
20438.086086,5255.462188,-8290.306550,4826.401637
20438.086420,2812.782580,-5995.668130,3677.258390
20438.086753,-1258.350101,-11251.130318,-2528.115143
20438.087086,-8290.306550,-10436.903782,-6128.763984
20438.087419,-8660.409521,-15248.242405,-6205.373534
20438.087752,-5403.503377,-11843.295072,-4366.744339
20438.088085,-3034.844362,-9178.553681,-383.047749
20438.088419,-1184.329507,-7624.121203,1838.629195
20438.088752,-518.144159,-7105.977043,2911.162892
20438.089085,1702.473667,-7031.956449,4366.744339
20438.089418,6291.750507,-7994.224174,6665.030833
20438.089751,2368.659014,-5995.668130,3677.258390
20438.090084,0.000000,-9844.739029,1915.238745
20438.090418,-3034.844362,-13027.624579,-4213.525239
20438.090751,-5921.647536,-10140.821405,-4903.011187
20438.091084,-1554.432478,-9474.636058,-2145.067394
20438.091417,296.082377,-9770.718434,1762.019645
20438.091750,1184.329507,-7476.080014,2145.067394
20438.092084,-1480.411884,-8068.244768,1225.752797
20438.092417,2294.638420,-7105.977043,-1608.800546
20438.092750,1184.329507,-6587.832884,2604.724693
20438.093083,4663.297435,-9474.636058,1149.143247
20438.093416,-370.102971,-7179.997637,-2451.505594
20438.093749,-3552.988522,-11325.150913,-2451.505594
20438.094083,-74.020594,-15396.283594,-1302.362347
20438.094416,2960.823768,-8956.491898,3830.477490
20438.094749,7328.038826,-7105.977043,6052.154434
20438.095082,7698.141797,-7328.038826,5898.935335
20438.095415,4367.215058,-8586.388927,306.438199
20438.095749,2812.782580,-9252.574275,-842.705048
20438.096082,4737.318029,-8068.244768,-689.485948
20438.096415,4441.235652,-9844.739029,-1838.629195
20438.096748,1184.329507,-10955.047942,-2451.505594
20438.097081,-1554.432478,-13027.624579,-4979.620737
20438.097414,0.000000,-10140.821405,-2451.505594
20438.097748,5699.585753,-11843.295072,4826.401637
20438.098081,6957.935855,-5551.544565,5515.887586
20438.098414,7105.977043,-5403.503377,7660.954980
20438.098747,5921.647536,-6957.935855,3983.696590
20438.099080,8216.285956,-8734.430116,2681.334243
20438.099413,5181.441594,-9548.656652,229.828649
20438.099747,4071.132681,-11251.130318,-3140.991542
20438.100080,-1258.350101,-11547.212695,-8427.050478
20438.100413,-5921.647536,-15322.262999,-6818.249932
20438.100746,-4811.338623,-15100.201217,-4979.620737
20438.101079,-962.267725,-7179.997637,0.000000
20438.101413,4071.132681,-9178.553681,6665.030833
20438.101746,5181.441594,-5403.503377,9346.365076
20438.102079,1776.494261,-6735.874072,6741.640382
20438.102412,3256.906145,-6069.688724,4443.353888
20438.102745,296.082377,-6587.832884,2451.505594
20438.103078,0.000000,-7179.997637,0.000000
20438.103412,-4811.338623,-13619.789333,-4979.620737
20438.103745,-9844.739029,-12731.542202,-8886.707777
20438.104078,-13027.624579,-11917.315666,-3677.258390
20438.104411,-6809.894666,-10955.047942,-3370.820191
20438.104744,-4811.338623,-9030.512492,0.000000
20438.105078,-4737.318029,-8142.265362,3217.601092
20438.105411,-1480.411884,-5773.606348,4979.620737
20438.105744,-74.020594,-5625.565159,4826.401637
20438.106077,3108.864956,-6365.771101,7277.907231
20438.106410,-1554.432478,-7105.977043,2068.457845
20438.106743,-7994.224174,-9548.656652,-306.438199
20438.107077,-8364.327145,-11547.212695,-5745.716235
20438.107410,-8956.491898,-14211.954086,-6205.373534
20438.107743,-7105.977043,-8956.491898,-2451.505594
20438.108076,-4737.318029,-8660.409521,1149.143247
20438.108409,148.041188,-6957.935855,1225.752797
20438.108743,-2368.659014,-8956.491898,2451.505594
20438.109076,4071.132681,-5921.647536,0.000000
20438.109409,2664.741391,-9474.636058,5439.278036
20438.109742,4663.297435,-10658.965565,3600.648841
20438.110075,0.000000,-9548.656652,0.000000
20438.110408,-1332.370696,-11251.130318,-689.485948
20438.110742,2812.782580,-7328.038826,306.438199
20438.111075,2812.782580,-9918.759623,2681.334243
20438.111408,5403.503377,-7031.956449,2298.286494
20438.111741,0.000000,-10140.821405,0.000000
20438.112074,1702.473667,-8882.471304,-3600.648841
20438.112407,3330.926739,-9030.512492,-1991.848295
20438.112741,4441.235652,-8438.347739,-995.924147
20438.113074,7031.956449,-8586.388927,306.438199
20438.113407,0.000000,-10732.986159,-1225.752797
20438.113740,3478.967927,-11251.130318,-1378.971896
20438.114073,0.000000,-9548.656652,2451.505594
20438.114407,9400.615463,-8882.471304,4213.525239
20438.114740,9400.615463,-7105.977043,6358.592633
20438.115073,7105.977043,-5403.503377,4903.011187
20438.115406,6661.853478,-7994.224174,919.314598
20438.115739,4071.132681,-10584.944971,-1608.800546
20438.116072,5033.400406,-9474.636058,-2987.772442
20438.116406,-74.020594,-13027.624579,-4060.306139
20438.116739,-2442.679609,-13471.748144,-8503.660028
20438.117072,-5625.565159,-13989.892304,-4903.011187
20438.117405,-74.020594,-13619.789333,1762.019645
20438.117738,4811.338623,-5107.421000,6511.811733
20438.118072,4737.318029,-6957.935855,10801.946522
20438.118405,4663.297435,-5995.668130,7890.783629
20438.118738,888.247130,-5181.441594,3753.867940
20438.119071,1702.473667,-5625.565159,612.876398
20438.119404,-74.020594,-10066.800811,-1378.971896
20438.119737,-3627.009116,-9548.656652,-8886.707777
20438.120071,-11251.130318,-14804.118840,-7431.126331
20438.120404,-9548.656652,-16284.530724,-7431.126331
20438.120737,-9548.656652,-12065.356855,-4903.011187
20438.121070,-2738.761985,-10658.965565,2068.457845
20438.121403,0.000000,-6661.853478,7737.564530
20438.121737,518.144159,-5329.482782,8503.660028
20438.122070,222.061783,-5625.565159,7201.297681
20438.122403,222.061783,-4219.173869,5975.544884
20438.122736,0.000000,-4219.173869,1225.752797
20438.123069,-3552.988522,-10066.800811,-76.609550
20438.123402,-10140.821405,-11917.315666,-7967.393179
20438.123736,-14211.954086,-10732.986159,-9193.145976
20438.124069,-7179.997637,-14211.954086,-4979.620737
20438.124402,-3552.988522,-9696.697840,-536.266849
20438.124735,-2146.597232,-8808.450710,2145.067394
20438.125068,518.144159,-7105.977043,3294.210641
20438.125402,1184.329507,-5847.626942,4060.306139
20438.125735,4441.235652,-5403.503377,5209.449386
20438.126068,6069.688724,-6957.935855,4903.011187
20438.126401,2590.720797,-9844.739029,2528.115143
20438.126734,-888.247130,-11473.192101,-459.657299
20438.127067,-1850.514855,-12731.542202,-2528.115143
20438.127401,-962.267725,-10066.800811,-4290.134789
20438.127734,1776.494261,-8734.430116,2374.896044
20438.128067,3478.967927,-8290.306550,1149.143247
20438.128400,3256.906145,-7772.162391,1225.752797
20438.128733,2664.741391,-8956.491898,0.000000
20438.129067,5921.647536,-7402.059420,383.047749
20438.129400,6439.791695,-9474.636058,1608.800546
20438.129733,5255.462188,-8882.471304,-76.609550
20438.130066,1776.494261,-11991.336260,-1378.971896
20438.130399,0.000000,-10732.986159,612.876398
20438.130732,7031.956449,-10658.965565,2987.772442
20438.131066,6809.894666,-8290.306550,4519.963438
20438.131399,5847.626942,-7994.224174,3217.601092
20438.131732,4367.215058,-7105.977043,-383.047749
20438.132065,2664.741391,-10658.965565,-76.609550
20438.132398,5033.400406,-5995.668130,-1685.410096
20438.132732,2294.638420,-11547.212695,-2068.457845
20438.133065,-814.226536,-10658.965565,-4673.182538
20438.133398,-2442.679609,-15988.448347,-2528.115143
20438.133731,-1850.514855,-8512.368333,-3677.258390
20438.134064,4737.318029,-10658.965565,6052.154434
20438.134397,7476.080014,-8290.306550,9729.412825
20438.134731,4737.318029,-3923.091493,6128.763984
20438.135064,2590.720797,-7402.059420,3064.381992
20438.135397,1406.391290,-7846.182985,0.000000
20438.135730,1110.308913,-7772.162391,-1915.238745
20438.136063,-1184.329507,-10140.821405,-2451.505594
20438.136397,-3627.009116,-10510.924376,-8656.879127
20438.136730,-9178.553681,-10732.986159,-9806.022374
20438.137063,-7698.141797,-13841.851115,-2528.115143
20438.137396,-1554.432478,-9474.636058,842.705048
20438.137729,1924.535449,-8882.471304,7277.907231
20438.138062,1480.411884,-6587.832884,7507.735880
20438.138396,2220.617826,-5921.647536,6894.859482
20438.138729,2368.659014,-5255.462188,4979.620737
20438.139062,5847.626942,-7105.977043,4826.401637
20438.139395,1702.473667,-4811.338623,-2451.505594
20438.139728,-5699.585753,-14211.954086,-4979.620737
20438.140061,-9844.739029,-13027.624579,-10495.508323
20438.140395,-12435.459826,-14656.077652,-9806.022374
20438.140728,-4293.194464,-11251.130318,-3140.991542
20438.141061,-1036.288319,-9548.656652,2068.457845
20438.141394,1776.494261,-7179.997637,6281.983084
20438.141727,4367.215058,-5625.565159,7890.783629
20438.142061,3478.967927,-7179.997637,8963.317327
20438.142394,5921.647536,-4293.194464,5975.544884
20438.142727,2146.597232,-7698.141797,2221.676944
20438.143060,-1332.370696,-8512.368333,-2145.067394
20438.143393,-8290.306550,-10732.986159,-7354.516781
20438.143726,-8290.306550,-13101.645173,-6358.592633
20438.144060,-3775.050304,-9918.759623,-6358.592633
20438.144393,-3775.050304,-8660.409521,0.000000
20438.144726,-74.020594,-9326.594869,842.705048
20438.145059,-666.185348,-8290.306550,842.705048
20438.145392,3849.070898,-7179.997637,4213.525239
20438.145726,7254.018232,-5625.565159,6358.592633
20438.146059,6143.709319,-8586.388927,5132.839837
20438.146392,1184.329507,-11621.233289,2451.505594
20438.146725,-1776.494261,-11917.315666,919.314598
20438.147058,-1258.350101,-9622.677246,-4596.572988
20438.147391,1184.329507,-9548.656652,0.000000
20438.147725,2368.659014,-9178.553681,1149.143247
20438.148058,888.247130,-8068.244768,0.000000
20438.148391,1702.473667,-10362.883188,-995.924147
20438.148724,1628.453072,-9104.533087,-689.485948
20438.149057,3552.988522,-9252.574275,153.219100
20438.149391,4663.297435,-9178.553681,1762.019645
20438.149724,1184.329507,-10584.944971,2681.334243
20438.150057,-74.020594,-8364.327145,-2451.505594
20438.150390,2664.741391,-10658.965565,4826.401637
20438.150723,4663.297435,-11251.130318,6052.154434
20438.151056,5847.626942,-5921.647536,4826.401637
20438.151390,1110.308913,-9474.636058,1302.362347
20438.151723,814.226536,-6365.771101,-1915.238745
20438.152056,-222.061783,-8586.388927,-2681.334243
20438.152389,592.164754,-5995.668130,-3524.039291
20438.152722,1554.432478,-11843.295072,-2528.115143
20438.153056,-7105.977043,-11325.150913,-7354.516781
20438.153389,-3552.988522,-15396.283594,-689.485948
20438.153722,-2442.679609,-9400.615463,0.000000
20438.154055,3552.988522,-6069.688724,5515.887586
20438.154388,5477.523971,-5699.585753,9499.584175
20438.154721,5255.462188,-6291.750507,6818.249932
20438.155055,2368.659014,-6735.874072,2834.553343
20438.155388,0.000000,-9844.739029,306.438199
20438.155721,-74.020594,-6217.729913,-6435.202183
20438.156054,-5921.647536,-12435.459826,-4060.306139
20438.156387,-3849.070898,-12139.377449,-4979.620737
20438.156721,-8956.491898,-13175.665768,-7354.516781
20438.157054,-5329.482782,-8956.491898,-2145.067394
20438.157387,296.082377,-8956.491898,5286.058936
20438.157720,2738.761985,-7254.018232,7354.516781
20438.158053,2738.761985,-5255.462188,6435.202183
20438.158386,1184.329507,-8142.265362,5515.887586
20438.158720,4663.297435,-4219.173869,2451.505594
20438.159053,3108.864956,-7624.121203,2068.457845
20438.159386,-1184.329507,-10584.944971,-2145.067394
20438.159719,-8364.327145,-12731.542202,-8350.440928
20438.160052,-11843.295072,-14285.974681,-9193.145976
20438.160386,-5107.421000,-10955.047942,-5898.935335
20438.160719,-2368.659014,-7179.997637,0.000000
20438.161052,2664.741391,-8068.244768,6665.030833
20438.161385,3775.050304,-7105.977043,6665.030833
20438.161718,3552.988522,-5107.421000,7507.735880
20438.162051,6291.750507,-5477.523971,5132.839837
20438.162385,4811.338623,-8438.347739,3064.381992
20438.162718,1628.453072,-9104.533087,-995.924147
20438.163051,-2812.782580,-13915.871710,-3753.867940
20438.163384,-3627.009116,-12731.542202,-7507.735880
20438.163717,-2960.823768,-13619.789333,-919.314598
20438.164051,1702.473667,-11547.212695,-76.609550
20438.164384,962.267725,-8142.265362,1225.752797
20438.164717,1184.329507,-8290.306550,2374.896044
20438.165050,1924.535449,-5995.668130,1302.362347
20438.165383,5181.441594,-5995.668130,3983.696590
20438.165716,7105.977043,-6735.874072,4826.401637
20438.166050,3182.885551,-9474.636058,1149.143247
20438.166383,-1258.350101,-10140.821405,-4903.011187
20438.166716,-3256.906145,-13619.789333,-1915.238745
20438.167049,-666.185348,-11843.295072,-689.485948
20438.167382,2146.597232,-7476.080014,0.000000
20438.167715,3478.967927,-8290.306550,1149.143247
20438.168049,1332.370696,-8142.265362,842.705048
20438.168382,740.205942,-8512.368333,383.047749
20438.168715,1332.370696,-7624.121203,-919.314598
20438.169048,592.164754,-9548.656652,-2068.457845
20438.169381,0.000000,-9548.656652,0.000000
20438.169715,-1924.535449,-13619.789333,-689.485948
20438.170048,-3404.947333,-9548.656652,-1838.629195
20438.170381,0.000000,-8660.409521,3677.258390
20438.170714,4663.297435,-8882.471304,4826.401637
20438.171047,3256.906145,-6809.894666,5745.716235
20438.171380,814.226536,-7772.162391,1378.971896
20438.171714,1110.308913,-6883.915261,-919.314598
20438.172047,-1184.329507,-7772.162391,-2451.505594
20438.172380,-1184.329507,-9326.594869,-2681.334243
20438.172713,-6513.812290,-11991.336260,-6052.154434
20438.173046,-7328.038826,-11991.336260,-7431.126331
20438.173380,-2442.679609,-13619.789333,-76.609550
20438.173713,3478.967927,-10658.965565,5439.278036
20438.174046,6439.791695,-3330.926739,7354.516781
20438.174379,6513.812290,-7105.977043,11031.775171
20438.174712,8216.285956,-7105.977043,6052.154434
20438.175045,4737.318029,-7179.997637,4903.011187
20438.175379,3552.988522,-9474.636058,536.266849
20438.175712,74.020594,-9252.574275,-4519.963438
20438.176045,-4811.338623,-11843.295072,-7277.907231
20438.176378,-5921.647536,-11843.295072,-8197.221829
20438.176711,-7105.977043,-12509.480420,-5286.058936
20438.177045,-2442.679609,-7476.080014,-2451.505594
20438.177378,2072.576638,-9474.636058,5439.278036
20438.177711,5847.626942,-7994.224174,6052.154434
20438.178044,4663.297435,-5033.400406,5132.839837
20438.178377,8068.244768,-7698.141797,6052.154434
20438.178710,9770.718434,-5477.523971,7201.297681
20438.179044,6809.894666,-8364.327145,2757.943793
20438.179377,-518.144159,-11991.336260,-4213.525239
20438.179710,-5403.503377,-15988.448347,-9269.755526
20438.180043,-7105.977043,-15544.324782,-5592.497135
20438.180376,-1258.350101,-11547.212695,-5286.058936
20438.180710,592.164754,-7772.162391,1685.410096
20438.181043,1480.411884,-7772.162391,4213.525239
20438.181376,2886.803174,-6587.832884,4290.134789
20438.181709,4885.359217,-5403.503377,6205.373534
20438.182042,4737.318029,-5403.503377,5362.668486
20438.182375,3849.070898,-7476.080014,2145.067394
20438.182709,-1406.391290,-8586.388927,-2834.553343
20438.183042,-4441.235652,-14211.954086,-2528.115143
20438.183375,-3627.009116,-14211.954086,-3140.991542
20438.183708,-4219.173869,-9844.739029,-3370.820191
20438.184041,-1776.494261,-9844.739029,1378.971896
20438.184375,-3849.070898,-8364.327145,612.876398
20438.184708,-2664.741391,-7328.038826,-383.047749
20438.185041,-1036.288319,-7254.018232,842.705048
20438.185374,2886.803174,-7105.977043,3524.039291
20438.185707,1184.329507,-7179.997637,3677.258390
20438.186040,-74.020594,-11843.295072,-76.609550
20438.186374,-6069.688724,-12287.418637,-3064.381992
20438.186707,-8290.306550,-9548.656652,0.000000
20438.187040,-148.041188,-10140.821405,2757.943793
20438.187373,1258.350101,-7179.997637,2757.943793
20438.187706,444.123565,-6809.894666,2068.457845
20438.188040,-1480.411884,-9770.718434,0.000000
20438.188373,444.123565,-8290.306550,-995.924147
20438.188706,-1036.288319,-7772.162391,-1838.629195
20438.189039,518.144159,-10066.800811,-2374.896044
20438.189372,370.102971,-10214.842000,-995.924147
20438.189705,-1776.494261,-11843.295072,-995.924147
20438.190039,3478.967927,-11251.130318,3600.648841
20438.190372,2442.679609,-8364.327145,6128.763984
20438.190705,6439.791695,-7105.977043,7277.907231
20438.191038,3478.967927,-6957.935855,3064.381992
20438.191371,0.000000,-6735.874072,306.438199
20438.191705,3256.906145,-8142.265362,-76.609550
20438.192038,444.123565,-7994.224174,-3217.601092
20438.192371,1776.494261,-8882.471304,-4060.306139
20438.192704,-6069.688724,-13027.624579,-6665.030833
20438.193037,-4515.256246,-11325.150913,-7737.564530
20438.193370,-3182.885551,-9548.656652,-2451.505594
20438.193704,7031.956449,-10658.965565,4826.401637
20438.194037,9400.615463,-7105.977043,7277.907231
20438.194370,7105.977043,-6143.709319,7354.516781
20438.194703,8364.327145,-7698.141797,5745.716235
20438.195036,5181.441594,-8808.450710,3447.429741
20438.195369,5477.523971,-8808.450710,-919.314598
20438.195703,-1480.411884,-11473.192101,-4903.011187
20438.196036,-5329.482782,-13249.686362,-7354.516781
20438.196369,-7476.080014,-11917.315666,-9806.022374
20438.196702,-3775.050304,-13027.624579,-2528.115143
20438.197035,1406.391290,-7624.121203,1762.019645
20438.197369,1998.556043,-5403.503377,5515.887586
20438.197702,3849.070898,-3627.009116,5056.230287
20438.198035,2738.761985,-5995.668130,5439.278036
20438.198368,3256.906145,-7476.080014,3140.991542
20438.198701,3997.112087,-6513.812290,1762.019645
20438.199034,-74.020594,-11843.295072,-689.485948
20438.199368,-6513.812290,-11917.315666,-5209.449386
20438.199701,-9548.656652,-15988.448347,-8656.879127
20438.200034,-7476.080014,-12065.356855,-7354.516781
20438.200367,-2368.659014,-10214.842000,0.000000
20438.200700,962.267725,-8290.306550,4596.572988
20438.201034,74.020594,-6291.750507,4060.306139
20438.201367,2072.576638,-6513.812290,5898.935335
20438.201700,4071.132681,-4811.338623,6052.154434
20438.202033,2664.741391,-4885.359217,3677.258390
20438.202366,1702.473667,-10658.965565,1762.019645
20438.202699,-5921.647536,-9548.656652,-2451.505594
20438.203033,-7105.977043,-12657.521608,-2528.115143
20438.203366,-3627.009116,-11843.295072,-5745.716235
20438.203699,-2960.823768,-10510.924376,-459.657299
20438.204032,-1850.514855,-9474.636058,-383.047749
20438.204365,-1480.411884,-8512.368333,459.657299
20438.204699,0.000000,-7476.080014,1302.362347
20438.205032,1998.556043,-3997.112087,995.924147
20438.205365,5255.462188,-7994.224174,3600.648841
20438.205698,2442.679609,-7772.162391,2374.896044
20438.206031,-962.267725,-11251.130318,76.609550
20438.206365,-2516.700203,-11473.192101,-995.924147
20438.206698,-74.020594,-9474.636058,-689.485948
20438.207031,3108.864956,-9474.636058,4826.401637
20438.207364,5847.626942,-7105.977043,842.705048
20438.207697,1702.473667,-9474.636058,-76.609550
20438.208031,0.000000,-7772.162391,0.000000
20438.208364,1110.308913,-7179.997637,-3064.381992
20438.208697,2886.803174,-9474.636058,-2528.115143
20438.209030,0.000000,-9696.697840,-1991.848295
20438.209363,-3108.864956,-11695.253884,-2681.334243
20438.209697,-2960.823768,-9548.656652,-2145.067394
20438.210030,2738.761985,-11251.130318,4213.525239
20438.210363,5847.626942,-8290.306550,6052.154434
20438.210696,5625.565159,-4811.338623,7354.516781
20438.211029,6439.791695,-8882.471304,6052.154434
20438.211363,1924.535449,-6883.915261,0.000000
20438.211696,1924.535449,-8660.409521,-2681.334243
20438.212029,592.164754,-10436.903782,-3753.867940
20438.212362,-2516.700203,-12139.377449,-5975.544884
20438.212695,-6513.812290,-13693.809927,-6741.640382
20438.213029,-3923.091493,-15988.448347,-4979.620737
20438.213362,0.000000,-7772.162391,1532.190996
20438.213695,3552.988522,-4811.338623,7967.393179
20438.214028,9252.574275,-5551.544565,10648.727422
20438.214361,6513.812290,-5699.585753,8656.879127
20438.214695,5033.400406,-7550.100608,4519.963438
20438.215028,5551.544565,-7031.956449,2068.457845
20438.215361,3775.050304,-8956.491898,-1685.410096
20438.215694,-74.020594,-11843.295072,-4979.620737
20438.216027,-5699.585753,-13619.789333,-9269.755526
20438.216361,-8734.430116,-13397.727550,-6741.640382
20438.216694,-3404.947333,-12731.542202,-1225.752797
20438.217027,2294.638420,-9474.636058,1762.019645
20438.217360,1480.411884,-7179.997637,6818.249932
20438.217693,4071.132681,-3627.009116,6511.811733
20438.218027,4737.318029,-6365.771101,7124.688131
20438.218360,7772.162391,-4589.276840,6128.763984
20438.218693,4663.297435,-8882.471304,4213.525239
20438.219026,-2146.597232,-9030.512492,-3064.381992
20438.219359,-7994.224174,-14508.036463,-7507.735880
20438.219693,-9326.594869,-11917.315666,-9806.022374
20438.220026,-7105.977043,-11917.315666,-5975.544884
20438.220359,-3256.906145,-8068.244768,0.000000
20438.220692,2146.597232,-10362.883188,3600.648841
20438.221025,-2738.761985,-7698.141797,1455.581446
20438.221359,1480.411884,-6587.832884,5209.449386
20438.221692,2368.659014,-4663.297435,4826.401637
20438.222025,5033.400406,-5477.523971,5362.668486
20438.222358,0.000000,-8808.450710,1225.752797
20438.222691,-3404.947333,-11325.150913,-2451.505594
20438.223025,-4737.318029,-11029.068536,-1838.629195
20438.223358,-2442.679609,-11251.130318,-1532.190996
20438.223691,-74.020594,-8290.306550,-3140.991542
20438.224024,-5921.647536,-10732.986159,-919.314598
20438.224357,-666.185348,-9474.636058,-76.609550
20438.224691,-3552.988522,-7476.080014,0.000000
20438.225024,2442.679609,-8142.265362,2068.457845
20438.225357,2072.576638,-8142.265362,4136.915689
20438.225690,-1332.370696,-8734.430116,1149.143247
20438.226023,-3182.885551,-10362.883188,-1302.362347
20438.226357,-4737.318029,-10140.821405,306.438199
20438.226690,1702.473667,-5033.400406,995.924147
20438.227023,4737.318029,-7328.038826,7890.783629
20438.227356,5551.544565,-7105.977043,2221.676944
20438.227689,1110.308913,-10658.965565,-76.609550
20438.228023,-74.020594,-10955.047942,-3140.991542
20438.228356,666.185348,-10214.842000,-4136.915689
20438.228689,1406.391290,-9844.739029,-2911.162892
20438.229022,-1850.514855,-12287.418637,-3064.381992
20438.229356,1406.391290,-11843.295072,-76.609550
20438.229689,444.123565,-8956.491898,2451.505594
20438.230022,4737.318029,-7476.080014,9039.926876
20438.230355,9400.615463,-6957.935855,7814.174080
20438.230688,4737.318029,-5403.503377,4290.134789
20438.231022,6439.791695,-5773.606348,2221.676944
20438.231355,2738.761985,-9770.718434,-76.609550
20438.231688,4811.338623,-7179.997637,-1762.019645
20438.232021,592.164754,-11325.150913,-3600.648841
20438.232354,-2442.679609,-14211.954086,-7431.126331
20438.232688,-8290.306550,-13693.809927,-6128.763984
20438.233021,-5403.503377,-15396.283594,-3217.601092
20438.233354,5847.626942,-7105.977043,1455.581446
20438.233687,3552.988522,-3627.009116,7660.954980
20438.234020,9104.533087,-2812.782580,7814.174080
20438.234354,4663.297435,-6365.771101,5745.716235
20438.234687,5403.503377,-6735.874072,3370.820191
20438.235020,3478.967927,-7994.224174,1302.362347
20438.235353,1702.473667,-9474.636058,-3907.087040
20438.235686,-6069.688724,-12361.439231,-8350.440928
20438.236020,-10362.883188,-14656.077652,-9346.365076
20438.236353,-4663.297435,-11843.295072,-4673.182538
20438.236686,-2960.823768,-10732.986159,919.314598
20438.237019,2146.597232,-9178.553681,4213.525239
20438.237352,-592.164754,-5329.482782,3600.648841
20438.237686,592.164754,-5551.544565,7277.907231
20438.238019,3330.926739,-4737.318029,4826.401637
20438.238352,2886.803174,-4811.338623,3064.381992
20438.238685,518.144159,-8512.368333,1378.971896
20438.239018,-5921.647536,-10881.027347,-3064.381992
20438.239352,-8364.327145,-12805.562797,-6665.030833
20438.239685,-6735.874072,-14211.954086,-3753.867940
20438.240018,-2442.679609,-11251.130318,-2528.115143
20438.240351,-4441.235652,-8660.409521,2298.286494
20438.240684,-2368.659014,-7772.162391,4519.963438
20438.241018,-74.020594,-7105.977043,2221.676944
20438.241351,0.000000,-5995.668130,6128.763984
20438.241684,3182.885551,-5403.503377,3907.087040
20438.242017,1258.350101,-7179.997637,1608.800546
20438.242350,-2664.741391,-10807.006753,-1532.190996
20438.242684,-3034.844362,-11251.130318,-2528.115143
20438.243017,-1258.350101,-10658.965565,-2528.115143
20438.243350,592.164754,-10732.986159,3600.648841
20438.243683,1998.556043,-9326.594869,2987.772442
20438.244016,2294.638420,-8882.471304,-689.485948
20438.244350,2886.803174,-9326.594869,1149.143247
20438.244683,2664.741391,-7179.997637,0.000000
20438.245016,3849.070898,-8068.244768,153.219100
20438.245349,592.164754,-10732.986159,0.000000
20438.245682,-2220.617826,-8660.409521,-3064.381992
20438.246016,-2146.597232,-10955.047942,-2911.162892
20438.246349,0.000000,-10140.821405,3217.601092
20438.246682,7031.956449,-7994.224174,5439.278036
20438.247015,6291.750507,-5921.647536,5439.278036
20438.247348,4811.338623,-5551.544565,2451.505594
20438.247682,2072.576638,-9474.636058,-76.609550
20438.248015,2072.576638,-9474.636058,-2221.676944
20438.248348,2220.617826,-9474.636058,-3294.210641
20438.248681,-74.020594,-12583.501014,-3294.210641
20438.249014,-5921.647536,-11917.315666,-4903.011187
20438.249348,-2442.679609,-13027.624579,-2528.115143
20438.249681,1998.556043,-8808.450710,1838.629195
20438.250014,5921.647536,-5995.668130,9039.926876
20438.250347,5921.647536,-4959.379811,8197.221829
20438.250680,4737.318029,-4663.297435,6205.373534
20438.251014,2368.659014,-6587.832884,2528.115143
20438.251347,4145.153275,-7031.956449,-306.438199
20438.251680,1702.473667,-11251.130318,-1685.410096
20438.252013,-5921.647536,-11991.336260,-7201.297681
20438.252346,-9326.594869,-13915.871710,-9806.022374
20438.252680,-9992.780217,-14285.974681,-8427.050478
20438.253013,-3701.029710,-10362.883188,-1378.971896
20438.253346,2368.659014,-8882.471304,5515.887586
20438.253679,4885.359217,-2738.761985,7354.516781
20438.254012,2960.823768,-5403.503377,9729.412825
20438.254346,4663.297435,-6661.853478,5592.497135
20438.254679,5255.462188,-5329.482782,3907.087040
20438.255012,3330.926739,-9474.636058,2987.772442
20438.255345,-370.102971,-9548.656652,-3140.991542
20438.255678,-7550.100608,-12731.542202,-7814.174080
20438.256012,-8290.306550,-13471.748144,-8044.002729
20438.256345,-3627.009116,-12731.542202,-3140.991542
20438.256678,-2368.659014,-9548.656652,1838.629195
20438.257011,296.082377,-8364.327145,6052.154434
20438.257344,2886.803174,-7105.977043,2987.772442
20438.257678,1776.494261,-4811.338623,4903.011187
20438.258011,7031.956449,-4737.318029,5439.278036
20438.258344,6513.812290,-8364.327145,5132.839837
20438.258677,3256.906145,-8364.327145,1991.848295
20438.259010,-2960.823768,-11621.233289,-3447.429741
20438.259344,-3627.009116,-11621.233289,-6818.249932
20438.259677,-4737.318029,-10732.986159,-3064.381992
20438.260010,1110.308913,-10066.800811,-2528.115143
20438.260343,1702.473667,-7328.038826,-1532.190996
20438.260676,-592.164754,-11325.150913,2145.067394
20438.261010,-74.020594,-7254.018232,-1685.410096
20438.261343,2664.741391,-7920.203579,2451.505594
20438.261676,6143.709319,-6957.935855,4366.744339
20438.262009,3182.885551,-7031.956449,2834.553343
20438.262342,-1628.453072,-10732.986159,0.000000
20438.262676,592.164754,-11029.068536,3294.210641
20438.263009,1110.308913,-8734.430116,0.000000
20438.263342,2368.659014,-9548.656652,0.000000
20438.263675,0.000000,-10436.903782,2374.896044
20438.264009,-3034.844362,-9548.656652,-4290.134789
20438.264342,-1480.411884,-8882.471304,-2451.505594
20438.264675,666.185348,-8512.368333,-766.095498
20438.265008,1184.329507,-8068.244768,612.876398
20438.265341,-3849.070898,-9548.656652,-2987.772442
20438.265675,-4367.215058,-11547.212695,-1915.238745
20438.266008,-4145.153275,-9696.697840,153.219100
20438.266341,1406.391290,-8290.306550,4519.963438
20438.266674,7920.203579,-5921.647536,8197.221829
20438.267007,4663.297435,-5329.482782,4596.572988
20438.267341,1480.411884,-7772.162391,2451.505594
20438.267674,-1184.329507,-11325.150913,-76.609550
20438.268007,-1258.350101,-8512.368333,-6128.763984
20438.268340,-1406.391290,-12287.418637,-2987.772442
20438.268673,-5255.462188,-11473.192101,-5975.544884
20438.269007,-6661.853478,-12287.418637,-5209.449386
20438.269340,-3330.926739,-11029.068536,-536.266849
20438.269673,4589.276840,-6661.853478,6358.592633
20438.270006,6439.791695,-4811.338623,8273.831378
20438.270339,5329.482782,-8290.306550,10955.165621
20438.270673,4663.297435,-5625.565159,4213.525239
20438.271006,370.102971,-7179.997637,0.000000
20438.271339,5551.544565,-6217.729913,-689.485948
20438.271672,-1924.535449,-11177.109724,-2911.162892
20438.272005,-4737.318029,-13323.706956,-7584.345430
20438.272339,-7920.203579,-14434.015869,-8044.002729
20438.272672,-7994.224174,-14582.057057,-5515.887586
20438.273005,1998.556043,-8142.265362,0.000000
20438.273338,2664.741391,-7476.080014,8273.831378
20438.273671,9400.615463,-4737.318029,8197.221829
20438.274005,3552.988522,-3034.844362,5669.106685
20438.274338,5329.482782,-5995.668130,4903.011187
20438.274671,5033.400406,-6143.709319,3064.381992
20438.275004,1628.453072,-9252.574275,-1455.581446
20438.275337,-1998.556043,-11843.295072,-6281.983084
20438.275671,-7476.080014,-15396.283594,-8656.879127
20438.276004,-6883.915261,-11325.150913,-7354.516781
20438.276337,-666.185348,-11843.295072,-1302.362347
20438.276670,4663.297435,-9474.636058,2374.896044
20438.277003,148.041188,-7179.997637,4903.011187
20438.277337,4663.297435,-8882.471304,6052.154434
20438.277670,4959.379811,-4811.338623,5898.935335
20438.278003,6291.750507,-5255.462188,5286.058936
20438.278336,4145.153275,-7328.038826,2987.772442
20438.278669,-1184.329507,-10584.944971,-1149.143247
20438.279003,-5329.482782,-13101.645173,-1915.238745
20438.279336,-4219.173869,-12731.542202,-6511.811733
20438.279669,-2960.823768,-9548.656652,-4290.134789
20438.280002,-1776.494261,-9696.697840,2068.457845
20438.280335,-74.020594,-7994.224174,1608.800546
20438.280669,-592.164754,-9474.636058,2374.896044
20438.281002,666.185348,-7105.977043,2068.457845
20438.281335,3256.906145,-5255.462188,3600.648841
20438.281668,740.205942,-7920.203579,2451.505594
20438.282001,-1184.329507,-8216.285956,919.314598
20438.282335,-4737.318029,-12139.377449,-1762.019645
20438.282668,-888.247130,-9992.780217,76.609550
20438.283001,2664.741391,-8808.450710,3600.648841
20438.283334,2886.803174,-9474.636058,1762.019645
20438.283667,0.000000,-8660.409521,536.266849
20438.284001,-1184.329507,-11843.295072,-76.609550
20438.284334,1554.432478,-7698.141797,-3217.601092
20438.284667,444.123565,-9548.656652,0.000000
20438.285000,-370.102971,-11251.130318,-1302.362347
20438.285333,-5551.544565,-11399.171507,-3830.477490
20438.285667,-4071.132681,-10066.800811,-1838.629195
20438.286000,1110.308913,-7920.203579,3677.258390
20438.286333,3849.070898,-6587.832884,7354.516781
20438.286666,4737.318029,-4219.173869,9346.365076
20438.286999,1998.556043,-5995.668130,1838.629195
20438.287333,1998.556043,-6587.832884,0.000000
20438.287666,1332.370696,-11103.089130,-842.705048
20438.287999,1702.473667,-8364.327145,-6588.421283
20438.288332,-2590.720797,-12953.603985,-5132.839837
20438.288665,-6513.812290,-13619.789333,-7737.564530
20438.288999,-6957.935855,-12805.562797,-5515.887586
20438.289332,-2960.823768,-11177.109724,612.876398
20438.289665,4737.318029,-6587.832884,12180.918418
20438.289998,6439.791695,-5921.647536,9116.536426
20438.290331,5107.421000,-1554.432478,5362.668486
20438.290665,2960.823768,-4959.379811,5669.106685
20438.290998,4737.318029,-5107.421000,3677.258390
20438.291331,6439.791695,-8290.306550,-76.609550
20438.291664,-3330.926739,-12139.377449,-5822.325785
20438.291997,-6661.853478,-14211.954086,-10648.727422
20438.292331,-8364.327145,-16580.613101,-8810.098227
20438.292664,-2442.679609,-14211.954086,-3140.991542
20438.292997,2294.638420,-7550.100608,612.876398
20438.293330,4737.318029,-5699.585753,6435.202183
20438.293663,5921.647536,-5699.585753,9346.365076
20438.293997,7031.956449,-6513.812290,8503.660028
20438.294330,5921.647536,-5107.421000,6435.202183
20438.294663,6735.874072,-7105.977043,4060.306139
20438.294996,2072.576638,-8512.368333,-536.266849
20438.295329,-4145.153275,-10140.821405,-6128.763984
20438.295663,-5403.503377,-12731.542202,-9576.193725
20438.295996,-4737.318029,-11917.315666,-6741.640382
20438.296329,0.000000,-11843.295072,-76.609550
20438.296662,148.041188,-8364.327145,0.000000
20438.296996,814.226536,-9252.574275,2068.457845
20438.297329,1776.494261,-8216.285956,2451.505594
20438.297662,7031.956449,-5625.565159,5898.935335
20438.297995,7624.121203,-6513.812290,7124.688131
20438.298328,2960.823768,-7179.997637,2451.505594
20438.298662,518.144159,-10066.800811,0.000000
20438.298995,-3330.926739,-11991.336260,-2374.896044
20438.299328,1406.391290,-9474.636058,-1915.238745
20438.299661,-1628.453072,-10658.965565,-536.266849
20438.299994,-1406.391290,-8290.306550,-2221.676944
20438.300328,-1850.514855,-13027.624579,-1302.362347
20438.300661,-3701.029710,-8364.327145,-3064.381992
20438.300994,370.102971,-8290.306550,2374.896044
20438.301327,444.123565,-8142.265362,1225.752797
20438.301660,1628.453072,-5995.668130,3217.601092
20438.301994,-2960.823768,-9252.574275,842.705048
20438.302327,-1406.391290,-10658.965565,919.314598
20438.302660,-592.164754,-9474.636058,3217.601092
20438.302993,592.164754,-7772.162391,3677.258390
20438.303326,1110.308913,-8882.471304,1149.143247
20438.303660,-4441.235652,-7179.997637,-1838.629195
20438.303993,-2294.638420,-10658.965565,-1302.362347
20438.304326,1702.473667,-9474.636058,-689.485948
20438.304659,-1184.329507,-10436.903782,-76.609550
20438.304992,-5551.544565,-10214.842000,-3907.087040
20438.305326,-7772.162391,-12287.418637,-4366.744339
20438.305659,-5847.626942,-10584.944971,-1532.190996
20438.305992,2368.659014,-8438.347739,6052.154434
20438.306326,5255.462188,-3997.112087,6435.202183
20438.306659,5921.647536,-4811.338623,7354.516781
20438.306992,4663.297435,-8290.306550,4213.525239
20438.307325,0.000000,-7179.997637,0.000000
20438.307659,-74.020594,-9474.636058,-2834.553343
20438.307992,-3552.988522,-11029.068536,-4903.011187
20438.308325,-3627.009116,-11103.089130,-7431.126331
20438.308659,-6809.894666,-14211.954086,-6205.373534
20438.308992,-2442.679609,-11251.130318,-2528.115143
20438.309325,1628.453072,-6291.750507,3064.381992
20438.309658,7994.224174,-8882.471304,9729.412825
20438.309992,8216.285956,-5921.647536,9116.536426
20438.310325,592.164754,-4811.338623,2451.505594
20438.310658,7328.038826,-4737.318029,2374.896044
20438.310992,3849.070898,-9104.533087,1915.238745
20438.311325,5403.503377,-7254.018232,-1838.629195
20438.311658,-3330.926739,-14211.954086,-5745.716235
20438.311991,-5699.585753,-15396.283594,-8963.317327
20438.312325,-4145.153275,-12805.562797,-4979.620737
20438.312658,-814.226536,-10955.047942,-689.485948
20438.312991,6365.771101,-5921.647536,3294.210641
20438.313325,2960.823768,-6291.750507,5515.887586
20438.313658,7994.224174,-7698.141797,8503.660028
20438.313991,6439.791695,-5403.503377,4213.525239
20438.314324,6217.729913,-5995.668130,3677.258390
20438.314658,6513.812290,-9474.636058,1762.019645
20438.314991,-2368.659014,-10732.986159,-3983.696590
20438.315324,-2442.679609,-12287.418637,-5592.497135
20438.315657,-5477.523971,-13619.789333,-4826.401637
20438.315991,0.000000,-9844.739029,-1149.143247
20438.316324,1110.308913,-10510.924376,4136.915689
20438.316657,0.000000,-8956.491898,4519.963438
20438.316991,-1554.432478,-5995.668130,-2145.067394
20438.317324,0.000000,-5995.668130,0.000000
20438.317657,5033.400406,-5625.565159,5898.935335
20438.317990,2072.576638,-7476.080014,2451.505594
20438.318324,-2516.700203,-10362.883188,-2068.457845
20438.318657,-6069.688724,-13027.624579,-3217.601092
20438.318990,-4737.318029,-11399.171507,-2834.553343
20438.319324,-74.020594,-10362.883188,-76.609550
20438.319657,0.000000,-10510.924376,3447.429741
20438.319990,-2442.679609,-7179.997637,0.000000
20438.320323,-3552.988522,-9252.574275,1455.581446
20438.320657,-74.020594,-9474.636058,2374.896044
20438.320990,-74.020594,-6513.812290,1149.143247
20438.321323,-1702.473667,-7550.100608,766.095498
20438.321657,-3849.070898,-9400.615463,229.828649
20438.321990,-4811.338623,-9918.759623,-995.924147
20438.322323,-4737.318029,-8364.327145,612.876398
20438.322656,4663.297435,-7698.141797,3600.648841
20438.322990,2368.659014,-8364.327145,3677.258390
20438.323323,592.164754,-9252.574275,4213.525239
20438.323656,-1850.514855,-9474.636058,-3217.601092
20438.323990,-2368.659014,-9548.656652,-3370.820191
20438.324323,1628.453072,-8438.347739,-995.924147
20438.324656,-1850.514855,-10807.006753,-2451.505594
20438.324989,-4959.379811,-10362.883188,-5286.058936
20438.325323,-5107.421000,-13323.706956,-1455.581446
20438.325656,-370.102971,-6587.832884,1225.752797
20438.325989,6439.791695,-7698.141797,8503.660028
20438.326323,5773.606348,-3330.926739,6052.154434
20438.326656,5033.400406,-5995.668130,7737.564530
20438.326989,4737.318029,-7179.997637,2451.505594
20438.327322,6069.688724,-7476.080014,1608.800546
20438.327656,3478.967927,-10140.821405,-2528.115143
20438.327989,518.144159,-11843.295072,-6205.373534
20438.328322,-3627.009116,-16580.613101,-6511.811733
20438.328656,-5625.565159,-12509.480420,-8580.269578
20438.328989,-1776.494261,-12435.459826,-2604.724693
20438.329322,4145.153275,-9474.636058,4826.401637
20438.329655,7179.997637,-5921.647536,9729.412825
20438.329989,5329.482782,-5403.503377,9806.022374
20438.330322,9104.533087,-3552.988522,5439.278036
20438.330655,7920.203579,-3775.050304,3677.258390
20438.330989,7402.059420,-6957.935855,4366.744339
20438.331322,2294.638420,-11251.130318,-4366.744339
20438.331655,-8882.471304,-13397.727550,-9193.145976
20438.331988,-8882.471304,-15470.304188,-11031.775171
20438.332322,-4367.215058,-12731.542202,-5592.497135
20438.332655,592.164754,-10658.965565,536.266849
20438.332988,3478.967927,-7994.224174,4826.401637
20438.333321,4663.297435,-5921.647536,4136.915689
20438.333655,5329.482782,-8290.306550,7967.393179
20438.333988,8808.450710,-4737.318029,6052.154434
20438.334321,5107.421000,-4811.338623,5209.449386
20438.334655,3775.050304,-9326.594869,2374.896044
20438.334988,-3997.112087,-9622.677246,-4290.134789
20438.335321,-6217.729913,-12879.583391,-6818.249932
20438.335654,-4811.338623,-12139.377449,-4979.620737
20438.335988,-2738.761985,-10658.965565,-2221.676944
20438.336321,-3627.009116,-7179.997637,0.000000
20438.336654,-2664.741391,-9400.615463,-229.828649
20438.336988,-1258.350101,-10658.965565,-689.485948
20438.337321,1998.556043,-5699.585753,3064.381992
20438.337654,5847.626942,-6809.894666,5592.497135
20438.337987,2072.576638,-7105.977043,4213.525239
20438.338321,-2738.761985,-10807.006753,612.876398
20438.338654,-3034.844362,-9992.780217,-995.924147
20438.338987,-1184.329507,-10140.821405,612.876398
20438.339321,1480.411884,-8586.388927,3677.258390
20438.339654,-74.020594,-11547.212695,-76.609550
20438.339987,-3330.926739,-9104.533087,-3064.381992
20438.340320,-2812.782580,-8364.327145,153.219100
20438.340654,-74.020594,-8882.471304,-2374.896044
20438.340987,1628.453072,-8882.471304,842.705048
20438.341320,-1554.432478,-8734.430116,306.438199
20438.341654,-2664.741391,-9030.512492,-536.266849
20438.341987,-1480.411884,-8364.327145,1225.752797
20438.342320,1184.329507,-10214.842000,4519.963438
20438.342653,4145.153275,-6439.791695,6281.983084
20438.342987,2072.576638,-7550.100608,4213.525239
20438.343320,1998.556043,-8290.306550,-76.609550
20438.343653,-1258.350101,-11251.130318,-2528.115143
20438.343987,0.000000,-7179.997637,-2451.505594
20438.344320,0.000000,-11103.089130,-76.609550
20438.344653,-2442.679609,-11251.130318,-5975.544884
20438.344986,-4219.173869,-13323.706956,-4060.306139
20438.345320,-4071.132681,-12731.542202,-1302.362347
20438.345653,4663.297435,-7698.141797,5209.449386
20438.345986,7254.018232,-4959.379811,8580.269578
20438.346320,8438.347739,-6735.874072,9116.536426
20438.346653,6513.812290,-6439.791695,7277.907231
20438.346986,1776.494261,-7179.997637,3064.381992
20438.347319,6143.709319,-9474.636058,-76.609550
20438.347653,-74.020594,-11251.130318,-4979.620737
20438.347986,-4441.235652,-11769.274478,-7814.174080
20438.348319,-5995.668130,-13619.789333,-8656.879127
20438.348653,-5699.585753,-13619.789333,-5898.935335
20438.348986,0.000000,-10436.903782,1685.410096
20438.349319,4589.276840,-7254.018232,7354.516781
20438.349652,6439.791695,-7105.977043,8503.660028
20438.349986,4737.318029,-5329.482782,9116.536426
20438.350319,5847.626942,-7698.141797,3600.648841
20438.350652,3849.070898,-4811.338623,3677.258390
20438.350985,2368.659014,-9844.739029,1225.752797
20438.351319,-3923.091493,-10732.986159,-5822.325785
20438.351652,-8734.430116,-14211.954086,-8656.879127
20438.351985,-8586.388927,-14582.057057,-7660.954980
20438.352319,-1850.514855,-10214.842000,-995.924147
20438.352652,0.000000,-7179.997637,153.219100
20438.352985,3775.050304,-8882.471304,4826.401637
20438.353318,2294.638420,-7105.977043,3600.648841
20438.353652,2368.659014,-5403.503377,7048.078582
20438.353985,7031.956449,-5921.647536,5745.716235
20438.354318,2368.659014,-9252.574275,2451.505594
20438.354652,-666.185348,-10436.903782,-2451.505594
20438.354985,-5329.482782,-13989.892304,-4903.011187
20438.355318,-3849.070898,-13619.789333,-4290.134789
20438.355651,-3552.988522,-10732.986159,306.438199
20438.355985,-74.020594,-11843.295072,-76.609550
20438.356318,-2220.617826,-6587.832884,2757.943793
20438.356651,-592.164754,-8956.491898,4826.401637
20438.356985,3478.967927,-5921.647536,2068.457845
20438.357318,1776.494261,-6291.750507,5592.497135
20438.357651,2146.597232,-6217.729913,2374.896044
20438.357984,-2368.659014,-8364.327145,-919.314598
20438.358318,-4071.132681,-12583.501014,-3064.381992
20438.358651,-3552.988522,-9548.656652,-919.314598
20438.358984,518.144159,-10066.800811,995.924147
20438.359318,2738.761985,-9474.636058,1532.190996
20438.359651,-888.247130,-9992.780217,459.657299
20438.359984,-74.020594,-9474.636058,-689.485948
20438.360317,296.082377,-7179.997637,612.876398
20438.360651,3108.864956,-8882.471304,2374.896044
20438.360984,2294.638420,-8290.306550,-2221.676944
20438.361317,-3256.906145,-8512.368333,-2145.067394
20438.361651,-74.020594,-11843.295072,-76.609550
20438.361984,1184.329507,-8956.491898,2757.943793
20438.362317,4885.359217,-8364.327145,5056.230287
20438.362650,6365.771101,-6957.935855,5822.325785
20438.362984,2664.741391,-7772.162391,2451.505594
20438.363317,518.144159,-8364.327145,0.000000
20438.363650,3478.967927,-11251.130318,-1608.800546
20438.363984,1998.556043,-8882.471304,-4366.744339
20438.364317,0.000000,-10140.821405,-3064.381992
20438.364650,-5107.421000,-12139.377449,-6205.373534
20438.364983,-6365.771101,-13027.624579,-5132.839837
20438.365317,-2516.700203,-10288.862594,306.438199
20438.365650,4589.276840,-6883.915261,7277.907231
20438.365983,7254.018232,-5329.482782,10418.898773
20438.366317,3552.988522,-3775.050304,8427.050478
20438.366650,6439.791695,-5625.565159,2298.286494
20438.366983,3552.988522,-7772.162391,4596.572988
20438.367316,7031.956449,-10066.800811,1762.019645
20438.367650,-3256.906145,-11325.150913,-6741.640382
20438.367983,-7328.038826,-14804.118840,-10189.070123
20438.368316,-10362.883188,-15322.262999,-10189.070123
20438.368649,-6069.688724,-13619.789333,-4596.572988
20438.368983,-74.020594,-9474.636058,2987.772442
20438.369316,2368.659014,-7772.162391,9729.412825
20438.369649,3182.885551,-2072.576638,7277.907231
20438.369983,1480.411884,-3034.844362,8580.269578
20438.370316,7031.956449,-4737.318029,6052.154434
20438.370649,5847.626942,-5625.565159,4213.525239
20438.370982,-1184.329507,-9918.759623,-1685.410096
20438.371316,-6735.874072,-12213.398043,-8580.269578
20438.371649,-10732.986159,-16876.695478,-10265.679673
20438.371982,-7105.977043,-11325.150913,-7048.078582
20438.372316,-666.185348,-12731.542202,-1302.362347
20438.372649,0.000000,-7772.162391,3677.258390
20438.372982,0.000000,-7179.997637,5515.887586
20438.373315,3478.967927,-6809.894666,3907.087040
20438.373649,6439.791695,-3256.906145,7277.907231
20438.373982,5995.668130,-4071.132681,6435.202183
20438.374315,4293.194464,-6661.853478,2834.553343
20438.374649,-1406.391290,-9770.718434,-1838.629195
20438.374982,-4737.318029,-11325.150913,-5822.325785
20438.375315,-1850.514855,-11843.295072,-4903.011187
20438.375648,666.185348,-11029.068536,-1378.971896
20438.375982,814.226536,-9400.615463,0.000000
20438.376315,370.102971,-9178.553681,-689.485948
20438.376648,740.205942,-6587.832884,-2145.067394
20438.376982,4219.173869,-8290.306550,2374.896044
20438.377315,7031.956449,-8882.471304,2068.457845
20438.377648,2368.659014,-8808.450710,3600.648841
20438.377981,-74.020594,-11843.295072,-76.609550
20438.378315,-814.226536,-9844.739029,0.000000
20438.378648,3627.009116,-9178.553681,2451.505594
20438.378981,5921.647536,-7772.162391,4903.011187
20438.379315,5847.626942,-8142.265362,3830.477490
20438.379648,592.164754,-9548.656652,612.876398
20438.379981,-74.020594,-11843.295072,-4060.306139
20438.380314,0.000000,-7846.182985,-4366.744339
20438.380648,0.000000,-10732.986159,-842.705048
20438.380981,-1258.350101,-9474.636058,-3753.867940
20438.381314,-5625.565159,-10732.986159,-153.219100
20438.381648,-2294.638420,-9178.553681,995.924147
20438.381981,1110.308913,-8068.244768,4903.011187
20438.382314,4071.132681,-6513.812290,7201.297681
20438.382647,4663.297435,-7105.977043,7737.564530
20438.382981,3478.967927,-6513.812290,1149.143247
20438.383314,592.164754,-7920.203579,1225.752797
20438.383647,2294.638420,-11843.295072,-689.485948
20438.383981,-2442.679609,-9548.656652,-5975.544884
20438.384314,-5477.523971,-13915.871710,-6205.373534
20438.384647,-9770.718434,-13989.892304,-9193.145976
20438.384980,-8290.306550,-13397.727550,-4673.182538
20438.385314,-2590.720797,-9622.677246,2068.457845
20438.385647,3330.926739,-5625.565159,7584.345430
20438.385980,3552.988522,-2442.679609,6894.859482
20438.386313,3552.988522,-5995.668130,10648.727422
20438.386647,4663.297435,-3701.029710,4136.915689
20438.386980,2664.741391,-4219.173869,2451.505594
20438.387313,2664.741391,-10658.965565,-76.609550
20438.387647,-6439.791695,-11621.233289,-7967.393179
20438.387980,-10140.821405,-13397.727550,-11951.089769
20438.388313,-8142.265362,-14952.160028,-8810.098227
20438.388646,-3775.050304,-12435.459826,-3140.991542
20438.388980,0.000000,-8660.409521,4290.134789
20438.389313,2664.741391,-7179.997637,7354.516781
20438.389646,4515.256246,-4589.276840,7584.345430
20438.389980,6217.729913,-5107.421000,9193.145976
20438.390313,9400.615463,-6069.688724,8503.660028
20438.390646,6439.791695,-6809.894666,1762.019645
20438.390979,-1702.473667,-9548.656652,-6128.763984
20438.391313,-4737.318029,-13397.727550,-6818.249932
20438.391646,-7105.977043,-13101.645173,-9422.974625
20438.391979,-3552.988522,-11917.315666,-3677.258390
20438.392313,2072.576638,-9030.512492,229.828649
20438.392646,3034.844362,-9104.533087,2681.334243
20438.392979,4367.215058,-9326.594869,5439.278036
20438.393312,5107.421000,-7179.997637,4826.401637
20438.393646,8216.285956,-4737.318029,3294.210641
20438.393979,5329.482782,-7254.018232,5209.449386
20438.394312,2886.803174,-11399.171507,-76.609550
20438.394646,1702.473667,-11843.295072,-2834.553343
20438.394979,-74.020594,-12731.542202,-2834.553343
20438.395312,2442.679609,-12139.377449,-229.828649
20438.395645,1406.391290,-10732.986159,1302.362347
20438.395979,518.144159,-8512.368333,0.000000
20438.396312,2886.803174,-9474.636058,1149.143247
20438.396645,1184.329507,-7920.203579,3064.381992
20438.396979,5847.626942,-7994.224174,-76.609550
20438.397312,0.000000,-7179.997637,2451.505594
20438.397645,-2368.659014,-7772.162391,0.000000
20438.397978,-3330.926739,-9400.615463,-3677.258390
20438.398312,-2516.700203,-11769.274478,0.000000
20438.398645,814.226536,-9474.636058,2681.334243
20438.398978,296.082377,-7624.121203,4519.963438
20438.399312,2146.597232,-7105.977043,1762.019645
20438.399645,0.000000,-10288.862594,2374.896044
20438.399978,3182.885551,-11843.295072,2374.896044
20438.400311,0.000000,-6291.750507,0.000000
20438.400645,-1628.453072,-11177.109724,-1915.238745
20438.400978,-6587.832884,-9548.656652,-6128.763984
20438.401311,-5995.668130,-12583.501014,-3294.210641
20438.401645,-2294.638420,-9548.656652,995.924147
20438.401978,1776.494261,-7328.038826,7048.078582
20438.402311,1480.411884,-5995.668130,4903.011187
20438.402644,2516.700203,-8290.306550,7277.907231
20438.402978,1184.329507,-7105.977043,3524.039291
20438.403311,1184.329507,-8364.327145,3907.087040
20438.403644,1998.556043,-8586.388927,-1149.143247
20438.403977,-4145.153275,-10288.862594,-4596.572988
20438.404311,-7031.956449,-12213.398043,-7124.688131
20438.404644,-8808.450710,-13545.768739,-7814.174080
20438.404977,-5403.503377,-11473.192101,-4060.306139
20438.405311,0.000000,-7476.080014,3064.381992
20438.405644,4071.132681,-6439.791695,7354.516781
20438.405977,5329.482782,-4293.194464,7354.516781
20438.406310,4959.379811,-6957.935855,6052.154434
20438.406644,8216.285956,-7105.977043,5745.716235
20438.406977,4811.338623,-5995.668130,2451.505594
20438.407310,2516.700203,-11695.253884,-306.438199
20438.407643,-3627.009116,-13027.624579,-8810.098227
20438.407977,-9104.533087,-14359.995275,-9806.022374
20438.408310,-2516.700203,-14211.954086,-4366.744339
20438.408643,-2072.576638,-7698.141797,0.000000
20438.408977,2812.782580,-8216.285956,4136.915689
20438.409310,4219.173869,-5699.585753,6205.373534
20438.409643,3775.050304,-2442.679609,5056.230287
20438.409976,5847.626942,-1850.514855,4903.011187
20438.410310,8142.265362,-8290.306550,4826.401637
20438.410643,3182.885551,-8290.306550,-1608.800546
20438.410976,-4441.235652,-11325.150913,-4290.134789
20438.411309,-4071.132681,-14211.954086,-6818.249932
20438.411643,-4589.276840,-13471.748144,-5898.935335
20438.411976,-592.164754,-10955.047942,-1302.362347
20438.412309,1776.494261,-8512.368333,1532.190996
20438.412642,2368.659014,-8216.285956,2757.943793
20438.412976,1480.411884,-5995.668130,3677.258390
20438.413309,5847.626942,-6809.894666,2681.334243
20438.413642,3552.988522,-4811.338623,4903.011187
20438.413976,1776.494261,-6587.832884,3064.381992
20438.414309,-1184.329507,-10732.986159,-1838.629195
20438.414642,-1702.473667,-10066.800811,-2068.457845
20438.414975,-2146.597232,-12213.398043,-383.047749
20438.415309,74.020594,-10066.800811,-153.219100
20438.415642,-74.020594,-10658.965565,-76.609550
20438.415975,-3552.988522,-10436.903782,229.828649
20438.416308,2294.638420,-9474.636058,-76.609550
20438.416642,-1332.370696,-7179.997637,-1838.629195
20438.416975,1776.494261,-8142.265362,1225.752797
20438.417308,-74.020594,-10658.965565,2374.896044
20438.417641,-3775.050304,-9178.553681,-1455.581446
20438.417975,-3108.864956,-9104.533087,-536.266849
20438.418308,-1924.535449,-11325.150913,1532.190996
20438.418641,2368.659014,-4219.173869,3677.258390
20438.418975,4663.297435,-9474.636058,6052.154434
20438.419308,1924.535449,-6291.750507,2451.505594
20438.419641,-2368.659014,-9548.656652,1378.971896
20438.419974,-74.020594,-9178.553681,-3753.867940
20438.420308,-74.020594,-9770.718434,-2834.553343
20438.420641,-5699.585753,-11547.212695,-6511.811733
20438.420974,-6365.771101,-10881.027347,-6281.983084
20438.421307,-5699.585753,-11843.295072,-1455.581446
20438.421641,592.164754,-6069.688724,3370.820191
20438.421974,5847.626942,-6661.853478,8350.440928
20438.422307,5107.421000,-6217.729913,8503.660028
20438.422640,3997.112087,-4811.338623,5362.668486
20438.422974,2738.761985,-7624.121203,3064.381992
20438.423307,4663.297435,-6365.771101,-1072.533697
20438.423640,1184.329507,-11251.130318,-1302.362347
20438.423974,-2442.679609,-13619.789333,-7737.564530
20438.424307,-8882.471304,-13397.727550,-8427.050478
20438.424640,-6513.812290,-15692.365970,-5592.497135
20438.424973,-1258.350101,-9918.759623,-1838.629195
20438.425307,2960.823768,-7031.956449,5515.887586
20438.425640,6217.729913,-4959.379811,8733.488677
20438.425973,6587.832884,-4145.153275,8503.660028
20438.426306,5329.482782,-5403.503377,7354.516781
20438.426640,9400.615463,-6513.812290,4826.401637
20438.426973,4367.215058,-5995.668130,-1915.238745
20438.427306,-1184.329507,-13323.706956,-2528.115143
20438.427639,-6587.832884,-15988.448347,-9882.631924
20438.427973,-8882.471304,-14285.974681,-8580.269578
20438.428306,-2368.659014,-11695.253884,-4290.134789
20438.428639,444.123565,-10140.821405,1225.752797
20438.428973,1480.411884,-8364.327145,4596.572988
20438.429306,4663.297435,-8290.306550,6665.030833
20438.429639,7031.956449,-6513.812290,4826.401637
20438.429972,5181.441594,-4219.173869,6588.421283
20438.430306,2960.823768,-8660.409521,7124.688131
20438.430639,-74.020594,-8142.265362,-1302.362347
20438.430972,-5551.544565,-11547.212695,-3753.867940
20438.431305,-4219.173869,-13027.624579,-4826.401637
20438.431639,-2294.638420,-10807.006753,-1608.800546
20438.431972,-1184.329507,-9548.656652,1378.971896
20438.432305,962.267725,-7105.977043,-995.924147
20438.432638,-1924.535449,-7772.162391,-2451.505594
20438.432972,888.247130,-8586.388927,1762.019645
20438.433305,3182.885551,-7105.977043,1455.581446
20438.433638,3478.967927,-5107.421000,0.000000
20438.433972,1036.288319,-8882.471304,1149.143247
20438.434305,-1258.350101,-11547.212695,0.000000
20438.434638,-518.144159,-9918.759623,536.266849
20438.434971,1036.288319,-9474.636058,2681.334243
20438.435305,2590.720797,-8882.471304,2068.457845
20438.435638,-1110.308913,-9030.512492,76.609550
20438.435971,-2072.576638,-8734.430116,-2068.457845
20438.436304,-1036.288319,-8364.327145,-1915.238745
20438.436638,0.000000,-7328.038826,0.000000
20438.436971,296.082377,-9992.780217,-76.609550
20438.437304,-3034.844362,-9474.636058,-3753.867940
20438.437637,-5329.482782,-9548.656652,-4290.134789
20438.437971,-1776.494261,-10436.903782,1762.019645
20438.438304,2664.741391,-8068.244768,5515.887586
20438.438637,4737.318029,-6883.915261,7277.907231
20438.438971,3923.091493,-7254.018232,4749.792088
20438.439304,2738.761985,-8068.244768,2068.457845
20438.439637,2294.638420,-9474.636058,-76.609550
20438.439970,0.000000,-8364.327145,-2068.457845
20438.440304,-1258.350101,-8364.327145,-7354.516781
20438.440637,-6217.729913,-12731.542202,-5592.497135
20438.440970,-4811.338623,-13027.624579,-5592.497135
20438.441303,-74.020594,-10658.965565,1455.581446
20438.441637,4737.318029,-8734.430116,7737.564530
20438.441970,5921.647536,-6217.729913,8350.440928
20438.442303,4293.194464,-5255.462188,6052.154434
20438.442636,4145.153275,-6069.688724,4366.744339
20438.442970,5921.647536,-7624.121203,4826.401637
20438.443303,3552.988522,-7179.997637,0.000000
20438.443636,-74.020594,-13619.789333,-4979.620737
20438.443970,-7698.141797,-13249.686362,-9499.584175
20438.444303,-7698.141797,-14508.036463,-8963.317327
20438.444636,-3330.926739,-13915.871710,-4596.572988
20438.444969,0.000000,-9252.574275,1991.848295
20438.445303,4441.235652,-6217.729913,7660.954980
20438.445636,6291.750507,-3997.112087,9193.145976
20438.445969,7624.121203,-4737.318029,8197.221829
20438.446302,5921.647536,-6735.874072,8810.098227
20438.446636,8216.285956,-8290.306550,4826.401637
20438.446969,-1036.288319,-8364.327145,-3677.258390
20438.447302,-5921.647536,-13693.809927,-8120.612279
20438.447635,-9844.739029,-14656.077652,-11951.089769
20438.447969,-6291.750507,-14211.954086,-7354.516781
20438.448302,-444.123565,-11103.089130,76.609550
20438.448635,444.123565,-9844.739029,3524.039291
20438.448969,740.205942,-4811.338623,3064.381992
20438.449302,4589.276840,-8882.471304,8503.660028
20438.449635,5847.626942,-1850.514855,7354.516781
20438.449968,3552.988522,-3627.009116,8273.831378
20438.450302,2368.659014,-9252.574275,2834.553343
20438.450635,-4737.318029,-9548.656652,-4596.572988
20438.450968,-6957.935855,-13027.624579,-6818.249932
20438.451301,-5181.441594,-13175.665768,-6128.763984
20438.451635,-3849.070898,-11103.089130,-2681.334243
20438.451968,-1850.514855,-8660.409521,-1838.629195
20438.452301,-370.102971,-8438.347739,1225.752797
20438.452634,740.205942,-8586.388927,2374.896044
20438.452968,2590.720797,-6069.688724,2987.772442
20438.453301,5255.462188,-8290.306550,5439.278036
20438.453634,2738.761985,-5921.647536,1378.971896
20438.453968,-1776.494261,-8364.327145,0.000000
20438.454301,-1258.350101,-13619.789333,-1915.238745
20438.454634,-1406.391290,-10436.903782,-1838.629195
20438.454967,0.000000,-9548.656652,2451.505594
20438.455301,1258.350101,-9770.718434,766.095498
20438.455634,-592.164754,-9252.574275,229.828649
20438.455967,0.000000,-9104.533087,-536.266849
20438.456300,2294.638420,-8290.306550,-76.609550
20438.456634,3478.967927,-6513.812290,-1838.629195
20438.456967,-1776.494261,-9252.574275,-153.219100
20438.457300,-1554.432478,-13027.624579,-1302.362347
20438.457633,-3478.967927,-8956.491898,-2451.505594
20438.457967,1998.556043,-11251.130318,2987.772442
20438.458300,4293.194464,-8068.244768,6358.592633
20438.458633,5995.668130,-5921.647536,5669.106685
20438.458967,4737.318029,-7328.038826,4366.744339
20438.459300,2738.761985,-8364.327145,0.000000
20438.459633,1702.473667,-9104.533087,-3677.258390
20438.459966,-74.020594,-11843.295072,-4979.620737
20438.460300,-3997.112087,-10732.986159,-6128.763984
20438.460633,-6513.812290,-11917.315666,-5745.716235
20438.460966,-3849.070898,-11843.295072,-3753.867940
20438.461299,888.247130,-9474.636058,3064.381992
20438.461633,5329.482782,-7402.059420,8197.221829
20438.461966,5847.626942,-5033.400406,7354.516781
20438.462299,5625.565159,-6513.812290,8120.612279
20438.462632,2960.823768,-4811.338623,3983.696590
20438.462966,7624.121203,-9474.636058,3600.648841
20438.463299,2368.659014,-8068.244768,-3370.820191
20438.463632,-2442.679609,-14211.954086,-4979.620737
20438.463966,-8438.347739,-14730.098246,-9806.022374
20438.464299,-8364.327145,-15396.283594,-8044.002729
20438.464632,-5625.565159,-11917.315666,-3217.601092
20438.464965,0.000000,-8142.265362,2757.943793
20438.465299,3478.967927,-5329.482782,6665.030833
20438.465632,5329.482782,-5107.421000,10955.165621
20438.465965,5255.462188,-3034.844362,6741.640382
20438.466298,3552.988522,-4811.338623,7967.393179
20438.466632,4663.297435,-7698.141797,995.924147
20438.466965,-2812.782580,-10288.862594,-4903.011187
20438.467298,-5551.544565,-14211.954086,-8350.440928
20438.467631,-7328.038826,-14211.954086,-8350.440928
20438.467965,-4737.318029,-13175.665768,-3753.867940
20438.468298,-1258.350101,-10658.965565,-689.485948
20438.468631,-1184.329507,-9696.697840,3524.039291
20438.468965,0.000000,-5995.668130,2911.162892
20438.469298,2294.638420,-5625.565159,4673.182538
20438.469631,5995.668130,-2960.823768,5439.278036
20438.469964,6883.915261,-7105.977043,6052.154434
20438.470298,0.000000,-8660.409521,1225.752797
20438.470631,-1850.514855,-13619.789333,-2528.115143
20438.470964,-6809.894666,-11917.315666,-3677.258390
20438.471297,-4737.318029,-11917.315666,-3064.381992
20438.471631,-1850.514855,-11103.089130,-2528.115143
20438.471964,-1702.473667,-9104.533087,-1378.971896
20438.472297,-518.144159,-8438.347739,612.876398
20438.472630,444.123565,-8734.430116,2145.067394
20438.472964,2442.679609,-3034.844362,612.876398
20438.473297,3849.070898,-8586.388927,5439.278036
20438.473630,2294.638420,-8290.306550,-76.609550
20438.473964,-1776.494261,-9548.656652,153.219100
20438.474297,1628.453072,-13027.624579,1762.019645
20438.474630,2590.720797,-7772.162391,0.000000
20438.474963,4515.256246,-9918.759623,3447.429741
20438.475297,2590.720797,-9992.780217,1149.143247
20438.475630,148.041188,-9548.656652,-1225.752797
20438.475963,0.000000,-9548.656652,-2451.505594
20438.476296,3256.906145,-10658.965565,-76.609550
20438.476630,74.020594,-7550.100608,-2451.505594
20438.476963,-4737.318029,-9548.656652,-2298.286494
20438.477296,-2442.679609,-11843.295072,-2834.553343
20438.477629,-2368.659014,-9548.656652,612.876398
20438.477963,2590.720797,-7550.100608,4519.963438
20438.478296,5033.400406,-6957.935855,6741.640382
20438.478629,6291.750507,-6217.729913,5975.544884
20438.478963,5403.503377,-8586.388927,5745.716235
20438.479296,4663.297435,-11251.130318,-76.609550
20438.479629,1998.556043,-7772.162391,-3677.258390
20438.479962,-1036.288319,-12731.542202,-2911.162892
20438.480296,-1554.432478,-14211.954086,-8044.002729
20438.480629,-8290.306550,-13249.686362,-6128.763984
20438.480962,-3923.091493,-11325.150913,-2987.772442
20438.481295,592.164754,-8660.409521,3753.867940
20438.481629,4515.256246,-6217.729913,8580.269578
20438.481962,5847.626942,-4737.318029,9652.803275
20438.482295,3923.091493,-5255.462188,5898.935335
20438.482628,3552.988522,-5773.606348,3677.258390
20438.482962,2812.782580,-6291.750507,612.876398
20438.483295,-1110.308913,-9548.656652,-5362.668486
20438.483628,-8882.471304,-11325.150913,-9193.145976
20438.483962,-8956.491898,-16580.613101,-8810.098227
20438.484295,-7698.141797,-12731.542202,-6818.249932
20438.484628,-3849.070898,-9548.656652,0.000000
20438.484961,1110.308913,-7994.224174,4213.525239
20438.485295,2368.659014,-4811.338623,7967.393179
20438.485628,3775.050304,-4737.318029,8273.831378
20438.485961,5625.565159,-4811.338623,7967.393179
20438.486294,4737.318029,-5107.421000,6128.763984
20438.486628,2590.720797,-7550.100608,1072.533697
20438.486961,-1258.350101,-11843.295072,-5592.497135
20438.487294,-7698.141797,-13101.645173,-7354.516781
20438.487627,-7105.977043,-12509.480420,-6741.640382
20438.487961,-4737.318029,-11325.150913,-4596.572988
20438.488294,-2072.576638,-10658.965565,-76.609550
20438.488627,-2368.659014,-8882.471304,0.000000
20438.488961,148.041188,-7772.162391,2451.505594
20438.489294,5847.626942,-7105.977043,6052.154434
20438.489627,5625.565159,-3923.091493,6741.640382
20438.489960,4663.297435,-7105.977043,2987.772442
20438.490294,-2960.823768,-9548.656652,612.876398
20438.490627,-1850.514855,-11251.130318,-2528.115143
20438.490960,-370.102971,-11843.295072,-1608.800546
20438.491293,1332.370696,-10955.047942,-76.609550
20438.491627,592.164754,-8808.450710,-842.705048
20438.491960,-814.226536,-9844.739029,-1225.752797
20438.492293,222.061783,-9252.574275,-1225.752797
20438.492626,592.164754,-8068.244768,1838.629195
20438.492960,2812.782580,-5995.668130,0.000000
20438.493293,0.000000,-7772.162391,2145.067394
20438.493626,-74.020594,-8882.471304,-1608.800546
20438.493960,-2960.823768,-8660.409521,-2145.067394
20438.494293,2294.638420,-10658.965565,2374.896044
20438.494626,5255.462188,-7624.121203,4903.011187
20438.494959,4515.256246,-8290.306550,5362.668486
20438.495293,2368.659014,-8364.327145,1455.581446
20438.495626,1998.556043,-11843.295072,-1302.362347
20438.495959,0.000000,-8364.327145,-1225.752797
20438.496292,2886.803174,-9474.636058,-1302.362347
20438.496626,-2442.679609,-9548.656652,-6128.763984
20438.496959,-6809.894666,-11251.130318,-4903.011187
20438.497292,-4219.173869,-12287.418637,-2834.553343
20438.497625,0.000000,-8660.409521,2757.943793
20438.497959,4515.256246,-5995.668130,7124.688131
20438.498292,5329.482782,-5181.441594,8350.440928
20438.498625,6291.750507,-6513.812290,6665.030833
20438.498959,3923.091493,-7550.100608,4826.401637
20438.499292,1776.494261,-8586.388927,-76.609550
20438.499625,-1036.288319,-9252.574275,-4826.401637
20438.499958,-6513.812290,-10732.986159,-9039.926876
20438.500292,-5403.503377,-14211.954086,-9269.755526
20438.500625,-8290.306550,-11917.315666,-8273.831378
20438.500958,-4145.153275,-12213.398043,-76.609550
20438.501291,2886.803174,-7994.224174,4903.011187
20438.501625,4071.132681,-4811.338623,6128.763984
20438.501958,5181.441594,-4737.318029,7431.126331
20438.502291,4219.173869,-5477.523971,5898.935335
20438.502624,5181.441594,-5847.626942,3983.696590
20438.502958,3552.988522,-8068.244768,2604.724693
20438.503291,-962.267725,-13027.624579,-4366.744339
20438.503624,-8586.388927,-11917.315666,-9499.584175
20438.503958,-11843.295072,-16062.468941,-6665.030833
20438.504291,-3330.926739,-12435.459826,-4443.353888
20438.504624,-3552.988522,-8364.327145,1225.752797
20438.504957,2294.638420,-7105.977043,4213.525239
20438.505290,3256.906145,-5995.668130,6818.249932
20438.505624,4441.235652,-5403.503377,7584.345430
20438.505957,7624.121203,-4737.318029,7277.907231
20438.506290,5551.544565,-9474.636058,3600.648841
20438.506623,0.000000,-8364.327145,-919.314598
20438.506957,-3182.885551,-13619.789333,-2528.115143
20438.507290,-4219.173869,-13915.871710,-7354.516781
20438.507623,-2146.597232,-13027.624579,-2834.553343
20438.507956,-962.267725,-10807.006753,-383.047749
20438.508289,1332.370696,-8882.471304,919.314598
20438.508623,518.144159,-8882.471304,1149.143247
20438.508956,296.082377,-4811.338623,1378.971896
20438.509289,6439.791695,-5921.647536,4826.401637
20438.509622,6439.791695,-4885.359217,2451.505594
20438.509955,1776.494261,-8068.244768,2451.505594
20438.510289,-666.185348,-14211.954086,-1302.362347
20438.510622,-3552.988522,-9030.512492,-2987.772442
20438.510955,444.123565,-10955.047942,76.609550
20438.511288,1480.411884,-10140.821405,766.095498
20438.511622,518.144159,-9474.636058,-76.609550
20438.511955,-2664.741391,-11029.068536,-612.876398
20438.512288,-2072.576638,-7179.997637,-1685.410096
20438.512621,1554.432478,-8882.471304,-76.609550
20438.512954,2886.803174,-4811.338623,-2451.505594
20438.513288,1776.494261,-9474.636058,1762.019645
20438.513621,-1850.514855,-10066.800811,-689.485948
20438.513954,0.000000,-9400.615463,459.657299
20438.514287,1850.514855,-10955.047942,3140.991542
20438.514620,6883.915261,-7624.121203,5439.278036
20438.514954,4293.194464,-10140.821405,4979.620737
20438.515287,296.082377,-9548.656652,919.314598
20438.515620,1036.288319,-8290.306550,-2298.286494
20438.515953,518.144159,-9696.697840,-2145.067394
20438.516287,1184.329507,-9104.533087,-2681.334243
20438.516620,-5773.606348,-11325.150913,-4903.011187
20438.516953,-7402.059420,-9548.656652,-8580.269578
20438.517286,-5921.647536,-11917.315666,-76.609550
20438.517619,814.226536,-7476.080014,3217.601092
20438.517953,4663.297435,-4737.318029,7737.564530
20438.518286,4737.318029,-6513.812290,8810.098227
20438.518619,3701.029710,-5033.400406,4826.401637
20438.518952,2664.741391,-8512.368333,2681.334243
20438.519285,2368.659014,-7624.121203,-2068.457845
20438.519619,-222.061783,-13027.624579,-3753.867940
20438.519952,-8290.306550,-12213.398043,-8580.269578
20438.520285,-7698.141797,-15026.180623,-5745.716235
20438.520618,-5403.503377,-13027.624579,-5592.497135
20438.520952,-3552.988522,-7179.997637,0.000000
20438.521285,4071.132681,-7698.141797,7584.345430
20438.521618,4737.318029,-4293.194464,9499.584175
20438.521951,4441.235652,-4663.297435,7814.174080
20438.522284,4515.256246,-5921.647536,6128.763984
20438.522618,4663.297435,-4441.235652,1455.581446
20438.522951,0.000000,-9548.656652,612.876398
20438.523284,-4811.338623,-12435.459826,-7431.126331
20438.523617,-8364.327145,-13767.830521,-11874.480219
20438.523950,-7105.977043,-14656.077652,-5132.839837
20438.524284,-1554.432478,-10288.862594,-3064.381992
20438.524617,1184.329507,-8808.450710,2374.896044
20438.524950,2812.782580,-7846.182985,4903.011187
20438.525283,4367.215058,-6069.688724,6358.592633
20438.525617,6069.688724,-3627.009116,6741.640382
20438.525950,7105.977043,-5995.668130,9422.974625
20438.526283,5551.544565,-6957.935855,919.314598
20438.526616,592.164754,-10807.006753,-153.219100
20438.526949,-74.020594,-14211.954086,-2221.676944
20438.527283,-2146.597232,-12509.480420,-5515.887586
20438.527616,0.000000,-11769.274478,-1915.238745
20438.527949,74.020594,-10955.047942,-383.047749
20438.528282,74.020594,-9400.615463,-76.609550
20438.528615,-2072.576638,-6291.750507,-2068.457845
20438.528949,2812.782580,-5995.668130,919.314598
20438.529282,6217.729913,-6217.729913,5515.887586
20438.529615,4515.256246,-6291.750507,3753.867940
20438.529948,2294.638420,-9474.636058,-76.609550
20438.530282,-1258.350101,-12435.459826,-2834.553343
20438.530615,0.000000,-10140.821405,-306.438199
20438.530948,4663.297435,-12435.459826,3600.648841
20438.531281,2294.638420,-9548.656652,383.047749
20438.531614,1480.411884,-8956.491898,-306.438199
20438.531948,-74.020594,-11103.089130,-76.609550
20438.532281,2664.741391,-7328.038826,383.047749
20438.532614,1406.391290,-8438.347739,-76.609550
20438.532947,-1702.473667,-7994.224174,-2604.724693
20438.533280,-3330.926739,-10362.883188,-3753.867940
20438.533614,-5921.647536,-10140.821405,-76.609550
20438.533947,-74.020594,-10362.883188,2068.457845
20438.534280,2294.638420,-7254.018232,3983.696590
20438.534613,3330.926739,-7105.977043,6052.154434
20438.534947,296.082377,-6883.915261,3677.258390
20438.535280,-666.185348,-8586.388927,-842.705048
20438.535613,-740.205942,-9844.739029,-2221.676944
20438.535946,-2368.659014,-9548.656652,-2298.286494
20438.536279,-3034.844362,-10658.965565,-6665.030833
20438.536613,-7105.977043,-13397.727550,-3753.867940
20438.536946,-7179.997637,-12435.459826,-6052.154434
20438.537279,-4441.235652,-8882.471304,0.000000
20438.537612,592.164754,-6291.750507,6128.763984
20438.537945,2812.782580,-6365.771101,7660.954980
20438.538279,4441.235652,-5107.421000,7890.783629
20438.538612,4145.153275,-5995.668130,5515.887586
20438.538945,5847.626942,-8290.306550,3600.648841
20438.539278,0.000000,-7179.997637,-2451.505594
20438.539612,-1850.514855,-11251.130318,-7431.126331
20438.539945,-7476.080014,-12953.603985,-10418.898773
20438.540278,-7105.977043,-13693.809927,-6435.202183
20438.540611,-1258.350101,-13619.789333,-689.485948
20438.540944,666.185348,-8956.491898,3447.429741
20438.541278,4441.235652,-7105.977043,6588.421283
20438.541611,4219.173869,-6217.729913,7814.174080
20438.541944,6809.894666,-4589.276840,6588.421283
20438.542277,7105.977043,-5403.503377,8656.879127
20438.542610,7031.956449,-5625.565159,0.000000
20438.542944,740.205942,-10140.821405,-1838.629195
20438.543277,-2442.679609,-14211.954086,-8044.002729
20438.543610,-3627.009116,-15100.201217,-8503.660028
20438.543943,-3552.988522,-14508.036463,-3753.867940
20438.544277,1628.453072,-9400.615463,-536.266849
20438.544610,2442.679609,-9178.553681,2221.676944
20438.544943,3775.050304,-7402.059420,3294.210641
20438.545276,5033.400406,-6883.915261,7584.345430
20438.545609,6957.935855,-4885.359217,6358.592633
20438.545943,7624.121203,-5477.523971,4443.353888
20438.546276,2442.679609,-9400.615463,229.828649
20438.546609,-666.185348,-11843.295072,-3753.867940
20438.546942,-4441.235652,-12805.562797,-3294.210641
20438.547275,-148.041188,-14508.036463,-76.609550
20438.547609,814.226536,-9548.656652,-1838.629195
20438.547942,-888.247130,-10436.903782,1378.971896
20438.548275,2294.638420,-9474.636058,-76.609550
20438.548608,-1036.288319,-7550.100608,995.924147
20438.548942,1924.535449,-6291.750507,1532.190996
20438.549275,3034.844362,-7105.977043,4060.306139
20438.549608,-2072.576638,-7179.997637,0.000000
20438.549941,-5921.647536,-10140.821405,-1149.143247
20438.550274,-3775.050304,-11843.295072,-1302.362347
20438.550608,-370.102971,-7328.038826,0.000000
20438.550941,2072.576638,-7476.080014,4060.306139
20438.551274,1110.308913,-8882.471304,536.266849
20438.551607,-1554.432478,-10066.800811,-1072.533697
20438.551940,-4737.318029,-9622.677246,-1838.629195
20438.552274,-814.226536,-7994.224174,-2221.676944
20438.552607,-1776.494261,-7772.162391,0.000000
20438.552940,-3552.988522,-9548.656652,1608.800546
20438.553273,-3627.009116,-7920.203579,-2451.505594
20438.553606,-3552.988522,-9844.739029,2451.505594
20438.553940,1702.473667,-9030.512492,4213.525239
20438.554273,1480.411884,-6587.832884,6128.763984
20438.554606,2886.803174,-7920.203579,3830.477490
20438.554939,1110.308913,-8364.327145,1762.019645
20438.555273,444.123565,-8734.430116,-1838.629195
20438.555606,2886.803174,-9474.636058,-2528.115143
20438.555939,666.185348,-12435.459826,-1302.362347
20438.556272,-3034.844362,-11547.212695,-7277.907231
20438.556605,-8882.471304,-11917.315666,-6128.763984
20438.556939,-4737.318029,-12509.480420,-1378.971896
20438.557272,3478.967927,-8734.430116,5745.716235
20438.557605,4737.318029,-5403.503377,8580.269578
20438.557938,7550.100608,-3923.091493,8503.660028
20438.558271,6291.750507,-5847.626942,6588.421283
20438.558605,4293.194464,-5181.441594,2451.505594
20438.558938,6735.874072,-7698.141797,-383.047749
20438.559271,0.000000,-11917.315666,-4903.011187
20438.559604,-2738.761985,-14211.954086,-8656.879127
20438.559938,-7772.162391,-15026.180623,-9806.022374
20438.560271,-2590.720797,-13693.809927,-3753.867940
20438.560604,-888.247130,-10584.944971,995.924147
20438.560937,3182.885551,-7772.162391,5439.278036
20438.561270,5847.626942,-5625.565159,8273.831378
20438.561604,5033.400406,-3404.947333,6818.249932
20438.561937,7031.956449,-4219.173869,5515.887586
20438.562270,6883.915261,-6365.771101,4673.182538
20438.562603,4145.153275,-8808.450710,842.705048
20438.562936,-1406.391290,-11103.089130,-4979.620737
20438.563270,-7476.080014,-15396.283594,-8197.221829
20438.563603,-4811.338623,-17172.777854,-6818.249932
20438.563936,-3330.926739,-12731.542202,-4290.134789
20438.564269,2368.659014,-9400.615463,1225.752797
20438.564603,2368.659014,-8734.430116,4903.011187
20438.564936,2812.782580,-4811.338623,4903.011187
20438.565269,5181.441594,-5033.400406,6741.640382
20438.565602,6143.709319,-4589.276840,6128.763984
20438.565935,5255.462188,-6291.750507,2757.943793
20438.566269,-1776.494261,-9548.656652,-2145.067394
20438.566602,-1850.514855,-11103.089130,-5132.839837
20438.566935,-3330.926739,-10288.862594,-6128.763984
20438.567268,-888.247130,-14211.954086,-76.609550
20438.567601,2294.638420,-10658.965565,-76.609550
20438.567935,-2960.823768,-10881.027347,1455.581446
20438.568268,-1258.350101,-7179.997637,-536.266849
20438.568601,-1480.411884,-6587.832884,153.219100
20438.568934,2516.700203,-6291.750507,2528.115143
20438.569268,3404.947333,-6735.874072,4826.401637
20438.569601,-1258.350101,-6587.832884,-2145.067394
20438.569934,-2960.823768,-9696.697840,-2451.505594
20438.570267,-666.185348,-13619.789333,-76.609550
20438.570600,1850.514855,-6587.832884,612.876398
20438.570934,3775.050304,-11251.130318,2374.896044
20438.571267,1702.473667,-8734.430116,0.000000
20438.571600,-1184.329507,-12065.356855,-1225.752797
20438.571933,0.000000,-9326.594869,-1532.190996
20438.572266,2294.638420,-9474.636058,-1302.362347
20438.572600,-2886.803174,-7179.997637,-3677.258390
20438.572933,-1480.411884,-10510.924376,-1455.581446
20438.573266,-3627.009116,-13027.624579,-1302.362347
20438.573599,-1184.329507,-5107.421000,0.000000
20438.573933,3478.967927,-8290.306550,6052.154434
20438.574266,4663.297435,-6365.771101,6818.249932
20438.574599,2294.638420,-6883.915261,4826.401637
20438.574932,1406.391290,-7994.224174,1915.238745
20438.575265,1702.473667,-10362.883188,-1302.362347
20438.575599,0.000000,-10510.924376,-2604.724693
20438.575932,-3923.091493,-11769.274478,-5209.449386
20438.576265,-7846.182985,-12213.398043,-7737.564530
20438.576598,-9474.636058,-13101.645173,-6741.640382
20438.576931,-2812.782580,-13027.624579,-1302.362347
20438.577265,2294.638420,-5995.668130,4290.134789
20438.577598,2960.823768,-3627.009116,9806.022374
20438.577931,7031.956449,-6365.771101,8503.660028
20438.578264,4145.153275,-4811.338623,5362.668486
20438.578598,5403.503377,-7402.059420,3600.648841
20438.578931,3997.112087,-8882.471304,-383.047749
20438.579264,-1850.514855,-12879.583391,-5439.278036
20438.579597,-4219.173869,-15100.201217,-6205.373534
20438.579930,-7105.977043,-17246.798449,-4366.744339
20438.580264,-4219.173869,-11399.171507,-4903.011187
20438.580597,0.000000,-7179.997637,0.000000
20438.580930,3849.070898,-6883.915261,7814.174080
20438.581263,6143.709319,-5625.565159,8580.269578
20438.581596,4811.338623,-4071.132681,6435.202183
20438.581930,3108.864956,-7105.977043,3677.258390
20438.582263,6661.853478,-4737.318029,2911.162892
20438.582596,518.144159,-10807.006753,-1685.410096
20438.582929,-1406.391290,-11473.192101,-4979.620737
20438.583263,-7179.997637,-13397.727550,-9193.145976
20438.583596,-5921.647536,-15396.283594,-5898.935335
20438.583929,592.164754,-10881.027347,1762.019645
20438.584262,-74.020594,-9474.636058,-76.609550
20438.584595,3330.926739,-6957.935855,3983.696590
20438.584929,1702.473667,-6217.729913,3907.087040
20438.585262,5551.544565,-6217.729913,4903.011187
20438.585595,4737.318029,-2738.761985,3677.258390
20438.585928,4663.297435,-9178.553681,229.828649
20438.586261,592.164754,-11177.109724,-1225.752797
20438.586595,-1554.432478,-14211.954086,-3753.867940
20438.586928,-1702.473667,-10732.986159,-4290.134789
20438.587261,-2368.659014,-11917.315666,0.000000
20438.587594,740.205942,-10658.965565,153.219100
20438.587928,-444.123565,-10066.800811,1532.190996
20438.588261,296.082377,-6883.915261,1225.752797
20438.588594,3478.967927,-7698.141797,3600.648841
20438.588927,1110.308913,-5107.421000,1225.752797
20438.589260,1332.370696,-9326.594869,1762.019645
20438.589594,-3923.091493,-9474.636058,-2528.115143
20438.589927,-4737.318029,-10140.821405,-612.876398
20438.590260,0.000000,-10140.821405,2145.067394
20438.590593,1924.535449,-8364.327145,3907.087040
20438.590926,2886.803174,-7550.100608,1838.629195
20438.591260,-1998.556043,-10436.903782,0.000000
20438.591593,-666.185348,-11843.295072,-76.609550
20438.591926,-2368.659014,-7920.203579,-1685.410096
20438.592259,-666.185348,-8734.430116,-1455.581446
20438.592593,-3404.947333,-9252.574275,-2528.115143
20438.592926,-4737.318029,-9548.656652,-1991.848295
20438.593259,-592.164754,-9474.636058,2451.505594
20438.593592,1036.288319,-7031.956449,3677.258390
20438.593925,2368.659014,-7772.162391,8810.098227
20438.594259,4071.132681,-7254.018232,3677.258390
20438.594592,1184.329507,-7846.182985,1608.800546
20438.594925,2664.741391,-9474.636058,1685.410096
20438.595258,1110.308913,-9548.656652,-1915.238745
20438.595591,1110.308913,-9992.780217,-3370.820191
20438.595925,-3256.906145,-11991.336260,-4903.011187
20438.596258,-4811.338623,-14211.954086,-4979.620737
20438.596591,-5403.503377,-10955.047942,-4903.011187
20438.596924,-74.020594,-10584.944971,1838.629195
20438.597258,7031.956449,-6513.812290,6052.154434
20438.597591,5033.400406,-4811.338623,7967.393179
20438.597924,7254.018232,-6957.935855,7277.907231
20438.598257,4737.318029,-6809.894666,4673.182538
20438.598590,4367.215058,-7254.018232,919.314598
20438.598924,3404.947333,-10658.965565,-2145.067394
20438.599257,-4293.194464,-11991.336260,-7890.783629
20438.599590,-6587.832884,-11917.315666,-9806.022374
20438.599923,-4515.256246,-15988.448347,-4979.620737
20438.600256,-1258.350101,-11843.295072,-1608.800546
20438.600590,0.000000,-7476.080014,2757.943793
20438.600923,3182.885551,-7105.977043,4673.182538
20438.601256,3923.091493,-5033.400406,7354.516781
20438.601589,4367.215058,-5033.400406,6665.030833
20438.601923,5625.565159,-4293.194464,4903.011187
20438.602256,4145.153275,-7772.162391,2604.724693
20438.602589,-1480.411884,-11325.150913,-153.219100
20438.602922,-3627.009116,-14211.954086,-6818.249932
20438.603255,-8068.244768,-13397.727550,-8580.269578
20438.603589,-4145.153275,-13397.727550,-995.924147
20438.603922,-74.020594,-10066.800811,-2068.457845
20438.604255,1332.370696,-8438.347739,2681.334243
20438.604588,74.020594,-7846.182985,3447.429741
20438.604921,2960.823768,-6291.750507,4519.963438
20438.605255,4737.318029,-4219.173869,5056.230287
20438.605588,3923.091493,-6883.915261,3753.867940
20438.605921,1628.453072,-7920.203579,0.000000
20438.606254,-1480.411884,-11029.068536,-995.924147
20438.606587,-962.267725,-11843.295072,-689.485948
20438.606921,0.000000,-9474.636058,-76.609550
20438.607254,0.000000,-9548.656652,306.438199
20438.607587,1554.432478,-11251.130318,-76.609550
20438.607920,-74.020594,-9474.636058,-1915.238745
20438.608253,-74.020594,-9178.553681,-1302.362347
20438.608587,2886.803174,-8290.306550,536.266849
20438.608920,1924.535449,-9548.656652,1302.362347
20438.609253,2294.638420,-9474.636058,-76.609550
20438.609586,-518.144159,-9696.697840,689.485948
20438.609920,1406.391290,-12953.603985,3600.648841
20438.610253,7031.956449,-6809.894666,3753.867940
20438.610586,5033.400406,-7179.997637,2757.943793
20438.610919,5329.482782,-8956.491898,5439.278036
20438.611252,1702.473667,-10658.965565,-689.485948
20438.611586,148.041188,-11251.130318,-2987.772442
20438.611919,0.000000,-9104.533087,-3370.820191
20438.612252,-2146.597232,-11251.130318,-4366.744339
20438.612585,-5255.462188,-10658.965565,-4979.620737
20438.612918,-4811.338623,-11843.295072,-3140.991542
20438.613252,-888.247130,-9622.677246,3064.381992
20438.613585,4663.297435,-7698.141797,6665.030833
20438.613918,4145.153275,-4811.338623,7967.393179
20438.614251,2368.659014,-5403.503377,7354.516781
20438.614584,1850.514855,-6883.915261,2757.943793
20438.614918,3182.885551,-7698.141797,842.705048
20438.615251,0.000000,-9918.759623,-2374.896044
20438.615584,-4589.276840,-13175.665768,-6588.421283
20438.615917,-9400.615463,-11917.315666,-9806.022374
20438.616250,-8364.327145,-16580.613101,-6511.811733
20438.616584,-5403.503377,-14211.954086,-3140.991542
20438.616917,-2960.823768,-6587.832884,3677.258390
20438.617250,4663.297435,-5921.647536,10801.946522
20438.617583,3849.070898,-3182.885551,9806.022374
20438.617916,4071.132681,-5181.441594,7584.345430
20438.618250,5033.400406,-5921.647536,6511.811733
20438.618583,1998.556043,-7476.080014,1685.410096
20438.618916,-2368.659014,-10732.986159,-4290.134789
20438.619249,-5995.668130,-14211.954086,-9882.631924
20438.619582,-9474.636058,-14285.974681,-8580.269578
20438.619916,-7105.977043,-13101.645173,-2528.115143
20438.620249,-74.020594,-11843.295072,1762.019645
20438.620582,0.000000,-7179.997637,3983.696590
20438.620915,1702.473667,-7402.059420,6205.373534
20438.621249,4441.235652,-3701.029710,7431.126331
20438.621582,4071.132681,-5329.482782,5745.716235
20438.621915,4737.318029,-3627.009116,4903.011187
20438.622248,2146.597232,-8586.388927,0.000000
20438.622581,-1924.535449,-10140.821405,-3753.867940
20438.622915,-3478.967927,-11917.315666,-6128.763984
20438.623248,-2442.679609,-15100.201217,-5132.839837
20438.623581,0.000000,-9844.739029,-2451.505594
20438.623914,-222.061783,-11843.295072,-76.609550
20438.624247,3478.967927,-7105.977043,-1762.019645
20438.624581,740.205942,-8068.244768,2757.943793
20438.624914,8216.285956,-7624.121203,6665.030833
20438.625247,7550.100608,-4811.338623,6818.249932
20438.625580,4959.379811,-7105.977043,2528.115143
20438.625913,1776.494261,-9844.739029,-842.705048
20438.626247,-2072.576638,-10140.821405,-3064.381992
20438.626580,0.000000,-9548.656652,-2451.505594
20438.626913,4515.256246,-11843.295072,-76.609550
20438.627246,296.082377,-9030.512492,-1455.581446
20438.627579,0.000000,-9548.656652,0.000000
20438.627913,740.205942,-8290.306550,-76.609550
20438.628246,3478.967927,-7846.182985,842.705048
20438.628579,1332.370696,-7772.162391,842.705048
20438.628912,-1110.308913,-9474.636058,-1608.800546
20438.629245,-3256.906145,-11029.068536,-612.876398
20438.629579,-3552.988522,-9548.656652,0.000000
20438.629912,2294.638420,-10658.965565,1455.581446
20438.630245,2664.741391,-5995.668130,5209.449386
20438.630578,1776.494261,-7179.997637,6435.202183
20438.630912,2960.823768,-9104.533087,1378.971896
20438.631245,-962.267725,-11251.130318,-689.485948
20438.631578,-2294.638420,-9400.615463,-2374.896044
20438.631911,-2442.679609,-9918.759623,-3600.648841
20438.632244,-3627.009116,-10658.965565,-4979.620737
20438.632578,-7105.977043,-11621.233289,-2604.724693
20438.632911,-5995.668130,-10658.965565,-2528.115143
20438.633244,-3256.906145,-7772.162391,3677.258390
20438.633577,2590.720797,-8142.265362,8503.660028
20438.633910,4071.132681,-7994.224174,7277.907231
20438.634244,2368.659014,-5773.606348,5898.935335
20438.634577,2738.761985,-6957.935855,3524.039291
20438.634910,3701.029710,-6439.791695,536.266849
20438.635243,-2368.659014,-9548.656652,-3677.258390
20438.635576,-3034.844362,-13619.789333,-7431.126331
20438.635910,-9474.636058,-14285.974681,-8273.831378
20438.636243,-10658.965565,-14285.974681,-5056.230287
20438.636576,-2442.679609,-11251.130318,-2221.676944
20438.636909,1110.308913,-7402.059420,4826.401637
20438.637242,4959.379811,-4737.318029,8656.879127
20438.637576,4885.359217,-4145.153275,9729.412825
20438.637909,5403.503377,-4811.338623,7507.735880
20438.638242,4737.318029,-2442.679609,3677.258390
20438.638575,3330.926739,-9474.636058,536.266849
20438.638908,-814.226536,-10140.821405,-5822.325785
20438.639242,-6883.915261,-14508.036463,-9346.365076
20438.639575,-6735.874072,-15100.201217,-9422.974625
20438.639908,-3330.926739,-11991.336260,-4519.963438
20438.640241,666.185348,-11843.295072,-76.609550
20438.640574,2294.638420,-7179.997637,1532.190996
20438.640908,2960.823768,-6883.915261,7124.688131
20438.641241,7698.141797,-5995.668130,8886.707777
20438.641574,8808.450710,-1850.514855,6588.421283
20438.641907,8216.285956,-6661.853478,5362.668486
20438.642241,3256.906145,-8068.244768,842.705048
20438.642574,-1406.391290,-12805.562797,-3753.867940
20438.642907,-3478.967927,-12509.480420,-7354.516781
20438.643240,-74.020594,-14211.954086,-4979.620737
20438.643573,0.000000,-8364.327145,-4903.011187
