#time,accel_x,accel_y,accel_z
21340.067503,4959.379811,-9622.677246,-766.095498
21340.067837,7402.059420,-9770.718434,3294.210641
21340.068171,8586.388927,-9622.677246,3370.820191
21340.068504,9548.656652,-9696.697840,3983.696590
21340.068838,10066.800811,-8586.388927,3447.429741
21340.069171,11177.109724,-8882.471304,2374.896044
21340.069505,11177.109724,-7105.977043,-2451.505594
21340.069839,9178.553681,-10658.965565,-76.609550
21340.070172,8808.450710,-11843.295072,-1302.362347
21340.070506,7328.038826,-7772.162391,-4596.572988
21340.070839,8808.450710,-9474.636058,-2528.115143
21340.071173,8068.244768,-9474.636058,-1149.143247
21340.071507,9622.677246,-9696.697840,1685.410096
21340.071840,9844.739029,-9696.697840,2757.943793
21340.072174,5921.647536,-9548.656652,1838.629195
21340.072507,4737.318029,-10140.821405,0.000000
21340.072841,6513.812290,-11251.130318,4826.401637
21340.073175,5847.626942,-7550.100608,2451.505594
21340.073508,5847.626942,-4811.338623,2451.505594
21340.073842,6439.791695,-7105.977043,1149.143247
21340.074175,4737.318029,-6883.915261,0.000000
21340.074509,6439.791695,-6809.894666,-1072.533697
21340.074843,7105.977043,-7328.038826,-1685.410096
21340.075176,7402.059420,-7772.162391,-2834.553343
21340.075510,8290.306550,-10436.903782,-536.266849
21340.075843,9326.594869,-9548.656652,-1225.752797
21340.076177,10732.986159,-11547.212695,-536.266849
21340.076511,12213.398043,-13027.624579,3294.210641
21340.076844,12361.439231,-13027.624579,3294.210641
21340.077178,9104.533087,-11843.295072,536.266849
21340.077511,7698.141797,-9844.739029,1225.752797
21340.077845,10584.944971,-8882.471304,2374.896044
21340.078179,10214.842000,-6291.750507,4290.134789
21340.078512,11399.171507,-5403.503377,3600.648841
21340.078846,8068.244768,-7105.977043,1149.143247
21340.079179,6661.853478,-8364.327145,-1685.410096
21340.079513,4367.215058,-12435.459826,-1302.362347
21340.079847,4737.318029,-8364.327145,-919.314598
21340.080180,4663.297435,-9548.656652,-4290.134789
21340.080514,7105.977043,-9400.615463,1608.800546
21340.080847,7698.141797,-9548.656652,3294.210641
21340.081181,10584.944971,-7105.977043,1762.019645
21340.081515,11473.192101,-8586.388927,1762.019645
21340.081848,7772.162391,-9104.533087,-153.219100
21340.082182,10214.842000,-7846.182985,229.828649
21340.082515,9400.615463,-7328.038826,-1225.752797
21340.082849,11769.274478,-9474.636058,-76.609550
21340.083183,5921.647536,-7179.997637,-4290.134789
21340.083516,7105.977043,-13397.727550,2374.896044
21340.083850,10288.862594,-10510.924376,2068.457845
21340.084183,9474.636058,-8364.327145,3064.381992
21340.084517,14730.098246,-6439.791695,4213.525239
21340.084851,15322.262999,-6291.750507,6052.154434
21340.085184,14656.077652,-5403.503377,3064.381992
21340.085518,12657.521608,-6587.832884,-995.924147
21340.085851,10584.944971,-9474.636058,-4366.744339
21340.086185,6513.812290,-11917.315666,-4060.306139
21340.086519,7031.956449,-14211.954086,-4979.620737
21340.086852,3552.988522,-10732.986159,-6741.640382
21340.087186,9030.512492,-12435.459826,-612.876398
21340.087519,11843.295072,-7772.162391,3370.820191
21340.087853,14137.933492,-7550.100608,8197.221829
21340.088186,12287.418637,-7328.038826,7354.516781
21340.088520,10362.883188,-10066.800811,4596.572988
21340.088854,7105.977043,-8512.368333,2451.505594
21340.089187,8290.306550,-8216.285956,4826.401637
21340.089521,9400.615463,-5625.565159,-76.609550
21340.089854,5847.626942,-7994.224174,-4903.011187
21340.090188,1332.370696,-9548.656652,-4903.011187
21340.090522,0.000000,-9844.739029,-4903.011187
21340.090855,74.020594,-12361.439231,-4060.306139
21340.091189,-1554.432478,-10732.986159,-3830.477490
21340.091522,1628.453072,-9992.780217,536.266849
21340.091856,5255.462188,-6883.915261,5286.058936
21340.092190,8882.471304,-5921.647536,8503.660028
21340.092523,8290.306550,-7476.080014,7814.174080
21340.092857,6291.750507,-9844.739029,6358.592633
21340.093190,3923.091493,-11547.212695,3294.210641
21340.093524,3478.967927,-6809.894666,-2528.115143
21340.093858,1776.494261,-9548.656652,-4903.011187
21340.094191,4071.132681,-9474.636058,-4366.744339
21340.094525,814.226536,-7179.997637,-6588.421283
21340.094858,0.000000,-10732.986159,-3064.381992
21340.095192,-1258.350101,-11917.315666,-2757.943793
21340.095526,1702.473667,-9918.759623,0.000000
21340.095859,7105.977043,-8586.388927,5592.497135
21340.096193,7031.956449,-6513.812290,3294.210641
21340.096526,7031.956449,-9474.636058,1762.019645
21340.096860,5921.647536,-10436.903782,6052.154434
21340.097194,5921.647536,-13249.686362,6052.154434
21340.097527,4663.297435,-9474.636058,2374.896044
21340.097861,2294.638420,-10658.965565,1149.143247
21340.098194,-2960.823768,-8068.244768,-4060.306139
21340.098528,-2442.679609,-5773.606348,-5745.716235
21340.098862,-2442.679609,-10214.842000,-4826.401637
21340.099195,-2368.659014,-7772.162391,-1225.752797
21340.099529,1110.308913,-7179.997637,-2451.505594
21340.099862,2664.741391,-11843.295072,5745.716235
21340.100196,2294.638420,-8290.306550,2145.067394
21340.100530,0.000000,-9548.656652,2451.505594
21340.100863,4145.153275,-7179.997637,4673.182538
21340.101197,4737.318029,-7031.956449,4290.134789
21340.101530,6883.915261,-6809.894666,3370.820191
21340.101864,1480.411884,-8734.430116,-536.266849
21340.102198,-3849.070898,-14211.954086,-4903.011187
21340.102531,-4293.194464,-9548.656652,-5515.887586
21340.102865,592.164754,-12657.521608,-76.609550
21340.103198,5255.462188,-4885.359217,-1072.533697
21340.103532,2368.659014,-8956.491898,2451.505594
21340.103866,2368.659014,-5773.606348,0.000000
21340.104199,3478.967927,-11251.130318,1608.800546
21340.104533,5625.565159,-8364.327145,4749.792088
21340.104866,8216.285956,-9326.594869,5515.887586
21340.105200,5847.626942,-8882.471304,2987.772442
21340.105534,296.082377,-11843.295072,-76.609550
21340.105867,-6291.750507,-14063.912898,-6281.983084
21340.106201,-3182.885551,-7772.162391,-4903.011187
21340.106534,-3552.988522,-8956.491898,-2374.896044
21340.106868,2072.576638,-6735.874072,0.000000
21340.107202,-2442.679609,-8660.409521,-1149.143247
21340.107535,0.000000,-9844.739029,-612.876398
21340.107869,0.000000,-11547.212695,3600.648841
21340.108202,4663.297435,-7402.059420,4213.525239
21340.108536,8882.471304,-6217.729913,7277.907231
21340.108870,4737.318029,-8068.244768,6358.592633
21340.109203,-2368.659014,-11251.130318,-842.705048
21340.109537,-6513.812290,-13619.789333,-3447.429741
21340.109870,-2442.679609,-11843.295072,-2528.115143
21340.110204,-2368.659014,-8364.327145,0.000000
21340.110538,-74.020594,-9474.636058,1762.019645
21340.110871,-6143.709319,-6143.709319,-4749.792088
21340.111205,-8290.306550,-10732.986159,-4136.915689
21340.111538,-74.020594,-7105.977043,919.314598
21340.111872,3849.070898,-5847.626942,5209.449386
21340.112205,6735.874072,-4885.359217,6052.154434
21340.112539,0.000000,-9178.553681,612.876398
21340.112873,-3034.844362,-11769.274478,-3677.258390
21340.113206,-1184.329507,-10732.986159,842.705048
21340.113540,4071.132681,-10658.965565,1149.143247
21340.113873,2886.803174,-7476.080014,612.876398
21340.114207,-592.164754,-11029.068536,842.705048
21340.114541,-5107.421000,-12361.439231,-3677.258390
21340.114874,-3478.967927,-10066.800811,-3294.210641
21340.115208,-444.123565,-8882.471304,76.609550
21340.115541,3256.906145,-4663.297435,1455.581446
21340.115875,888.247130,-5403.503377,2451.505594
21340.116209,-1184.329507,-10807.006753,3600.648841
21340.116542,-74.020594,-9696.697840,-1225.752797
21340.116876,148.041188,-7179.997637,2451.505594
21340.117209,4441.235652,-8882.471304,3600.648841
21340.117543,2368.659014,-7772.162391,1685.410096
21340.117877,-2886.803174,-11695.253884,-2987.772442
21340.118210,-1998.556043,-13471.748144,-3524.039291
21340.118544,-962.267725,-11547.212695,-1685.410096
21340.118877,7254.018232,-9474.636058,2298.286494
21340.119211,4663.297435,-12435.459826,4519.963438
21340.119545,0.000000,-5995.668130,612.876398
21340.119878,0.000000,-11917.315666,1225.752797
21340.120212,4367.215058,-8290.306550,2374.896044
21340.120545,4737.318029,-3923.091493,4903.011187
21340.120879,5625.565159,-4811.338623,5515.887586
21340.121213,2146.597232,-5773.606348,459.657299
21340.121546,-2294.638420,-12731.542202,-2757.943793
21340.121880,-1776.494261,-11399.171507,-2451.505594
21340.122213,-1110.308913,-10658.965565,-3064.381992
21340.122547,666.185348,-8512.368333,-995.924147
21340.122881,-2368.659014,-8364.327145,-3217.601092
21340.123214,-5551.544565,-11251.130318,-5515.887586
21340.123548,-1258.350101,-11251.130318,-2374.896044
21340.123881,0.000000,-9104.533087,3370.820191
21340.124215,8216.285956,-9474.636058,4826.401637
21340.124549,3701.029710,-4219.173869,4903.011187
21340.124882,2294.638420,-10658.965565,2374.896044
21340.125216,888.247130,-8364.327145,2911.162892
21340.125549,2072.576638,-8290.306550,766.095498
21340.125883,3108.864956,-10510.924376,919.314598
21340.126217,-3552.988522,-7772.162391,-2451.505594
21340.126550,-7179.997637,-13841.851115,-9193.145976
21340.126884,-6217.729913,-15396.283594,-3753.867940
21340.127217,-3627.009116,-9104.533087,-2834.553343
21340.127551,1702.473667,-5847.626942,1532.190996
21340.127885,1332.370696,-5995.668130,5515.887586
21340.128218,148.041188,-6143.709319,2681.334243
21340.128551,-1924.535449,-12139.377449,2681.334243
21340.128884,1332.370696,-5995.668130,2834.553343
21340.129217,5847.626942,-8290.306550,4826.401637
21340.129550,4071.132681,-5403.503377,612.876398
21340.129883,-74.020594,-13619.789333,-3140.991542
21340.130217,-8882.471304,-13101.645173,-7354.516781
21340.130550,-3256.906145,-12657.521608,-1838.629195
21340.130883,1406.391290,-11251.130318,1838.629195
21340.131216,2886.803174,-7846.182985,2987.772442
21340.131549,-1036.288319,-9178.553681,-76.609550
21340.131882,-2886.803174,-10732.986159,0.000000
21340.132215,1998.556043,-8882.471304,2681.334243
21340.132548,2368.659014,-6291.750507,6894.859482
21340.132882,6735.874072,-5921.647536,3600.648841
21340.133215,-74.020594,-6365.771101,-1685.410096
21340.133548,-3552.988522,-11325.150913,-1915.238745
21340.133881,-1554.432478,-11843.295072,-2528.115143
21340.134214,814.226536,-10066.800811,-1608.800546
21340.134547,1924.535449,-10066.800811,1455.581446
21340.134880,0.000000,-7698.141797,-689.485948
21340.135214,-3552.988522,-10807.006753,-3140.991542
21340.135547,814.226536,-13027.624579,-76.609550
21340.135880,4367.215058,-7772.162391,2451.505594
21340.136213,7254.018232,-7476.080014,6128.763984
21340.136546,7031.956449,-8290.306550,4826.401637
21340.136879,-74.020594,-7698.141797,-1302.362347
21340.137212,1850.514855,-10510.924376,-76.609550
21340.137546,2516.700203,-8364.327145,995.924147
21340.137879,3256.906145,-8586.388927,1149.143247
21340.138212,888.247130,-5699.585753,-1608.800546
21340.138545,-2886.803174,-11547.212695,-4979.620737
21340.138878,-2590.720797,-12361.439231,-3830.477490
21340.139211,-1850.514855,-11769.274478,-2451.505594
21340.139544,3256.906145,-9770.718434,153.219100
21340.139877,2960.823768,-8364.327145,2604.724693
21340.140211,1850.514855,-11251.130318,4213.525239
21340.140544,-666.185348,-11843.295072,1762.019645
21340.140877,0.000000,-7772.162391,3677.258390
21340.141210,4071.132681,-6957.935855,3294.210641
21340.141543,5847.626942,-3849.070898,3677.258390
21340.141876,0.000000,-7328.038826,689.485948
21340.142209,-5403.503377,-9844.739029,-5132.839837
21340.142543,-6217.729913,-13397.727550,-4519.963438
21340.142876,-2960.823768,-9844.739029,-2451.505594
21340.143209,0.000000,-10140.821405,1762.019645
21340.143542,-3330.926739,-7624.121203,-2374.896044
21340.143875,-5403.503377,-10140.821405,-4290.134789
21340.144208,-2812.782580,-11621.233289,2374.896044
21340.144541,1702.473667,-6587.832884,5515.887586
21340.144874,7031.956449,-5551.544565,8810.098227
21340.145208,6217.729913,-2960.823768,6971.469032
21340.145541,-222.061783,-8364.327145,842.705048
21340.145874,-74.020594,-11843.295072,-383.047749
21340.146207,-1554.432478,-14211.954086,-2528.115143
21340.146540,-1702.473667,-8364.327145,-3677.258390
21340.146873,-1184.329507,-8068.244768,-3677.258390
21340.147206,-6809.894666,-13471.748144,-3753.867940
21340.147540,-5921.647536,-12213.398043,-1762.019645
21340.147873,-2664.741391,-10214.842000,842.705048
21340.148206,6143.709319,-6217.729913,7277.907231
21340.148539,7031.956449,-5033.400406,9806.022374
21340.148872,740.205942,-6217.729913,5362.668486
21340.149205,-74.020594,-9474.636058,536.266849
21340.149538,-3552.988522,-10140.821405,0.000000
21340.149872,4663.297435,-6365.771101,-76.609550
21340.150205,2294.638420,-9474.636058,-1302.362347
21340.150538,-1554.432478,-9474.636058,-3753.867940
21340.150871,-7105.977043,-12731.542202,-7507.735880
21340.151204,-5699.585753,-14804.118840,-7048.078582
21340.151537,-370.102971,-11251.130318,459.657299
21340.151870,4737.318029,-8956.491898,6128.763984
21340.152203,6143.709319,-4219.173869,7354.516781
21340.152537,2516.700203,-9178.553681,6665.030833
21340.152870,3478.967927,-10362.883188,1838.629195
21340.153203,4145.153275,-8068.244768,6052.154434
21340.153536,7328.038826,-8290.306550,4826.401637
21340.153869,2368.659014,-4515.256246,-842.705048
21340.154202,-5107.421000,-11251.130318,-7431.126331
21340.154535,-6365.771101,-12139.377449,-8120.612279
21340.154869,-3552.988522,-10732.986159,-3370.820191
21340.155202,2072.576638,-8660.409521,0.000000
21340.155535,3478.967927,-7402.059420,2221.676944
21340.155868,518.144159,-10140.821405,766.095498
21340.156201,2294.638420,-11251.130318,2451.505594
21340.156534,2960.823768,-7772.162391,3064.381992
21340.156867,8216.285956,-9474.636058,4826.401637
21340.157201,5329.482782,-6587.832884,6741.640382
21340.157534,1702.473667,-9178.553681,2374.896044
21340.157867,-2442.679609,-10658.965565,-4060.306139
21340.158200,-6809.894666,-11621.233289,-4060.306139
21340.158533,-1332.370696,-7698.141797,-2834.553343
21340.158866,-518.144159,-5921.647536,-612.876398
21340.159199,-1776.494261,-7179.997637,-2374.896044
21340.159532,-3997.112087,-12805.562797,-612.876398
21340.159866,-3627.009116,-11029.068536,0.000000
21340.160199,1776.494261,-8364.327145,5515.887586
21340.160532,6439.791695,-7994.224174,5592.497135
21340.160865,296.082377,-6143.709319,1991.848295
21340.161198,-962.267725,-11547.212695,1762.019645
21340.161531,-3256.906145,-10584.944971,-766.095498
21340.161864,222.061783,-8586.388927,229.828649
21340.162198,1628.453072,-7550.100608,1378.971896
21340.162531,-74.020594,-8290.306550,-76.609550
21340.162864,-5699.585753,-5995.668130,-3677.258390
21340.163197,-4737.318029,-10584.944971,-1225.752797
21340.163530,1702.473667,-10510.924376,-76.609550
21340.163863,2072.576638,-7772.162391,1532.190996
21340.164196,4367.215058,-7328.038826,2528.115143
21340.164530,-3034.844362,-10510.924376,-842.705048
21340.164863,-4811.338623,-13841.851115,-2068.457845
21340.165196,-1184.329507,-9770.718434,612.876398
21340.165529,2442.679609,-6439.791695,2681.334243
21340.165862,2368.659014,-3627.009116,6128.763984
21340.166195,-74.020594,-8290.306550,-383.047749
21340.166528,-3997.112087,-9548.656652,-3677.258390
21340.166861,-2368.659014,-9548.656652,-1225.752797
21340.167195,2294.638420,-10362.883188,-842.705048
21340.167528,1184.329507,-9030.512492,0.000000
21340.167861,-2738.761985,-8734.430116,-1838.629195
21340.168194,-3478.967927,-11029.068536,-2987.772442
21340.168527,0.000000,-10658.965565,1149.143247
21340.168860,4293.194464,-9030.512492,4749.792088
21340.169193,9104.533087,-6661.853478,8427.050478
21340.169527,3182.885551,-8290.306550,5132.839837
21340.169860,296.082377,-8956.491898,1149.143247
21340.170193,-2442.679609,-13027.624579,-2987.772442
21340.170526,0.000000,-4811.338623,-1532.190996
21340.170859,5329.482782,-9474.636058,-76.609550
21340.171192,2146.597232,-7476.080014,-1838.629195
21340.171525,-3849.070898,-10288.862594,-4903.011187
21340.171858,-3775.050304,-12805.562797,-5132.839837
21340.172192,2960.823768,-11473.192101,2298.286494
21340.172525,7624.121203,-7328.038826,3907.087040
21340.172858,6439.791695,-9474.636058,4519.963438
21340.173191,2516.700203,-9474.636058,2374.896044
21340.173524,0.000000,-10732.986159,3217.601092
21340.173857,5551.544565,-10066.800811,6052.154434
21340.174190,5255.462188,-8586.388927,2374.896044
21340.174524,1702.473667,-6661.853478,-76.609550
21340.174857,-5403.503377,-9770.718434,-6435.202183
21340.175190,-8438.347739,-11843.295072,-8580.269578
21340.175523,-5921.647536,-10732.986159,-4826.401637
21340.175856,-2072.576638,-7772.162391,0.000000
21340.176189,6735.874072,-5625.565159,5439.278036
21340.176522,0.000000,-5995.668130,5515.887586
21340.176856,592.164754,-10066.800811,3294.210641
21340.177189,1184.329507,-10362.883188,2911.162892
21340.177522,2960.823768,-8512.368333,4366.744339
21340.177855,4959.379811,-8364.327145,2757.943793
21340.178188,-666.185348,-9622.677246,-1302.362347
21340.178521,-6069.688724,-11399.171507,-5286.058936
21340.178854,-5625.565159,-11843.295072,-2757.943793
21340.179187,-2442.679609,-7994.224174,-3677.258390
21340.179521,-74.020594,-7105.977043,2374.896044
21340.179854,-74.020594,-4145.153275,-1072.533697
21340.180187,-2960.823768,-8364.327145,536.266849
21340.180520,1332.370696,-11473.192101,3064.381992
21340.180853,2590.720797,-8882.471304,3907.087040
21340.181186,7402.059420,-8660.409521,6205.373534
21340.181519,3256.906145,-8586.388927,2374.896044
21340.181853,-1998.556043,-11843.295072,-3140.991542
21340.182186,-8290.306550,-13101.645173,-4903.011187
21340.182519,-2442.679609,-11843.295072,-5745.716235
21340.182852,-888.247130,-8364.327145,-2681.334243
21340.183185,1184.329507,-8068.244768,3600.648841
21340.183518,-1776.494261,-9178.553681,-306.438199
21340.183851,-1480.411884,-9770.718434,919.314598
21340.184185,2294.638420,-9104.533087,4290.134789
21340.184518,6883.915261,-5477.523971,7201.297681
21340.184851,7031.956449,-6513.812290,4826.401637
21340.185184,0.000000,-7179.997637,919.314598
21340.185517,-3849.070898,-11621.233289,-4136.915689
21340.185850,-4293.194464,-13101.645173,-4596.572988
21340.186183,-592.164754,-10288.862594,-2451.505594
21340.186516,1998.556043,-10658.965565,-383.047749
21340.186850,-2368.659014,-7179.997637,0.000000
21340.187183,-888.247130,-10881.027347,-76.609550
21340.187516,-74.020594,-10510.924376,-1608.800546
21340.187849,3552.988522,-6735.874072,4136.915689
21340.188182,8512.368333,-8882.471304,7890.783629
21340.188515,5847.626942,-4219.173869,4519.963438
21340.188848,-222.061783,-10658.965565,-1225.752797
21340.189182,-740.205942,-11029.068536,-995.924147
21340.189515,1850.514855,-8586.388927,-1762.019645
21340.189848,2960.823768,-8660.409521,1838.629195
21340.190181,2886.803174,-7550.100608,-1685.410096
21340.190514,-4811.338623,-10140.821405,-4903.011187
21340.190847,-5699.585753,-13027.624579,-3753.867940
21340.191180,-1850.514855,-10658.965565,-3294.210641
21340.191514,2812.782580,-6217.729913,2374.896044
21340.191847,4959.379811,-5921.647536,3830.477490
21340.192180,1554.432478,-8660.409521,2834.553343
21340.192513,-3256.906145,-10140.821405,0.000000
21340.192846,-3552.988522,-9548.656652,2451.505594
21340.193179,5847.626942,-7698.141797,2374.896044
21340.193512,5403.503377,-7698.141797,4213.525239
21340.193845,0.000000,-7179.997637,2145.067394
21340.194179,-3330.926739,-9844.739029,-4596.572988
21340.194512,-3182.885551,-12509.480420,-4290.134789
21340.194845,74.020594,-10436.903782,-766.095498
21340.195178,2590.720797,-8586.388927,1608.800546
21340.195511,-1850.514855,-10288.862594,-612.876398
21340.195844,-6957.935855,-11251.130318,-4979.620737
21340.196177,-4219.173869,-8364.327145,-3677.258390
21340.196511,2516.700203,-7772.162391,5745.716235
21340.196844,8216.285956,-6809.894666,7890.783629
21340.197177,5773.606348,-5329.482782,9116.536426
21340.197510,0.000000,-7254.018232,1838.629195
21340.197843,74.020594,-10066.800811,1072.533697
21340.198176,296.082377,-10436.903782,-612.876398
21340.198509,1998.556043,-7179.997637,-1991.848295
21340.198843,-666.185348,-9178.553681,-3753.867940
21340.199176,-6217.729913,-11917.315666,-7967.393179
21340.199509,-7105.977043,-13841.851115,-3753.867940
21340.199842,-3034.844362,-8216.285956,-3447.429741
21340.200175,3478.967927,-8142.265362,4060.306139
21340.200508,4071.132681,-4737.318029,5745.716235
21340.200841,1036.288319,-5107.421000,2451.505594
21340.201174,1332.370696,-10955.047942,3677.258390
21340.201508,3552.988522,-6587.832884,3677.258390
21340.201841,6439.791695,-7254.018232,3370.820191
21340.202174,6217.729913,-8586.388927,2681.334243
21340.202507,-1924.535449,-11399.171507,-4366.744339
21340.202840,-7105.977043,-13545.768739,-7431.126331
21340.203173,-5625.565159,-12731.542202,-6511.811733
21340.203506,-74.020594,-14211.954086,-1302.362347
21340.203840,0.000000,-7476.080014,1838.629195
21340.204173,888.247130,-7550.100608,1225.752797
21340.204506,2072.576638,-8882.471304,4826.401637
21340.204839,1184.329507,-6291.750507,4903.011187
21340.205172,6365.771101,-5995.668130,7201.297681
21340.205505,6587.832884,-4293.194464,5209.449386
21340.205838,1924.535449,-6809.894666,0.000000
21340.206171,-3849.070898,-11473.192101,-4903.011187
21340.206505,-5995.668130,-12213.398043,-8044.002729
21340.206838,-5921.647536,-11917.315666,-4290.134789
21340.207171,4071.132681,-11843.295072,-1608.800546
21340.207504,518.144159,-9474.636058,-1378.971896
21340.207837,-666.185348,-8808.450710,-689.485948
21340.208170,-1776.494261,-11473.192101,1532.190996
21340.208503,3182.885551,-7179.997637,5975.544884
21340.208837,7328.038826,-6217.729913,8350.440928
21340.209170,5255.462188,-5625.565159,7124.688131
21340.209503,-2368.659014,-5995.668130,2604.724693
21340.209836,-2442.679609,-8882.471304,-1302.362347
21340.210169,-666.185348,-9474.636058,-4749.792088
21340.210502,0.000000,-8660.409521,-1225.752797
21340.210835,2294.638420,-13027.624579,-76.609550
21340.211169,-5329.482782,-9844.739029,-3753.867940
21340.211502,-6513.812290,-12731.542202,-5669.106685
21340.211835,-2442.679609,-11843.295072,-2374.896044
21340.212168,1332.370696,-8068.244768,4596.572988
21340.212501,4737.318029,-4811.338623,4903.011187
21340.212834,1184.329507,-6143.709319,7584.345430
21340.213167,-74.020594,-9178.553681,-76.609550
21340.213500,2294.638420,-7920.203579,306.438199
21340.213834,5255.462188,-8290.306550,4213.525239
21340.214167,4145.153275,-7254.018232,1838.629195
21340.214500,-2072.576638,-7772.162391,-3140.991542
21340.214833,-6291.750507,-11251.130318,-7737.564530
21340.215166,-4663.297435,-12287.418637,-6588.421283
21340.215499,-1036.288319,-12139.377449,-919.314598
21340.215832,3182.885551,-8734.430116,383.047749
21340.216166,2072.576638,-8956.491898,3370.820191
21340.216499,0.000000,-9104.533087,1225.752797
21340.216832,1036.288319,-11769.274478,4673.182538
21340.217165,2886.803174,-8290.306550,2451.505594
21340.217498,5329.482782,-5403.503377,4903.011187
21340.217831,4441.235652,-6365.771101,4826.401637
21340.218164,592.164754,-6291.750507,0.000000
21340.218498,-2738.761985,-11621.233289,-3600.648841
21340.218831,-1850.514855,-12065.356855,-2451.505594
21340.219164,1628.453072,-9548.656652,612.876398
21340.219497,2294.638420,-9474.636058,-76.609550
21340.219830,-2960.823768,-7772.162391,-1225.752797
21340.220163,-4811.338623,-12657.521608,-4596.572988
21340.220496,-1776.494261,-10288.862594,2451.505594
21340.220829,6439.791695,-8882.471304,6052.154434
21340.221163,7031.956449,-6439.791695,8197.221829
21340.221496,3404.947333,-3997.112087,4673.182538
21340.221829,-3923.091493,-9622.677246,-2604.724693
21340.222162,-1184.329507,-9548.656652,-3524.039291
21340.222495,-592.164754,-9844.739029,-1762.019645
21340.222828,5329.482782,-8882.471304,2068.457845
21340.223161,0.000000,-7772.162391,-2451.505594
21340.223495,-5181.441594,-14211.954086,-4366.744339
21340.223828,-4737.318029,-11917.315666,-4903.011187
21340.224161,1184.329507,-11103.089130,1225.752797
21340.224494,9400.615463,-7994.224174,8120.612279
21340.224827,5551.544565,-5477.523971,6052.154434
21340.225160,-444.123565,-8882.471304,1302.362347
21340.225493,222.061783,-10732.986159,1608.800546
21340.225827,1110.308913,-11251.130318,2374.896044
21340.226160,4737.318029,-4811.338623,5669.106685
21340.226493,-2368.659014,-7772.162391,1072.533697
21340.226826,-4219.173869,-8290.306550,-6894.859482
21340.227159,-9474.636058,-11917.315666,-6128.763984
21340.227492,-5551.544565,-11399.171507,-5439.278036
21340.227825,2812.782580,-7772.162391,153.219100
21340.228158,4071.132681,-11029.068536,4443.353888
21340.228492,2812.782580,-6809.894666,4673.182538
21340.228825,-2664.741391,-9548.656652,0.000000
21340.229158,888.247130,-12953.603985,3600.648841
21340.229491,4663.297435,-6661.853478,2834.553343
21340.229824,888.247130,-5995.668130,3677.258390
21340.230157,0.000000,-6735.874072,612.876398
21340.230491,-8956.491898,-10214.842000,-6435.202183
21340.230824,-5403.503377,-10807.006753,-5822.325785
21340.231157,148.041188,-8068.244768,1072.533697
21340.231490,3552.988522,-5773.606348,2221.676944
21340.231823,1110.308913,-6143.709319,0.000000
21340.232156,-2442.679609,-11547.212695,-2528.115143
21340.232490,-962.267725,-11547.212695,459.657299
21340.232823,2960.823768,-7846.182985,3677.258390
21340.233156,8512.368333,-10510.924376,6052.154434
21340.233489,2294.638420,-4959.379811,0.000000
21340.233822,-5329.482782,-12805.562797,-4290.134789
21340.234155,-2886.803174,-13619.789333,-1915.238745
21340.234489,-5625.565159,-9548.656652,-1838.629195
21340.234822,2664.741391,-3923.091493,1532.190996
21340.235155,2220.617826,-6661.853478,3447.429741
21340.235488,-1258.350101,-7105.977043,-1608.800546
21340.235821,-3552.988522,-11473.192101,-842.705048
21340.236154,-1850.514855,-10658.965565,-383.047749
21340.236488,6439.791695,-6217.729913,1225.752797
21340.236821,5255.462188,-9474.636058,4213.525239
21340.237154,-74.020594,-10658.965565,-1915.238745
21340.237487,-3552.988522,-11029.068536,-1225.752797
21340.237820,-74.020594,-14211.954086,2374.896044
21340.238153,4515.256246,-7179.997637,3140.991542
21340.238486,2294.638420,-9770.718434,4213.525239
21340.238820,-1628.453072,-4811.338623,-1532.190996
21340.239153,-5921.647536,-9548.656652,-3064.381992
21340.239486,-74.020594,-7328.038826,-4903.011187
21340.239819,4071.132681,-11843.295072,2987.772442
21340.240152,5551.544565,-6069.688724,4060.306139
21340.240485,2368.659014,-4811.338623,2451.505594
21340.240819,-2442.679609,-13027.624579,-2528.115143
21340.241152,0.000000,-9548.656652,-919.314598
21340.241485,2294.638420,-11103.089130,1991.848295
21340.241818,9844.739029,-8290.306550,5056.230287
21340.242151,2368.659014,-5403.503377,3677.258390
21340.242484,-2442.679609,-10658.965565,-5362.668486
21340.242818,-2294.638420,-14211.954086,-1915.238745
21340.243151,-666.185348,-11695.253884,-4519.963438
21340.243484,4737.318029,-8660.409521,919.314598
21340.243817,0.000000,-7179.997637,0.000000
21340.244150,-222.061783,-9104.533087,-1149.143247
21340.244483,-2886.803174,-9918.759623,229.828649
21340.244817,4441.235652,-8068.244768,4213.525239
21340.245150,8808.450710,-8882.471304,9116.536426
21340.245483,4145.153275,-5403.503377,6128.763984
21340.245816,2294.638420,-8882.471304,-995.924147
21340.246149,-6735.874072,-10140.821405,-6741.640382
21340.246482,-3552.988522,-13397.727550,-2681.334243
21340.246816,-2072.576638,-11917.315666,-612.876398
21340.247149,-1184.329507,-6809.894666,-766.095498
21340.247482,-5847.626942,-10362.883188,-4213.525239
21340.247815,-9918.759623,-9548.656652,-6128.763984
21340.248148,-5995.668130,-11251.130318,-1608.800546
21340.248481,1258.350101,-5699.585753,6128.763984
21340.248814,9104.533087,-3775.050304,9499.584175
21340.249148,4441.235652,-5699.585753,6128.763984
21340.249481,518.144159,-10584.944971,1532.190996
21340.249814,1998.556043,-13027.624579,2987.772442
21340.250147,0.000000,-10140.821405,0.000000
21340.250480,3552.988522,-9696.697840,3294.210641
21340.250813,-1850.514855,-11695.253884,-4060.306139
21340.251147,-9400.615463,-9548.656652,-8580.269578
21340.251480,-9178.553681,-15026.180623,-4366.744339
21340.251813,-5255.462188,-10732.986159,-1225.752797
21340.252146,4959.379811,-5033.400406,5669.106685
21340.252479,3256.906145,-3330.926739,7660.954980
21340.252812,3478.967927,-4737.318029,5286.058936
21340.253146,-1554.432478,-7179.997637,2451.505594
21340.253479,3701.029710,-8586.388927,4596.572988
21340.253812,8216.285956,-7105.977043,2068.457845
21340.254145,4737.318029,-7476.080014,919.314598
21340.254478,-1258.350101,-13619.789333,-6205.373534
21340.254811,-9474.636058,-14434.015869,-9652.803275
21340.255145,-6735.874072,-15396.283594,-7507.735880
21340.255478,-444.123565,-11103.089130,306.438199
21340.255811,3108.864956,-3627.009116,1532.190996
21340.256144,0.000000,-5995.668130,5515.887586
21340.256477,2886.803174,-7994.224174,3294.210641
21340.256810,2294.638420,-7994.224174,3907.087040
21340.257143,5033.400406,-4811.338623,6128.763984
21340.257477,9104.533087,-5921.647536,3983.696590
21340.257810,3701.029710,-6957.935855,229.828649
21340.258143,-1702.473667,-11769.274478,-4596.572988
21340.258476,-4219.173869,-13249.686362,-8350.440928
21340.258809,-2368.659014,-13101.645173,-4903.011187
21340.259142,740.205942,-14804.118840,-76.609550
21340.259476,4071.132681,-6957.935855,-1302.362347
21340.259809,-6217.729913,-11917.315666,-1838.629195
21340.260142,0.000000,-7920.203579,-76.609550
21340.260475,3478.967927,-7179.997637,2757.943793
21340.260808,8290.306550,-3552.988522,7737.564530
21340.261141,7179.997637,-5181.441594,6741.640382
21340.261475,-592.164754,-8734.430116,-76.609550
21340.261808,-3256.906145,-11991.336260,-2145.067394
21340.262141,-1258.350101,-9474.636058,-536.266849
21340.262474,3849.070898,-8512.368333,766.095498
21340.262807,1554.432478,-8364.327145,153.219100
21340.263140,-2590.720797,-9474.636058,-5592.497135
21340.263474,-7031.956449,-11843.295072,-7431.126331
21340.263807,-6513.812290,-14285.974681,-1225.752797
21340.264140,3182.885551,-8882.471304,3600.648841
21340.264473,5847.626942,-9326.594869,5439.278036
21340.264806,3478.967927,-3997.112087,3294.210641
21340.265139,-2442.679609,-9474.636058,-1302.362347
21340.265473,1332.370696,-9104.533087,2911.162892
21340.265806,5403.503377,-6957.935855,4826.401637
21340.266139,5181.441594,-7698.141797,4826.401637
21340.266472,-74.020594,-9178.553681,1149.143247
21340.266805,-9474.636058,-11325.150913,-4903.011187
21340.267138,-2738.761985,-13915.871710,-5286.058936
21340.267471,-2812.782580,-9548.656652,-3677.258390
21340.267805,3256.906145,-5699.585753,1149.143247
21340.268138,-2146.597232,-9844.739029,0.000000
21340.268471,-3997.112087,-9252.574275,-1991.848295
21340.268804,-6883.915261,-13027.624579,-612.876398
21340.269137,222.061783,-6143.709319,1378.971896
21340.269470,5255.462188,-5921.647536,6665.030833
21340.269804,7031.956449,-2368.659014,7277.907231
21340.270137,2294.638420,-9474.636058,1608.800546
21340.270470,-4441.235652,-7772.162391,-1915.238745
21340.270803,1110.308913,-15396.283594,-995.924147
21340.271136,1332.370696,-7179.997637,-1532.190996
21340.271469,4663.297435,-11547.212695,-842.705048
21340.271803,-6587.832884,-10955.047942,-6818.249932
21340.272136,-5403.503377,-12583.501014,-8273.831378
21340.272469,-4737.318029,-12509.480420,-3677.258390
21340.272802,7031.956449,-9474.636058,4826.401637
21340.273135,6069.688724,-2442.679609,5209.449386
21340.273468,3552.988522,-8290.306550,8503.660028
21340.273802,2294.638420,-6217.729913,1762.019645
21340.274135,2368.659014,-9030.512492,5286.058936
21340.274468,6069.688724,-6513.812290,3140.991542
21340.274801,5847.626942,-6735.874072,383.047749
21340.275134,-888.247130,-10584.944971,-3907.087040
21340.275467,-7105.977043,-14952.160028,-7507.735880
21340.275801,-7179.997637,-13619.789333,-10418.898773
21340.276134,-4737.318029,-11325.150913,-2911.162892
21340.276467,6069.688724,-9400.615463,6665.030833
21340.276800,4663.297435,-7105.977043,6665.030833
21340.277133,1480.411884,-7179.997637,4826.401637
21340.277466,-370.102971,-11251.130318,3447.429741
21340.277799,3849.070898,-6587.832884,5439.278036
21340.278133,5329.482782,-7031.956449,6128.763984
21340.278466,2294.638420,-3923.091493,0.000000
21340.278799,-6069.688724,-11769.274478,-5898.935335
21340.279132,-10510.924376,-11251.130318,-9806.022374
21340.279465,-4367.215058,-11399.171507,-5362.668486
21340.279798,1110.308913,-11547.212695,2374.896044
21340.280132,2294.638420,-8142.265362,536.266849
21340.280465,-4589.276840,-9844.739029,1532.190996
21340.280798,-4737.318029,-8364.327145,1991.848295
21340.281131,2590.720797,-9474.636058,4060.306139
21340.281464,7254.018232,-6587.832884,7967.393179
21340.281797,7254.018232,-6809.894666,6971.469032
21340.282131,148.041188,-9104.533087,229.828649
21340.282464,-6217.729913,-11177.109724,-6205.373534
21340.282797,-6291.750507,-12435.459826,-6358.592633
21340.283130,222.061783,-8882.471304,-1915.238745
21340.283463,2368.659014,-6587.832884,2834.553343
21340.283796,1406.391290,-7105.977043,-1302.362347
21340.284130,-2442.679609,-9178.553681,-5669.106685
21340.284463,1110.308913,-13027.624579,2221.676944
21340.284796,7328.038826,-7846.182985,6741.640382
21340.285129,10584.944971,-6587.832884,8120.612279
21340.285462,7031.956449,-6661.853478,4519.963438
21340.285795,-2368.659014,-10732.986159,-2451.505594
21340.286129,-74.020594,-11843.295072,-2834.553343
21340.286462,592.164754,-10732.986159,2221.676944
21340.286795,3478.967927,-7105.977043,-2068.457845
21340.287128,592.164754,-5995.668130,-2451.505594
21340.287461,-6513.812290,-9548.656652,-4903.011187
21340.287794,-3478.967927,-9474.636058,-3907.087040
21340.288127,148.041188,-11103.089130,1072.533697
21340.288461,6365.771101,-7105.977043,6818.249932
21340.288794,8068.244768,-5329.482782,8197.221829
21340.289127,-3627.009116,-8364.327145,-2451.505594
21340.289460,-74.020594,-9474.636058,-689.485948
21340.289793,-666.185348,-14211.954086,-1532.190996
21340.290126,4737.318029,-6291.750507,4060.306139
21340.290460,3849.070898,-10955.047942,5056.230287
21340.290793,-3330.926739,-10955.047942,-3753.867940
21340.291126,-7105.977043,-11473.192101,-4673.182538
21340.291459,-4737.318029,-8660.409521,-4596.572988
21340.291792,2886.803174,-8290.306550,2987.772442
21340.292125,0.000000,-5995.668130,6435.202183
21340.292459,4663.297435,-5921.647536,2528.115143
21340.292792,-4737.318029,-6587.832884,-2834.553343
21340.293125,0.000000,-10140.821405,2451.505594
21340.293458,3108.864956,-11251.130318,5439.278036
21340.293791,3478.967927,-9474.636058,2987.772442
21340.294124,962.267725,-6143.709319,-153.219100
21340.294458,-6883.915261,-14063.912898,-3524.039291
21340.294791,-4219.173869,-10214.842000,-4519.963438
21340.295124,-2960.823768,-11621.233289,2374.896044
21340.295457,2960.823768,-7624.121203,2298.286494
21340.295790,444.123565,-5921.647536,2757.943793
21340.296123,-5181.441594,-8586.388927,-1532.190996
21340.296457,-4811.338623,-9474.636058,-1302.362347
21340.296790,-1776.494261,-8068.244768,1991.848295
21340.297123,7031.956449,-8290.306550,7890.783629
21340.297456,2738.761985,-4811.338623,2757.943793
21340.297789,592.164754,-7772.162391,-536.266849
21340.298122,-2146.597232,-15396.283594,-1915.238745
21340.298455,444.123565,-13915.871710,-2221.676944
21340.298789,1184.329507,-11621.233289,1838.629195
21340.299122,2220.617826,-10214.842000,842.705048
21340.299455,-2442.679609,-7846.182985,-2911.162892
21340.299788,-8882.471304,-9548.656652,-3677.258390
21340.300121,-1258.350101,-8290.306550,-3140.991542
21340.300454,1850.514855,-7179.997637,4903.011187
21340.300788,7105.977043,-3034.844362,7431.126331
21340.301121,4071.132681,-5921.647536,2374.896044
21340.301454,-1480.411884,-7031.956449,-1915.238745
21340.301787,1776.494261,-10807.006753,0.000000
21340.302120,3552.988522,-10066.800811,2145.067394
21340.302453,6809.894666,-8512.368333,1225.752797
21340.302787,-3552.988522,-11917.315666,153.219100
21340.303120,-1258.350101,-11251.130318,-8197.221829
21340.303453,-5625.565159,-14285.974681,-5822.325785
21340.303786,1480.411884,-9474.636058,1762.019645
21340.304119,5107.421000,-4811.338623,4903.011187
21340.304452,4663.297435,-5181.441594,5515.887586
21340.304786,4071.132681,-4441.235652,3217.601092
21340.305119,592.164754,-7920.203579,689.485948
21340.305452,6735.874072,-10510.924376,3600.648841
21340.305785,7105.977043,-9030.512492,4826.401637
21340.306118,7031.956449,-8290.306550,1149.143247
21340.306451,-3256.906145,-10732.986159,-4903.011187
21340.306785,-5773.606348,-15470.304188,-7737.564530
21340.307118,-4441.235652,-15840.407159,-3447.429741
21340.307451,2812.782580,-10658.965565,1685.410096
21340.307784,4737.318029,-7476.080014,6588.421283
21340.308117,-666.185348,-5255.462188,2987.772442
21340.308450,-2886.803174,-5625.565159,-536.266849
21340.308783,1110.308913,-8290.306550,3294.210641
21340.309117,2960.823768,-5107.421000,3064.381992
21340.309450,3849.070898,-5255.462188,6665.030833
21340.309783,-962.267725,-5699.585753,-2374.896044
21340.310116,-5921.647536,-11917.315666,-4136.915689
21340.310449,-4441.235652,-12065.356855,-4136.915689
21340.310782,-2960.823768,-12879.583391,-1762.019645
21340.311116,3478.967927,-8364.327145,0.000000
21340.311449,-2738.761985,-9548.656652,-1072.533697
21340.311782,-5107.421000,-11399.171507,-4673.182538
21340.312115,-5107.421000,-9326.594869,-1455.581446
21340.312448,-1184.329507,-11917.315666,2451.505594
21340.312781,7328.038826,-2738.761985,7354.516781
21340.313115,2294.638420,-8290.306550,7890.783629
21340.313448,0.000000,-6291.750507,3600.648841
21340.313781,-2442.679609,-8290.306550,-1455.581446
21340.314114,-1776.494261,-10140.821405,0.000000
21340.314447,5329.482782,-6587.832884,4290.134789
21340.314780,-1924.535449,-9548.656652,0.000000
21340.315114,-3256.906145,-10510.924376,-5669.106685
21340.315447,-9178.553681,-13841.851115,-5822.325785
21340.315780,-3552.988522,-13693.809927,-2834.553343
21340.316113,-2368.659014,-7772.162391,0.000000
21340.316446,4071.132681,-7994.224174,3600.648841
21340.316779,2294.638420,-5625.565159,2451.505594
21340.317113,-4737.318029,-8956.491898,3064.381992
21340.317446,3478.967927,-6809.894666,3600.648841
21340.317779,3552.988522,-8364.327145,8273.831378
21340.318112,9326.594869,-962.267725,5515.887586
21340.318445,3108.864956,-7402.059420,919.314598
21340.318778,-1332.370696,-13989.892304,-5592.497135
21340.319111,0.000000,-12361.439231,-3983.696590
21340.319445,-74.020594,-15692.365970,-4903.011187
21340.319778,4737.318029,-8364.327145,-2451.505594
21340.320111,-1776.494261,-12287.418637,-1302.362347
21340.320444,-4219.173869,-10955.047942,-4979.620737
21340.320777,-1554.432478,-10066.800811,536.266849
21340.321110,5477.523971,-6217.729913,6894.859482
21340.321444,10066.800811,-3182.885551,10572.117872
21340.321777,7105.977043,-2442.679609,9039.926876
21340.322110,1110.308913,-9178.553681,1762.019645
21340.322443,-2442.679609,-4811.338623,-6128.763984
21340.322776,296.082377,-14804.118840,-2528.115143
21340.323109,-74.020594,-13027.624579,-3753.867940
21340.323443,0.000000,-7179.997637,-5822.325785
21340.323776,-6735.874072,-15988.448347,-7431.126331
21340.324109,-4293.194464,-11547.212695,-6818.249932
21340.324442,-888.247130,-13693.809927,1149.143247
21340.324775,5847.626942,-10066.800811,9116.536426
21340.325108,8068.244768,-4663.297435,12793.794817
21340.325442,740.205942,-4219.173869,7124.688131
21340.325775,4367.215058,-4145.153275,2911.162892
21340.326108,1184.329507,-8660.409521,3140.991542
21340.326441,5921.647536,-5107.421000,2451.505594
21340.326774,148.041188,-10658.965565,-1608.800546
21340.327107,-1406.391290,-11399.171507,-7967.393179
21340.327441,-11843.295072,-14285.974681,-9193.145976
21340.327774,-3182.885551,-15988.448347,-7124.688131
21340.328107,0.000000,-11103.089130,-689.485948
21340.328440,2960.823768,-9622.677246,4519.963438
21340.328773,4737.318029,-6143.709319,6741.640382
21340.329106,-1036.288319,-7328.038826,4519.963438
21340.329440,1776.494261,-9474.636058,6128.763984
21340.329773,3552.988522,-6587.832884,9729.412825
21340.330106,5847.626942,-7105.977043,6894.859482
21340.330439,1776.494261,-1258.350101,0.000000
21340.330772,-5921.647536,-12065.356855,-4979.620737
21340.331105,-8734.430116,-12435.459826,-9806.022374
21340.331439,-6883.915261,-14804.118840,-5286.058936
21340.331772,-370.102971,-9178.553681,-2145.067394
21340.332105,-1998.556043,-8660.409521,306.438199
21340.332438,-1776.494261,-9548.656652,-1225.752797
21340.332771,-1258.350101,-9474.636058,0.000000
21340.333104,1184.329507,-7179.997637,2451.505594
21340.333438,6513.812290,-7920.203579,8810.098227
21340.333771,5847.626942,-6513.812290,6665.030833
21340.334104,-888.247130,-8364.327145,1225.752797
21340.334437,-5921.647536,-9548.656652,-3753.867940
21340.334770,-2442.679609,-10436.903782,-4136.915689
21340.335103,518.144159,-10584.944971,0.000000
21340.335437,4737.318029,-5847.626942,1455.581446
21340.335770,0.000000,-9844.739029,1685.410096
21340.336103,-4811.338623,-8660.409521,-4903.011187
21340.336436,-2590.720797,-9548.656652,-3064.381992
21340.336769,4663.297435,-11843.295072,4826.401637
21340.337102,7031.956449,-4737.318029,3600.648841
21340.337436,1998.556043,-9474.636058,3600.648841
21340.337769,-2368.659014,-9252.574275,-1072.533697
21340.338102,-5403.503377,-11843.295072,-2068.457845
21340.338435,740.205942,-9104.533087,842.705048
21340.338768,4071.132681,-8882.471304,3600.648841
21340.339102,0.000000,-5995.668130,919.314598
21340.339435,-222.061783,-9474.636058,-76.609550
21340.339768,-1258.350101,-9474.636058,-4903.011187
21340.340101,1702.473667,-10140.821405,-1532.190996
21340.340434,5847.626942,-10658.965565,1455.581446
21340.340767,4145.153275,-8808.450710,2528.115143
21340.341101,-2664.741391,-11251.130318,-1991.848295
21340.341434,-2886.803174,-10140.821405,-3907.087040
21340.341767,1998.556043,-13027.624579,2374.896044
21340.342100,5921.647536,-6661.853478,5669.106685
21340.342433,4959.379811,-7772.162391,5745.716235
21340.342766,-2442.679609,-8956.491898,-536.266849
21340.343100,-5329.482782,-7179.997637,-5515.887586
21340.343433,-2664.741391,-10066.800811,536.266849
21340.343766,3775.050304,-7105.977043,-383.047749
21340.344099,1184.329507,-5403.503377,2757.943793
21340.344432,-592.164754,-9474.636058,-689.485948
21340.344765,-3034.844362,-8882.471304,-6128.763984
21340.345099,-2664.741391,-13619.789333,-1532.190996
21340.345432,3478.967927,-10436.903782,1685.410096
21340.345765,5551.544565,-8882.471304,5975.544884
21340.346098,4145.153275,-6661.853478,5822.325785
21340.346431,1480.411884,-9474.636058,2374.896044
21340.346764,-1036.288319,-8660.409521,-2451.505594
21340.347098,0.000000,-9548.656652,2451.505594
21340.347431,2294.638420,-9474.636058,-689.485948
21340.347764,0.000000,-7179.997637,-3064.381992
21340.348097,-7179.997637,-13027.624579,-5439.278036
21340.348430,-3108.864956,-9178.553681,-4366.744339
21340.348764,1036.288319,-11399.171507,3983.696590
21340.349097,8808.450710,-5921.647536,6971.469032
21340.349430,5847.626942,-9474.636058,6052.154434
21340.349763,-2368.659014,-8364.327145,2757.943793
21340.350096,-1332.370696,-10732.986159,1915.238745
21340.350429,-666.185348,-11843.295072,-536.266849
21340.350763,4663.297435,-10288.862594,4519.963438
21340.351096,-1110.308913,-6735.874072,0.000000
21340.351429,-4959.379811,-9622.677246,-5975.544884
21340.351762,-8216.285956,-11695.253884,-6511.811733
21340.352095,-6661.853478,-8364.327145,-4213.525239
21340.352428,2294.638420,-7698.141797,-842.705048
21340.352762,1776.494261,-4811.338623,7354.516781
21340.353095,5403.503377,-8586.388927,6052.154434
21340.353428,1110.308913,-7698.141797,2374.896044
21340.353761,2664.741391,-10362.883188,4826.401637
21340.354094,5033.400406,-9770.718434,3753.867940
21340.354427,6513.812290,-7476.080014,3524.039291
21340.354761,-666.185348,-11769.274478,-2604.724693
21340.355094,-8290.306550,-12657.521608,-8580.269578
21340.355427,-10066.800811,-11325.150913,-9806.022374
21340.355760,-814.226536,-13027.624579,-76.609550
21340.356093,3478.967927,-7105.977043,1149.143247
21340.356426,0.000000,-6587.832884,4443.353888
21340.356760,-1628.453072,-7105.977043,2374.896044
21340.357093,1258.350101,-6957.935855,4673.182538
21340.357426,5329.482782,-7402.059420,7354.516781
21340.357759,7846.182985,-6587.832884,6665.030833
21340.358092,5033.400406,-8068.244768,2757.943793
21340.358426,-4145.153275,-11325.150913,-4519.963438
21340.358759,-5625.565159,-13249.686362,-9039.926876
21340.359092,-4811.338623,-14582.057057,-6971.469032
21340.359425,-1110.308913,-12805.562797,-2374.896044
21340.359758,1184.329507,-7328.038826,0.000000
21340.360091,-1850.514855,-9474.636058,-76.609550
21340.360425,-3552.988522,-5995.668130,0.000000
21340.360758,3923.091493,-9474.636058,7277.907231
21340.361091,10584.944971,-7105.977043,9729.412825
21340.361424,8882.471304,-3108.864956,10955.165621
21340.361757,1628.453072,-8216.285956,2145.067394
21340.362090,-1850.514855,-9030.512492,-4366.744339
21340.362424,-3997.112087,-11991.336260,-4903.011187
21340.362757,1998.556043,-14211.954086,-1915.238745
21340.363090,0.000000,-7179.997637,-2451.505594
21340.363423,-7105.977043,-12213.398043,-3677.258390
21340.363756,-3330.926739,-11843.295072,-3907.087040
21340.364089,-5625.565159,-9548.656652,-2451.505594
21340.364423,4663.297435,-8586.388927,3600.648841
21340.364756,5773.606348,-5699.585753,8886.707777
21340.365089,6661.853478,-2812.782580,7890.783629
21340.365422,666.185348,-7105.977043,2451.505594
21340.365755,-222.061783,-8882.471304,-383.047749
21340.366088,0.000000,-7772.162391,1225.752797
21340.366422,2294.638420,-12287.418637,-76.609550
21340.366755,2294.638420,-10658.965565,-1915.238745
21340.367088,-8882.471304,-11029.068536,-6128.763984
21340.367421,-5699.585753,-14137.933492,-6511.811733
21340.367754,-1776.494261,-11325.150913,306.438199
21340.368088,1998.556043,-9474.636058,3140.991542
21340.368421,1702.473667,-6661.853478,5592.497135
21340.368754,-1776.494261,-4811.338623,612.876398
21340.369087,-4737.318029,-7179.997637,3064.381992
21340.369420,2886.803174,-5921.647536,2681.334243
21340.369753,2960.823768,-7179.997637,3064.381992
21340.370087,4737.318029,-5699.585753,4903.011187
21340.370420,1702.473667,-7994.224174,-2145.067394
21340.370753,-3108.864956,-13175.665768,-4826.401637
21340.371086,-370.102971,-12731.542202,-3907.087040
21340.371419,148.041188,-13915.871710,-153.219100
21340.371752,370.102971,-8364.327145,-842.705048
21340.372086,-2294.638420,-9918.759623,-2068.457845
21340.372419,-6069.688724,-11103.089130,-3983.696590
21340.372752,-1406.391290,-6365.771101,919.314598
21340.373085,5255.462188,-9474.636058,5898.935335
21340.373418,9400.615463,-4737.318029,5362.668486
21340.373751,1184.329507,-6587.832884,5669.106685
21340.374085,3478.967927,-9474.636058,-76.609550
21340.374418,2146.597232,-9548.656652,1225.752797
21340.374751,5625.565159,-11473.192101,1838.629195
21340.375084,4071.132681,-8882.471304,-612.876398
21340.375417,-1332.370696,-12065.356855,-2757.943793
21340.375750,-3775.050304,-12139.377449,-7277.907231
21340.376084,-7179.997637,-14211.954086,-6511.811733
21340.376417,-2072.576638,-10362.883188,-1915.238745
21340.376750,0.000000,-7476.080014,4290.134789
21340.377083,5551.544565,-4737.318029,7890.783629
21340.377416,2886.803174,-3849.070898,4213.525239
21340.377750,-74.020594,-7105.977043,4213.525239
21340.378083,4219.173869,-5625.565159,4136.915689
21340.378416,3997.112087,-9030.512492,5056.230287
21340.378749,5403.503377,-7105.977043,1455.581446
21340.379082,-3849.070898,-9548.656652,-5515.887586
21340.379415,-5107.421000,-14211.954086,-9269.755526
21340.379749,-4737.318029,-12805.562797,-3677.258390
21340.380082,-74.020594,-14804.118840,-995.924147
21340.380415,1702.473667,-8882.471304,-76.609550
21340.380748,-1776.494261,-7772.162391,2451.505594
21340.381081,-2368.659014,-6735.874072,1838.629195
21340.381414,1110.308913,-6513.812290,5362.668486
21340.381748,3701.029710,-6587.832884,6435.202183
21340.382081,7624.121203,-5625.565159,7277.907231
21340.382414,1110.308913,-5995.668130,1225.752797
21340.382747,-370.102971,-11843.295072,-2528.115143
21340.383080,-4811.338623,-13619.789333,-8120.612279
21340.383413,-1776.494261,-12805.562797,-3907.087040
21340.383747,1850.514855,-14211.954086,-76.609550
21340.384080,296.082377,-10510.924376,1378.971896
21340.384413,-3997.112087,-9104.533087,-3294.210641
21340.384746,-3627.009116,-10807.006753,229.828649
21340.385079,2886.803174,-6513.812290,4826.401637
21340.385413,4737.318029,-4811.338623,11644.651570
21340.385746,7624.121203,-4145.153275,7584.345430
21340.386079,-1776.494261,-4811.338623,0.000000
21340.386412,-2368.659014,-10288.862594,-76.609550
21340.386745,-1184.329507,-11843.295072,-536.266849
21340.387078,-1406.391290,-10732.986159,-2834.553343
21340.387412,518.144159,-7328.038826,-2528.115143
21340.387745,-3330.926739,-10584.944971,-4596.572988
21340.388078,-3478.967927,-10066.800811,-6511.811733
21340.388411,-1776.494261,-12509.480420,1532.190996
21340.388744,2960.823768,-9474.636058,3524.039291
21340.389077,7328.038826,-4663.297435,6818.249932
21340.389411,2146.597232,-9030.512492,3677.258390
21340.389744,1702.473667,-10658.965565,-76.609550
21340.390077,-1184.329507,-9548.656652,2451.505594
21340.390410,3849.070898,-10584.944971,5898.935335
21340.390743,5847.626942,-3923.091493,1225.752797
21340.391076,-1480.411884,-9696.697840,0.000000
21340.391410,-1850.514855,-10658.965565,-4979.620737
21340.391743,-4737.318029,-11769.274478,-3140.991542
21340.392076,222.061783,-10584.944971,-1685.410096
21340.392409,3478.967927,-7624.121203,1149.143247
21340.392742,222.061783,-8364.327145,2451.505594
21340.393075,-3256.906145,-7179.997637,0.000000
21340.393409,-3627.009116,-11547.212695,-2528.115143
21340.393742,0.000000,-8364.327145,1225.752797
21340.394075,5625.565159,-8290.306550,5745.716235
21340.394408,7031.956449,-7105.977043,4519.963438
21340.394741,2368.659014,-7402.059420,2221.676944
21340.395075,-3256.906145,-9548.656652,-3217.601092
21340.395408,296.082377,-10732.986159,-995.924147
21340.395741,1776.494261,-9844.739029,0.000000
21340.396074,0.000000,-8364.327145,919.314598
21340.396407,-4219.173869,-11843.295072,-6052.154434
21340.396740,-6513.812290,-9548.656652,-7354.516781
21340.397074,1110.308913,-12731.542202,3600.648841
21340.397407,5329.482782,-5403.503377,9806.022374
21340.397740,7254.018232,-4145.153275,7890.783629
21340.398073,2220.617826,-6883.915261,3677.258390
21340.398406,-4071.132681,-9696.697840,-1225.752797
21340.398739,-3034.844362,-12879.583391,-1302.362347
21340.399073,-1480.411884,-11547.212695,-76.609550
21340.399406,814.226536,-5699.585753,-4290.134789
21340.399739,-4145.153275,-8660.409521,-2145.067394
21340.400072,-3849.070898,-10955.047942,-4060.306139
21340.400405,-4145.153275,-11769.274478,-1302.362347
21340.400738,2146.597232,-8586.388927,2528.115143
21340.401072,7402.059420,-7179.997637,6741.640382
21340.401405,5625.565159,-6883.915261,7584.345430
21340.401738,-1258.350101,-8586.388927,153.219100
21340.402071,1110.308913,-9474.636058,-689.485948
21340.402404,592.164754,-11917.315666,1225.752797
21340.402737,5477.523971,-8142.265362,4826.401637
21340.403071,-74.020594,-9178.553681,-383.047749
21340.403404,-5033.400406,-9548.656652,-4826.401637
21340.403737,-9104.533087,-9548.656652,-7354.516781
21340.404070,-3330.926739,-9104.533087,-4673.182538
21340.404403,2294.638420,-9326.594869,2451.505594
21340.404737,3330.926739,-4737.318029,3140.991542
21340.405070,4663.297435,-8882.471304,3294.210641
21340.405403,-296.082377,-8438.347739,1072.533697
21340.405736,2812.782580,-11917.315666,1685.410096
21340.406069,5625.565159,-10214.842000,5286.058936
21340.406402,7031.956449,-9474.636058,4213.525239
21340.406736,2294.638420,-13619.789333,-76.609550
21340.407069,-6587.832884,-11399.171507,-7967.393179
21340.407402,-5329.482782,-13101.645173,-4903.011187
21340.407735,-1036.288319,-10881.027347,1225.752797
21340.408068,2960.823768,-5995.668130,3064.381992
21340.408401,296.082377,-5625.565159,2987.772442
21340.408735,-3182.885551,-6587.832884,-536.266849
21340.409068,-444.123565,-6587.832884,1838.629195
21340.409401,1776.494261,-7179.997637,2451.505594
21340.409734,7031.956449,-4737.318029,2068.457845
21340.410067,0.000000,-8364.327145,1225.752797
21340.410400,-3108.864956,-13323.706956,-4366.744339
21340.410734,-4811.338623,-15396.283594,-5898.935335
21340.411067,-3552.988522,-13249.686362,-1455.581446
21340.411400,1480.411884,-10362.883188,1378.971896
21340.411733,-222.061783,-7105.977043,2221.676944
21340.412066,-1258.350101,-7698.141797,229.828649
21340.412399,-3775.050304,-8438.347739,2451.505594
21340.412733,2886.803174,-6809.894666,1302.362347
21340.413066,5921.647536,-2738.761985,3983.696590
21340.413399,6365.771101,-8882.471304,6665.030833
21340.413732,814.226536,-5403.503377,-2145.067394
21340.414065,-3775.050304,-12731.542202,-3294.210641
21340.414399,-2146.597232,-12361.439231,-4366.744339
21340.414732,1554.432478,-11695.253884,-689.485948
21340.415065,1554.432478,-10510.924376,-766.095498
21340.415398,1702.473667,-11547.212695,-383.047749
21340.415731,-5995.668130,-10732.986159,-4903.011187
21340.416064,-740.205942,-10510.924376,1149.143247
21340.416398,2294.638420,-9474.636058,2374.896044
21340.416731,5551.544565,-3034.844362,3064.381992
21340.417064,4293.194464,-6513.812290,4826.401637
21340.417397,-2738.761985,-8660.409521,-1225.752797
21340.417730,-592.164754,-8660.409521,-1838.629195
21340.418063,1628.453072,-11325.150913,612.876398
21340.418397,7031.956449,-10658.965565,3600.648841
21340.418730,444.123565,-10732.986159,1685.410096
21340.419063,-2738.761985,-10214.842000,-4673.182538
21340.419396,-4145.153275,-12805.562797,-3753.867940
21340.419729,-2072.576638,-10140.821405,0.000000
21340.420062,2664.741391,-9252.574275,4366.744339
21340.420396,-370.102971,-7105.977043,2374.896044
21340.420729,-1258.350101,-6217.729913,-3753.867940
21340.421062,-5921.647536,-8956.491898,-612.876398
21340.421395,3182.885551,-6217.729913,1608.800546
21340.421728,5033.400406,-7402.059420,5362.668486
21340.422061,7105.977043,-6291.750507,6281.983084
21340.422395,4367.215058,-8290.306550,2221.676944
21340.422728,1036.288319,-12435.459826,-76.609550
21340.423061,814.226536,-14285.974681,-76.609550
21340.423394,518.144159,-10214.842000,-4596.572988
21340.423727,1184.329507,-8364.327145,-4290.134789
21340.424061,-3552.988522,-9992.780217,-2451.505594
21340.424394,-5921.647536,-9992.780217,-5822.325785
21340.424727,-5033.400406,-11547.212695,-3064.381992
21340.425060,1850.514855,-8956.491898,2528.115143
21340.425393,5477.523971,-4959.379811,8427.050478
21340.425726,5847.626942,-5329.482782,7277.907231
21340.426060,1776.494261,-8216.285956,4826.401637
21340.426393,1110.308913,-5403.503377,0.000000
21340.426726,5329.482782,-12435.459826,3907.087040
21340.427059,5255.462188,-10658.965565,-76.609550
21340.427392,-666.185348,-12435.459826,-2834.553343
21340.427725,-8068.244768,-13915.871710,-9193.145976
21340.428059,-8216.285956,-13767.830521,-7967.393179
21340.428392,-4811.338623,-11843.295072,-2834.553343
21340.428725,0.000000,-6587.832884,2451.505594
21340.429058,4663.297435,-4441.235652,6665.030833
21340.429391,592.164754,-4811.338623,4290.134789
21340.429724,0.000000,-6291.750507,6818.249932
21340.430058,3478.967927,-6217.729913,4903.011187
21340.430391,592.164754,-5995.668130,4290.134789
21340.430724,4737.318029,-4219.173869,1762.019645
21340.431057,-1850.514855,-12435.459826,-5286.058936
21340.431390,-4663.297435,-11325.150913,-9039.926876
21340.431724,-5625.565159,-17098.757260,-6665.030833
21340.432057,-2146.597232,-11325.150913,-6741.640382
21340.432390,592.164754,-12213.398043,1149.143247
21340.432723,-74.020594,-11843.295072,1762.019645
21340.433056,-2368.659014,-5403.503377,4443.353888
21340.433389,0.000000,-7772.162391,6281.983084
21340.433723,7994.224174,-4811.338623,11414.822920
21340.434056,5329.482782,-3552.988522,7584.345430
21340.434389,7179.997637,-3923.091493,5592.497135
21340.434722,-1924.535449,-10807.006753,-689.485948
21340.435055,-5699.585753,-11917.315666,-8120.612279
21340.435389,-4367.215058,-12213.398043,-8656.879127
21340.435722,-2738.761985,-11769.274478,-5056.230287
21340.436055,666.185348,-9326.594869,-3677.258390
21340.436388,-3552.988522,-13693.809927,-1225.752797
21340.436721,-1258.350101,-11251.130318,-1149.143247
21340.437054,2146.597232,-8660.409521,4903.011187
21340.437388,8290.306550,-5699.585753,10955.165621
21340.437721,8216.285956,-2368.659014,7277.907231
21340.438054,296.082377,-8364.327145,3447.429741
21340.438387,-1110.308913,-7105.977043,-612.876398
21340.438720,-74.020594,-9474.636058,-2068.457845
21340.439054,1924.535449,-10955.047942,-1685.410096
21340.439387,2294.638420,-9474.636058,-689.485948
21340.439720,-2146.597232,-10584.944971,-5822.325785
21340.440053,-4071.132681,-11843.295072,-6741.640382
21340.440386,-2220.617826,-13323.706956,-1915.238745
21340.440720,1998.556043,-9770.718434,383.047749
21340.441053,6661.853478,-7105.977043,7277.907231
21340.441386,2294.638420,-7994.224174,4519.963438
21340.441719,-1998.556043,-7476.080014,-383.047749
21340.442052,-888.247130,-9252.574275,1149.143247
21340.442385,1998.556043,-7698.141797,1762.019645
21340.442719,4367.215058,-3034.844362,2451.505594
21340.443052,3404.947333,-9474.636058,2374.896044
21340.443385,-2738.761985,-11843.295072,-4979.620737
21340.443718,-4589.276840,-10732.986159,-4290.134789
21340.444051,1110.308913,-11103.089130,-2528.115143
21340.444385,2442.679609,-9474.636058,2068.457845
21340.444718,888.247130,-7476.080014,689.485948
21340.445051,-3478.967927,-9992.780217,-2221.676944
21340.445384,-4441.235652,-8364.327145,-1838.629195
21340.445717,-1036.288319,-10658.965565,2451.505594
21340.446050,4663.297435,-11251.130318,4826.401637
21340.446384,3478.967927,-3627.009116,3370.820191
21340.446717,-1776.494261,-9696.697840,4826.401637
21340.447050,-74.020594,-7698.141797,-2068.457845
21340.447383,1628.453072,-10658.965565,1762.019645
21340.447716,3256.906145,-8438.347739,842.705048
21340.448050,3478.967927,-8364.327145,-919.314598
21340.448383,-2960.823768,-11325.150913,-5209.449386
21340.448716,-5181.441594,-13323.706956,-6205.373534
21340.449049,-3034.844362,-13767.830521,-306.438199
21340.449382,2072.576638,-7772.162391,1838.629195
21340.449716,4663.297435,-7105.977043,5745.716235
21340.450049,1702.473667,-8882.471304,4826.401637
21340.450382,-1554.432478,-4811.338623,1225.752797
21340.450715,-74.020594,-10658.965565,5745.716235
21340.451048,4367.215058,-9474.636058,1608.800546
21340.451381,2294.638420,-7698.141797,2987.772442
21340.451715,-74.020594,-7105.977043,-1455.581446
21340.452048,-4441.235652,-10288.862594,-5745.716235
21340.452381,-4885.359217,-9918.759623,-5975.544884
21340.452714,-296.082377,-11843.295072,-2757.943793
21340.453047,2368.659014,-9252.574275,2681.334243
21340.453381,592.164754,-7772.162391,3064.381992
21340.453714,-888.247130,-9992.780217,1378.971896
21340.454047,1702.473667,-9474.636058,2374.896044
21340.454380,2516.700203,-8438.347739,4443.353888
21340.454713,6883.915261,-6957.935855,5439.278036
21340.455046,4663.297435,-7179.997637,3983.696590
21340.455380,-2442.679609,-9474.636058,-3294.210641
21340.455713,-7031.956449,-10658.965565,-4903.011187
21340.456046,-3923.091493,-9474.636058,-4366.744339
21340.456379,-2664.741391,-11843.295072,-76.609550
21340.456712,1998.556043,-4145.153275,-1608.800546
21340.457046,-2960.823768,-8660.409521,-919.314598
21340.457379,0.000000,-10140.821405,2604.724693
21340.457712,2294.638420,-8956.491898,3677.258390
21340.458045,5255.462188,-9844.739029,5286.058936
21340.458378,8142.265362,-6735.874072,6128.763984
21340.458712,1480.411884,-10732.986159,919.314598
21340.459045,-2812.782580,-10732.986159,-4903.011187
21340.459378,-1924.535449,-13027.624579,-3140.991542
21340.459711,-2368.659014,-9918.759623,-4826.401637
21340.460044,0.000000,-7179.997637,2451.505594
21340.460377,-74.020594,-9326.594869,2374.896044
21340.460711,-3552.988522,-6069.688724,-919.314598
21340.461044,-740.205942,-8290.306550,2068.457845
21340.461377,2812.782580,-7105.977043,4366.744339
21340.461710,4071.132681,-5995.668130,5362.668486
21340.462043,1184.329507,-7772.162391,4136.915689
21340.462377,-74.020594,-10658.965565,-3753.867940
21340.462710,-4737.318029,-11621.233289,-4136.915689
21340.463043,-3552.988522,-11029.068536,-1225.752797
21340.463376,-74.020594,-14211.954086,-689.485948
21340.463709,0.000000,-6587.832884,612.876398
21340.464042,-2220.617826,-9400.615463,-1762.019645
21340.464376,-666.185348,-8290.306550,919.314598
21340.464709,1480.411884,-6809.894666,2757.943793
21340.465042,2368.659014,-7179.997637,6741.640382
21340.465375,7624.121203,-3330.926739,6435.202183
21340.465708,1998.556043,-8660.409521,1685.410096
21340.466042,666.185348,-9474.636058,-229.828649
21340.466375,-74.020594,-9474.636058,-3140.991542
21340.466708,-1480.411884,-13693.809927,-2145.067394
21340.467041,4959.379811,-9474.636058,-76.609550
21340.467374,-3034.844362,-13027.624579,-5745.716235
21340.467708,-4737.318029,-10140.821405,-4290.134789
21340.468041,-74.020594,-14211.954086,1762.019645
21340.468374,2146.597232,-7179.997637,2834.553343
21340.468707,5107.421000,-3997.112087,5745.716235
21340.469040,3256.906145,-6587.832884,5898.935335
21340.469373,0.000000,-4811.338623,612.876398
21340.469707,-2368.659014,-6587.832884,0.000000
21340.470040,4071.132681,-11251.130318,-76.609550
21340.470373,2664.741391,-5995.668130,0.000000
21340.470706,0.000000,-9548.656652,459.657299
21340.471039,-3923.091493,-12139.377449,-6205.373534
21340.471373,-5033.400406,-12509.480420,-5822.325785
21340.471706,-2146.597232,-12583.501014,-1532.190996
21340.472039,2146.597232,-9474.636058,2221.676944
21340.472372,3552.988522,-8364.327145,3140.991542
21340.472705,-6513.812290,-9548.656652,1685.410096
21340.473038,-74.020594,-4737.318029,-76.609550
21340.473372,1850.514855,-5995.668130,4903.011187
21340.473705,6513.812290,-5699.585753,8503.660028
21340.474038,4737.318029,-5551.544565,3677.258390
21340.474371,-222.061783,-8438.347739,-766.095498
21340.474704,-1702.473667,-11103.089130,-3447.429741
21340.475038,-1924.535449,-13767.830521,-3064.381992
21340.475371,-74.020594,-11843.295072,-2528.115143
21340.475704,-1184.329507,-11029.068536,-1302.362347
21340.476037,-3034.844362,-14211.954086,-3753.867940
21340.476370,-7994.224174,-9548.656652,-3064.381992
21340.476704,-74.020594,-9474.636058,3600.648841
21340.477037,4663.297435,-7698.141797,6665.030833
21340.477370,4959.379811,-1924.535449,6281.983084
21340.477703,2886.803174,-5773.606348,5745.716235
21340.478036,-1110.308913,-6809.894666,2451.505594
21340.478369,1332.370696,-5699.585753,0.000000
21340.478703,4071.132681,-14211.954086,2068.457845
21340.479036,2960.823768,-6587.832884,153.219100
21340.479369,-4737.318029,-12509.480420,-2528.115143
21340.479702,-4811.338623,-13619.789333,-8963.317327
21340.480035,-6587.832884,-14582.057057,-6205.373534
21340.480369,-3034.844362,-12361.439231,-2451.505594
21340.480702,2516.700203,-8512.368333,3140.991542
21340.481035,2442.679609,-4737.318029,5592.497135
21340.481368,0.000000,-3627.009116,4903.011187
21340.481701,2294.638420,-4737.318029,4213.525239
21340.482034,3552.988522,-7105.977043,4826.401637
21340.482368,4145.153275,-7476.080014,3447.429741
21340.482701,4367.215058,-7772.162391,2374.896044
21340.483034,-2368.659014,-9548.656652,-6128.763984
21340.483367,-4441.235652,-14656.077652,-5592.497135
21340.483700,-1258.350101,-13323.706956,-6205.373534
21340.484034,0.000000,-12509.480420,-306.438199
21340.484367,3108.864956,-9474.636058,2604.724693
21340.484700,-666.185348,-9104.533087,-919.314598
21340.485033,-2146.597232,-9474.636058,689.485948
21340.485366,2960.823768,-6439.791695,7201.297681
21340.485700,5477.523971,-6587.832884,9193.145976
21340.486033,7105.977043,-1258.350101,9806.022374
21340.486366,4663.297435,-7105.977043,2987.772442
21340.486699,-2960.823768,-8956.491898,-2451.505594
21340.487032,-2442.679609,-11843.295072,-3140.991542
21340.487365,-3330.926739,-11843.295072,-6818.249932
21340.487699,-2072.576638,-9548.656652,-4749.792088
21340.488032,-2886.803174,-11399.171507,-4596.572988
21340.488365,-4441.235652,-11177.109724,-7124.688131
21340.488698,-3923.091493,-12435.459826,-1762.019645
21340.489031,4515.256246,-10658.965565,4826.401637
21340.489365,9400.615463,-8290.306550,7277.907231
21340.489698,5921.647536,-4811.338623,10112.460574
21340.490031,2960.823768,-8956.491898,4826.401637
21340.490364,-74.020594,-9770.718434,1685.410096
21340.490697,4441.235652,-8734.430116,4060.306139
21340.491030,3182.885551,-9622.677246,2374.896044
21340.491364,2072.576638,-6735.874072,-306.438199
21340.491697,-5625.565159,-12065.356855,-6435.202183
21340.492030,-5403.503377,-12287.418637,-6818.249932
21340.492363,-4663.297435,-9548.656652,-7048.078582
21340.492696,-2960.823768,-11325.150913,1838.629195
21340.493030,3182.885551,-4737.318029,2681.334243
21340.493363,-1850.514855,-7179.997637,0.000000
21340.493696,518.144159,-7698.141797,1149.143247
21340.494029,0.000000,-10214.842000,3677.258390
21340.494362,3627.009116,-9400.615463,5209.449386
21340.494696,5181.441594,-5921.647536,5822.325785
21340.495029,1554.432478,-7179.997637,2451.505594
21340.495362,-2146.597232,-9104.533087,-3294.210641
21340.495695,-2442.679609,-9770.718434,-4213.525239
21340.496028,-1258.350101,-10881.027347,-3830.477490
21340.496361,1776.494261,-9474.636058,612.876398
21340.496695,-370.102971,-10510.924376,-76.609550
21340.497028,-4219.173869,-9548.656652,-4903.011187
21340.497361,-3256.906145,-10732.986159,0.000000
21340.497694,1776.494261,-8586.388927,4826.401637
21340.498027,5551.544565,-8142.265362,5822.325785
21340.498361,6439.791695,-7031.956449,6971.469032
21340.498694,1110.308913,-9474.636058,2068.457845
21340.499027,-222.061783,-8290.306550,-229.828649
21340.499360,0.000000,-11251.130318,-1915.238745
21340.499693,1332.370696,-10140.821405,-76.609550
21340.500026,-888.247130,-7179.997637,0.000000
21340.500360,-3404.947333,-11843.295072,-4366.744339
21340.500693,-3034.844362,-9474.636058,-7431.126331
21340.501026,-3256.906145,-9548.656652,-1532.190996
21340.501359,4515.256246,-7031.956449,4903.011187
21340.501692,5773.606348,-5033.400406,6128.763984
21340.502026,4219.173869,-8882.471304,4290.134789
21340.502359,444.123565,-9400.615463,3217.601092
21340.502692,1850.514855,-6957.935855,1608.800546
21340.503025,5255.462188,-13619.789333,4213.525239
21340.503358,3182.885551,-7994.224174,-2834.553343
21340.503692,-1184.329507,-10436.903782,-1608.800546
21340.504025,-4885.359217,-11843.295072,-4826.401637
21340.504358,-3404.947333,-8660.409521,-4290.134789
21340.504691,-666.185348,-10066.800811,-1608.800546
21340.505024,4145.153275,-7624.121203,4596.572988
21340.505357,3256.906145,-5403.503377,4979.620737
21340.505691,0.000000,-8956.491898,0.000000
21340.506024,2886.803174,-11251.130318,2068.457845
21340.506357,1184.329507,-7476.080014,612.876398
21340.506690,4737.318029,-7920.203579,6588.421283
21340.507023,1110.308913,-8290.306550,-383.047749
21340.507357,-4737.318029,-10510.924376,-6281.983084
21340.507690,-6587.832884,-13471.748144,-5132.839837
21340.508023,-2220.617826,-10140.821405,-1302.362347
21340.508356,1702.473667,-7772.162391,1915.238745
21340.508689,2294.638420,-7994.224174,3600.648841
21340.509022,-74.020594,-3034.844362,0.000000
21340.509356,0.000000,-8660.409521,1455.581446
21340.509689,4515.256246,-9474.636058,2987.772442
21340.510022,1184.329507,-6587.832884,612.876398
21340.510355,7179.997637,-10362.883188,4213.525239
21340.510688,-2368.659014,-11917.315666,-1838.629195
21340.511022,-1850.514855,-11177.109724,-4366.744339
21340.511355,-3627.009116,-12139.377449,-3600.648841
21340.511688,1110.308913,-12435.459826,-76.609550
21340.512021,1184.329507,-6883.915261,3140.991542
21340.512354,-370.102971,-8142.265362,1685.410096
21340.512688,-2442.679609,-6957.935855,459.657299
21340.513021,-4145.153275,-6587.832884,612.876398
21340.513354,3849.070898,-8808.450710,5439.278036
21340.513687,4663.297435,-4737.318029,4213.525239
21340.514020,0.000000,-6587.832884,1225.752797
21340.514353,-3330.926739,-11843.295072,-3140.991542
21340.514687,-3701.029710,-11621.233289,-4979.620737
21340.515020,-740.205942,-14211.954086,-2068.457845
21340.515353,2220.617826,-11251.130318,1225.752797
21340.515686,1628.453072,-8586.388927,1762.019645
21340.516019,-74.020594,-10214.842000,-76.609550
21340.516353,-1332.370696,-9844.739029,2987.772442
21340.516686,1110.308913,-4959.379811,76.609550
21340.517019,1480.411884,-8364.327145,4903.011187
21340.517352,7402.059420,-3552.988522,5898.935335
21340.517685,-1776.494261,-11103.089130,0.000000
21340.518018,-74.020594,-8882.471304,-2221.676944
21340.518352,296.082377,-10807.006753,0.000000
21340.518685,-666.185348,-12213.398043,-1532.190996
21340.519018,6439.791695,-6809.894666,-76.609550
21340.519351,-3849.070898,-15544.324782,-383.047749
21340.519684,-1480.411884,-7772.162391,-3677.258390
21340.520018,-2368.659014,-12139.377449,1149.143247
21340.520351,3478.967927,-10658.965565,2068.457845
21340.520684,3478.967927,-4441.235652,4826.401637
21340.521017,2294.638420,-6143.709319,2604.724693
21340.521350,-1628.453072,-8956.491898,0.000000
21340.521684,-2960.823768,-7846.182985,-612.876398
21340.522017,0.000000,-9548.656652,0.000000
21340.522350,5847.626942,-7105.977043,3600.648841
21340.522683,3849.070898,-9400.615463,2451.505594
21340.523016,-1184.329507,-13619.789333,-76.609550
21340.523349,-2442.679609,-10140.821405,-4290.134789
21340.523683,-2368.659014,-10732.986159,-3064.381992
21340.524016,1184.329507,-10807.006753,2374.896044
21340.524349,222.061783,-7254.018232,-689.485948
21340.524682,-5329.482782,-11029.068536,-3294.210641
21340.525015,-1406.391290,-8290.306550,-229.828649
21340.525349,-370.102971,-7328.038826,0.000000
21340.525682,5477.523971,-8290.306550,7890.783629
21340.526015,3478.967927,-4737.318029,4213.525239
21340.526348,1184.329507,-7179.997637,3217.601092
21340.526681,-740.205942,-10436.903782,0.000000
21340.527014,1184.329507,-10436.903782,0.000000
21340.527348,222.061783,-8956.491898,-1225.752797
21340.527681,1110.308913,-9770.718434,-995.924147
21340.528014,-1850.514855,-13619.789333,-1608.800546
21340.528347,-8586.388927,-10140.821405,-6741.640382
21340.528680,-4219.173869,-11325.150913,-2987.772442
21340.529014,-1850.514855,-11103.089130,1149.143247
21340.529347,6513.812290,-2442.679609,6128.763984
21340.529680,2960.823768,-7328.038826,9806.022374
21340.530013,4515.256246,-2368.659014,306.438199
21340.530346,0.000000,-9548.656652,3064.381992
21340.530680,5847.626942,-10658.965565,2374.896044
21340.531013,6735.874072,-7994.224174,842.705048
21340.531346,-1776.494261,-11473.192101,-766.095498
21340.531679,-3182.885551,-11547.212695,-8503.660028
21340.532012,-7698.141797,-15248.242405,-6818.249932
21340.532345,-1184.329507,-11325.150913,-2451.505594
21340.532678,-74.020594,-8290.306550,2374.896044
21340.533012,3478.967927,-4811.338623,3677.258390
21340.533345,740.205942,-6587.832884,3677.258390
21340.533678,2516.700203,-8290.306550,7277.907231
21340.534011,4515.256246,-5773.606348,4903.011187
21340.534344,4885.359217,-9474.636058,7277.907231
21340.534677,4737.318029,-4811.338623,1225.752797
21340.535011,-1850.514855,-11991.336260,-3600.648841
21340.535344,-4145.153275,-11843.295072,-7967.393179
21340.535677,-7179.997637,-13323.706956,-9346.365076
21340.536010,-3627.009116,-12509.480420,-6741.640382
21340.536343,3478.967927,-9178.553681,-76.609550
21340.536676,-1258.350101,-14211.954086,-76.609550
21340.537010,1184.329507,-5995.668130,2451.505594
21340.537343,3182.885551,-10658.965565,6052.154434
21340.537676,6735.874072,-5921.647536,7967.393179
21340.538009,8512.368333,-5033.400406,10342.289223
21340.538342,1702.473667,-5625.565159,2298.286494
21340.538675,-2368.659014,-9548.656652,-3677.258390
21340.539009,-3552.988522,-11251.130318,-2145.067394
21340.539342,-74.020594,-13915.871710,-6205.373534
21340.539675,-2072.576638,-9548.656652,-3370.820191
21340.540008,-4145.153275,-11917.315666,-689.485948
21340.540341,-5107.421000,-12287.418637,-4903.011187
21340.540674,-3849.070898,-9400.615463,-383.047749
21340.541007,0.000000,-9844.739029,2145.067394
21340.541341,4885.359217,-6809.894666,7814.174080
21340.541674,4737.318029,-1554.432478,6741.640382
21340.542007,814.226536,-11103.089130,2374.896044
21340.542340,-1406.391290,-7772.162391,2298.286494
21340.542673,-666.185348,-8290.306550,-383.047749
21340.543006,3034.844362,-9474.636058,1149.143247
21340.543340,-1184.329507,-8290.306550,-2528.115143
21340.543673,-4737.318029,-12213.398043,-4290.134789
21340.544006,-3923.091493,-13915.871710,-3140.991542
21340.544339,-74.020594,-9474.636058,-2987.772442
21340.544672,1998.556043,-11547.212695,2068.457845
21340.545005,4663.297435,-7105.977043,4519.963438
21340.545339,0.000000,-7476.080014,2145.067394
21340.545672,-2590.720797,-9326.594869,919.314598
21340.546005,1924.535449,-7328.038826,1762.019645
21340.546338,4071.132681,-9474.636058,5898.935335
21340.546671,2368.659014,-4811.338623,7354.516781
21340.547004,1332.370696,-8290.306550,1149.143247
21340.547338,-4737.318029,-10732.986159,-6435.202183
21340.547671,-3256.906145,-7328.038826,-4903.011187
21340.548004,-1258.350101,-12583.501014,-3753.867940
21340.548337,3182.885551,-7920.203579,-76.609550
21340.548670,-1258.350101,-10510.924376,-766.095498
21340.549003,-3108.864956,-10436.903782,-3753.867940
21340.549336,-1258.350101,-8882.471304,-383.047749
21340.549670,1998.556043,-11843.295072,4826.401637
21340.550003,8216.285956,-6513.812290,4826.401637
21340.550336,2960.823768,-5995.668130,6435.202183
21340.550669,2368.659014,-8808.450710,1685.410096
21340.551002,0.000000,-8956.491898,153.219100
21340.551335,2294.638420,-10288.862594,-536.266849
21340.551669,3627.009116,-10436.903782,1685.410096
21340.552002,2442.679609,-7920.203579,76.609550
21340.552335,-3256.906145,-11029.068536,-6435.202183
21340.552668,-4367.215058,-12435.459826,-5592.497135
21340.553001,-1850.514855,-13027.624579,-3140.991542
21340.553334,2146.597232,-7772.162391,612.876398
21340.553668,6069.688724,-7698.141797,7277.907231
21340.554001,1332.370696,-7624.121203,3600.648841
21340.554334,1406.391290,-8216.285956,2221.676944
21340.554667,1924.535449,-8142.265362,3830.477490
21340.555000,4589.276840,-7402.059420,3294.210641
21340.555333,3256.906145,-8364.327145,4060.306139
21340.555667,-74.020594,-10066.800811,-4979.620737
21340.556000,-7105.977043,-11029.068536,-6435.202183
21340.556333,-4737.318029,-11917.315666,-2834.553343
21340.556666,-74.020594,-11843.295072,-1608.800546
21340.556999,1184.329507,-8586.388927,2221.676944
21340.557332,1258.350101,-7772.162391,3753.867940
21340.557665,0.000000,-8438.347739,2987.772442
21340.557999,-370.102971,-9474.636058,3217.601092
21340.558332,2368.659014,-7179.997637,4290.134789
21340.558665,3478.967927,-7698.141797,4979.620737
21340.558998,2738.761985,-6439.791695,1685.410096
21340.559331,-2146.597232,-11843.295072,-4673.182538
21340.559664,-4811.338623,-11251.130318,-6971.469032
21340.559998,-5625.565159,-13693.809927,-2451.505594
21340.560331,1998.556043,-9474.636058,-76.609550
21340.560664,-74.020594,-7105.977043,0.000000
21340.560997,-2812.782580,-8956.491898,995.924147
21340.561330,-74.020594,-8290.306550,2374.896044
21340.561663,518.144159,-8438.347739,3830.477490
21340.561997,5033.400406,-6883.915261,4979.620737
21340.562330,3478.967927,-7105.977043,5056.230287
21340.562663,0.000000,-7772.162391,0.000000
21340.562996,-5921.647536,-9548.656652,-2451.505594
21340.563329,-4811.338623,-11843.295072,-5669.106685
21340.563662,-2960.823768,-10732.986159,-4903.011187
21340.563996,-1184.329507,-8364.327145,1685.410096
21340.564329,0.000000,-5403.503377,-4060.306139
21340.564662,-3923.091493,-11399.171507,-1608.800546
21340.564995,1184.329507,-6883.915261,2068.457845
21340.565328,1554.432478,-9696.697840,3677.258390
21340.565661,8512.368333,-5773.606348,7507.735880
21340.565994,592.164754,-9548.656652,3907.087040
21340.566328,-666.185348,-8364.327145,-4290.134789
21340.566661,-1184.329507,-11547.212695,-76.609550
21340.566994,-666.185348,-11843.295072,-2221.676944
21340.567327,2368.659014,-9548.656652,1225.752797
21340.567660,-666.185348,-8290.306550,-2221.676944
21340.567993,-2368.659014,-11399.171507,-1302.362347
21340.568327,-2664.741391,-6365.771101,-1532.190996
21340.568660,1406.391290,-7994.224174,842.705048
21340.568993,2960.823768,-8586.388927,4213.525239
21340.569326,4737.318029,-3552.988522,2681.334243
21340.569659,-2960.823768,-9548.656652,0.000000
21340.569992,1110.308913,-10362.883188,-76.609550
21340.570326,1110.308913,-10362.883188,-689.485948
21340.570659,3552.988522,-11325.150913,1991.848295
21340.570992,6143.709319,-7105.977043,3447.429741
21340.571325,222.061783,-10510.924376,-842.705048
21340.571658,0.000000,-7179.997637,-2451.505594
21340.571991,-74.020594,-9474.636058,-3753.867940
21340.572324,1184.329507,-11325.150913,306.438199
21340.572658,0.000000,-5995.668130,2987.772442
21340.572991,1110.308913,-9474.636058,-4290.134789
21340.573324,-814.226536,-9326.594869,-1608.800546
21340.573657,1110.308913,-10955.047942,995.924147
21340.573990,4293.194464,-9252.574275,3753.867940
21340.574323,7031.956449,-7476.080014,7354.516781
21340.574657,3552.988522,-5995.668130,4290.134789
21340.574990,-666.185348,-10066.800811,-689.485948
21340.575323,-1258.350101,-10066.800811,-1762.019645
21340.575656,-2960.823768,-10732.986159,-3217.601092
21340.575989,-1850.514855,-9918.759623,-1149.143247
21340.576322,-3552.988522,-5995.668130,-2451.505594
21340.576656,-7772.162391,-10658.965565,-6511.811733
21340.576989,-5995.668130,-7328.038826,-4903.011187
21340.577322,-74.020594,-11843.295072,1762.019645
21340.577655,5551.544565,-9178.553681,8503.660028
21340.577988,4293.194464,-3330.926739,6741.640382
21340.578321,1702.473667,-8808.450710,2451.505594
21340.578655,2590.720797,-8808.450710,2068.457845
21340.578988,1110.308913,-11843.295072,1149.143247
21340.579321,2368.659014,-9918.759623,0.000000
21340.579654,-74.020594,-10658.965565,-3447.429741
21340.579987,-6365.771101,-11917.315666,-6358.592633
21340.580320,-7994.224174,-9548.656652,-4903.011187
21340.580653,-5995.668130,-12435.459826,-2528.115143
21340.580987,0.000000,-8216.285956,2068.457845
21340.581320,1702.473667,-5995.668130,6358.592633
21340.581653,2368.659014,-6291.750507,6894.859482
21340.581986,1924.535449,-3627.009116,3217.601092
21340.582319,3478.967927,-11547.212695,4213.525239
21340.582652,7031.956449,-9474.636058,1149.143247
21340.582986,1184.329507,-8956.491898,4290.134789
21340.583319,1776.494261,-11177.109724,-383.047749
21340.583652,-5403.503377,-11843.295072,-8427.050478
21340.583985,-6735.874072,-15248.242405,-5898.935335
21340.584318,-4737.318029,-10436.903782,-4290.134789
21340.584651,-1776.494261,-8512.368333,766.095498
21340.584985,2738.761985,-4737.318029,3524.039291
21340.585318,-370.102971,-6809.894666,3294.210641
21340.585651,3849.070898,-1258.350101,2451.505594
21340.585984,5329.482782,-9474.636058,6665.030833
21340.586317,7328.038826,-7994.224174,3753.867940
21340.586650,5551.544565,-4811.338623,0.000000
21340.586984,-74.020594,-13027.624579,-4979.620737
21340.587317,-3478.967927,-13989.892304,-7584.345430
21340.587650,-4219.173869,-14211.954086,-8120.612279
21340.587983,0.000000,-13249.686362,-3140.991542
21340.588316,2368.659014,-8142.265362,1149.143247
21340.588649,-518.144159,-9548.656652,1915.238745
21340.588982,-962.267725,-7772.162391,2298.286494
21340.589316,962.267725,-5699.585753,4826.401637
21340.589649,4737.318029,-5107.421000,6741.640382
21340.589982,7772.162391,-6217.729913,8963.317327
21340.590315,1998.556043,-6365.771101,153.219100
21340.590648,-3404.947333,-8956.491898,-4903.011187
21340.590981,-2664.741391,-12879.583391,-3753.867940
21340.591315,-888.247130,-13101.645173,-4290.134789
21340.591648,1184.329507,-11103.089130,-383.047749
21340.591981,222.061783,-9844.739029,-1072.533697
21340.592314,-2442.679609,-11769.274478,-1915.238745
21340.592647,-666.185348,-9178.553681,-76.609550
21340.592980,296.082377,-8956.491898,2451.505594
21340.593314,5255.462188,-2442.679609,4903.011187
21340.593647,3849.070898,-6957.935855,6358.592633
21340.593980,2294.638420,-10658.965565,-76.609550
21340.594313,-74.020594,-8882.471304,-76.609550
21340.594646,962.267725,-11843.295072,-536.266849
21340.594979,5477.523971,-8216.285956,3600.648841
21340.595313,1110.308913,-10066.800811,383.047749
21340.595646,-1628.453072,-12139.377449,-4136.915689
21340.595979,-5033.400406,-12583.501014,-1608.800546
21340.596312,-3256.906145,-9548.656652,-4903.011187
21340.596645,0.000000,-8660.409521,2221.676944
21340.596978,1998.556043,-9326.594869,3907.087040
21340.597311,-1258.350101,-4811.338623,0.000000
21340.597645,-3330.926739,-8290.306550,1762.019645
21340.597978,-888.247130,-9030.512492,1455.581446
21340.598311,-592.164754,-9178.553681,2987.772442
21340.598644,2516.700203,-6069.688724,4749.792088
21340.598977,-74.020594,-9474.636058,-76.609550
21340.599310,-2368.659014,-8660.409521,-229.828649
21340.599644,-2368.659014,-12213.398043,-76.609550
21340.599977,-74.020594,-9474.636058,-2834.553343
21340.600310,592.164754,-7476.080014,0.000000
21340.600643,-4145.153275,-12065.356855,-3064.381992
21340.600976,-3997.112087,-10214.842000,-3600.648841
21340.601309,-5551.544565,-10066.800811,-1762.019645
21340.601643,2294.638420,-9252.574275,2451.505594
21340.601976,3034.844362,-5107.421000,3064.381992
21340.602309,5921.647536,-8142.265362,9116.536426
21340.602642,2590.720797,-6217.729913,2681.334243
21340.602975,0.000000,-7179.997637,2451.505594
21340.603308,1776.494261,-13101.645173,1455.581446
21340.603642,1554.432478,-7179.997637,-1225.752797
21340.603975,-74.020594,-9474.636058,-2528.115143
21340.604308,-2442.679609,-10362.883188,-6818.249932
21340.604641,-5551.544565,-12287.418637,-7201.297681
21340.604974,-3627.009116,-12509.480420,-4903.011187
21340.605307,814.226536,-9474.636058,1838.629195
21340.605640,3182.885551,-6217.729913,6052.154434
21340.605974,3478.967927,-5033.400406,4596.572988
21340.606307,2886.803174,-8660.409521,5439.278036
21340.606640,4071.132681,-7698.141797,2987.772442
21340.606973,4145.153275,-8068.244768,4903.011187
21340.607306,4515.256246,-9474.636058,2068.457845
21340.607639,-2294.638420,-9548.656652,-5515.887586
21340.607973,-8290.306550,-13101.645173,-6588.421283
21340.608306,-4663.297435,-11029.068536,-7201.297681
21340.608639,-2664.741391,-11843.295072,-3294.210641
21340.608972,2738.761985,-8808.450710,2681.334243
21340.609305,1110.308913,-9474.636058,4213.525239
21340.609638,3182.885551,-5477.523971,2145.067394
21340.609972,1184.329507,-8364.327145,7737.564530
21340.610305,5847.626942,-8290.306550,4826.401637
21340.610638,6587.832884,-4367.215058,6128.763984
21340.610971,2886.803174,-9326.594869,3600.648841
21340.611304,-3182.885551,-11325.150913,-5515.887586
21340.611637,-6883.915261,-11843.295072,-7507.735880
21340.611971,-3997.112087,-12509.480420,-7124.688131
21340.612304,0.000000,-9548.656652,-2451.505594
21340.612637,-74.020594,-8364.327145,-3677.258390
21340.612970,-888.247130,-10066.800811,1762.019645
21340.613303,2294.638420,-6513.812290,2987.772442
21340.613636,5847.626942,-7476.080014,4903.011187
21340.613969,5921.647536,-4811.338623,7890.783629
21340.614303,7031.956449,-5847.626942,3753.867940
21340.614636,1776.494261,-10214.842000,76.609550
21340.614969,-2294.638420,-11843.295072,-4060.306139
21340.615302,-296.082377,-13101.645173,-4596.572988
21340.615635,-5625.565159,-12213.398043,-3524.039291
21340.615968,3997.112087,-8882.471304,-76.609550
21340.616302,-1258.350101,-10362.883188,-1608.800546
21340.616635,-1776.494261,-6587.832884,0.000000
21340.616968,-1184.329507,-8438.347739,1532.190996
21340.617301,3478.967927,-7698.141797,5132.839837
21340.617634,6809.894666,-5551.544565,7584.345430
21340.617967,814.226536,-7550.100608,3677.258390
21340.618301,-666.185348,-9474.636058,-2528.115143
21340.618634,-4145.153275,-11843.295072,-1302.362347
21340.618967,-962.267725,-11029.068536,-3677.258390
21340.619300,-74.020594,-9548.656652,0.000000
21340.619633,-592.164754,-10066.800811,-76.609550
21340.619966,-2590.720797,-10658.965565,-3064.381992
21340.620300,-1406.391290,-9918.759623,919.314598
21340.620633,740.205942,-7179.997637,1072.533697
21340.620966,3256.906145,-6365.771101,3677.258390
21340.621299,3182.885551,-7105.977043,2987.772442
21340.621632,74.020594,-8882.471304,995.924147
21340.621965,-2220.617826,-8660.409521,-1532.190996
21340.622298,-962.267725,-11399.171507,-2451.505594
21340.622632,1998.556043,-10066.800811,-229.828649
21340.622965,3478.967927,-9474.636058,1762.019645
21340.623298,-2368.659014,-11917.315666,0.000000
21340.623631,-2812.782580,-11843.295072,-1915.238745
21340.623964,-2886.803174,-9548.656652,0.000000
21340.624297,0.000000,-7179.997637,2451.505594
21340.624631,4071.132681,-5329.482782,2987.772442
21340.624964,-296.082377,-8142.265362,2068.457845
21340.625297,-2812.782580,-6735.874072,-383.047749
21340.625630,-1776.494261,-9622.677246,0.000000
21340.625963,814.226536,-8364.327145,0.000000
21340.626296,2960.823768,-8364.327145,4519.963438
21340.626630,1998.556043,-11251.130318,-76.609550
21340.626963,-2368.659014,-9548.656652,-1225.752797
21340.627296,592.164754,-12435.459826,1762.019645
21340.627629,0.000000,-10288.862594,0.000000
21340.627962,2738.761985,-8290.306550,2068.457845
21340.628295,1628.453072,-8512.368333,229.828649
21340.628628,-2368.659014,-10288.862594,-1532.190996
21340.628962,-3256.906145,-6587.832884,-1838.629195
21340.629295,888.247130,-11843.295072,2374.896044
21340.629628,3330.926739,-4219.173869,2451.505594
21340.629961,0.000000,-5995.668130,3370.820191
21340.630294,2294.638420,-9474.636058,-1302.362347
21340.630627,0.000000,-8660.409521,306.438199
21340.630961,1554.432478,-11843.295072,383.047749
21340.631294,4663.297435,-9474.636058,1915.238745
21340.631627,1628.453072,-9178.553681,-766.095498
21340.631960,-148.041188,-11547.212695,-2068.457845
21340.632293,-2738.761985,-13027.624579,-3753.867940
21340.632626,-4737.318029,-9844.739029,-2451.505594
21340.632959,1110.308913,-9474.636058,1762.019645
21340.633292,4663.297435,-9474.636058,3600.648841
21340.633625,1184.329507,-6291.750507,4596.572988
21340.633958,1406.391290,-7698.141797,4290.134789
21340.634291,3034.844362,-7105.977043,3064.381992
21340.634624,2368.659014,-7772.162391,4903.011187
21340.634957,6439.791695,-7698.141797,5362.668486
21340.635290,-666.185348,-9622.677246,-2374.896044
21340.635624,-5773.606348,-11029.068536,-6894.859482
21340.635957,-5107.421000,-12065.356855,-4903.011187
21340.636290,-4589.276840,-10288.862594,-4749.792088
21340.636623,-1628.453072,-6291.750507,306.438199
21340.636956,-1258.350101,-8290.306550,-383.047749
21340.637289,-1850.514855,-7105.977043,-383.047749
21340.637622,0.000000,-6587.832884,6665.030833
21340.637955,4071.132681,-7105.977043,4826.401637
21340.638288,3849.070898,-7772.162391,7354.516781
21340.638621,3478.967927,-6735.874072,4519.963438
21340.638954,296.082377,-7994.224174,-1915.238745
21340.639287,-1480.411884,-10140.821405,-4290.134789
21340.639620,-1850.514855,-12731.542202,-6741.640382
21340.639953,1702.473667,-14211.954086,-4979.620737
21340.640286,-2072.576638,-11029.068536,-2298.286494
21340.640619,-2442.679609,-10658.965565,-4826.401637
21340.640953,-2664.741391,-8364.327145,0.000000
21340.641286,296.082377,-8364.327145,6971.469032
21340.641619,5477.523971,-4515.256246,7354.516781
21340.641952,4885.359217,-4071.132681,7431.126331
21340.642285,2886.803174,-8290.306550,4826.401637
21340.642618,-2368.659014,-7476.080014,1225.752797
21340.642951,-666.185348,-7105.977043,-3447.429741
21340.643284,-2368.659014,-10140.821405,-3370.820191
21340.643617,-666.185348,-9474.636058,-4596.572988
21340.643950,-1850.514855,-13027.624579,-5592.497135
21340.644283,-4441.235652,-13915.871710,-4979.620737
21340.644616,-3256.906145,-11029.068536,-459.657299
21340.644949,370.102971,-10584.944971,1991.848295
21340.645282,7476.080014,-5773.606348,7277.907231
21340.645615,5921.647536,-7476.080014,9729.412825
21340.645949,1776.494261,-5107.421000,4903.011187
21340.646282,0.000000,-8364.327145,4903.011187
21340.646615,5551.544565,-7994.224174,842.705048
21340.646948,3330.926739,-6957.935855,1838.629195
21340.647281,2590.720797,-7105.977043,-2681.334243
21340.647614,-3404.947333,-11843.295072,-7124.688131
21340.647947,-6957.935855,-12657.521608,-7660.954980
21340.648280,-2368.659014,-12361.439231,-4903.011187
21340.648613,-74.020594,-11843.295072,-76.609550
21340.648946,0.000000,-6587.832884,1838.629195
21340.649279,814.226536,-10658.965565,4213.525239
21340.649612,3478.967927,-7105.977043,3064.381992
21340.649945,2664.741391,-5107.421000,5209.449386
21340.650278,5847.626942,-8290.306550,6511.811733
21340.650611,5551.544565,-5921.647536,4826.401637
21340.650944,-1258.350101,-8956.491898,-919.314598
21340.651278,-2442.679609,-9474.636058,-4673.182538
21340.651611,-2442.679609,-11843.295072,-4979.620737
21340.651944,-1924.535449,-10732.986159,-2987.772442
21340.652277,444.123565,-9326.594869,-383.047749
21340.652610,-2442.679609,-10288.862594,-1838.629195
21340.652943,-6217.729913,-9548.656652,-3677.258390
21340.653276,-1998.556043,-11103.089130,842.705048
21340.653609,74.020594,-6587.832884,1378.971896
21340.653942,4737.318029,-5551.544565,9116.536426
21340.654275,4663.297435,-7105.977043,5745.716235
21340.654608,1702.473667,-4811.338623,1225.752797
21340.654941,814.226536,-9474.636058,1608.800546
21340.655274,3034.844362,-10214.842000,229.828649
21340.655607,296.082377,-9992.780217,-1149.143247
21340.655940,-888.247130,-9844.739029,-3830.477490
21340.656273,-2738.761985,-14211.954086,-6205.373534
21340.656607,-7105.977043,-11029.068536,-3677.258390
21340.656940,-4145.153275,-10732.986159,612.876398
21340.657273,2886.803174,-8290.306550,2374.896044
21340.657606,2368.659014,-4959.379811,6741.640382
21340.657939,1258.350101,-6365.771101,4366.744339
21340.658272,1998.556043,-8142.265362,3524.039291
21340.658605,2072.576638,-7328.038826,2298.286494
21340.658938,3478.967927,-9326.594869,3907.087040
21340.659271,4071.132681,-7105.977043,-76.609550
21340.659604,-4737.318029,-12509.480420,-2221.676944
21340.659937,-3923.091493,-11843.295072,-6818.249932
21340.660270,-2738.761985,-10658.965565,-5439.278036
21340.660603,1110.308913,-12139.377449,1149.143247
21340.660936,2516.700203,-5551.544565,3677.258390
21340.661269,2072.576638,-6661.853478,2451.505594
21340.661603,1184.329507,-7920.203579,2681.334243
21340.661936,0.000000,-8364.327145,1378.971896
21340.662269,2886.803174,-9474.636058,536.266849
21340.662602,0.000000,-8364.327145,2451.505594
21340.662935,2886.803174,-11843.295072,1149.143247
21340.663268,-2960.823768,-8290.306550,-2681.334243
21340.663601,-2960.823768,-8734.430116,-1915.238745
21340.663934,296.082377,-9400.615463,-229.828649
21340.664267,1406.391290,-7402.059420,1455.581446
21340.664600,-222.061783,-5773.606348,689.485948
21340.664933,-1924.535449,-7920.203579,-2298.286494
21340.665266,-4145.153275,-8364.327145,0.000000
21340.665599,2294.638420,-10362.883188,1762.019645
21340.665932,4071.132681,-4959.379811,0.000000
21340.666265,3478.967927,-11843.295072,1762.019645
21340.666598,1110.308913,-9770.718434,-689.485948
21340.666932,-1184.329507,-11917.315666,383.047749
21340.667265,518.144159,-10732.986159,0.000000
21340.667598,2368.659014,-9252.574275,1149.143247
21340.667931,3849.070898,-8290.306550,4443.353888
21340.668264,1776.494261,-7179.997637,2757.943793
21340.668597,666.185348,-5699.585753,689.485948
21340.668930,592.164754,-8068.244768,-1608.800546
21340.669263,1110.308913,-10066.800811,842.705048
21340.669596,1776.494261,-8068.244768,0.000000
21340.669929,74.020594,-9178.553681,-2068.457845
21340.670262,-3552.988522,-12509.480420,-153.219100
21340.670595,-74.020594,-9104.533087,-2374.896044
21340.670928,1110.308913,-11251.130318,1149.143247
21340.671261,4737.318029,-9178.553681,4826.401637
21340.671594,1850.514855,-6439.791695,1608.800546
21340.671928,-1480.411884,-11177.109724,-689.485948
21340.672261,740.205942,-8068.244768,0.000000
21340.672594,-74.020594,-12435.459826,2374.896044
21340.672927,1184.329507,-5107.421000,2451.505594
21340.673260,-74.020594,-11251.130318,2374.896044
21340.673593,-1258.350101,-7105.977043,-3983.696590
21340.673926,-4737.318029,-9548.656652,-2145.067394
21340.674259,-74.020594,-12435.459826,-995.924147
21340.674592,1998.556043,-8882.471304,2681.334243
21340.674925,1850.514855,-8882.471304,3753.867940
21340.675258,-222.061783,-9030.512492,1915.238745
21340.675591,-3330.926739,-7994.224174,-2068.457845
21340.675924,-4145.153275,-10732.986159,1225.752797
21340.676257,-74.020594,-7105.977043,-76.609550
21340.676590,-370.102971,-7179.997637,-3064.381992
21340.676923,-1184.329507,-9474.636058,1685.410096
21340.677257,-4515.256246,-9548.656652,-1838.629195
21340.677590,666.185348,-7994.224174,1149.143247
21340.677923,3404.947333,-9030.512492,4443.353888
21340.678256,3923.091493,-7550.100608,4290.134789
21340.678589,1776.494261,-7179.997637,2451.505594
21340.678922,-2368.659014,-12805.562797,2987.772442
21340.679255,1998.556043,-7402.059420,-1991.848295
21340.679588,-2960.823768,-10140.821405,-3524.039291
21340.679921,4145.153275,-9178.553681,3600.648841
21340.680254,-2442.679609,-6883.915261,-4290.134789
21340.680587,-4663.297435,-11325.150913,-4749.792088
21340.680920,-4071.132681,-9178.553681,-2374.896044
21340.681253,-2220.617826,-9992.780217,229.828649
21340.681586,4145.153275,-4219.173869,4903.011187
21340.681919,4367.215058,-6365.771101,7124.688131
21340.682252,4145.153275,-5995.668130,2757.943793
21340.682586,4441.235652,-8586.388927,2528.115143
21340.682919,5847.626942,-12435.459826,1149.143247
21340.683252,4663.297435,-10214.842000,-2911.162892
21340.683585,0.000000,-11621.233289,-3983.696590
21340.683918,-2442.679609,-17394.839637,-4366.744339
21340.684251,-4811.338623,-13027.624579,-4673.182538
21340.684584,-74.020594,-10362.883188,-153.219100
21340.684917,962.267725,-7254.018232,2451.505594
21340.685250,4663.297435,-3701.029710,6358.592633
21340.685583,2664.741391,-5847.626942,7737.564530
21340.685916,2146.597232,-3849.070898,4826.401637
21340.686249,2368.659014,-6365.771101,229.828649
21340.686582,1184.329507,-8512.368333,2757.943793
21340.686915,2294.638420,-8290.306550,-1302.362347
21340.687248,-74.020594,-10955.047942,-5669.106685
21340.687582,-5255.462188,-14656.077652,-7431.126331
21340.687915,-5625.565159,-11917.315666,-8580.269578
21340.688248,-2886.803174,-13471.748144,-3217.601092
21340.688581,666.185348,-8734.430116,1225.752797
21340.688914,2368.659014,-7328.038826,5515.887586
21340.689247,3182.885551,-4737.318029,4749.792088
21340.689580,8290.306550,-7031.956449,12180.918418
21340.689913,5847.626942,-3701.029710,4443.353888
21340.690246,5329.482782,-7179.997637,4903.011187
21340.690579,2072.576638,-7624.121203,0.000000
21340.690912,-1480.411884,-12287.418637,-4979.620737
21340.691245,-4293.194464,-14359.995275,-6818.249932
21340.691578,-5403.503377,-13693.809927,-8580.269578
21340.691911,-666.185348,-13027.624579,-2834.553343
21340.692244,-2146.597232,-7179.997637,0.000000
21340.692577,1998.556043,-9474.636058,383.047749
21340.692911,-3627.009116,-7179.997637,306.438199
21340.693244,1776.494261,-7550.100608,5439.278036
21340.693577,7031.956449,-8290.306550,7890.783629
21340.693910,6809.894666,-6217.729913,8656.879127
21340.694243,1998.556043,-8142.265362,3370.820191
21340.694576,-1998.556043,-8734.430116,-1072.533697
21340.694909,-1110.308913,-9770.718434,-4443.353888
21340.695242,-2368.659014,-14582.057057,-76.609550
21340.695575,-1258.350101,-7624.121203,-6128.763984
21340.695908,-3552.988522,-10732.986159,-4290.134789
21340.696241,-3182.885551,-13027.624579,-1302.362347
21340.696574,-74.020594,-11399.171507,2374.896044
21340.696907,-444.123565,-9770.718434,4213.525239
21340.697240,3034.844362,-4737.318029,3983.696590
21340.697573,2072.576638,-5699.585753,2528.115143
21340.697907,0.000000,-8512.368333,1762.019645
21340.698240,-1628.453072,-9400.615463,1608.800546
21340.698573,1258.350101,-10140.821405,76.609550
21340.698906,3627.009116,-9548.656652,1685.410096
21340.699239,2368.659014,-9474.636058,459.657299
21340.699572,-74.020594,-11251.130318,-3140.991542
21340.699905,-2812.782580,-11991.336260,-689.485948
21340.700238,3182.885551,-12435.459826,-76.609550
21340.700571,2294.638420,-8364.327145,612.876398
21340.700904,2664.741391,-6883.915261,2374.896044
21340.701237,-74.020594,-10658.965565,-1302.362347
21340.701570,-1184.329507,-8660.409521,229.828649
21340.701903,-2516.700203,-9770.718434,0.000000
21340.702236,1850.514855,-8882.471304,1762.019645
21340.702569,592.164754,-5995.668130,3064.381992
21340.702902,-1184.329507,-9474.636058,4826.401637
21340.703236,1702.473667,-5033.400406,0.000000
21340.703569,-2368.659014,-8364.327145,612.876398
21340.703902,3923.091493,-10066.800811,1915.238745
21340.704235,1110.308913,-7031.956449,-2451.505594
21340.704568,-1998.556043,-13619.789333,-4979.620737
21340.704901,-5403.503377,-12361.439231,-5056.230287
21340.705234,-4219.173869,-11473.192101,-2834.553343
21340.705567,2368.659014,-10807.006753,3677.258390
21340.705900,4441.235652,-6587.832884,9729.412825
21340.706233,814.226536,-4811.338623,2451.505594
21340.706566,1184.329507,-6513.812290,7048.078582
21340.706899,1998.556043,-8882.471304,2987.772442
21340.707232,0.000000,-8956.491898,3064.381992
21340.707565,2072.576638,-6143.709319,-229.828649
21340.707898,-2368.659014,-9326.594869,-4213.525239
21340.708232,-3701.029710,-12065.356855,-6205.373534
21340.708565,-3627.009116,-13027.624579,-4366.744339
21340.708898,-2294.638420,-11843.295072,-3753.867940
21340.709231,1998.556043,-8512.368333,-1838.629195
21340.709564,1184.329507,-9918.759623,4903.011187
21340.709897,6439.791695,-9474.636058,5439.278036
21340.710230,3923.091493,-8290.306550,7737.564530
21340.710563,6439.791695,-6513.812290,7354.516781
21340.710896,7624.121203,-6513.812290,7277.907231
21340.711229,4737.318029,-7179.997637,3370.820191
21340.711562,0.000000,-7772.162391,-3677.258390
21340.711895,-3923.091493,-12583.501014,-8656.879127
21340.712228,-2368.659014,-11325.150913,-7048.078582
21340.712561,-1776.494261,-13915.871710,-2221.676944
21340.712894,-74.020594,-7994.224174,-2528.115143
21340.713227,1110.308913,-8586.388927,-76.609550
21340.713561,370.102971,-11325.150913,2681.334243
21340.713894,4367.215058,-6439.791695,6511.811733
21340.714227,4219.173869,-8956.491898,5975.544884
21340.714560,8290.306550,-3627.009116,6435.202183
21340.714893,3923.091493,-8882.471304,2911.162892
21340.715226,518.144159,-9548.656652,76.609550
21340.715559,-2738.761985,-10066.800811,-4673.182538
21340.715892,-4737.318029,-12509.480420,-7660.954980
21340.716225,-2516.700203,-9178.553681,-3753.867940
21340.716558,-4219.173869,-11843.295072,-5286.058936
21340.716891,-3404.947333,-7476.080014,-2145.067394
21340.717224,-3997.112087,-10066.800811,3064.381992
21340.717557,3552.988522,-8512.368333,4903.011187
21340.717890,2368.659014,-5995.668130,7354.516781
21340.718223,2812.782580,-6809.894666,3217.601092
21340.718556,-444.123565,-10658.965565,306.438199
21340.718890,-2590.720797,-10584.944971,-612.876398
21340.719223,-2072.576638,-8660.409521,-3064.381992
21340.719556,-1258.350101,-9918.759623,-3064.381992
21340.719889,-1998.556043,-9548.656652,0.000000
21340.720222,-4145.153275,-12731.542202,-1608.800546
21340.720555,-1258.350101,-8882.471304,-689.485948
21340.720888,-2368.659014,-9030.512492,2374.896044
21340.721221,3404.947333,-6957.935855,4596.572988
21340.721554,3997.112087,-5181.441594,6818.249932
21340.721887,1184.329507,-7994.224174,3140.991542
21340.722220,-1258.350101,-10658.965565,-76.609550
21340.722553,-1850.514855,-7772.162391,-3677.258390
21340.722886,-1776.494261,-13841.851115,-1838.629195
21340.723219,-74.020594,-10658.965565,-76.609550
21340.723552,-5551.544565,-7772.162391,-5975.544884
21340.723886,-3182.885551,-11251.130318,-1915.238745
21340.724219,-592.164754,-5551.544565,612.876398
21340.724552,2590.720797,-8364.327145,2604.724693
21340.724885,4663.297435,-6883.915261,4979.620737
21340.725218,2294.638420,-8290.306550,-76.609550
21340.725551,0.000000,-9548.656652,0.000000
21340.725884,1924.535449,-11547.212695,1455.581446
21340.726217,1332.370696,-11843.295072,-1302.362347
21340.726550,2368.659014,-7476.080014,1225.752797
21340.726883,3182.885551,-9474.636058,1149.143247
21340.727216,-888.247130,-9400.615463,-689.485948
21340.727549,-3552.988522,-11473.192101,-1378.971896
21340.727882,-1184.329507,-9252.574275,-1378.971896
21340.728215,-666.185348,-10658.965565,1149.143247
21340.728548,1924.535449,-5995.668130,2451.505594
21340.728881,-1036.288319,-6143.709319,-612.876398
21340.729215,-1480.411884,-8882.471304,-766.095498
21340.729548,2664.741391,-7179.997637,1838.629195
21340.729881,3849.070898,-10807.006753,3600.648841
21340.730214,5181.441594,-7179.997637,1225.752797
21340.730547,0.000000,-11917.315666,2681.334243
21340.730880,1702.473667,-12139.377449,-1302.362347
21340.731213,2368.659014,-8364.327145,306.438199
21340.731546,4885.359217,-11251.130318,1149.143247
21340.731879,5403.503377,-7994.224174,1225.752797
21340.732212,-2368.659014,-10066.800811,-2374.896044
21340.732545,-1258.350101,-11251.130318,-3140.991542
21340.732878,-2886.803174,-12731.542202,-76.609550
21340.733211,1258.350101,-8364.327145,0.000000
21340.733544,3849.070898,-7105.977043,4903.011187
21340.733877,3552.988522,-7105.977043,4826.401637
21340.734211,2516.700203,-8808.450710,0.000000
21340.734544,1110.308913,-9030.512492,2911.162892
21340.734877,2738.761985,-7994.224174,153.219100
21340.735210,1776.494261,-10881.027347,1608.800546
21340.735543,-370.102971,-9770.718434,-2681.334243
21340.735876,-3701.029710,-14656.077652,-2528.115143
21340.736209,-8882.471304,-9548.656652,0.000000
21340.736542,-1554.432478,-11251.130318,-2528.115143
21340.736875,-1850.514855,-9474.636058,-76.609550
21340.737208,-1850.514855,-5625.565159,1455.581446
21340.737541,-1776.494261,-7179.997637,2911.162892
21340.737874,-1850.514855,-6217.729913,3370.820191
21340.738207,1036.288319,-7105.977043,2068.457845
21340.738540,1480.411884,-7772.162391,4903.011187
21340.738873,3478.967927,-5921.647536,1762.019645
21340.739206,-2368.659014,-10881.027347,-3677.258390
21340.739540,-5995.668130,-15988.448347,-6205.373534
21340.739873,-5995.668130,-13693.809927,-6741.640382
21340.740206,-4737.318029,-10140.821405,-3370.820191
21340.740539,592.164754,-6661.853478,1455.581446
21340.740872,-1850.514855,-9474.636058,1378.971896
21340.741205,-666.185348,-8438.347739,2681.334243
21340.741538,3478.967927,-8290.306550,7277.907231
21340.741871,2738.761985,-6587.832884,4903.011187
21340.742204,8142.265362,-7105.977043,7890.783629
21340.742537,2294.638420,-8882.471304,1149.143247
21340.742870,-2368.659014,-7772.162391,-1225.752797
21340.743203,-3552.988522,-9548.656652,-3677.258390
21340.743536,-1184.329507,-13027.624579,-5132.839837
21340.743869,0.000000,-9770.718434,-2911.162892
21340.744202,-3034.844362,-12065.356855,-3753.867940
21340.744536,-1850.514855,-12435.459826,-689.485948
21340.744869,-4737.318029,-8364.327145,306.438199
21340.745202,2220.617826,-6883.915261,3447.429741
21340.745535,4737.318029,-5107.421000,7354.516781
21340.745868,6217.729913,-5921.647536,8044.002729
21340.746201,3997.112087,-8808.450710,3830.477490
21340.746534,740.205942,-8660.409521,0.000000
21340.746867,0.000000,-8364.327145,0.000000
21340.747200,4663.297435,-11843.295072,-689.485948
21340.747533,1628.453072,-10140.821405,-1762.019645
21340.747866,-1480.411884,-11325.150913,-4060.306139
21340.748199,-2516.700203,-12731.542202,-3524.039291
21340.748532,0.000000,-8956.491898,-1072.533697
21340.748865,-74.020594,-11547.212695,0.000000
21340.749198,2886.803174,-8290.306550,3600.648841
21340.749531,1998.556043,-7179.997637,612.876398
21340.749865,3182.885551,-9474.636058,4826.401637
21340.750198,4663.297435,-8882.471304,3294.210641
21340.750531,3849.070898,-7179.997637,3370.820191
21340.750864,8808.450710,-8290.306550,6052.154434
21340.751197,740.205942,-8438.347739,612.876398
21340.751530,-370.102971,-10066.800811,-3294.210641
21340.751863,-3997.112087,-10362.883188,-5898.935335
21340.752196,-518.144159,-8364.327145,-5286.058936
21340.752529,-3552.988522,-7772.162391,0.000000
21340.752862,222.061783,-8290.306550,-383.047749
21340.753195,-2738.761985,-9474.636058,-4366.744339
21340.753528,-4737.318029,-9844.739029,612.876398
21340.753861,3478.967927,-7254.018232,1225.752797
21340.754194,2960.823768,-10140.821405,6818.249932
21340.754527,5699.585753,-5699.585753,6281.983084
21340.754860,592.164754,-7772.162391,3064.381992
21340.755194,2368.659014,-7476.080014,2757.943793
21340.755527,1776.494261,-9474.636058,2374.896044
21340.755860,2886.803174,-9474.636058,-2834.553343
21340.756193,-1924.535449,-8660.409521,-1838.629195
21340.756526,-7105.977043,-13693.809927,-3140.991542
21340.756859,-5995.668130,-10955.047942,-6665.030833
21340.757192,-6661.853478,-10658.965565,-3140.991542
21340.757525,-814.226536,-9918.759623,536.266849
21340.757858,592.164754,-6291.750507,6818.249932
21340.758191,592.164754,-6587.832884,4903.011187
21340.758524,148.041188,-7550.100608,4749.792088
21340.758857,1036.288319,-7772.162391,3447.429741
21340.759190,3330.926739,-9178.553681,2145.067394
21340.759523,2960.823768,-7698.141797,1149.143247
21340.759856,-1924.535449,-9474.636058,-5286.058936
21340.760190,-6513.812290,-10732.986159,-8580.269578
21340.760523,-2442.679609,-14211.954086,-6205.373534
21340.760856,-1258.350101,-13027.624579,-2987.772442
21340.761189,1554.432478,-10362.883188,3600.648841
21340.761522,3182.885551,-8290.306550,4826.401637
21340.761855,1258.350101,-7328.038826,5056.230287
21340.762188,2368.659014,-4811.338623,6128.763984
21340.762521,3923.091493,-7105.977043,5898.935335
21340.762854,4663.297435,-7105.977043,6358.592633
21340.763187,0.000000,-5995.668130,4290.134789
21340.763520,-1850.514855,-11843.295072,-5592.497135
21340.763853,-7105.977043,-9548.656652,-9193.145976
21340.764186,-7105.977043,-10807.006753,-9729.412825
21340.764519,-1258.350101,-10881.027347,-5515.887586
21340.764852,1406.391290,-7994.224174,-229.828649
21340.765185,1184.329507,-10807.006753,2145.067394
21340.765519,1480.411884,-7328.038826,4749.792088
21340.765852,3775.050304,-9474.636058,4826.401637
21340.766185,6217.729913,-11103.089130,9116.536426
21340.766518,7031.956449,-5921.647536,4826.401637
21340.766851,2368.659014,-7920.203579,3370.820191
21340.767184,-444.123565,-13027.624579,459.657299
21340.767517,-2886.803174,-8364.327145,-4290.134789
21340.767850,-1258.350101,-10955.047942,-3907.087040
21340.768183,740.205942,-8290.306550,-1072.533697
21340.768516,-74.020594,-9178.553681,-1532.190996
21340.768849,-3997.112087,-8364.327145,-4903.011187
21340.769182,2294.638420,-9474.636058,-76.609550
21340.769515,2294.638420,-11843.295072,-76.609550
21340.769848,3552.988522,-4811.338623,5515.887586
21340.770181,5551.544565,-9474.636058,4213.525239
21340.770515,0.000000,-11843.295072,-1072.533697
21340.770848,-1406.391290,-11251.130318,459.657299
21340.771181,592.164754,-8956.491898,1608.800546
21340.771514,3552.988522,-7031.956449,3064.381992
21340.771847,2368.659014,-5403.503377,4596.572988
21340.772180,-74.020594,-9178.553681,-2221.676944
21340.772513,-4145.153275,-7476.080014,-612.876398
21340.772846,-1184.329507,-10140.821405,-689.485948
21340.773179,-74.020594,-11251.130318,-2221.676944
21340.773512,-592.164754,-9770.718434,2068.457845
21340.773845,-1184.329507,-7476.080014,-2451.505594
21340.774178,-4071.132681,-14063.912898,-1225.752797
21340.774511,666.185348,-8438.347739,1149.143247
21340.774844,1184.329507,-9548.656652,5286.058936
21340.775177,3478.967927,-6069.688724,6511.811733
21340.775510,1628.453072,-7550.100608,2374.896044
21340.775844,-2072.576638,-9548.656652,1225.752797
21340.776177,1554.432478,-5921.647536,536.266849
21340.776510,592.164754,-10140.821405,153.219100
21340.776843,3478.967927,-8882.471304,842.705048
21340.777176,-666.185348,-7772.162391,-6128.763984
21340.777509,-2072.576638,-12805.562797,-2451.505594
21340.777842,-1850.514855,-11843.295072,-2528.115143
21340.778175,1036.288319,-11103.089130,-689.485948
21340.778508,4959.379811,-7402.059420,3907.087040
21340.778841,3108.864956,-7698.141797,5132.839837
21340.779174,0.000000,-7179.997637,1225.752797
21340.779507,-2960.823768,-5995.668130,1532.190996
21340.779840,-74.020594,-8882.471304,-2451.505594
21340.780173,-1184.329507,-7179.997637,-2451.505594
21340.780506,0.000000,-7920.203579,-76.609550
21340.780839,-4737.318029,-9104.533087,-6665.030833
21340.781173,-3701.029710,-9474.636058,-4673.182538
21340.781506,-592.164754,-11917.315666,-1608.800546
21340.781839,2960.823768,-9992.780217,4290.134789
21340.782172,3478.967927,-8882.471304,5439.278036
21340.782505,1184.329507,-8068.244768,4826.401637
21340.782838,2886.803174,-10362.883188,2681.334243
21340.783171,2368.659014,-7179.997637,3677.258390
21340.783504,2368.659014,-11029.068536,5439.278036
21340.783837,-592.164754,-6291.750507,0.000000
21340.784170,-2442.679609,-11103.089130,-3140.991542
21340.784503,-6439.791695,-10214.842000,-4979.620737
21340.784836,-5847.626942,-10436.903782,-3830.477490
21340.785169,-2738.761985,-9474.636058,-3294.210641
21340.785502,3552.988522,-7698.141797,4826.401637
21340.785835,2368.659014,-4293.194464,2911.162892
21340.786169,2664.741391,-5995.668130,6281.983084
21340.786502,4071.132681,-8290.306550,3600.648841
21340.786835,4663.297435,-10658.965565,2374.896044
21340.787168,3404.947333,-9548.656652,2911.162892
21340.787501,2072.576638,-9104.533087,-1455.581446
21340.787834,-3923.091493,-12805.562797,-7124.688131
21340.788167,-7105.977043,-11917.315666,-6741.640382
21340.788500,-3034.844362,-11843.295072,-5286.058936
21340.788833,-2368.659014,-6291.750507,689.485948
21340.789166,-1184.329507,-7772.162391,4519.963438
21340.789499,-814.226536,-5847.626942,1838.629195
21340.789832,1702.473667,-5847.626942,4519.963438
21340.790165,5477.523971,-6143.709319,5056.230287
21340.790498,4737.318029,-10955.047942,5056.230287
21340.790831,5625.565159,-6365.771101,2528.115143
21340.791164,-3256.906145,-13101.645173,-4290.134789
21340.791498,-3034.844362,-12879.583391,-8044.002729
21340.791831,-4663.297435,-14508.036463,-6205.373534
21340.792164,-3775.050304,-13767.830521,-4060.306139
21340.792497,740.205942,-7476.080014,1455.581446
21340.792830,-2368.659014,-7476.080014,1532.190996
21340.793163,1998.556043,-8290.306550,6052.154434
21340.793496,1998.556043,-5625.565159,4673.182538
21340.793829,4737.318029,-5403.503377,8580.269578
21340.794162,7179.997637,-5921.647536,9729.412825
21340.794495,4071.132681,-6513.812290,1149.143247
21340.794828,-740.205942,-11251.130318,-2298.286494
21340.795161,-1850.514855,-10955.047942,-4979.620737
21340.795494,-2072.576638,-11917.315666,-6128.763984
21340.795827,-1776.494261,-11621.233289,-3064.381992
21340.796160,-74.020594,-10658.965565,-4366.744339
21340.796494,-4589.276840,-10658.965565,-1302.362347
21340.796827,-2368.659014,-6291.750507,1838.629195
21340.797160,1850.514855,-8882.471304,4213.525239
21340.797493,7105.977043,-4811.338623,6818.249932
21340.797826,5699.585753,-4367.215058,6588.421283
21340.798159,3034.844362,-8438.347739,1455.581446
21340.798492,1702.473667,-10140.821405,-1225.752797
21340.798825,2886.803174,-14211.954086,-383.047749
21340.799158,3478.967927,-11251.130318,-4060.306139
21340.799491,2368.659014,-9548.656652,2451.505594
21340.799824,-1776.494261,-11917.315666,-1302.362347
21340.800157,-74.020594,-10066.800811,-2221.676944
21340.800490,-222.061783,-11251.130318,1149.143247
21340.800823,0.000000,-10140.821405,1532.190996
21340.801156,1702.473667,-6587.832884,3600.648841
21340.801489,-1258.350101,-10214.842000,2374.896044
21340.801823,74.020594,-4441.235652,1302.362347
21340.802156,-1184.329507,-4811.338623,0.000000
21340.802489,1480.411884,-11029.068536,2068.457845
21340.802822,4663.297435,-8882.471304,2374.896044
21340.803155,-1258.350101,-11399.171507,0.000000
21340.803488,1628.453072,-10658.965565,-76.609550
21340.803821,-1258.350101,-10436.903782,-1302.362347
21340.804154,-888.247130,-10214.842000,-536.266849
21340.804487,-370.102971,-8882.471304,-76.609550
21340.804820,-2368.659014,-8068.244768,-1608.800546
21340.805153,-3997.112087,-10066.800811,-1149.143247
21340.805486,-3923.091493,-9178.553681,0.000000
21340.805819,-296.082377,-7031.956449,1838.629195
21340.806152,1776.494261,-8808.450710,6128.763984
21340.806485,3478.967927,-7105.977043,4213.525239
21340.806819,-1258.350101,-5403.503377,0.000000
21340.807152,296.082377,-8290.306550,4060.306139
21340.807485,3182.885551,-9474.636058,-76.609550
21340.807818,0.000000,-10140.821405,612.876398
21340.808151,-296.082377,-9326.594869,-1302.362347
21340.808484,-4145.153275,-11695.253884,-5745.716235
21340.808817,-3627.009116,-13471.748144,-3140.991542
21340.809150,-3182.885551,-11251.130318,-1915.238745
21340.809483,-2368.659014,-10732.986159,612.876398
21340.809816,2294.638420,-2738.761985,0.000000
21340.810149,0.000000,-8364.327145,4673.182538
21340.810482,4071.132681,-7105.977043,7277.907231
21340.810815,4663.297435,-6513.812290,3294.210641
21340.811148,5255.462188,-8290.306550,3140.991542
21340.811481,5107.421000,-7698.141797,2374.896044
21340.811814,-592.164754,-11325.150913,-2987.772442
21340.812148,-1036.288319,-12731.542202,-4366.744339
21340.812481,-4219.173869,-13027.624579,-6205.373534
21340.812814,-592.164754,-15396.283594,-1915.238745
21340.813147,1332.370696,-9474.636058,-76.609550
21340.813480,2442.679609,-7254.018232,0.000000
21340.813813,0.000000,-7772.162391,4903.011187
21340.814146,1480.411884,-6291.750507,4903.011187
21340.814479,3182.885551,-7772.162391,4290.134789
21340.814812,5773.606348,-8290.306550,6052.154434
21340.815145,5625.565159,-5847.626942,3140.991542
21340.815478,-888.247130,-8364.327145,-2834.553343
21340.815811,296.082377,-9474.636058,-3907.087040
21340.816144,-3627.009116,-11843.295072,-7431.126331
21340.816477,-1628.453072,-9548.656652,-4290.134789
21340.816810,3182.885551,-11843.295072,-383.047749
21340.817143,-4737.318029,-13693.809927,-2451.505594
21340.817477,-518.144159,-8512.368333,0.000000
21340.817810,1776.494261,-8142.265362,6128.763984
21340.818143,9696.697840,-3849.070898,9116.536426
21340.818477,7105.977043,-4811.338623,10572.117872
21340.818810,4663.297435,-8290.306550,2374.896044
21340.819143,-1776.494261,-7772.162391,-1532.190996
21340.819476,-3552.988522,-10732.986159,-1378.971896
21340.819810,2294.638420,-13619.789333,-3140.991542
21340.820143,-1776.494261,-8364.327145,-2145.067394
21340.820476,-1258.350101,-7994.224174,-7354.516781
21340.820810,-3182.885551,-13323.706956,-2681.334243
21340.821143,-2220.617826,-9770.718434,-1072.533697
21340.821476,1184.329507,-7772.162391,3677.258390
21340.821810,4737.318029,-7846.182985,7201.297681
21340.822143,3478.967927,-6661.853478,5745.716235
21340.822476,-888.247130,-11917.315666,3600.648841
21340.822810,2294.638420,-7698.141797,1762.019645
21340.823143,814.226536,-9696.697840,1225.752797
21340.823476,2960.823768,-10066.800811,3600.648841
21340.823810,-74.020594,-7994.224174,-3370.820191
21340.824143,-7550.100608,-10140.821405,-5975.544884
21340.824476,-2738.761985,-9474.636058,-2528.115143
21340.824810,-2960.823768,-9548.656652,-1378.971896
21340.825143,-592.164754,-8216.285956,919.314598
21340.825476,-740.205942,-7254.018232,2374.896044
21340.825810,-2368.659014,-5995.668130,-1532.190996
21340.826143,-4515.256246,-8364.327145,0.000000
21340.826476,3182.885551,-9474.636058,-76.609550
21340.826810,1554.432478,-13619.789333,2987.772442
21340.827143,592.164754,-6587.832884,4903.011187
21340.827476,-666.185348,-8882.471304,-76.609550
21340.827810,-3552.988522,-9548.656652,0.000000
21340.828143,-222.061783,-6513.812290,-2374.896044
21340.828476,-74.020594,-10436.903782,-306.438199
21340.828810,592.164754,-9326.594869,766.095498
21340.829143,-3552.988522,-7476.080014,0.000000
21340.829476,-666.185348,-11843.295072,-2221.676944
21340.829809,592.164754,-6291.750507,2451.505594
21340.830143,592.164754,-12805.562797,4749.792088
21340.830476,3923.091493,-7772.162391,3064.381992
21340.830809,518.144159,-7550.100608,1302.362347
21340.831143,740.205942,-8364.327145,-995.924147
21340.831476,-1036.288319,-10807.006753,2451.505594
21340.831809,1998.556043,-9474.636058,-1915.238745
21340.832143,2368.659014,-11325.150913,2987.772442
21340.832476,-2368.659014,-7476.080014,-2987.772442
21340.832809,0.000000,-8660.409521,-1991.848295
21340.833143,-3627.009116,-8586.388927,-3753.867940
21340.833476,2294.638420,-9474.636058,-2528.115143
21340.833809,2960.823768,-8660.409521,3677.258390
21340.834143,3108.864956,-6883.915261,4060.306139
21340.834476,3478.967927,-7402.059420,-76.609550
21340.834809,-2368.659014,-9548.656652,1225.752797
21340.835143,2294.638420,-9474.636058,-76.609550
21340.835476,592.164754,-5995.668130,2451.505594
21340.835809,0.000000,-8660.409521,1302.362347
21340.836143,-666.185348,-10658.965565,-3907.087040
21340.836476,-5699.585753,-9474.636058,-4366.744339
21340.836809,-1702.473667,-9474.636058,-1915.238745
21340.837143,1332.370696,-8808.450710,536.266849
21340.837476,3478.967927,-8586.388927,3294.210641
21340.837809,2368.659014,-7772.162391,3677.258390
21340.838143,1998.556043,-10362.883188,1762.019645
21340.838476,3108.864956,-6513.812290,766.095498
21340.838809,4959.379811,-8882.471304,2911.162892
21340.839143,5995.668130,-6661.853478,2221.676944
21340.839476,296.082377,-11917.315666,-2451.505594
21340.839809,-1258.350101,-14804.118840,-4979.620737
21340.840142,-3849.070898,-7179.997637,-3677.258390
21340.840476,3478.967927,-13619.789333,2374.896044
21340.840809,6439.791695,-5921.647536,3600.648841
21340.841142,296.082377,-8290.306550,3600.648841
21340.841476,-888.247130,-6587.832884,-766.095498
21340.841809,-666.185348,-7994.224174,-383.047749
21340.842142,-740.205942,-10140.821405,1225.752797
21340.842476,4663.297435,-7994.224174,2987.772442
21340.842809,-370.102971,-7772.162391,0.000000
21340.843142,2294.638420,-9474.636058,-1302.362347
21340.843476,-1850.514855,-12435.459826,-1302.362347
21340.843809,-2368.659014,-8364.327145,-2451.505594
21340.844142,3182.885551,-11843.295072,-76.609550
21340.844476,-2368.659014,-10732.986159,1225.752797
21340.844809,0.000000,-8438.347739,-459.657299
21340.845142,-4811.338623,-8734.430116,-306.438199
21340.845476,1184.329507,-4811.338623,0.000000
21340.845809,0.000000,-5403.503377,4903.011187
21340.846142,6735.874072,-7105.977043,4826.401637
21340.846476,74.020594,-8290.306550,-1608.800546
21340.846809,-5625.565159,-11917.315666,-1838.629195
21340.847142,-666.185348,-7846.182985,-3140.991542
21340.847476,-1110.308913,-11991.336260,536.266849
21340.847809,1110.308913,-8586.388927,612.876398
21340.848142,-3108.864956,-8882.471304,-2298.286494
21340.848476,-4441.235652,-10584.944971,-3983.696590
21340.848809,-1554.432478,-10881.027347,-76.609550
21340.849142,3478.967927,-9474.636058,-383.047749
21340.849475,2516.700203,-9844.739029,5515.887586
21340.849809,2294.638420,-9474.636058,7277.907231
21340.850142,814.226536,-6291.750507,0.000000
21340.850475,-814.226536,-8142.265362,1455.581446
21340.850809,1924.535449,-7920.203579,306.438199
21340.851142,1702.473667,-8808.450710,2451.505594
21340.851475,0.000000,-8216.285956,919.314598
21340.851809,-3108.864956,-12435.459826,-3140.991542
21340.852142,-4737.318029,-9770.718434,-3294.210641
21340.852475,-1554.432478,-10658.965565,-995.924147
21340.852809,962.267725,-9474.636058,-689.485948
21340.853142,-1110.308913,-9474.636058,-689.485948
21340.853475,-4737.318029,-10140.821405,306.438199
21340.853809,-1554.432478,-9474.636058,-76.609550
21340.854142,2294.638420,-6513.812290,919.314598
21340.854475,5847.626942,-10066.800811,6665.030833
21340.854809,7328.038826,-5921.647536,5745.716235
21340.855142,2590.720797,-7846.182985,2374.896044
21340.855475,1776.494261,-8216.285956,-383.047749
21340.855809,888.247130,-10881.027347,-1455.581446
21340.856142,1628.453072,-13027.624579,-1302.362347
21340.856475,-2368.659014,-12213.398043,-76.609550
21340.856809,-666.185348,-9474.636058,-4979.620737
