#time,accel_x,accel_y,accel_z
20554.859470,4663.297435,-7624.121203,-4903.011187
20554.859803,2368.659014,-9844.739029,-4060.306139
20554.860137,4663.297435,-9474.636058,-5975.544884
20554.860471,3997.112087,-10732.986159,-3753.867940
20554.860805,5477.523971,-10807.006753,-1915.238745
20554.861138,8734.430116,-10658.965565,1915.238745
20554.861472,10658.965565,-8364.327145,4903.011187
20554.861806,9474.636058,-6587.832884,7660.954980
20554.862140,14137.933492,-9326.594869,4826.401637
20554.862473,11843.295072,-5995.668130,1532.190996
20554.862807,11843.295072,-8808.450710,3907.087040
20554.863141,8882.471304,-8364.327145,0.000000
20554.863475,6365.771101,-9992.780217,-3830.477490
20554.863808,3552.988522,-12731.542202,-4979.620737
20554.864142,740.205942,-11917.315666,-5822.325785
20554.864476,1702.473667,-12879.583391,-4060.306139
20554.864810,1184.329507,-11843.295072,-76.609550
20554.865144,6735.874072,-9474.636058,3600.648841
20554.865477,7402.059420,-4811.338623,8580.269578
20554.865811,12435.459826,-5181.441594,11874.480219
20554.866145,13841.851115,-5699.585753,9729.412825
20554.866479,11917.315666,-5773.606348,5898.935335
20554.866812,11103.089130,-6365.771101,1225.752797
20554.867146,9622.677246,-8364.327145,-2987.772442
20554.867480,4737.318029,-8364.327145,-8886.707777
20554.867814,4663.297435,-12435.459826,-10648.727422
20554.868147,2960.823768,-11029.068536,-9806.022374
20554.868481,4737.318029,-14137.933492,-3753.867940
20554.868815,5699.585753,-11991.336260,-4136.915689
20554.869149,7624.121203,-11621.233289,2987.772442
20554.869482,9400.615463,-9178.553681,6435.202183
20554.869816,12509.480420,-5995.668130,9806.022374
20554.870150,13471.748144,-5921.647536,10801.946522
20554.870484,9474.636058,-4219.173869,7507.735880
20554.870817,8438.347739,-6957.935855,4596.572988
20554.871151,4663.297435,-7698.141797,0.000000
20554.871485,-74.020594,-11103.089130,-4979.620737
20554.871819,-4737.318029,-11029.068536,-8427.050478
20554.872152,-7254.018232,-11843.295072,-8044.002729
20554.872486,-3034.844362,-14211.954086,-4979.620737
20554.872820,-3627.009116,-9548.656652,-3983.696590
20554.873154,888.247130,-9252.574275,1225.752797
20554.873487,5921.647536,-7179.997637,7660.954980
20554.873821,7105.977043,-4959.379811,7967.393179
20554.874155,9326.594869,-5255.462188,5745.716235
20554.874489,8512.368333,-6809.894666,4673.182538
20554.874822,6735.874072,-7254.018232,459.657299
20554.875156,2368.659014,-7772.162391,-4903.011187
20554.875490,1110.308913,-12435.459826,-6818.249932
20554.875824,-666.185348,-12435.459826,-8580.269578
20554.876157,-1184.329507,-12805.562797,-2221.676944
20554.876491,2886.803174,-11843.295072,-76.609550
20554.876825,3552.988522,-9252.574275,4136.915689
20554.877159,8364.327145,-5847.626942,7124.688131
20554.877492,11917.315666,-3849.070898,8350.440928
20554.877826,12213.398043,-4811.338623,7048.078582
20554.878160,11251.130318,-7105.977043,5209.449386
20554.878494,10584.944971,-7994.224174,-2068.457845
20554.878827,5329.482782,-9548.656652,-6128.763984
20554.879161,2368.659014,-12213.398043,-6205.373534
20554.879495,-4219.173869,-12805.562797,-11797.870669
20554.879829,-3627.009116,-15692.365970,-7431.126331
20554.880162,-2812.782580,-12435.459826,-1915.238745
20554.880496,1628.453072,-10362.883188,4519.963438
20554.880830,6291.750507,-6735.874072,9882.631924
20554.881164,11177.109724,-5921.647536,12180.918418
20554.881497,11769.274478,-2738.761985,9806.022374
20554.881831,7105.977043,-4959.379811,6052.154434
20554.882165,7624.121203,-9474.636058,-76.609550
20554.882499,2146.597232,-7476.080014,-7048.078582
20554.882833,-370.102971,-11843.295072,-8044.002729
20554.883166,-4737.318029,-12805.562797,-9729.412825
20554.883500,-6883.915261,-14137.933492,-8273.831378
20554.883834,-5255.462188,-14434.015869,-3140.991542
20554.884168,2294.638420,-8290.306550,4213.525239
20554.884501,3256.906145,-8290.306550,7201.297681
20554.884835,4885.359217,-4959.379811,7967.393179
20554.885169,7031.956449,-6735.874072,9422.974625
20554.885503,5329.482782,-5995.668130,7354.516781
20554.885836,4737.318029,-5995.668130,3753.867940
20554.886170,-74.020594,-10362.883188,-2834.553343
20554.886504,-1850.514855,-10807.006753,-7354.516781
20554.886838,-6809.894666,-11029.068536,-7124.688131
20554.887171,-2368.659014,-8142.265362,-6818.249932
20554.887505,-888.247130,-8216.285956,-1915.238745
20554.887839,-592.164754,-9178.553681,229.828649
20554.888173,-592.164754,-9770.718434,1762.019645
20554.888506,-296.082377,-12879.583391,3294.210641
20554.888840,-2368.659014,-10732.986159,5822.325785
20554.889174,-74.020594,-8882.471304,1532.190996
20554.889508,0.000000,-8956.491898,2451.505594
20554.889841,-296.082377,-9326.594869,4060.306139
20554.890175,0.000000,-8364.327145,2451.505594
20554.890509,3775.050304,-5033.400406,3447.429741
20554.890843,2220.617826,-5551.544565,2451.505594
20554.891176,1258.350101,-6513.812290,-766.095498
20554.891510,-3182.885551,-9030.512492,-4366.744339
20554.891844,-4145.153275,-11843.295072,-4979.620737
20554.892178,-5403.503377,-9844.739029,-8886.707777
20554.892511,-6513.812290,-14434.015869,-3370.820191
20554.892845,-4441.235652,-14211.954086,-76.609550
20554.893179,-74.020594,-10658.965565,2374.896044
20554.893513,2886.803174,-7476.080014,6205.373534
20554.893846,5181.441594,-4737.318029,7660.954980
20554.894180,5181.441594,-5847.626942,6894.859482
20554.894514,4737.318029,-3034.844362,4903.011187
20554.894848,6439.791695,-7105.977043,2221.676944
20554.895181,2368.659014,-7179.997637,-3677.258390
20554.895515,-1776.494261,-12213.398043,-3753.867940
20554.895849,-2442.679609,-14211.954086,-7737.564530
20554.896183,-3997.112087,-12213.398043,-6128.763984
20554.896516,-1776.494261,-11991.336260,-3217.601092
20554.896850,-888.247130,-11177.109724,0.000000
20554.897184,1110.308913,-8882.471304,1762.019645
20554.897518,4293.194464,-9104.533087,7277.907231
20554.897851,4367.215058,-5995.668130,4903.011187
20554.898185,4145.153275,-7402.059420,7277.907231
20554.898519,1702.473667,-9474.636058,3600.648841
20554.898853,-2368.659014,-6587.832884,2451.505594
20554.899186,296.082377,-5403.503377,0.000000
20554.899520,888.247130,-6587.832884,-842.705048
20554.899854,1776.494261,-7772.162391,-2298.286494
20554.900188,-1110.308913,-9622.677246,-3600.648841
20554.900522,-74.020594,-12435.459826,-3370.820191
20554.900855,-2664.741391,-12583.501014,-4290.134789
20554.901189,-1554.432478,-13915.871710,-2374.896044
20554.901523,-666.185348,-11843.295072,536.266849
20554.901857,0.000000,-10214.842000,2911.162892
20554.902190,2960.823768,-8956.491898,6741.640382
20554.902524,5255.462188,-7105.977043,7584.345430
20554.902858,3849.070898,-2442.679609,7967.393179
20554.903192,5847.626942,-6513.812290,4826.401637
20554.903525,1406.391290,-4145.153275,-1302.362347
20554.903859,-2072.576638,-8660.409521,-2451.505594
20554.904193,-3330.926739,-8586.388927,-6435.202183
20554.904527,-6069.688724,-12879.583391,-8350.440928
20554.904860,-7698.141797,-13841.851115,-7660.954980
20554.905194,-2442.679609,-15692.365970,-2528.115143
20554.905528,-74.020594,-10066.800811,0.000000
20554.905862,4145.153275,-8068.244768,4903.011187
20554.906195,4737.318029,-9474.636058,8503.660028
20554.906529,5551.544565,-5403.503377,6281.983084
20554.906863,5329.482782,-8290.306550,7124.688131
20554.907197,2516.700203,-6069.688724,3064.381992
20554.907530,-2812.782580,-8438.347739,-2451.505594
20554.907864,-4885.359217,-9770.718434,-5132.839837
20554.908198,-3923.091493,-9474.636058,-5592.497135
20554.908532,-1850.514855,-7772.162391,-6128.763984
20554.908865,-1184.329507,-9474.636058,-383.047749
20554.909199,2294.638420,-13323.706956,2374.896044
20554.909533,2590.720797,-8068.244768,1838.629195
20554.909867,3478.967927,-10510.924376,3524.039291
20554.910200,1258.350101,-9918.759623,3217.601092
20554.910534,-2220.617826,-11029.068536,1685.410096
20554.910867,-3997.112087,-9474.636058,229.828649
20554.911200,-3256.906145,-8364.327145,306.438199
20554.911534,-1776.494261,-6143.709319,0.000000
20554.911867,3478.967927,-5921.647536,-76.609550
20554.912201,0.000000,-5403.503377,1225.752797
20554.912534,962.267725,-6883.915261,-689.485948
20554.912867,-74.020594,-7476.080014,-3370.820191
20554.913201,814.226536,-11251.130318,-2528.115143
20554.913534,0.000000,-10732.986159,-1838.629195
20554.913867,0.000000,-12953.603985,-153.219100
20554.914201,592.164754,-12731.542202,1225.752797
20554.914534,4589.276840,-10732.986159,4290.134789
20554.914867,4293.194464,-7328.038826,5822.325785
20554.915201,4515.256246,-7105.977043,4519.963438
20554.915534,2294.638420,-7105.977043,1762.019645
20554.915867,0.000000,-8882.471304,-1302.362347
20554.916201,-2960.823768,-7179.997637,-2145.067394
20554.916534,-1850.514855,-10362.883188,-4979.620737
20554.916867,-3627.009116,-10658.965565,-4979.620737
20554.917201,-666.185348,-10362.883188,-1302.362347
20554.917534,3775.050304,-10510.924376,2374.896044
20554.917868,4145.153275,-7994.224174,4826.401637
20554.918201,4293.194464,-8660.409521,3524.039291
20554.918534,3627.009116,-9104.533087,2528.115143
20554.918868,4071.132681,-11103.089130,3294.210641
20554.919201,0.000000,-8364.327145,3217.601092
20554.919534,-74.020594,-10658.965565,-1915.238745
20554.919868,-4293.194464,-7772.162391,-4903.011187
20554.920201,-4737.318029,-8364.327145,-3524.039291
20554.920534,-74.020594,-7994.224174,-766.095498
20554.920868,888.247130,-7402.059420,2298.286494
20554.921201,2072.576638,-6587.832884,2145.067394
20554.921534,2220.617826,-8290.306550,2911.162892
20554.921868,3478.967927,-7105.977043,1455.581446
20554.922201,4663.297435,-11103.089130,3677.258390
20554.922534,3478.967927,-11843.295072,1149.143247
20554.922868,-4441.235652,-11917.315666,-2145.067394
20554.923201,-4145.153275,-12287.418637,-3370.820191
20554.923535,-4737.318029,-10140.821405,-2451.505594
20554.923868,-962.267725,-8586.388927,0.000000
20554.924201,-1036.288319,-7772.162391,1225.752797
20554.924535,-1406.391290,-7402.059420,-76.609550
20554.924868,-2368.659014,-7179.997637,0.000000
20554.925201,2294.638420,-9474.636058,1149.143247
20554.925535,1406.391290,-7105.977043,2374.896044
20554.925868,0.000000,-8660.409521,3830.477490
20554.926201,-74.020594,-11843.295072,-76.609550
20554.926535,740.205942,-9844.739029,2221.676944
20554.926868,1628.453072,-9178.553681,2221.676944
20554.927201,2738.761985,-9030.512492,1762.019645
20554.927535,-740.205942,-10066.800811,-383.047749
20554.927868,-592.164754,-10732.986159,-842.705048
20554.928202,-1258.350101,-9474.636058,-3753.867940
20554.928535,-4737.318029,-9548.656652,-2451.505594
20554.928868,-2442.679609,-13619.789333,-2528.115143
20554.929202,-3330.926739,-8068.244768,-1149.143247
20554.929535,1184.329507,-10066.800811,4519.963438
20554.929868,4737.318029,-6291.750507,6894.859482
20554.930202,5699.585753,-6217.729913,6128.763984
20554.930535,4293.194464,-7402.059420,4749.792088
20554.930868,3552.988522,-8364.327145,3294.210641
20554.931202,2368.659014,-9474.636058,-919.314598
20554.931535,-666.185348,-11917.315666,-3753.867940
20554.931868,-3108.864956,-12583.501014,-6205.373534
20554.932202,-5255.462188,-13101.645173,-6588.421283
20554.932535,-1776.494261,-11325.150913,-1149.143247
20554.932868,1110.308913,-10066.800811,2374.896044
20554.933202,4071.132681,-5181.441594,2451.505594
20554.933535,2960.823768,-5995.668130,6205.373534
20554.933869,5847.626942,-6513.812290,5439.278036
20554.934202,5477.523971,-6883.915261,5132.839837
20554.934535,3182.885551,-8290.306550,2145.067394
20554.934869,-592.164754,-10066.800811,-689.485948
20554.935202,-4441.235652,-9844.739029,-4596.572988
20554.935535,-4737.318029,-10732.986159,-3217.601092
20554.935869,-74.020594,-9178.553681,-4749.792088
20554.936202,0.000000,-10140.821405,-2451.505594
20554.936535,0.000000,-8808.450710,0.000000
20554.936869,0.000000,-8364.327145,-766.095498
20554.937202,2072.576638,-10066.800811,1149.143247
20554.937535,1776.494261,-9474.636058,2911.162892
20554.937869,592.164754,-9178.553681,2068.457845
20554.938202,1110.308913,-10362.883188,2374.896044
20554.938535,592.164754,-8956.491898,4826.401637
20554.938869,4071.132681,-6513.812290,2374.896044
20554.939202,2368.659014,-5995.668130,4443.353888
20554.939536,0.000000,-9548.656652,1072.533697
20554.939869,-1258.350101,-9178.553681,-3677.258390
20554.940202,-5181.441594,-11547.212695,-4673.182538
20554.940536,-4441.235652,-9696.697840,-5362.668486
20554.940869,-6069.688724,-11769.274478,-4213.525239
20554.941202,-5403.503377,-10066.800811,-4290.134789
20554.941536,-74.020594,-12435.459826,2987.772442
20554.941869,148.041188,-5403.503377,3064.381992
20554.942202,4737.318029,-5699.585753,9269.755526
20554.942536,4367.215058,-6069.688724,4903.011187
20554.942869,3108.864956,-5625.565159,3447.429741
20554.943202,888.247130,-7328.038826,919.314598
20554.943536,-962.267725,-8290.306550,-3370.820191
20554.943869,-3849.070898,-11843.295072,-5286.058936
20554.944202,-6217.729913,-13101.645173,-4903.011187
20554.944536,-2442.679609,-12731.542202,-6128.763984
20554.944869,-4737.318029,-11029.068536,-76.609550
20554.945203,1480.411884,-9696.697840,4213.525239
20554.945536,3330.926739,-6291.750507,3677.258390
20554.945869,5255.462188,-5329.482782,5669.106685
20554.946203,5773.606348,-6957.935855,5286.058936
20554.946536,3552.988522,-8734.430116,3830.477490
20554.946869,148.041188,-8438.347739,0.000000
20554.947203,-2960.823768,-10732.986159,-2451.505594
20554.947536,-1850.514855,-10066.800811,-4826.401637
20554.947869,-962.267725,-9992.780217,-2374.896044
20554.948203,0.000000,-7624.121203,-1225.752797
20554.948536,1702.473667,-9252.574275,0.000000
20554.948869,0.000000,-8364.327145,-1685.410096
20554.949203,3775.050304,-10362.883188,1149.143247
20554.949536,2294.638420,-9252.574275,0.000000
20554.949870,2368.659014,-8660.409521,3140.991542
20554.950203,2294.638420,-10658.965565,-76.609550
20554.950536,0.000000,-8956.491898,1225.752797
20554.950870,2886.803174,-8734.430116,3370.820191
20554.951203,3256.906145,-7328.038826,3830.477490
20554.951536,2812.782580,-7624.121203,1225.752797
20554.951870,444.123565,-10288.862594,-459.657299
20554.952203,-370.102971,-9770.718434,-4826.401637
20554.952536,-1184.329507,-9548.656652,-4290.134789
20554.952870,-1258.350101,-13027.624579,-2834.553343
20554.953203,-2812.782580,-10214.842000,-3064.381992
20554.953536,-1776.494261,-12805.562797,2374.896044
20554.953870,814.226536,-9252.574275,3907.087040
20554.954203,3627.009116,-7105.977043,4903.011187
20554.954536,3923.091493,-7698.141797,5592.497135
20554.954870,4071.132681,-7105.977043,3600.648841
20554.955203,1110.308913,-4811.338623,-2451.505594
20554.955537,-148.041188,-9474.636058,-689.485948
20554.955870,-4515.256246,-7698.141797,-6205.373534
20554.956203,-7698.141797,-11029.068536,-4903.011187
20554.956537,-3627.009116,-11843.295072,-4979.620737
20554.956870,-2516.700203,-11325.150913,-766.095498
20554.957203,814.226536,-8512.368333,2374.896044
20554.957537,2590.720797,-8068.244768,4596.572988
20554.957870,3256.906145,-5403.503377,4443.353888
20554.958203,1776.494261,-7772.162391,3064.381992
20554.958537,4071.132681,-11547.212695,3600.648841
20554.958870,-962.267725,-7179.997637,0.000000
20554.959203,-4589.276840,-8364.327145,0.000000
20554.959537,-2442.679609,-11251.130318,-2834.553343
20554.959870,-2960.823768,-9474.636058,-2068.457845
20554.960203,-1258.350101,-7846.182985,-1225.752797
20554.960537,962.267725,-7846.182985,383.047749
20554.960870,-1184.329507,-7476.080014,-919.314598
20554.961204,0.000000,-9104.533087,-612.876398
20554.961537,1480.411884,-10214.842000,1762.019645
20554.961870,2294.638420,-9474.636058,2068.457845
20554.962204,3478.967927,-10658.965565,4826.401637
20554.962537,2590.720797,-12139.377449,3907.087040
20554.962870,2294.638420,-8068.244768,1225.752797
20554.963204,3552.988522,-7476.080014,2451.505594
20554.963537,5847.626942,-9474.636058,2068.457845
20554.963870,1776.494261,-8068.244768,306.438199
20554.964204,518.144159,-9178.553681,-1302.362347
20554.964537,74.020594,-9104.533087,-2987.772442
20554.964870,-1998.556043,-9548.656652,-4903.011187
20554.965204,-2146.597232,-11843.295072,-4979.620737
20554.965537,-2368.659014,-11917.315666,-306.438199
20554.965870,666.185348,-7772.162391,2451.505594
20554.966204,6513.812290,-8882.471304,6665.030833
20554.966537,6291.750507,-7994.224174,6052.154434
20554.966871,6143.709319,-6217.729913,5439.278036
20554.967204,4663.297435,-7994.224174,2374.896044
20554.967537,1776.494261,-9992.780217,-919.314598
20554.967871,-2146.597232,-10955.047942,-4596.572988
20554.968204,-5625.565159,-12361.439231,-6128.763984
20554.968537,-2442.679609,-13027.624579,-4979.620737
20554.968871,-4737.318029,-13101.645173,-1225.752797
20554.969204,-962.267725,-11547.212695,1149.143247
20554.969537,0.000000,-6291.750507,3983.696590
20554.969871,2368.659014,-5107.421000,6894.859482
20554.970204,4071.132681,-3775.050304,4903.011187
20554.970537,2812.782580,-7624.121203,5439.278036
20554.970871,1406.391290,-7254.018232,995.924147
20554.971204,-3627.009116,-9474.636058,-3294.210641
20554.971537,-5995.668130,-10732.986159,-7507.735880
20554.971871,-4071.132681,-14211.954086,-4366.744339
20554.972204,-3034.844362,-11843.295072,-2528.115143
20554.972538,-3552.988522,-7179.997637,0.000000
20554.972871,814.226536,-10955.047942,2374.896044
20554.973204,0.000000,-7476.080014,1072.533697
20554.973538,1776.494261,-9622.677246,3447.429741
20554.973871,1924.535449,-7476.080014,4443.353888
20554.974204,0.000000,-8660.409521,2911.162892
20554.974538,-1776.494261,-9548.656652,2451.505594
20554.974871,2294.638420,-9474.636058,1149.143247
20554.975204,0.000000,-6291.750507,2757.943793
20554.975538,2368.659014,-7772.162391,4826.401637
20554.975871,1998.556043,-9474.636058,-76.609550
20554.976204,-3552.988522,-9548.656652,-2757.943793
20554.976538,-1850.514855,-8956.491898,-4596.572988
20554.976871,-2220.617826,-10807.006753,-3677.258390
20554.977205,-2146.597232,-10658.965565,-2834.553343
20554.977538,-2368.659014,-11325.150913,0.000000
20554.977871,2738.761985,-9030.512492,3294.210641
20554.978205,5477.523971,-7105.977043,5822.325785
20554.978538,7994.224174,-7550.100608,7584.345430
20554.978871,8216.285956,-6809.894666,6358.592633
20554.979205,2886.803174,-5995.668130,919.314598
20554.979538,4367.215058,-9474.636058,-689.485948
20554.979871,-666.185348,-8512.368333,-6435.202183
20554.980205,-2368.659014,-12213.398043,-4519.963438
20554.980538,-1554.432478,-12731.542202,-3140.991542
20554.980871,-2812.782580,-11917.315666,-3370.820191
20554.981205,962.267725,-10140.821405,0.000000
20554.981538,3034.844362,-9178.553681,4826.401637
20554.981871,4737.318029,-4219.173869,4903.011187
20554.982205,3182.885551,-3627.009116,3677.258390
20554.982538,7031.956449,-9474.636058,4213.525239
20554.982872,3182.885551,-8290.306550,1149.143247
20554.983205,-1998.556043,-8660.409521,-1225.752797
20554.983538,-3478.967927,-11251.130318,-4979.620737
20554.983872,-5477.523971,-11695.253884,-4443.353888
20554.984205,-3478.967927,-9696.697840,-3677.258390
20554.984538,518.144159,-6809.894666,-995.924147
20554.984872,592.164754,-9696.697840,1225.752797
20554.985205,-1184.329507,-7772.162391,1532.190996
20554.985538,3478.967927,-11843.295072,2068.457845
20554.985872,148.041188,-7476.080014,3370.820191
20554.986205,1184.329507,-10214.842000,3600.648841
20554.986538,-2368.659014,-8364.327145,0.000000
20554.986872,-370.102971,-9474.636058,689.485948
20554.987205,-74.020594,-8290.306550,1991.848295
20554.987538,592.164754,-8364.327145,2451.505594
20554.987872,-1258.350101,-8882.471304,-76.609550
20554.988205,-3256.906145,-8438.347739,-383.047749
20554.988539,-2146.597232,-9474.636058,-3140.991542
20554.988872,-3552.988522,-8364.327145,-2451.505594
20554.989205,-2738.761985,-11251.130318,-2451.505594
20554.989539,-3034.844362,-13915.871710,-76.609550
20554.989872,-1110.308913,-9326.594869,459.657299
20554.990205,2368.659014,-8216.285956,5286.058936
20554.990539,3997.112087,-7254.018232,6665.030833
20554.990872,2368.659014,-4959.379811,4903.011187
20554.991205,4071.132681,-7994.224174,2374.896044
20554.991539,296.082377,-7772.162391,1225.752797
20554.991872,2294.638420,-10658.965565,-76.609550
20554.992205,-1258.350101,-9474.636058,-5056.230287
20554.992539,-3627.009116,-11695.253884,-4366.744339
20554.992872,-4737.318029,-10214.842000,-5286.058936
20554.993205,-2072.576638,-11547.212695,-1838.629195
20554.993539,2886.803174,-8586.388927,3524.039291
20554.993872,4737.318029,-5995.668130,5209.449386
20554.994206,6143.709319,-6513.812290,4826.401637
20554.994539,4737.318029,-8364.327145,4290.134789
20554.994872,4441.235652,-9030.512492,2528.115143
20554.995206,1406.391290,-8586.388927,383.047749
20554.995539,-1998.556043,-8660.409521,-4136.915689
20554.995872,-3034.844362,-12435.459826,-4979.620737
20554.996206,-2590.720797,-9548.656652,-4903.011187
20554.996539,1628.453072,-9474.636058,-76.609550
20554.996872,2960.823768,-8512.368333,2451.505594
20554.997206,1554.432478,-7328.038826,306.438199
20554.997539,2886.803174,-8956.491898,1991.848295
20554.997872,5255.462188,-8882.471304,4443.353888
20554.998206,2590.720797,-7476.080014,1378.971896
20554.998539,0.000000,-11029.068536,1838.629195
20554.998873,3182.885551,-10658.965565,-76.609550
20554.999206,888.247130,-9548.656652,1225.752797
20554.999539,4515.256246,-9474.636058,4213.525239
20554.999873,1110.308913,-7105.977043,-76.609550
20555.000206,-2960.823768,-7179.997637,-612.876398
20555.000539,-1554.432478,-7402.059420,-3140.991542
20555.000873,-2294.638420,-9400.615463,-2374.896044
20555.001206,-3256.906145,-8586.388927,-3983.696590
20555.001539,-3627.009116,-13027.624579,-2528.115143
20555.001873,-74.020594,-9474.636058,-2221.676944
20555.002206,0.000000,-11325.150913,4519.963438
20555.002539,7031.956449,-8290.306550,4826.401637
20555.002873,5625.565159,-5995.668130,5669.106685
20555.003206,6957.935855,-8290.306550,6052.154434
20555.003539,4885.359217,-7920.203579,2298.286494
20555.003873,-74.020594,-11695.253884,-1915.238745
20555.004206,-2072.576638,-10732.986159,-4213.525239
20555.004540,-4515.256246,-12731.542202,-5286.058936
20555.004873,-6809.894666,-10140.821405,-7354.516781
20555.005206,-5329.482782,-11325.150913,-76.609550
20555.005540,-74.020594,-9178.553681,2068.457845
20555.005873,2590.720797,-4811.338623,3064.381992
20555.006206,4145.153275,-7698.141797,7890.783629
20555.006540,2072.576638,-5773.606348,4443.353888
20555.006873,2812.782580,-6957.935855,3753.867940
20555.007206,370.102971,-7105.977043,306.438199
20555.007540,-2738.761985,-9474.636058,-3907.087040
20555.007873,-6513.812290,-11399.171507,-5975.544884
20555.008206,-6587.832884,-12361.439231,-6052.154434
20555.008540,-2146.597232,-10066.800811,-2145.067394
20555.008873,0.000000,-8364.327145,0.000000
20555.009206,1184.329507,-9474.636058,2834.553343
20555.009540,2294.638420,-8882.471304,1149.143247
20555.009873,3627.009116,-6809.894666,3600.648841
20555.010207,3256.906145,-7772.162391,6128.763984
20555.010540,3108.864956,-8512.368333,2834.553343
20555.010873,1184.329507,-9770.718434,1762.019645
20555.011206,-1480.411884,-10288.862594,153.219100
20555.011539,1850.514855,-8882.471304,-383.047749
20555.011872,518.144159,-10066.800811,-76.609550
20555.012206,0.000000,-8364.327145,-1225.752797
20555.012539,-1258.350101,-7179.997637,-4903.011187
20555.012872,-1776.494261,-11177.109724,-1608.800546
20555.013205,2294.638420,-10658.965565,-76.609550
20555.013538,-1776.494261,-11325.150913,1225.752797
20555.013872,0.000000,-9548.656652,0.000000
20555.014205,0.000000,-9548.656652,3140.991542
20555.014538,3034.844362,-8734.430116,4366.744339
20555.014871,5773.606348,-5921.647536,5975.544884
20555.015204,6217.729913,-7698.141797,6435.202183
20555.015538,2886.803174,-5995.668130,0.000000
20555.015871,0.000000,-8364.327145,-306.438199
20555.016204,1110.308913,-10658.965565,-4060.306139
20555.016537,-3627.009116,-7476.080014,-6128.763984
20555.016870,-2738.761985,-13027.624579,-4979.620737
20555.017204,-4737.318029,-12509.480420,-3830.477490
20555.017537,-814.226536,-11103.089130,306.438199
20555.017870,2220.617826,-7402.059420,4826.401637
20555.018203,4663.297435,-7105.977043,6052.154434
20555.018536,1332.370696,-5403.503377,4903.011187
20555.018870,5847.626942,-7105.977043,4826.401637
20555.019203,2886.803174,-7402.059420,0.000000
20555.019536,0.000000,-8364.327145,0.000000
20555.019869,-4811.338623,-11843.295072,-6281.983084
20555.020202,-6661.853478,-12139.377449,-6511.811733
20555.020535,-4071.132681,-10658.965565,-4060.306139
20555.020869,-1258.350101,-8882.471304,-1838.629195
20555.021202,888.247130,-6735.874072,153.219100
20555.021535,0.000000,-7772.162391,4596.572988
20555.021868,4663.297435,-9474.636058,4213.525239
20555.022201,1184.329507,-5995.668130,1532.190996
20555.022535,0.000000,-9548.656652,3677.258390
20555.022868,-74.020594,-7476.080014,0.000000
20555.023201,-1110.308913,-10510.924376,1149.143247
20555.023534,296.082377,-7920.203579,1455.581446
20555.023867,-1110.308913,-8142.265362,459.657299
20555.024201,0.000000,-6291.750507,-995.924147
20555.024534,-1628.453072,-8808.450710,-1455.581446
20555.024867,-1110.308913,-9548.656652,-3064.381992
20555.025200,-1184.329507,-9696.697840,-1455.581446
20555.025533,-1332.370696,-13471.748144,-689.485948
20555.025867,-74.020594,-10658.965565,-536.266849
20555.026200,-2072.576638,-9844.739029,2451.505594
20555.026533,5773.606348,-11843.295072,7277.907231
20555.026866,4663.297435,-5699.585753,4903.011187
20555.027199,5033.400406,-7179.997637,4903.011187
20555.027532,3108.864956,-6661.853478,1608.800546
20555.027866,296.082377,-8068.244768,-1455.581446
20555.028199,-370.102971,-10140.821405,-2681.334243
20555.028532,-1554.432478,-9178.553681,-4519.963438
20555.028865,-3182.885551,-11843.295072,-4979.620737
20555.029198,-7105.977043,-11325.150913,-2757.943793
20555.029532,-1258.350101,-11843.295072,-1302.362347
20555.029865,2294.638420,-8586.388927,2145.067394
20555.030198,4663.297435,-7698.141797,7277.907231
20555.030531,5329.482782,-5699.585753,5898.935335
20555.030864,4441.235652,-7772.162391,4826.401637
20555.031198,2590.720797,-7994.224174,2528.115143
20555.031531,0.000000,-7179.997637,-1838.629195
20555.031864,-2442.679609,-11843.295072,-4673.182538
20555.032197,-4737.318029,-10732.986159,-2834.553343
20555.032530,-2738.761985,-11695.253884,-4366.744339
20555.032864,-2072.576638,-7772.162391,-2451.505594
20555.033197,-1184.329507,-8364.327145,-536.266849
20555.033530,1332.370696,-8364.327145,2221.676944
20555.033863,4737.318029,-7031.956449,4903.011187
20555.034196,3701.029710,-9252.574275,5056.230287
20555.034530,5477.523971,-9178.553681,4673.182538
20555.034863,370.102971,-8364.327145,-1838.629195
20555.035196,1110.308913,-11251.130318,-1302.362347
20555.035529,1110.308913,-7328.038826,-2145.067394
20555.035862,0.000000,-10955.047942,2068.457845
20555.036195,1480.411884,-9474.636058,2145.067394
20555.036529,-666.185348,-8142.265362,-842.705048
20555.036862,370.102971,-7920.203579,-919.314598
20555.037195,814.226536,-8808.450710,-229.828649
20555.037528,962.267725,-8290.306550,-689.485948
20555.037861,0.000000,-9548.656652,2451.505594
20555.038195,-1258.350101,-10066.800811,-1762.019645
20555.038528,592.164754,-10436.903782,612.876398
20555.038861,5329.482782,-9474.636058,6052.154434
20555.039194,9400.615463,-7105.977043,6205.373534
20555.039527,5551.544565,-8586.388927,3907.087040
20555.039861,2220.617826,-7846.182985,-689.485948
20555.040194,962.267725,-10807.006753,-2528.115143
20555.040527,296.082377,-9178.553681,-4136.915689
20555.040860,-2072.576638,-13101.645173,-2451.505594
20555.041193,-3849.070898,-10807.006753,-4596.572988
20555.041527,-1702.473667,-11843.295072,-1685.410096
20555.041860,3182.885551,-9178.553681,4673.182538
20555.042193,5551.544565,-6809.894666,6665.030833
20555.042526,3552.988522,-7179.997637,6435.202183
20555.042859,4663.297435,-9474.636058,6052.154434
20555.043193,-74.020594,-7328.038826,0.000000
20555.043526,-1480.411884,-9326.594869,-689.485948
20555.043859,-3627.009116,-11843.295072,-4366.744339
20555.044192,-7624.121203,-12509.480420,-5515.887586
20555.044525,-6957.935855,-10658.965565,-4366.744339
20555.044858,-3627.009116,-11251.130318,-1302.362347
20555.045192,-2664.741391,-6291.750507,0.000000
20555.045525,0.000000,-6735.874072,4366.744339
20555.045858,1702.473667,-6809.894666,2987.772442
20555.046191,2886.803174,-7402.059420,2987.772442
20555.046524,1184.329507,-8364.327145,3753.867940
20555.046858,1702.473667,-9178.553681,842.705048
20555.047191,-2664.741391,-9918.759623,-1302.362347
20555.047524,-3923.091493,-11621.233289,-2987.772442
20555.047857,-3034.844362,-10584.944971,-2374.896044
20555.048190,-2960.823768,-9844.739029,-1838.629195
20555.048524,-3552.988522,-9548.656652,3600.648841
20555.048857,-666.185348,-7402.059420,-1762.019645
20555.049190,0.000000,-7179.997637,0.000000
20555.049523,2368.659014,-8956.491898,4136.915689
20555.049856,0.000000,-6587.832884,2451.505594
20555.050190,-1850.514855,-10658.965565,995.924147
20555.050523,0.000000,-7772.162391,153.219100
20555.050856,888.247130,-10436.903782,2757.943793
20555.051189,5847.626942,-4737.318029,4060.306139
20555.051522,3701.029710,-10066.800811,2987.772442
20555.051855,1110.308913,-8512.368333,-3064.381992
20555.052189,0.000000,-8956.491898,-1838.629195
20555.052522,0.000000,-11029.068536,-842.705048
20555.052855,4071.132681,-10066.800811,-842.705048
20555.053188,-3256.906145,-11325.150913,-4290.134789
20555.053521,1110.308913,-10807.006753,-1685.410096
20555.053855,3034.844362,-9252.574275,3140.991542
20555.054188,6069.688724,-6291.750507,5209.449386
20555.054521,9400.615463,-7698.141797,5056.230287
20555.054854,7105.977043,-7920.203579,6128.763984
20555.055187,7624.121203,-9474.636058,2987.772442
20555.055521,3923.091493,-8364.327145,0.000000
20555.055854,2146.597232,-10732.986159,-1302.362347
20555.056187,-4663.297435,-12731.542202,-5209.449386
20555.056520,-4811.338623,-12657.521608,-6128.763984
20555.056853,-4145.153275,-11621.233289,-3830.477490
20555.057187,-962.267725,-8364.327145,0.000000
20555.057520,4071.132681,-6143.709319,2145.067394
20555.057853,4293.194464,-6883.915261,5286.058936
20555.058186,5107.421000,-6365.771101,5286.058936
20555.058519,4737.318029,-8216.285956,4290.134789
20555.058853,888.247130,-8882.471304,1455.581446
20555.059186,-1258.350101,-13619.789333,-689.485948
20555.059519,-6661.853478,-9548.656652,-4596.572988
20555.059852,-3627.009116,-13619.789333,-2604.724693
20555.060185,-2220.617826,-10288.862594,-919.314598
20555.060518,-3552.988522,-7476.080014,1378.971896
20555.060852,-2146.597232,-7402.059420,459.657299
20555.061185,-4219.173869,-9030.512492,-383.047749
20555.061518,-1258.350101,-9030.512492,229.828649
20555.061851,-2072.576638,-7476.080014,612.876398
20555.062184,-1850.514855,-8882.471304,0.000000
20555.062518,-3775.050304,-8364.327145,0.000000
20555.062851,-740.205942,-10658.965565,2374.896044
20555.063184,2294.638420,-7105.977043,2374.896044
20555.063517,1480.411884,-7624.121203,3294.210641
20555.063850,-1554.432478,-8956.491898,-459.657299
20555.064184,-3330.926739,-10955.047942,-2681.334243
20555.064517,-3478.967927,-9696.697840,-2987.772442
20555.064850,-3034.844362,-10362.883188,-2528.115143
20555.065183,-4219.173869,-8956.491898,-4596.572988
20555.065516,-3256.906145,-10362.883188,0.000000
20555.065850,1702.473667,-11251.130318,2374.896044
20555.066183,1924.535449,-3923.091493,4903.011187
20555.066516,6143.709319,-7105.977043,6358.592633
20555.066849,4885.359217,-5403.503377,5592.497135
20555.067182,3997.112087,-7624.121203,2374.896044
20555.067516,3478.967927,-7920.203579,-229.828649
20555.067849,-74.020594,-11251.130318,-4366.744339
20555.068182,-5477.523971,-11029.068536,-7354.516781
20555.068515,-4145.153275,-13915.871710,-5592.497135
20555.068848,-666.185348,-14211.954086,-3140.991542
20555.069181,0.000000,-7179.997637,0.000000
20555.069515,4663.297435,-8290.306550,3600.648841
20555.069848,5107.421000,-7105.977043,5439.278036
20555.070181,4959.379811,-6661.853478,4596.572988
20555.070514,6957.935855,-8142.265362,4749.792088
20555.070847,6143.709319,-8586.388927,4826.401637
20555.071181,3997.112087,-8290.306550,842.705048
20555.071514,3182.885551,-11843.295072,-689.485948
20555.071847,-1480.411884,-12361.439231,-3753.867940
20555.072180,0.000000,-11325.150913,-3677.258390
20555.072513,1406.391290,-12435.459826,-689.485948
20555.072847,1628.453072,-7772.162391,-1225.752797
20555.073180,962.267725,-7179.997637,0.000000
20555.073513,4145.153275,-8882.471304,2911.162892
20555.073846,3552.988522,-7772.162391,1991.848295
20555.074179,2886.803174,-7550.100608,2298.286494
20555.074513,1110.308913,-10955.047942,995.924147
20555.074846,592.164754,-10584.944971,2298.286494
20555.075179,4663.297435,-9178.553681,4826.401637
20555.075512,4959.379811,-8290.306550,4213.525239
20555.075845,148.041188,-7179.997637,0.000000
20555.076178,1702.473667,-9178.553681,-1225.752797
20555.076512,-74.020594,-13915.871710,-2221.676944
20555.076845,-148.041188,-9030.512492,-4290.134789
20555.077178,-3627.009116,-13619.789333,-3753.867940
20555.077511,-6217.729913,-10510.924376,-3830.477490
20555.077844,-2220.617826,-11177.109724,612.876398
20555.078178,-1036.288319,-7179.997637,3370.820191
20555.078511,6365.771101,-7105.977043,7890.783629
20555.078844,592.164754,-4811.338623,7967.393179
20555.079177,2886.803174,-7105.977043,4826.401637
20555.079510,0.000000,-4811.338623,0.000000
20555.079844,-2812.782580,-9474.636058,-1608.800546
20555.080177,-6439.791695,-9548.656652,-5975.544884
20555.080510,-10140.821405,-12583.501014,-6435.202183
20555.080843,-8364.327145,-11917.315666,-6741.640382
20555.081176,-7698.141797,-12509.480420,-2451.505594
20555.081510,-666.185348,-7698.141797,-229.828649
20555.081843,888.247130,-8364.327145,4903.011187
20555.082176,2072.576638,-7105.977043,7277.907231
20555.082509,2294.638420,-5699.585753,4290.134789
20555.082842,592.164754,-7179.997637,4903.011187
20555.083176,740.205942,-6883.915261,2145.067394
20555.083509,-1702.473667,-8808.450710,-919.314598
20555.083842,-3923.091493,-11473.192101,-3600.648841
20555.084175,-2442.679609,-12435.459826,-3753.867940
20555.084508,-5255.462188,-7772.162391,-3677.258390
20555.084841,1110.308913,-9474.636058,-1608.800546
20555.085175,-370.102971,-11843.295072,-1302.362347
20555.085508,148.041188,-7179.997637,1225.752797
20555.085841,3552.988522,-9844.739029,3064.381992
20555.086174,2368.659014,-8438.347739,2374.896044
20555.086507,2294.638420,-9474.636058,919.314598
20555.086841,814.226536,-12139.377449,1991.848295
20555.087174,5847.626942,-8290.306550,3600.648841
20555.087507,3552.988522,-6143.709319,3983.696590
20555.087840,3330.926739,-5699.585753,306.438199
20555.088173,3330.926739,-8142.265362,-383.047749
20555.088507,-296.082377,-9918.759623,-3140.991542
20555.088840,4663.297435,-11547.212695,-689.485948
20555.089173,-1850.514855,-9548.656652,-4903.011187
20555.089506,-2368.659014,-10140.821405,-3370.820191
20555.089839,2368.659014,-13619.789333,-76.609550
20555.090173,3552.988522,-8660.409521,3370.820191
20555.090506,7402.059420,-10066.800811,7277.907231
20555.090839,6513.812290,-8882.471304,5745.716235
20555.091172,6883.915261,-6883.915261,4136.915689
20555.091505,4663.297435,-7624.121203,2987.772442
20555.091838,4663.297435,-7698.141797,-1532.190996
20555.092172,-2368.659014,-8364.327145,-3064.381992
20555.092505,-2442.679609,-12731.542202,-4979.620737
20555.092838,-4811.338623,-11547.212695,-6741.640382
20555.093171,-5921.647536,-12065.356855,-2757.943793
20555.093504,-74.020594,-9474.636058,-995.924147
20555.093838,1258.350101,-7994.224174,4290.134789
20555.094171,1924.535449,-6365.771101,4979.620737
20555.094504,1184.329507,-7402.059420,3447.429741
20555.094837,296.082377,-8364.327145,3677.258390
20555.095170,-888.247130,-9474.636058,3600.648841
20555.095504,-4219.173869,-9474.636058,-3140.991542
20555.095837,-8882.471304,-9844.739029,-6128.763984
20555.096170,-7105.977043,-11325.150913,-1455.581446
20555.096503,-6217.729913,-8660.409521,-995.924147
20555.096836,-3256.906145,-6587.832884,1762.019645
20555.097170,-2516.700203,-7105.977043,995.924147
20555.097503,-1776.494261,-7920.203579,1455.581446
20555.097836,-74.020594,-9474.636058,2374.896044
20555.098169,-2368.659014,-8068.244768,2451.505594
20555.098502,-1850.514855,-11843.295072,-76.609550
20555.098836,-5921.647536,-9548.656652,2451.505594
20555.099169,-666.185348,-10066.800811,1762.019645
20555.099502,2294.638420,-7994.224174,2145.067394
20555.099835,2294.638420,-7994.224174,1455.581446
20555.100168,0.000000,-9030.512492,-153.219100
20555.100501,-2220.617826,-9622.677246,-1378.971896
20555.100835,-2072.576638,-7179.997637,-3677.258390
20555.101168,-74.020594,-10658.965565,-2528.115143
20555.101501,-3256.906145,-7772.162391,-2451.505594
20555.101834,0.000000,-9548.656652,2221.676944
20555.102167,2294.638420,-7550.100608,0.000000
20555.102501,5847.626942,-8216.285956,5439.278036
20555.102834,7031.956449,-7031.956449,6665.030833
20555.103167,5995.668130,-7772.162391,4519.963438
20555.103500,4737.318029,-7920.203579,1225.752797
20555.103833,592.164754,-9548.656652,-2451.505594
20555.104167,518.144159,-10658.965565,-5362.668486
20555.104500,-2590.720797,-12361.439231,-5439.278036
20555.104833,-2590.720797,-11769.274478,-4596.572988
20555.105166,-1776.494261,-11325.150913,-1302.362347
20555.105499,2368.659014,-6587.832884,2451.505594
20555.105833,8808.450710,-8290.306550,6665.030833
20555.106166,6513.812290,-2442.679609,5515.887586
20555.106499,7698.141797,-8882.471304,5898.935335
20555.106832,8216.285956,-8882.471304,3294.210641
20555.107165,4145.153275,-8364.327145,306.438199
20555.107499,962.267725,-10732.986159,-2451.505594
20555.107832,-666.185348,-12065.356855,-5822.325785
20555.108165,-3627.009116,-14211.954086,-5898.935335
20555.108498,-1776.494261,-12805.562797,-1225.752797
20555.108831,1702.473667,-9474.636058,-76.609550
20555.109164,0.000000,-5995.668130,612.876398
20555.109498,592.164754,-5403.503377,4903.011187
20555.109831,4663.297435,-6365.771101,5439.278036
20555.110164,2368.659014,-5403.503377,6435.202183
20555.110497,518.144159,-7105.977043,842.705048
20555.110830,-3034.844362,-11769.274478,-2145.067394
20555.111164,-3182.885551,-10510.924376,-2145.067394
20555.111497,-1258.350101,-11547.212695,-76.609550
20555.111830,-74.020594,-8290.306550,-4519.963438
20555.112163,-1776.494261,-10732.986159,-76.609550
20555.112497,-148.041188,-9844.739029,-76.609550
20555.112830,518.144159,-9548.656652,-1225.752797
20555.113163,1110.308913,-11251.130318,-76.609550
20555.113496,-2442.679609,-9918.759623,-689.485948
20555.113830,-3627.009116,-9474.636058,-153.219100
20555.114163,1110.308913,-7402.059420,842.705048
20555.114496,592.164754,-6439.791695,4596.572988
20555.114829,4515.256246,-8290.306550,7890.783629
20555.115162,1776.494261,-3627.009116,4903.011187
20555.115496,-74.020594,-8734.430116,0.000000
20555.115829,-74.020594,-11251.130318,-1302.362347
20555.116162,-3627.009116,-10658.965565,-5898.935335
20555.116495,-5625.565159,-10881.027347,-6205.373534
20555.116829,-7550.100608,-11843.295072,-5592.497135
20555.117162,-7105.977043,-13323.706956,-4213.525239
20555.117495,-3849.070898,-8364.327145,0.000000
20555.117828,592.164754,-7476.080014,4903.011187
20555.118161,4959.379811,-4071.132681,6818.249932
20555.118495,4367.215058,-5403.503377,5745.716235
20555.118828,5551.544565,-9326.594869,6665.030833
20555.119161,3478.967927,-8290.306550,2374.896044
20555.119494,-1776.494261,-7772.162391,-1225.752797
20555.119828,-518.144159,-12435.459826,-1915.238745
20555.120161,-3923.091493,-13027.624579,-6511.811733
20555.120494,-2812.782580,-13101.645173,-4290.134789
20555.120827,-2294.638420,-10510.924376,-2221.676944
20555.121160,74.020594,-8660.409521,306.438199
20555.121494,1554.432478,-7920.203579,2451.505594
20555.121827,4589.276840,-7105.977043,4519.963438
20555.122160,6513.812290,-5699.585753,6971.469032
20555.122493,592.164754,-5995.668130,4903.011187
20555.122827,3775.050304,-9474.636058,1149.143247
20555.123160,-814.226536,-11843.295072,-1608.800546
20555.123493,2294.638420,-8882.471304,153.219100
20555.123826,4663.297435,-11251.130318,536.266849
20555.124160,2368.659014,-9400.615463,0.000000
20555.124493,148.041188,-10140.821405,-919.314598
20555.124826,-2368.659014,-9400.615463,-3140.991542
20555.125159,2294.638420,-9474.636058,-76.609550
20555.125492,-1184.329507,-8660.409521,0.000000
20555.125826,1406.391290,-10658.965565,1762.019645
20555.126159,-1184.329507,-6587.832884,766.095498
20555.126492,0.000000,-7772.162391,2451.505594
20555.126825,4071.132681,-7105.977043,3064.381992
20555.127159,4663.297435,-7402.059420,3830.477490
20555.127492,2738.761985,-8364.327145,1532.190996
20555.127825,592.164754,-10214.842000,-76.609550
20555.128158,0.000000,-8660.409521,-3140.991542
20555.128491,-74.020594,-12435.459826,-1608.800546
20555.128825,-2072.576638,-10658.965565,-4979.620737
20555.129158,-4737.318029,-12509.480420,-1762.019645
20555.129491,-74.020594,-12879.583391,-76.609550
20555.129824,1184.329507,-8512.368333,3064.381992
20555.130158,4145.153275,-5773.606348,5439.278036
20555.130491,4071.132681,-5403.503377,4903.011187
20555.130824,2590.720797,-7994.224174,3983.696590
20555.131157,1184.329507,-7772.162391,2451.505594
20555.131491,-74.020594,-11251.130318,-76.609550
20555.131824,-5699.585753,-9548.656652,-4136.915689
20555.132157,-9474.636058,-9548.656652,-4903.011187
20555.132490,-3775.050304,-13027.624579,-1302.362347
20555.132823,-3849.070898,-8364.327145,0.000000
20555.133157,-814.226536,-8290.306550,1762.019645
20555.133490,-2220.617826,-7994.224174,1225.752797
20555.133823,-222.061783,-8660.409521,2145.067394
20555.134156,592.164754,-7179.997637,3677.258390
20555.134490,1702.473667,-7772.162391,2145.067394
20555.134823,-1110.308913,-11399.171507,689.485948
20555.135156,-1850.514855,-8660.409521,-1225.752797
20555.135489,-1258.350101,-10658.965565,842.705048
20555.135822,0.000000,-7476.080014,1838.629195
20555.136156,518.144159,-10066.800811,1149.143247
20555.136489,-1258.350101,-8142.265362,-3677.258390
20555.136822,-2368.659014,-8956.491898,-1225.752797
20555.137155,-74.020594,-11695.253884,-76.609550
20555.137489,74.020594,-8068.244768,612.876398
20555.137822,-2368.659014,-8808.450710,0.000000
20555.138155,-518.144159,-7846.182985,383.047749
20555.138488,0.000000,-8364.327145,0.000000
20555.138821,1332.370696,-7772.162391,3677.258390
20555.139155,6439.791695,-7105.977043,3600.648841
20555.139488,1776.494261,-6735.874072,1149.143247
20555.139821,1184.329507,-8364.327145,612.876398
20555.140154,0.000000,-9622.677246,-2528.115143
20555.140488,222.061783,-11251.130318,-2757.943793
20555.140821,-2368.659014,-10436.903782,-4366.744339
20555.141154,-3552.988522,-12065.356855,-4290.134789
20555.141487,-1184.329507,-10510.924376,-1072.533697
20555.141821,1480.411884,-8068.244768,5515.887586
20555.142154,8216.285956,-4737.318029,4519.963438
20555.142487,7105.977043,-5403.503377,7967.393179
20555.142820,7624.121203,-10362.883188,4826.401637
20555.143153,4737.318029,-7031.956449,0.000000
20555.143487,3775.050304,-10658.965565,-76.609550
20555.143820,1924.535449,-9548.656652,-2451.505594
20555.144153,-1554.432478,-12139.377449,-4749.792088
20555.144486,-3034.844362,-13027.624579,-6205.373534
20555.144820,0.000000,-11991.336260,-689.485948
20555.145153,0.000000,-7179.997637,-1838.629195
20555.145486,1184.329507,-7179.997637,3217.601092
20555.145819,4663.297435,-7105.977043,2987.772442
20555.146152,7031.956449,-5921.647536,4826.401637
20555.146486,4145.153275,-7031.956449,4443.353888
20555.146819,2368.659014,-7846.182985,1838.629195
20555.147152,518.144159,-10584.944971,-76.609550
20555.147485,-4441.235652,-11029.068536,-2451.505594
20555.147819,3182.885551,-11843.295072,-1302.362347
20555.148152,0.000000,-9548.656652,1225.752797
20555.148485,1776.494261,-7328.038826,3217.601092
20555.148818,-74.020594,-7550.100608,-2145.067394
20555.149151,518.144159,-9770.718434,-76.609550
20555.149485,-666.185348,-9178.553681,-1225.752797
20555.149818,-1702.473667,-9474.636058,-76.609550
20555.150151,-2442.679609,-9992.780217,0.000000
20555.150484,-4737.318029,-7772.162391,612.876398
20555.150818,-74.020594,-9474.636058,1455.581446
20555.151151,2590.720797,-7179.997637,5592.497135
20555.151484,3478.967927,-5625.565159,5209.449386
20555.151817,-74.020594,-8438.347739,1608.800546
20555.152151,-3552.988522,-7328.038826,-3370.820191
20555.152484,-4515.256246,-11547.212695,-2528.115143
20555.152817,-4811.338623,-10658.965565,-7048.078582
20555.153150,-7994.224174,-11843.295072,-3140.991542
20555.153483,-6587.832884,-13915.871710,-1915.238745
20555.153817,-4737.318029,-8956.491898,0.000000
20555.154150,1406.391290,-7476.080014,5975.544884
20555.154483,3552.988522,-4589.276840,7354.516781
20555.154816,3034.844362,-6513.812290,6741.640382
20555.155150,2368.659014,-5995.668130,4903.011187
20555.155483,2294.638420,-8882.471304,1149.143247
20555.155816,-2368.659014,-8956.491898,-3677.258390
20555.156149,-4885.359217,-12879.583391,-4979.620737
20555.156482,-6291.750507,-13619.789333,-7431.126331
20555.156816,-4737.318029,-10732.986159,-2451.505594
20555.157149,-1850.514855,-9844.739029,-1225.752797
20555.157482,370.102971,-7179.997637,459.657299
20555.157815,2590.720797,-8290.306550,3983.696590
20555.158149,8216.285956,-7105.977043,6971.469032
20555.158482,9400.615463,-6513.812290,4213.525239
20555.158815,2960.823768,-9548.656652,4826.401637
20555.159148,4663.297435,-9474.636058,-76.609550
20555.159481,-3849.070898,-11917.315666,-1532.190996
20555.159815,4663.297435,-9474.636058,-1608.800546
20555.160148,296.082377,-10881.027347,-536.266849
20555.160481,3701.029710,-7402.059420,-1915.238745
20555.160814,2738.761985,-10066.800811,-689.485948
20555.161148,-666.185348,-10066.800811,-3753.867940
20555.161481,2960.823768,-7179.997637,-2451.505594
20555.161814,2812.782580,-12435.459826,2374.896044
20555.162147,4959.379811,-6587.832884,306.438199
20555.162481,0.000000,-7772.162391,2451.505594
20555.162814,6291.750507,-11843.295072,2374.896044
20555.163147,5773.606348,-8068.244768,5056.230287
20555.163480,5329.482782,-8956.491898,4290.134789
20555.163813,4589.276840,-9400.615463,2451.505594
20555.164147,-814.226536,-8438.347739,-689.485948
20555.164480,-1036.288319,-8660.409521,-3370.820191
20555.164813,-2516.700203,-10066.800811,-2834.553343
20555.165146,-3330.926739,-9844.739029,-4213.525239
20555.165480,-6513.812290,-12509.480420,-2451.505594
20555.165813,-2072.576638,-11843.295072,2068.457845
20555.166146,1702.473667,-7402.059420,2681.334243
20555.166479,1776.494261,-4811.338623,3677.258390
20555.166812,2960.823768,-6957.935855,6358.592633
20555.167146,888.247130,-6587.832884,2604.724693
20555.167479,1184.329507,-8290.306550,2374.896044
20555.167812,-1110.308913,-9844.739029,-383.047749
20555.168145,-5477.523971,-10955.047942,-4213.525239
20555.168479,-7476.080014,-13619.789333,-6205.373534
20555.168812,-9178.553681,-10732.986159,-3524.039291
20555.169145,-4219.173869,-7772.162391,-3064.381992
20555.169478,-2368.659014,-8068.244768,3600.648841
20555.169811,-1184.329507,-8068.244768,5439.278036
20555.170145,1110.308913,-7105.977043,4826.401637
20555.170478,1184.329507,-6735.874072,4826.401637
20555.170811,666.185348,-8586.388927,3140.991542
20555.171144,-814.226536,-8882.471304,536.266849
20555.171478,-5625.565159,-10436.903782,-1608.800546
20555.171811,-3552.988522,-11177.109724,-766.095498
20555.172144,-3552.988522,-9548.656652,-3677.258390
20555.172477,-1184.329507,-9844.739029,842.705048
20555.172811,814.226536,-7994.224174,-76.609550
20555.173144,-1702.473667,-8438.347739,-1302.362347
20555.173477,962.267725,-9992.780217,536.266849
20555.173810,1480.411884,-9104.533087,2757.943793
20555.174143,2590.720797,-7402.059420,2068.457845
20555.174477,0.000000,-9252.574275,1915.238745
20555.174810,2294.638420,-11251.130318,1149.143247
20555.175143,3552.988522,-8364.327145,5515.887586
20555.175476,4737.318029,-6587.832884,6665.030833
20555.175810,6439.791695,-9178.553681,2068.457845
20555.176143,0.000000,-7772.162391,-2451.505594
20555.176476,0.000000,-9844.739029,-3983.696590
20555.176809,0.000000,-10214.842000,-4290.134789
20555.177142,-1258.350101,-10288.862594,-4749.792088
20555.177476,-2960.823768,-11917.315666,-3677.258390
20555.177809,0.000000,-9770.718434,-2757.943793
20555.178142,4737.318029,-9400.615463,7277.907231
20555.178475,8808.450710,-5921.647536,6665.030833
20555.178809,5921.647536,-3627.009116,6741.640382
20555.179142,6217.729913,-8364.327145,5515.887586
20555.179475,5255.462188,-6069.688724,306.438199
20555.179808,3701.029710,-10140.821405,-842.705048
20555.180141,888.247130,-10288.862594,-3830.477490
20555.180475,-2368.659014,-12805.562797,-6128.763984
20555.180808,-2442.679609,-11843.295072,-6358.592633
20555.181141,-74.020594,-11843.295072,-1608.800546
20555.181474,0.000000,-10140.821405,1072.533697
20555.181808,3849.070898,-5995.668130,3983.696590
20555.182141,4663.297435,-7105.977043,7277.907231
20555.182474,5255.462188,-4737.318029,4443.353888
20555.182807,3552.988522,-7179.997637,4903.011187
20555.183141,1702.473667,-11251.130318,1149.143247
20555.183474,-3478.967927,-7772.162391,-3677.258390
20555.183807,-7105.977043,-11917.315666,-3677.258390
20555.184140,-3775.050304,-10955.047942,-4136.915689
20555.184473,-2294.638420,-11473.192101,-1072.533697
20555.184807,0.000000,-7476.080014,76.609550
20555.185140,-74.020594,-9474.636058,-76.609550
20555.185473,-74.020594,-6513.812290,-1685.410096
20555.185806,0.000000,-12509.480420,4213.525239
20555.186140,2294.638420,-9474.636058,3600.648841
20555.186473,-3034.844362,-8660.409521,306.438199
20555.186806,-2442.679609,-10955.047942,-76.609550
20555.187139,0.000000,-9104.533087,3064.381992
20555.187472,-888.247130,-8660.409521,3524.039291
20555.187806,2368.659014,-6587.832884,3064.381992
20555.188139,-4737.318029,-8364.327145,0.000000
20555.188472,-1850.514855,-7772.162391,-6128.763984
20555.188805,-2960.823768,-11399.171507,-383.047749
20555.189139,-4367.215058,-9622.677246,-4596.572988
20555.189472,-7698.141797,-10140.821405,-3677.258390
20555.189805,-6883.915261,-10362.883188,-2681.334243
20555.190138,-444.123565,-9030.512492,2681.334243
20555.190471,2738.761985,-7031.956449,7124.688131
20555.190805,5033.400406,-5699.585753,6741.640382
20555.191138,5625.565159,-6957.935855,7201.297681
20555.191471,1184.329507,-5995.668130,2451.505594
20555.191804,5847.626942,-9474.636058,-76.609550
20555.192138,-2368.659014,-9548.656652,-1838.629195
20555.192471,-1258.350101,-12435.459826,-4979.620737
20555.192804,-3923.091493,-12435.459826,-7354.516781
20555.193137,-2590.720797,-13027.624579,-4290.134789
20555.193471,814.226536,-9770.718434,0.000000
20555.193804,3478.967927,-7846.182985,2451.505594
20555.194137,5551.544565,-7994.224174,4213.525239
20555.194470,5033.400406,-7994.224174,6971.469032
20555.194803,5995.668130,-5995.668130,3370.820191
20555.195137,4737.318029,-5995.668130,5515.887586
20555.195470,4071.132681,-10510.924376,-76.609550
20555.195803,0.000000,-11103.089130,-4290.134789
20555.196136,-740.205942,-11251.130318,-3447.429741
20555.196470,-444.123565,-12805.562797,-2604.724693
20555.196803,2516.700203,-7328.038826,-842.705048
20555.197136,518.144159,-10510.924376,-689.485948
20555.197469,0.000000,-10066.800811,-689.485948
20555.197802,3256.906145,-8216.285956,1915.238745
20555.198136,3552.988522,-9770.718434,3600.648841
20555.198469,4441.235652,-6587.832884,3907.087040
20555.198802,-74.020594,-10362.883188,1149.143247
20555.199135,592.164754,-10732.986159,2451.505594
20555.199469,3478.967927,-10658.965565,2987.772442
20555.199802,1776.494261,-6735.874072,2451.505594
20555.200135,0.000000,-9548.656652,1225.752797
20555.200468,-222.061783,-9474.636058,-3447.429741
20555.200801,-1776.494261,-10658.965565,-2221.676944
20555.201135,-2886.803174,-10140.821405,-2604.724693
20555.201468,-3923.091493,-9918.759623,-2987.772442
20555.201801,-6365.771101,-10140.821405,-2604.724693
20555.202134,-3108.864956,-11103.089130,3294.210641
20555.202468,-74.020594,-8882.471304,3600.648841
20555.202801,740.205942,-4959.379811,4903.011187
20555.203134,4441.235652,-7402.059420,8197.221829
20555.203467,-1110.308913,-6439.791695,1378.971896
20555.203801,-518.144159,-8068.244768,-459.657299
20555.204134,-4219.173869,-10436.903782,-3140.991542
20555.204467,-5403.503377,-11029.068536,-4519.963438
20555.204800,-7994.224174,-10732.986159,-4903.011187
20555.205133,-3775.050304,-14211.954086,-2528.115143
20555.205467,-2442.679609,-9548.656652,0.000000
20555.205800,-74.020594,-6439.791695,1532.190996
20555.206133,2368.659014,-5477.523971,5439.278036
20555.206466,1480.411884,-6587.832884,5592.497135
20555.206800,3478.967927,-7476.080014,4136.915689
20555.207133,3034.844362,-7920.203579,3677.258390
20555.207466,-444.123565,-10214.842000,-76.609550
20555.207799,-2442.679609,-11843.295072,-1915.238745
20555.208132,-4219.173869,-14211.954086,-6205.373534
20555.208466,-1628.453072,-9696.697840,-2757.943793
20555.208799,0.000000,-8364.327145,0.000000
20555.209132,3182.885551,-9474.636058,-76.609550
20555.209465,296.082377,-8364.327145,1838.629195
20555.209799,2886.803174,-7550.100608,1378.971896
20555.210132,5773.606348,-8068.244768,4443.353888
20555.210465,4071.132681,-8512.368333,2681.334243
20555.210798,2294.638420,-10362.883188,1149.143247
20555.211131,1406.391290,-10436.903782,-1302.362347
20555.211464,2960.823768,-10658.965565,1302.362347
20555.211797,4145.153275,-7994.224174,2374.896044
20555.212131,0.000000,-7179.997637,-2145.067394
20555.212464,-1776.494261,-8956.491898,-2451.505594
20555.212797,1110.308913,-11843.295072,-1915.238745
20555.213130,0.000000,-8290.306550,-2528.115143
20555.213463,-2072.576638,-9548.656652,612.876398
20555.213796,-2368.659014,-8734.430116,-1608.800546
20555.214129,-592.164754,-9252.574275,2145.067394
20555.214462,2294.638420,-7994.224174,4060.306139
20555.214795,4515.256246,-7328.038826,4903.011187
20555.215129,4737.318029,-7179.997637,4136.915689
20555.215462,2590.720797,-6809.894666,-76.609550
20555.215795,3478.967927,-9474.636058,-383.047749
20555.216128,-74.020594,-10362.883188,-3677.258390
20555.216461,0.000000,-10140.821405,-2681.334243
20555.216794,-1554.432478,-14211.954086,-3140.991542
20555.217127,-2738.761985,-12435.459826,-4903.011187
20555.217460,-2664.741391,-11991.336260,0.000000
20555.217793,1998.556043,-7698.141797,1915.238745
20555.218127,5255.462188,-5995.668130,6511.811733
20555.218460,6365.771101,-6365.771101,8503.660028
20555.218793,3849.070898,-3775.050304,4290.134789
20555.219126,4737.318029,-8364.327145,6971.469032
20555.219459,2294.638420,-7179.997637,-1838.629195
20555.219792,-2960.823768,-9548.656652,-4290.134789
20555.220125,-4219.173869,-14063.912898,-7431.126331
20555.220458,-4737.318029,-12657.521608,-5898.935335
20555.220791,-1850.514855,-12361.439231,-1608.800546
20555.221125,2738.761985,-7550.100608,1455.581446
20555.221458,2294.638420,-9474.636058,2374.896044
20555.221791,592.164754,-3627.009116,1225.752797
20555.222124,4663.297435,-10066.800811,6665.030833
20555.222457,4367.215058,-7105.977043,1762.019645
20555.222790,-2368.659014,-10732.986159,0.000000
20555.223123,-74.020594,-7698.141797,-1762.019645
20555.223456,222.061783,-13027.624579,1685.410096
20555.223790,2442.679609,-7031.956449,2298.286494
20555.224123,2072.576638,-9400.615463,2528.115143
20555.224456,-2960.823768,-6587.832884,-3677.258390
20555.224789,-2368.659014,-9548.656652,1302.362347
20555.225122,-1850.514855,-10658.965565,-3907.087040
20555.225455,-4145.153275,-9548.656652,-4903.011187
20555.225788,-6513.812290,-10732.986159,-1225.752797
20555.226121,-3923.091493,-9548.656652,-1838.629195
20555.226454,-888.247130,-8734.430116,3600.648841
20555.226788,2072.576638,-7476.080014,5286.058936
20555.227121,4663.297435,-4959.379811,5822.325785
20555.227454,592.164754,-6291.750507,2681.334243
20555.227787,1184.329507,-7550.100608,153.219100
20555.228120,-1628.453072,-10658.965565,-1762.019645
20555.228453,-2146.597232,-10881.027347,-4443.353888
20555.228786,-2516.700203,-13619.789333,-3140.991542
20555.229119,-4811.338623,-13027.624579,-6205.373534
20555.229452,-5625.565159,-10732.986159,-3677.258390
20555.229786,-2368.659014,-9548.656652,3294.210641
20555.230119,3182.885551,-7105.977043,4213.525239
20555.230452,3849.070898,-5995.668130,7354.516781
20555.230785,4663.297435,-6957.935855,5669.106685
20555.231118,5773.606348,-6883.915261,6665.030833
20555.231451,3330.926739,-7105.977043,3294.210641
20555.231784,-74.020594,-9474.636058,-1915.238745
20555.232117,-3552.988522,-10732.986159,-5898.935335
20555.232450,-5921.647536,-13101.645173,-4136.915689
20555.232784,-74.020594,-10658.965565,-3753.867940
20555.233117,-74.020594,-9474.636058,-2221.676944
20555.233450,-370.102971,-9326.594869,-842.705048
20555.233783,1480.411884,-6735.874072,229.828649
20555.234116,4219.173869,-9030.512492,4519.963438
20555.234449,7476.080014,-5773.606348,5515.887586
20555.234782,3849.070898,-7179.997637,2604.724693
20555.235115,3478.967927,-10362.883188,536.266849
20555.235449,1184.329507,-8956.491898,2834.553343
20555.235782,4663.297435,-10658.965565,536.266849
20555.236115,3849.070898,-7179.997637,-1225.752797
20555.236448,592.164754,-10732.986159,-2451.505594
20555.236781,-1036.288319,-11029.068536,-3983.696590
20555.237114,-370.102971,-10955.047942,-4060.306139
20555.237447,-814.226536,-11547.212695,-2374.896044
20555.237780,1110.308913,-10658.965565,-76.609550
20555.238113,-1258.350101,-8364.327145,0.000000
20555.238447,3182.885551,-9474.636058,6052.154434
20555.238780,4663.297435,-5847.626942,4903.011187
20555.239113,5625.565159,-5699.585753,8810.098227
20555.239446,6809.894666,-6513.812290,6128.763984
20555.239779,1036.288319,-8438.347739,536.266849
20555.240112,-2516.700203,-10436.903782,-4596.572988
20555.240445,-4589.276840,-11177.109724,-7201.297681
20555.240778,-6957.935855,-12435.459826,-8044.002729
20555.241111,-8882.471304,-11917.315666,-3524.039291
20555.241445,-5995.668130,-11843.295072,-4903.011187
20555.241778,-3404.947333,-7476.080014,229.828649
20555.242111,1184.329507,-7476.080014,9729.412825
20555.242444,5255.462188,-5329.482782,10112.460574
20555.242777,2664.741391,-4071.132681,7201.297681
20555.243110,2294.638420,-7105.977043,4519.963438
20555.243443,1554.432478,-7476.080014,1838.629195
20555.243776,-2146.597232,-10066.800811,-2528.115143
20555.244109,-7698.141797,-13693.809927,-5286.058936
20555.244443,-8734.430116,-13101.645173,-8503.660028
20555.244776,-5921.647536,-13841.851115,-4290.134789
20555.245109,-1184.329507,-8660.409521,-536.266849
20555.245442,1110.308913,-9474.636058,2987.772442
20555.245775,0.000000,-6291.750507,3677.258390
20555.246108,3849.070898,-9474.636058,7890.783629
20555.246441,3478.967927,-5921.647536,3983.696590
20555.246774,2368.659014,-6143.709319,4903.011187
20555.247108,1554.432478,-9474.636058,1149.143247
20555.247441,-296.082377,-9474.636058,-766.095498
20555.247774,-592.164754,-9844.739029,-1149.143247
20555.248107,0.000000,-9474.636058,-1991.848295
20555.248440,-1776.494261,-8660.409521,-4290.134789
20555.248773,-3256.906145,-10140.821405,-1838.629195
20555.249106,1110.308913,-10066.800811,-1302.362347
20555.249439,2886.803174,-10658.965565,-842.705048
20555.249772,1184.329507,-8660.409521,1532.190996
20555.250106,2294.638420,-8882.471304,0.000000
20555.250439,2146.597232,-7994.224174,1455.581446
20555.250772,3849.070898,-8734.430116,3677.258390
20555.251105,6735.874072,-7846.182985,5286.058936
20555.251438,6809.894666,-7476.080014,4903.011187
20555.251771,4737.318029,-8956.491898,4826.401637
20555.252104,1184.329507,-8364.327145,-2451.505594
20555.252437,2738.761985,-10658.965565,-2145.067394
20555.252770,0.000000,-12213.398043,-2604.724693
20555.253104,-2368.659014,-9548.656652,-4903.011187
20555.253437,-3034.844362,-13175.665768,-4443.353888
20555.253770,-814.226536,-11177.109724,-842.705048
20555.254103,3701.029710,-8660.409521,5209.449386
20555.254436,7031.956449,-6513.812290,7890.783629
20555.254769,7698.141797,-5921.647536,7277.907231
20555.255102,3478.967927,-4219.173869,2451.505594
20555.255435,5625.565159,-7550.100608,3830.477490
20555.255768,2886.803174,-9178.553681,-76.609550
20555.256102,-1406.391290,-11473.192101,-2528.115143
20555.256435,-6217.729913,-12287.418637,-7201.297681
20555.256768,-5995.668130,-13471.748144,-6281.983084
20555.257101,-444.123565,-11399.171507,-2528.115143
20555.257434,0.000000,-6365.771101,229.828649
20555.257767,2294.638420,-9178.553681,842.705048
20555.258100,1776.494261,-5995.668130,2451.505594
20555.258433,3330.926739,-11251.130318,6665.030833
20555.258767,740.205942,-5403.503377,2757.943793
20555.259100,-74.020594,-9252.574275,4826.401637
20555.259433,-3923.091493,-8956.491898,-1455.581446
20555.259766,-2442.679609,-10066.800811,-919.314598
20555.260099,-2516.700203,-11251.130318,-383.047749
20555.260432,-2368.659014,-7179.997637,-1149.143247
20555.260765,-3330.926739,-8882.471304,-2834.553343
20555.261098,-3849.070898,-9474.636058,-3140.991542
20555.261431,-5033.400406,-10436.903782,-2374.896044
20555.261765,-4959.379811,-9548.656652,-2145.067394
20555.262098,-5773.606348,-8290.306550,-1915.238745
20555.262431,-1258.350101,-11843.295072,2374.896044
20555.262764,-2368.659014,-7476.080014,3677.258390
20555.263097,3775.050304,-8290.306550,9116.536426
20555.263430,3997.112087,-5921.647536,4903.011187
20555.263763,1184.329507,-5995.668130,3677.258390
20555.264096,518.144159,-8956.491898,-1149.143247
20555.264429,-888.247130,-10288.862594,-3294.210641
20555.264763,-2516.700203,-11991.336260,-3753.867940
20555.265096,-4589.276840,-10140.821405,-7048.078582
20555.265429,-4219.173869,-10807.006753,-7048.078582
20555.265762,-3404.947333,-9548.656652,-3677.258390
20555.266095,1184.329507,-10881.027347,4673.182538
20555.266428,5847.626942,-7105.977043,7277.907231
20555.266761,4737.318029,-6291.750507,7890.783629
20555.267094,5477.523971,-4959.379811,5515.887586
20555.267427,7105.977043,-6513.812290,4826.401637
20555.267761,5181.441594,-8438.347739,1991.848295
20555.268094,3775.050304,-11251.130318,-689.485948
20555.268427,-4811.338623,-11325.150913,-9346.365076
20555.268760,-3552.988522,-13767.830521,-7354.516781
20555.269093,296.082377,-12139.377449,-1302.362347
20555.269426,1110.308913,-8364.327145,-2221.676944
20555.269759,6143.709319,-7105.977043,2374.896044
20555.270092,3256.906145,-8660.409521,3064.381992
20555.270426,7994.224174,-5625.565159,4443.353888
20555.270759,5773.606348,-8734.430116,5362.668486
20555.271092,5255.462188,-8290.306550,2374.896044
20555.271425,814.226536,-5995.668130,0.000000
20555.271758,-74.020594,-12879.583391,-1608.800546
20555.272091,2294.638420,-9474.636058,-2221.676944
20555.272424,-4737.318029,-9548.656652,0.000000
20555.272757,2590.720797,-9178.553681,-1915.238745
20555.273090,-2960.823768,-9918.759623,-2298.286494
20555.273424,0.000000,-9252.574275,-2834.553343
20555.273757,-74.020594,-9474.636058,0.000000
20555.274090,-74.020594,-10658.965565,1149.143247
20555.274423,-592.164754,-7772.162391,2298.286494
20555.274756,-962.267725,-9844.739029,2221.676944
20555.275089,2738.761985,-8660.409521,4213.525239
20555.275422,592.164754,-6587.832884,5515.887586
20555.275755,1850.514855,-8290.306550,2681.334243
20555.276088,-2590.720797,-9252.574275,-2451.505594
20555.276422,-7105.977043,-9844.739029,-2451.505594
20555.276755,-3034.844362,-10066.800811,-4979.620737
20555.277088,-5625.565159,-9548.656652,-4136.915689
20555.277421,-7254.018232,-10214.842000,-3753.867940
20555.277754,-7698.141797,-10436.903782,-2604.724693
20555.278087,-3330.926739,-8956.491898,2145.067394
20555.278420,2886.803174,-6809.894666,7890.783629
20555.278753,2442.679609,-7698.141797,7890.783629
20555.279087,0.000000,-4811.338623,7354.516781
20555.279420,2294.638420,-7698.141797,3294.210641
20555.279753,1702.473667,-8882.471304,0.000000
20555.280086,-888.247130,-10436.903782,-1838.629195
20555.280419,-5403.503377,-12139.377449,-7124.688131
20555.280752,-6291.750507,-13323.706956,-6588.421283
20555.281085,-3478.967927,-11843.295072,-3753.867940
20555.281418,0.000000,-7402.059420,536.266849
20555.281751,3997.112087,-7994.224174,3600.648841
20555.282085,3108.864956,-5403.503377,4903.011187
20555.282418,4219.173869,-7254.018232,6665.030833
20555.282751,7031.956449,-9474.636058,4826.401637
20555.283084,3034.844362,-8290.306550,2374.896044
20555.283417,1924.535449,-9104.533087,536.266849
20555.283750,-592.164754,-10436.903782,-1991.848295
20555.284083,74.020594,-11621.233289,-2451.505594
20555.284416,0.000000,-9548.656652,-1838.629195
20555.284749,1702.473667,-9474.636058,-2834.553343
20555.285083,1184.329507,-9252.574275,0.000000
20555.285416,2368.659014,-9474.636058,-76.609550
20555.285749,2886.803174,-8660.409521,0.000000
20555.286082,2368.659014,-6587.832884,2451.505594
20555.286415,1702.473667,-9178.553681,2374.896044
20555.286748,518.144159,-9474.636058,842.705048
20555.287081,2664.741391,-9992.780217,2221.676944
20555.287414,5847.626942,-8882.471304,3600.648841
20555.287747,4071.132681,-4811.338623,2451.505594
20555.288081,4367.215058,-10658.965565,-76.609550
20555.288414,-370.102971,-8586.388927,-5286.058936
20555.288747,0.000000,-11325.150913,-1302.362347
20555.289080,148.041188,-10288.862594,-4596.572988
20555.289413,-2368.659014,-11769.274478,-2374.896044
20555.289746,-4515.256246,-11695.253884,-2911.162892
20555.290079,-1036.288319,-10732.986159,1302.362347
20555.290412,2590.720797,-7994.224174,6665.030833
20555.290746,3256.906145,-4219.173869,7354.516781
20555.291079,4293.194464,-6291.750507,5975.544884
20555.291412,1628.453072,-7031.956449,2987.772442
20555.291745,0.000000,-7920.203579,459.657299
20555.292078,-370.102971,-10214.842000,-383.047749
20555.292411,-6291.750507,-9548.656652,-6435.202183
20555.292744,-10658.965565,-10140.821405,-6741.640382
20555.293077,-4515.256246,-14211.954086,-4979.620737
20555.293410,-1850.514855,-9326.594869,-1532.190996
20555.293744,0.000000,-9622.677246,3830.477490
20555.294077,2664.741391,-7624.121203,4519.963438
20555.294410,3330.926739,-7105.977043,5592.497135
20555.294743,4663.297435,-6883.915261,5439.278036
20555.295076,4367.215058,-8882.471304,4213.525239
20555.295409,0.000000,-6883.915261,612.876398
20555.295742,-1702.473667,-11547.212695,-76.609550
20555.296075,-2442.679609,-10807.006753,-4903.011187
20555.296408,-3552.988522,-9992.780217,-2298.286494
20555.296742,-370.102971,-10362.883188,-689.485948
20555.297075,-2220.617826,-8142.265362,-766.095498
20555.297408,-2738.761985,-8808.450710,-1378.971896
20555.297741,-1184.329507,-7772.162391,-766.095498
20555.298074,-592.164754,-6587.832884,1225.752797
20555.298407,-2368.659014,-5403.503377,2451.505594
20555.298740,-74.020594,-9474.636058,995.924147
20555.299073,-2072.576638,-9548.656652,0.000000
20555.299406,1776.494261,-8808.450710,4366.744339
20555.299740,4071.132681,-5477.523971,1991.848295
20555.300073,4663.297435,-7624.121203,1455.581446
20555.300406,0.000000,-9622.677246,-1838.629195
20555.300739,-666.185348,-10288.862594,-3753.867940
20555.301072,296.082377,-11843.295072,-1532.190996
20555.301405,-1184.329507,-11103.089130,-1608.800546
20555.301738,-666.185348,-11843.295072,-4366.744339
20555.302071,-2368.659014,-9548.656652,0.000000
20555.302405,2368.659014,-8956.491898,6052.154434
20555.302738,5255.462188,-4885.359217,4903.011187
20555.303071,5551.544565,-6809.894666,5898.935335
20555.303404,4145.153275,-6513.812290,3830.477490
20555.303737,2146.597232,-9030.512492,1915.238745
20555.304070,1924.535449,-8882.471304,-459.657299
20555.304403,-2294.638420,-11251.130318,-4366.744339
20555.304736,-6217.729913,-11473.192101,-5898.935335
20555.305069,-4515.256246,-11695.253884,-4826.401637
20555.305403,-2442.679609,-13027.624579,-1915.238745
20555.305736,1184.329507,-4811.338623,459.657299
20555.306069,1184.329507,-7179.997637,5362.668486
20555.306402,5551.544565,-5921.647536,6052.154434
20555.306735,4663.297435,-6513.812290,3064.381992
20555.307068,4515.256246,-9474.636058,4826.401637
20555.307401,4367.215058,-7994.224174,2374.896044
20555.307734,-2368.659014,-10288.862594,-1149.143247
20555.308067,-2442.679609,-11399.171507,-4290.134789
20555.308401,-3997.112087,-12139.377449,-2757.943793
20555.308734,-74.020594,-11547.212695,-1302.362347
20555.309067,0.000000,-7772.162391,3600.648841
20555.309400,-74.020594,-8882.471304,-76.609550
20555.309733,0.000000,-5995.668130,-919.314598
20555.310066,0.000000,-8364.327145,2451.505594
20555.310399,1110.308913,-5699.585753,306.438199
20555.310732,-666.185348,-8660.409521,689.485948
20555.311065,-296.082377,-9992.780217,995.924147
20555.311399,1924.535449,-9474.636058,2911.162892
20555.311732,1702.473667,-6587.832884,2374.896044
20555.312065,4663.297435,-8882.471304,1762.019645
20555.312398,-1258.350101,-8068.244768,-3677.258390
20555.312731,-1776.494261,-10140.821405,-1991.848295
20555.313064,444.123565,-11177.109724,-1149.143247
20555.313397,-3256.906145,-8956.491898,-3064.381992
20555.313729,-3108.864956,-10584.944971,-2528.115143
20555.314062,-3552.988522,-10510.924376,-1072.533697
20555.314395,962.267725,-8216.285956,4136.915689
20555.314728,2368.659014,-4811.338623,6128.763984
20555.315062,5847.626942,-7698.141797,4519.963438
20555.315395,2886.803174,-5921.647536,2068.457845
20555.315728,3478.967927,-9474.636058,2374.896044
20555.316061,1850.514855,-9474.636058,-229.828649
20555.316394,-74.020594,-13027.624579,-3140.991542
20555.316727,-5773.606348,-11029.068536,-6741.640382
20555.317060,-6217.729913,-12879.583391,-5515.887586
20555.317394,-4367.215058,-11917.315666,-3600.648841
20555.317727,1110.308913,-9474.636058,-76.609550
20555.318060,3478.967927,-3923.091493,2451.505594
20555.318393,5033.400406,-5921.647536,7277.907231
20555.318726,6735.874072,-8882.471304,5745.716235
20555.319059,3182.885551,-4811.338623,1838.629195
20555.319392,5255.462188,-8882.471304,2374.896044
20555.319726,-1258.350101,-11029.068536,-1532.190996
20555.320059,-2368.659014,-11547.212695,-4519.963438
20555.320392,-5181.441594,-13101.645173,-4979.620737
20555.320725,-962.267725,-11843.295072,-1302.362347
20555.321058,0.000000,-8956.491898,689.485948
20555.321391,0.000000,-8364.327145,383.047749
20555.321724,0.000000,-7920.203579,612.876398
20555.322058,0.000000,-7179.997637,2757.943793
20555.322391,4145.153275,-7698.141797,6358.592633
20555.322724,1554.432478,-7105.977043,2221.676944
20555.323057,-3256.906145,-8364.327145,0.000000
20555.323390,962.267725,-10214.842000,1762.019645
20555.323723,1184.329507,-7920.203579,766.095498
20555.324056,4589.276840,-7698.141797,2374.896044
20555.324390,74.020594,-9474.636058,-919.314598
20555.324723,-1258.350101,-10288.862594,-4136.915689
20555.325056,-74.020594,-11843.295072,-1302.362347
20555.325389,814.226536,-11843.295072,-76.609550
20555.325722,-2886.803174,-9548.656652,-4290.134789
20555.326055,-296.082377,-11251.130318,-76.609550
20555.326388,1702.473667,-9474.636058,2604.724693
20555.326722,4737.318029,-6735.874072,7354.516781
20555.327055,7031.956449,-5773.606348,6665.030833
20555.327388,5699.585753,-6217.729913,4826.401637
20555.327721,2886.803174,-8068.244768,2298.286494
20555.328054,1702.473667,-8290.306550,-2221.676944
20555.328387,-1480.411884,-12731.542202,-3140.991542
20555.328720,-7105.977043,-9548.656652,-4596.572988
20555.329054,-4219.173869,-13027.624579,-6818.249932
20555.329387,-5403.503377,-12435.459826,-5898.935335
20555.329720,-666.185348,-10658.965565,-76.609550
20555.330053,2590.720797,-7402.059420,2987.772442
20555.330386,6957.935855,-5921.647536,7124.688131
20555.330719,5329.482782,-5551.544565,5822.325785
20555.331052,5329.482782,-7179.997637,5056.230287
20555.331386,8808.450710,-7698.141797,3907.087040
20555.331719,2812.782580,-10955.047942,1838.629195
20555.332052,1110.308913,-13027.624579,-2834.553343
20555.332385,-5107.421000,-12435.459826,-7048.078582
20555.332718,-4737.318029,-12213.398043,-4903.011187
20555.333051,-3108.864956,-9844.739029,-1455.581446
20555.333384,-2146.597232,-8956.491898,-842.705048
20555.333718,-2664.741391,-7846.182985,0.000000
20555.334051,2294.638420,-8882.471304,4826.401637
20555.334384,518.144159,-4811.338623,2451.505594
20555.334717,1406.391290,-8290.306550,4826.401637
20555.335050,-3034.844362,-9474.636058,-76.609550
20555.335383,-4737.318029,-8364.327145,1838.629195
20555.335716,0.000000,-8364.327145,2145.067394
20555.336050,2516.700203,-7179.997637,2068.457845
20555.336383,74.020594,-9400.615463,-995.924147
20555.336716,-2072.576638,-10807.006753,-3600.648841
20555.337049,-1258.350101,-12731.542202,-2528.115143
20555.337382,-2368.659014,-10732.986159,-2451.505594
20555.337715,-2294.638420,-10658.965565,-1455.581446
20555.338048,-2738.761985,-10066.800811,-459.657299
20555.338381,-148.041188,-9400.615463,2451.505594
20555.338715,4145.153275,-7920.203579,7890.783629
20555.339048,3923.091493,-5403.503377,7354.516781
20555.339381,7105.977043,-6439.791695,9729.412825
20555.339714,2294.638420,-5403.503377,766.095498
20555.340047,1924.535449,-8956.491898,-76.609550
20555.340380,-1184.329507,-10732.986159,-1991.848295
20555.340713,-3404.947333,-10807.006753,-5669.106685
20555.341047,-4737.318029,-11991.336260,-6205.373534
20555.341380,-4959.379811,-13545.768739,-4979.620737
20555.341713,-370.102971,-12731.542202,-76.609550
20555.342046,2738.761985,-5995.668130,2451.505594
20555.342379,6661.853478,-6883.915261,7354.516781
20555.342712,6439.791695,-7105.977043,4826.401637
20555.343045,4367.215058,-6069.688724,3370.820191
20555.343379,7476.080014,-9474.636058,6052.154434
20555.343712,3034.844362,-8364.327145,1685.410096
20555.344045,444.123565,-10066.800811,-2068.457845
20555.344378,-4219.173869,-12139.377449,-5975.544884
20555.344711,-2960.823768,-11621.233289,-5822.325785
20555.345044,-3552.988522,-8364.327145,0.000000
20555.345377,2294.638420,-10510.924376,-76.609550
20555.345711,1702.473667,-11251.130318,-76.609550
20555.346044,962.267725,-8364.327145,612.876398
20555.346377,4071.132681,-7994.224174,3140.991542
20555.346710,2072.576638,-6809.894666,3140.991542
20555.347043,370.102971,-9178.553681,1685.410096
20555.347376,0.000000,-9400.615463,1685.410096
20555.347709,592.164754,-9548.656652,2451.505594
20555.348043,3182.885551,-8586.388927,4826.401637
20555.348376,2294.638420,-8882.471304,-229.828649
20555.348709,-1332.370696,-7920.203579,-3370.820191
20555.349042,-4145.153275,-9548.656652,-995.924147
20555.349375,-370.102971,-10066.800811,-4673.182538
20555.349708,-2368.659014,-10214.842000,-2528.115143
20555.350041,-3627.009116,-10955.047942,-1915.238745
20555.350375,-1554.432478,-9326.594869,229.828649
20555.350708,0.000000,-8660.409521,4290.134789
20555.351041,4071.132681,-8586.388927,6818.249932
20555.351374,4441.235652,-5699.585753,6205.373534
20555.351707,1554.432478,-7846.182985,4136.915689
20555.352040,2146.597232,-8142.265362,-76.609550
20555.352373,-1332.370696,-9474.636058,-689.485948
20555.352707,-3552.988522,-9844.739029,-919.314598
20555.353040,-4811.338623,-11251.130318,-6052.154434
20555.353373,-7476.080014,-11991.336260,-7354.516781
20555.353706,-4811.338623,-13027.624579,-2528.115143
20555.354039,-74.020594,-10066.800811,1455.581446
20555.354372,3552.988522,-5699.585753,6205.373534
20555.354705,3404.947333,-5699.585753,5822.325785
20555.355039,2960.823768,-7550.100608,4443.353888
20555.355372,5847.626942,-8882.471304,5975.544884
20555.355705,2960.823768,-9548.656652,6665.030833
20555.356038,1702.473667,-8586.388927,-2451.505594
20555.356371,-4737.318029,-11917.315666,-5822.325785
20555.356704,-4145.153275,-11325.150913,-5745.716235
20555.357037,-370.102971,-10140.821405,-2757.943793
20555.357371,2072.576638,-8438.347739,-459.657299
20555.357704,1480.411884,-8364.327145,842.705048
20555.358037,2368.659014,-7179.997637,1762.019645
20555.358370,4663.297435,-7105.977043,2987.772442
20555.358703,5847.626942,-8734.430116,4826.401637
20555.359036,2886.803174,-9178.553681,383.047749
20555.359369,0.000000,-9844.739029,612.876398
20555.359703,-888.247130,-12213.398043,-76.609550
20555.360036,1184.329507,-8660.409521,612.876398
20555.360369,1998.556043,-8734.430116,689.485948
20555.360702,518.144159,-8808.450710,-1455.581446
20555.361035,-592.164754,-9400.615463,-2298.286494
20555.361368,0.000000,-8956.491898,-3370.820191
20555.361701,3478.967927,-10658.965565,-1302.362347
20555.362035,0.000000,-7772.162391,-3447.429741
20555.362368,592.164754,-11843.295072,2987.772442
20555.362701,-74.020594,-11251.130318,2987.772442
20555.363034,2960.823768,-9252.574275,5898.935335
20555.363367,3256.906145,-6661.853478,5822.325785
20555.363700,2886.803174,-7105.977043,3294.210641
20555.364033,814.226536,-7846.182985,229.828649
20555.364367,-888.247130,-10658.965565,-459.657299
20555.364700,-1258.350101,-9178.553681,-5439.278036
20555.365033,-6513.812290,-10732.986159,-2604.724693
20555.365366,-5033.400406,-12435.459826,-2528.115143
20555.365699,-4811.338623,-11843.295072,-3140.991542
20555.366032,-888.247130,-9844.739029,2911.162892
20555.366365,2960.823768,-6809.894666,5362.668486
20555.366699,4367.215058,-5921.647536,6971.469032
20555.367032,1924.535449,-6587.832884,3524.039291
20555.367365,2960.823768,-8956.491898,5439.278036
20555.367698,962.267725,-9474.636058,1455.581446
20555.368031,-370.102971,-9918.759623,-1608.800546
20555.368364,-4515.256246,-11547.212695,-4443.353888
20555.368697,-5995.668130,-10807.006753,-6588.421283
20555.369031,-3256.906145,-10881.027347,-383.047749
20555.369364,-74.020594,-8882.471304,-76.609550
20555.369697,-74.020594,-7994.224174,689.485948
20555.370030,0.000000,-6291.750507,1838.629195
20555.370363,4367.215058,-8882.471304,4519.963438
20555.370696,3552.988522,-6883.915261,4749.792088
20555.371029,2886.803174,-7920.203579,1762.019645
20555.371363,0.000000,-9844.739029,536.266849
20555.371696,-2812.782580,-11917.315666,-2298.286494
20555.372029,0.000000,-9548.656652,306.438199
20555.372362,1702.473667,-8882.471304,-1915.238745
20555.372695,1184.329507,-6587.832884,-2451.505594
20555.373028,0.000000,-9104.533087,612.876398
20555.373361,1184.329507,-8364.327145,-1378.971896
20555.373695,1258.350101,-9474.636058,842.705048
20555.374028,1258.350101,-8364.327145,-612.876398
20555.374361,592.164754,-8660.409521,229.828649
20555.374694,1702.473667,-10658.965565,1149.143247
20555.375027,1480.411884,-9844.739029,4826.401637
20555.375360,4663.297435,-5403.503377,2451.505594
20555.375693,6365.771101,-8586.388927,5439.278036
20555.376027,5847.626942,-9474.636058,2374.896044
20555.376360,1110.308913,-9326.594869,-1838.629195
20555.376693,-222.061783,-11251.130318,-3447.429741
20555.377026,-2442.679609,-11029.068536,-4979.620737
20555.377359,-5551.544565,-12731.542202,-4979.620737
20555.377692,-6291.750507,-10362.883188,-4060.306139
20555.378025,-740.205942,-11843.295072,2374.896044
20555.378359,1480.411884,-4811.338623,3677.258390
20555.378692,4737.318029,-4959.379811,9729.412825
20555.379025,4663.297435,-5329.482782,5132.839837
20555.379358,4367.215058,-6661.853478,3907.087040
20555.379691,3404.947333,-9400.615463,2987.772442
20555.380024,2220.617826,-9696.697840,-76.609550
20555.380357,-3997.112087,-13027.624579,-5822.325785
20555.380691,-7105.977043,-14285.974681,-8580.269578
20555.381024,-4219.173869,-14211.954086,-7048.078582
20555.381357,-2368.659014,-11325.150913,842.705048
20555.381690,1998.556043,-9326.594869,4213.525239
20555.382023,518.144159,-4811.338623,1838.629195
20555.382356,1998.556043,-5699.585753,4903.011187
20555.382689,2812.782580,-5995.668130,5898.935335
20555.383023,1554.432478,-6291.750507,2911.162892
20555.383356,-1924.535449,-8364.327145,689.485948
20555.383689,-4737.318029,-9548.656652,-2451.505594
20555.384022,-1258.350101,-9326.594869,-2451.505594
20555.384355,-222.061783,-10288.862594,-612.876398
20555.384688,0.000000,-8808.450710,-1532.190996
20555.385021,-2146.597232,-11251.130318,-2911.162892
20555.385355,-3552.988522,-9548.656652,-4290.134789
20555.385688,-74.020594,-11843.295072,-689.485948
20555.386021,518.144159,-6291.750507,0.000000
20555.386354,1332.370696,-8808.450710,2987.772442
20555.386687,1702.473667,-8882.471304,2374.896044
20555.387020,1776.494261,-7179.997637,3983.696590
20555.387353,5403.503377,-7476.080014,6435.202183
20555.387687,5847.626942,-6661.853478,4213.525239
20555.388020,2664.741391,-8882.471304,1149.143247
20555.388353,444.123565,-11177.109724,-1915.238745
20555.388686,1110.308913,-11251.130318,-4979.620737
20555.389019,-592.164754,-11325.150913,-4903.011187
20555.389352,-1184.329507,-12731.542202,-2528.115143
20555.389685,-4811.338623,-11843.295072,-5209.449386
20555.390019,-2368.659014,-12139.377449,-383.047749
20555.390352,2368.659014,-8882.471304,5132.839837
20555.390685,5625.565159,-5033.400406,7660.954980
20555.391018,5477.523971,-4811.338623,7048.078582
20555.391351,5255.462188,-5921.647536,4213.525239
20555.391684,4367.215058,-4811.338623,1225.752797
20555.392017,4663.297435,-9474.636058,-76.609550
20555.392351,-1258.350101,-11843.295072,-5286.058936
20555.392684,-7698.141797,-12213.398043,-7354.516781
20555.393017,-5403.503377,-13619.789333,-7048.078582
20555.393350,-2664.741391,-11325.150913,-2451.505594
20555.393683,-666.185348,-8808.450710,229.828649
20555.394016,2146.597232,-5921.647536,1532.190996
20555.394349,2368.659014,-6291.750507,4903.011187
20555.394683,4441.235652,-7105.977043,7890.783629
20555.395016,4071.132681,-6439.791695,2757.943793
20555.395349,0.000000,-8364.327145,2604.724693
20555.395682,-74.020594,-11843.295072,-76.609550
20555.396015,-3330.926739,-9548.656652,-3370.820191
20555.396348,-2368.659014,-11473.192101,-1225.752797
20555.396681,-1258.350101,-9178.553681,-1072.533697
20555.397015,-1406.391290,-9104.533087,-842.705048
20555.397348,-1554.432478,-10066.800811,-995.924147
20555.397681,-2368.659014,-10140.821405,689.485948
20555.398014,-74.020594,-11843.295072,-76.609550
20555.398347,-1924.535449,-5995.668130,1378.971896
20555.398680,-518.144159,-9326.594869,3600.648841
20555.399013,-1184.329507,-7772.162391,1838.629195
20555.399347,2220.617826,-8882.471304,4213.525239
20555.399680,3256.906145,-6883.915261,3677.258390
20555.400013,2294.638420,-7031.956449,1378.971896
20555.400346,1110.308913,-10658.965565,-689.485948
20555.400679,-222.061783,-10288.862594,-2068.457845
20555.401012,-2886.803174,-12065.356855,-2528.115143
20555.401345,-2664.741391,-10288.862594,-4290.134789
20555.401679,-5625.565159,-12065.356855,-4749.792088
20555.402012,-1258.350101,-11843.295072,-995.924147
20555.402345,0.000000,-7179.997637,4903.011187
20555.402678,6439.791695,-7624.121203,7584.345430
20555.403011,7031.956449,-4737.318029,4213.525239
20555.403344,3552.988522,-6143.709319,4903.011187
20555.403677,5847.626942,-7624.121203,1685.410096
20555.404011,3849.070898,-8956.491898,1378.971896
20555.404344,296.082377,-11029.068536,-3600.648841
20555.404677,-4071.132681,-12361.439231,-7354.516781
20555.405010,-6809.894666,-13693.809927,-5515.887586
20555.405343,-370.102971,-12435.459826,-689.485948
20555.405676,1702.473667,-10658.965565,-76.609550
20555.406009,666.185348,-5995.668130,2604.724693
20555.406343,1184.329507,-5403.503377,4903.011187
20555.406676,5403.503377,-3034.844362,4903.011187
20555.407009,7031.956449,-7105.977043,6281.983084
20555.407342,4219.173869,-8142.265362,3753.867940
20555.407675,-1184.329507,-9696.697840,-1991.848295
20555.408008,-5477.523971,-12509.480420,-4903.011187
20555.408341,-2368.659014,-13989.892304,-689.485948
20555.408675,-222.061783,-9104.533087,-2987.772442
20555.409008,1110.308913,-7179.997637,-2451.505594
20555.409341,222.061783,-10658.965565,-689.485948
20555.409674,-2368.659014,-8660.409521,-919.314598
20555.410007,1480.411884,-8956.491898,689.485948
20555.410340,1480.411884,-7550.100608,3140.991542
20555.410673,-592.164754,-7772.162391,1685.410096
20555.411007,-592.164754,-10140.821405,2145.067394
20555.411340,2294.638420,-13027.624579,3600.648841
20555.411673,1332.370696,-7179.997637,3064.381992
20555.412006,3256.906145,-8290.306550,4903.011187
20555.412339,1110.308913,-10658.965565,-76.609550
20555.412672,-3552.988522,-9548.656652,-2451.505594
20555.413005,-3182.885551,-10510.924376,-3907.087040
20555.413339,-3034.844362,-10584.944971,-3294.210641
20555.413671,-5551.544565,-10066.800811,-3370.820191
20555.414004,-3775.050304,-10288.862594,-1838.629195
20555.414337,-370.102971,-9918.759623,2987.772442
20555.414670,2886.803174,-6291.750507,5515.887586
20555.415003,4367.215058,-5625.565159,4903.011187
20555.415336,2590.720797,-5921.647536,2374.896044
20555.415669,370.102971,-6291.750507,1532.190996
20555.416002,2812.782580,-11547.212695,2374.896044
20555.416335,-370.102971,-11029.068536,-1225.752797
20555.416668,-4811.338623,-10584.944971,-7967.393179
20555.417001,-7031.956449,-11917.315666,-5592.497135
20555.417334,-4145.153275,-12879.583391,-1455.581446
20555.417667,1036.288319,-8142.265362,536.266849
20555.418000,2738.761985,-5995.668130,4290.134789
20555.418333,2368.659014,-5403.503377,4903.011187
20555.418666,5255.462188,-6809.894666,2451.505594
20555.418999,5329.482782,-9474.636058,4213.525239
20555.419332,3775.050304,-10066.800811,995.924147
20555.419665,0.000000,-8364.327145,-1838.629195
20555.419998,-2220.617826,-11621.233289,-3677.258390
20555.420331,-1924.535449,-12583.501014,-2604.724693
20555.420664,1258.350101,-10288.862594,-612.876398
20555.420997,2368.659014,-8882.471304,2068.457845
20555.421330,4071.132681,-9326.594869,1762.019645
20555.421663,-1480.411884,-6587.832884,-2145.067394
20555.421996,2294.638420,-11251.130318,-689.485948
20555.422329,1554.432478,-6291.750507,0.000000
20555.422662,2442.679609,-8882.471304,2374.896044
20555.422995,1702.473667,-9474.636058,459.657299
20555.423328,1184.329507,-11473.192101,2374.896044
20555.423661,3404.947333,-9474.636058,3447.429741
20555.423994,3997.112087,-8956.491898,3370.820191
20555.424327,1998.556043,-9474.636058,153.219100
20555.424660,0.000000,-8364.327145,-842.705048
20555.424993,-370.102971,-8956.491898,-3064.381992
20555.425326,0.000000,-5995.668130,-2451.505594
20555.425659,-2590.720797,-11547.212695,-2528.115143
20555.425992,-4219.173869,-10066.800811,-3753.867940
20555.426325,-2442.679609,-10658.965565,-76.609550
20555.426658,666.185348,-8660.409521,3983.696590
20555.426991,4145.153275,-5033.400406,5669.106685
20555.427324,2516.700203,-6735.874072,4443.353888
20555.427657,3478.967927,-8882.471304,3600.648841
20555.427990,518.144159,-7179.997637,612.876398
20555.428323,962.267725,-11843.295072,-76.609550
20555.428656,-2442.679609,-10066.800811,-5592.497135
20555.428989,-8068.244768,-12361.439231,-7124.688131
20555.429322,-4441.235652,-12583.501014,-4366.744339
20555.429655,-3923.091493,-10807.006753,-842.705048
20555.429988,592.164754,-7772.162391,4673.182538
20555.430321,2368.659014,-4885.359217,6052.154434
20555.430654,4367.215058,-5921.647536,5439.278036
20555.430987,4959.379811,-7105.977043,4826.401637
20555.431320,3034.844362,-8438.347739,4290.134789
20555.431653,666.185348,-8364.327145,612.876398
20555.431986,-4737.318029,-10140.821405,-3370.820191
20555.432319,-3034.844362,-13915.871710,-6205.373534
20555.432652,-4441.235652,-9548.656652,-6128.763984
20555.432985,0.000000,-10881.027347,-76.609550
20555.433318,1406.391290,-8808.450710,-612.876398
20555.433651,370.102971,-7402.059420,-2145.067394
20555.433984,2294.638420,-9178.553681,2374.896044
20555.434317,3256.906145,-8364.327145,3907.087040
20555.434650,3775.050304,-6883.915261,3447.429741
20555.434983,4071.132681,-11251.130318,3600.648841
20555.435316,-74.020594,-9030.512492,-2451.505594
20555.435649,1184.329507,-9696.697840,3370.820191
20555.435982,4663.297435,-11843.295072,4826.401637
20555.436315,1998.556043,-6883.915261,0.000000
20555.436648,-2368.659014,-7179.997637,-4903.011187
20555.436981,-1258.350101,-11251.130318,-4366.744339
20555.437314,-1184.329507,-9992.780217,-2451.505594
20555.437647,-2146.597232,-9474.636058,-2911.162892
20555.437980,-2146.597232,-11251.130318,-1302.362347
20555.438313,-3256.906145,-9548.656652,1762.019645
20555.438646,2294.638420,-6587.832884,1378.971896
20555.438979,5625.565159,-6735.874072,8197.221829
20555.439312,7031.956449,-8290.306550,6052.154434
20555.439645,4737.318029,-6883.915261,3064.381992
20555.439978,3923.091493,-8142.265362,1455.581446
20555.440310,2442.679609,-10807.006753,-1378.971896
20555.440643,-1036.288319,-10807.006753,-4443.353888
20555.440976,-5107.421000,-12435.459826,-6818.249932
20555.441309,-5329.482782,-13323.706956,-4979.620737
20555.441642,-5921.647536,-10732.986159,-4290.134789
20555.441975,-1776.494261,-8364.327145,2604.724693
20555.442308,3182.885551,-7105.977043,7277.907231
20555.442641,3478.967927,-4737.318029,6052.154434
20555.442974,3034.844362,-4071.132681,4903.011187
20555.443307,4071.132681,-7624.121203,5132.839837
20555.443640,1776.494261,-6587.832884,1838.629195
20555.443973,-4737.318029,-10140.821405,-3370.820191
20555.444306,-4811.338623,-13619.789333,-7431.126331
20555.444639,-6513.812290,-12509.480420,-3983.696590
20555.444972,-4145.153275,-10732.986159,0.000000
20555.445305,2146.597232,-9474.636058,-689.485948
20555.445638,-1258.350101,-8290.306550,-2528.115143
20555.445971,-370.102971,-7846.182985,0.000000
20555.446304,3923.091493,-7994.224174,4213.525239
20555.446637,4145.153275,-5995.668130,6128.763984
20555.446970,592.164754,-5995.668130,1838.629195
20555.447303,-74.020594,-9474.636058,-689.485948
20555.447636,814.226536,-9622.677246,842.705048
20555.447969,1480.411884,-9844.739029,2451.505594
20555.448302,2738.761985,-8808.450710,766.095498
20555.448635,-2368.659014,-7772.162391,-3983.696590
20555.448968,-1258.350101,-11251.130318,-3753.867940
20555.449301,-74.020594,-8438.347739,-4903.011187
20555.449634,-1776.494261,-10436.903782,-1149.143247
20555.449967,-74.020594,-11843.295072,-383.047749
20555.450300,-3775.050304,-9548.656652,0.000000
20555.450633,518.144159,-8586.388927,2681.334243
20555.450966,4367.215058,-6291.750507,6435.202183
20555.451299,5773.606348,-5329.482782,6205.373534
20555.451632,5625.565159,-6735.874072,4903.011187
20555.451965,4071.132681,-8216.285956,76.609550
20555.452298,1776.494261,-10732.986159,0.000000
20555.452631,-962.267725,-13027.624579,-3140.991542
20555.452964,-5107.421000,-13027.624579,-6665.030833
20555.453297,-6809.894666,-11621.233289,-4903.011187
20555.453630,-4589.276840,-11621.233289,-2451.505594
20555.453963,-1036.288319,-9400.615463,2068.457845
20555.454296,2442.679609,-5995.668130,5515.887586
20555.454629,4663.297435,-5921.647536,7584.345430
20555.454962,5847.626942,-3552.988522,3753.867940
20555.455295,2960.823768,-7772.162391,6128.763984
20555.455628,7031.956449,-9474.636058,4213.525239
20555.455961,-222.061783,-10140.821405,-2451.505594
20555.456294,-2442.679609,-14211.954086,-5898.935335
20555.456627,-5329.482782,-13619.789333,-7354.516781
20555.456960,-3478.967927,-12805.562797,-3907.087040
20555.457293,1110.308913,-9104.533087,-766.095498
20555.457626,740.205942,-7179.997637,919.314598
20555.457959,0.000000,-6587.832884,0.000000
20555.458292,3775.050304,-9474.636058,4826.401637
20555.458625,2590.720797,-4811.338623,3677.258390
20555.458958,0.000000,-4811.338623,3677.258390
20555.459291,-74.020594,-10658.965565,-76.609550
20555.459624,-1776.494261,-9474.636058,0.000000
20555.459957,-592.164754,-10881.027347,459.657299
20555.460290,888.247130,-9918.759623,0.000000
20555.460623,-962.267725,-7920.203579,-1608.800546
20555.460956,-1998.556043,-9548.656652,-2451.505594
20555.461289,-444.123565,-10584.944971,-1608.800546
20555.461622,-1110.308913,-9844.739029,-1532.190996
20555.461955,-1332.370696,-9918.759623,-612.876398
20555.462288,-666.185348,-11843.295072,-76.609550
20555.462621,-74.020594,-7698.141797,1225.752797
20555.462954,4145.153275,-8882.471304,8503.660028
20555.463287,6735.874072,-5921.647536,5286.058936
20555.463620,5625.565159,-4811.338623,4903.011187
20555.463953,2294.638420,-9178.553681,1762.019645
20555.464286,1480.411884,-9548.656652,-1225.752797
20555.464619,-2516.700203,-12435.459826,-3217.601092
20555.464952,-2442.679609,-10658.965565,-5592.497135
20555.465285,-5329.482782,-11029.068536,-4596.572988
20555.465618,-5107.421000,-9548.656652,-4903.011187
20555.465951,-592.164754,-10807.006753,1762.019645
20555.466284,3108.864956,-8808.450710,6052.154434
20555.466617,7031.956449,-4737.318029,8197.221829
20555.466949,4663.297435,-5921.647536,6358.592633
20555.467282,5255.462188,-6439.791695,4136.915689
20555.467615,5181.441594,-7031.956449,3524.039291
20555.467948,1924.535449,-9104.533087,76.609550
20555.468281,-74.020594,-12139.377449,-2528.115143
20555.468614,-7994.224174,-14434.015869,-5515.887586
20555.468947,-2442.679609,-14211.954086,-7431.126331
20555.469280,-2886.803174,-10140.821405,-2451.505594
20555.469613,1332.370696,-6587.832884,612.876398
20555.469946,1702.473667,-7254.018232,612.876398
20555.470279,3552.988522,-6883.915261,4290.134789
20555.470612,5699.585753,-7179.997637,6894.859482
20555.470945,3923.091493,-6143.709319,5439.278036
20555.471278,2294.638420,-9474.636058,1762.019645
20555.471611,0.000000,-10658.965565,-76.609550
20555.471944,-74.020594,-14211.954086,-689.485948
20555.472277,0.000000,-9548.656652,1225.752797
20555.472610,0.000000,-10955.047942,-229.828649
20555.472943,-3404.947333,-8364.327145,-3677.258390
20555.473276,-1850.514855,-10066.800811,-2911.162892
20555.473609,-3108.864956,-10955.047942,-1302.362347
20555.473942,-2590.720797,-7846.182985,-689.485948
20555.474275,-5921.647536,-7179.997637,0.000000
20555.474608,-74.020594,-9474.636058,1762.019645
20555.474941,296.082377,-6587.832884,5515.887586
20555.475274,5033.400406,-8808.450710,9422.974625
20555.475607,4663.297435,-6809.894666,3370.820191
20555.475940,0.000000,-7772.162391,612.876398
20555.476273,962.267725,-10955.047942,-2374.896044
20555.476606,-1332.370696,-11399.171507,-2221.676944
20555.476939,-2812.782580,-10881.027347,-3677.258390
20555.477272,-4663.297435,-9548.656652,-5515.887586
20555.477605,-4071.132681,-11695.253884,-3907.087040
20555.477938,-1998.556043,-10658.965565,536.266849
20555.478271,2072.576638,-7772.162391,5592.497135
20555.478604,5847.626942,-6513.812290,7277.907231
20555.478937,3182.885551,-3034.844362,4903.011187
20555.479270,2960.823768,-7179.997637,5515.887586
20555.479603,7031.956449,-6809.894666,536.266849
20555.479936,1184.329507,-10140.821405,153.219100
20555.480269,-592.164754,-11325.150913,-2528.115143
20555.480602,-4959.379811,-13767.830521,-7201.297681
20555.480935,-4885.359217,-15100.201217,-5669.106685
20555.481268,222.061783,-10807.006753,-536.266849
20555.481601,-592.164754,-7846.182985,1149.143247
20555.481934,2590.720797,-3034.844362,1225.752797
20555.482267,3849.070898,-7698.141797,5439.278036
20555.482600,7031.956449,-8290.306550,6052.154434
20555.482933,5255.462188,-4367.215058,3677.258390
20555.483266,518.144159,-9474.636058,-76.609550
20555.483599,0.000000,-9548.656652,-1915.238745
20555.483932,-1924.535449,-12731.542202,-1762.019645
20555.484265,962.267725,-11473.192101,-1838.629195
20555.484598,-1184.329507,-9548.656652,-1532.190996
20555.484931,-1258.350101,-8660.409521,-2451.505594
20555.485264,1998.556043,-11843.295072,-689.485948
20555.485597,-962.267725,-8660.409521,-1225.752797
20555.485930,-2368.659014,-7179.997637,612.876398
20555.486263,-1628.453072,-8364.327145,995.924147
20555.486596,518.144159,-8290.306550,1762.019645
20555.486929,592.164754,-7920.203579,3830.477490
20555.487262,2516.700203,-8660.409521,4596.572988
20555.487595,5847.626942,-7105.977043,4826.401637
20555.487928,0.000000,-8364.327145,2604.724693
20555.488261,518.144159,-9474.636058,-2528.115143
20555.488594,-2664.741391,-10140.821405,-2911.162892
20555.488927,-2072.576638,-11473.192101,-2451.505594
20555.489260,-1628.453072,-10658.965565,-2757.943793
20555.489593,-5107.421000,-11399.171507,-3524.039291
20555.489926,-4737.318029,-10881.027347,-1149.143247
20555.490259,-1998.556043,-8438.347739,2604.724693
20555.490592,814.226536,-5329.482782,4213.525239
20555.490925,3478.967927,-5329.482782,6052.154434
20555.491258,592.164754,-4811.338623,4290.134789
20555.491591,7031.956449,-8290.306550,7277.907231
20555.491924,2590.720797,-6735.874072,612.876398
20555.492257,-74.020594,-10732.986159,-2145.067394
20555.492590,-6883.915261,-13471.748144,-7431.126331
20555.492923,-7624.121203,-14656.077652,-8273.831378
20555.493256,-2368.659014,-12213.398043,-2068.457845
20555.493589,1110.308913,-7550.100608,0.000000
20555.493921,2294.638420,-8734.430116,2374.896044
20555.494254,2368.659014,-5699.585753,2681.334243
20555.494587,4441.235652,-7254.018232,4749.792088
20555.494920,5033.400406,-5847.626942,5592.497135
20555.495253,3182.885551,-8290.306550,2068.457845
20555.495586,740.205942,-9474.636058,2374.896044
20555.495919,-74.020594,-10658.965565,-3140.991542
20555.496252,888.247130,-11621.233289,995.924147
20555.496585,1184.329507,-8956.491898,0.000000
20555.496918,-74.020594,-10214.842000,-3294.210641
20555.497251,-1258.350101,-9474.636058,-2987.772442
20555.497584,-666.185348,-10807.006753,-2068.457845
20555.497917,1480.411884,-9030.512492,995.924147
20555.498250,0.000000,-6587.832884,0.000000
20555.498583,2294.638420,-9474.636058,1762.019645
20555.498916,-1628.453072,-8364.327145,0.000000
20555.499249,2960.823768,-11547.212695,5745.716235
20555.499582,5847.626942,-8142.265362,5439.278036
20555.499915,3108.864956,-5995.668130,3983.696590
20555.500248,2812.782580,-8882.471304,-76.609550
20555.500581,-1702.473667,-10658.965565,-2528.115143
20555.500914,-740.205942,-10510.924376,-3447.429741
20555.501247,-2368.659014,-10732.986159,-2757.943793
20555.501580,-2442.679609,-13027.624579,-5286.058936
20555.501913,-7105.977043,-11325.150913,-2757.943793
20555.502246,-74.020594,-14211.954086,2374.896044
20555.502579,1628.453072,-4811.338623,6128.763984
20555.502912,4145.153275,-6883.915261,9116.536426
20555.503245,4293.194464,-5107.421000,6741.640382
20555.503578,3552.988522,-7105.977043,5362.668486
20555.503911,2368.659014,-7698.141797,2221.676944
20555.504244,1702.473667,-9474.636058,-689.485948
20555.504577,-5181.441594,-9548.656652,-7507.735880
20555.504910,-7698.141797,-14137.933492,-5286.058936
20555.505243,-4811.338623,-13027.624579,-4979.620737
20555.505576,-1258.350101,-8956.491898,-4136.915689
20555.505909,0.000000,-8512.368333,2374.896044
20555.506242,3034.844362,-6291.750507,3064.381992
20555.506575,3478.967927,-7179.997637,4290.134789
20555.506908,6069.688724,-7105.977043,5362.668486
20555.507241,5551.544565,-7698.141797,6052.154434
20555.507574,5107.421000,-6735.874072,3064.381992
20555.507907,3182.885551,-9400.615463,1455.581446
20555.508240,2738.761985,-11251.130318,-995.924147
20555.508573,0.000000,-10732.986159,-2451.505594
20555.508906,0.000000,-11029.068536,-689.485948
20555.509239,-74.020594,-8882.471304,-4903.011187
20555.509572,-2368.659014,-9548.656652,-4290.134789
20555.509905,0.000000,-10362.883188,-76.609550
20555.510238,0.000000,-7179.997637,0.000000
20555.510571,-592.164754,-8586.388927,2911.162892
20555.510904,-370.102971,-5847.626942,2911.162892
20555.511237,1480.411884,-8512.368333,4903.011187
20555.511570,5477.523971,-7698.141797,7890.783629
20555.511903,2886.803174,-5477.523971,3600.648841
20555.512236,-74.020594,-7179.997637,-3677.258390
20555.512569,-2960.823768,-11029.068536,-3140.991542
20555.512902,-666.185348,-14804.118840,-2834.553343
20555.513235,-2664.741391,-10584.944971,-3524.039291
20555.513568,-3849.070898,-11547.212695,-3447.429741
20555.513901,-5699.585753,-11251.130318,-3753.867940
20555.514234,-2146.597232,-11029.068536,1608.800546
20555.514567,3182.885551,-7105.977043,7277.907231
20555.514900,3552.988522,-4811.338623,10878.556072
20555.515233,1776.494261,-4811.338623,5515.887586
20555.515566,2886.803174,-8290.306550,2987.772442
20555.515899,222.061783,-7179.997637,0.000000
20555.516232,-666.185348,-10066.800811,-1915.238745
20555.516566,-3923.091493,-11843.295072,-6205.373534
20555.516899,-7254.018232,-13841.851115,-7890.783629
20555.517232,-6883.915261,-13471.748144,-5975.544884
20555.517565,-2590.720797,-10955.047942,-536.266849
20555.517898,1702.473667,-11843.295072,4519.963438
20555.518231,1184.329507,-4219.173869,6741.640382
20555.518564,592.164754,-5403.503377,7660.954980
20555.518897,5847.626942,-4589.276840,4749.792088
20555.519230,2960.823768,-5995.668130,5515.887586
20555.519563,1702.473667,-7698.141797,153.219100
20555.519896,-1702.473667,-10362.883188,-2374.896044
20555.520229,-2886.803174,-12805.562797,-4366.744339
20555.520562,-1702.473667,-13027.624579,-2681.334243
20555.520896,518.144159,-10066.800811,-2528.115143
20555.521229,0.000000,-9548.656652,919.314598
20555.521562,962.267725,-8882.471304,-76.609550
20555.521895,4071.132681,-8290.306550,-76.609550
20555.522228,2368.659014,-6587.832884,2451.505594
20555.522561,3478.967927,-6513.812290,2834.553343
20555.522894,370.102971,-8290.306550,766.095498
20555.523227,592.164754,-9400.615463,842.705048
20555.523560,4811.338623,-9474.636058,3600.648841
20555.523893,5847.626942,-7698.141797,2145.067394
20555.524226,4663.297435,-7476.080014,0.000000
20555.524559,-370.102971,-10658.965565,-4366.744339
20555.524892,0.000000,-11621.233289,-4290.134789
20555.525226,888.247130,-11917.315666,-919.314598
20555.525559,-74.020594,-10362.883188,-3294.210641
20555.525892,-3404.947333,-8364.327145,-4903.011187
20555.526225,-1776.494261,-11621.233289,2374.896044
20555.526558,3775.050304,-7550.100608,4366.744339
20555.526891,1924.535449,-5403.503377,7354.516781
20555.527224,3849.070898,-5921.647536,5209.449386
20555.527557,2368.659014,-6291.750507,2757.943793
20555.527890,296.082377,-9400.615463,766.095498
20555.528223,3478.967927,-9474.636058,-76.609550
20555.528556,-1850.514855,-11695.253884,-4366.744339
20555.528889,-5921.647536,-13101.645173,-4979.620737
20555.529222,-5995.668130,-14211.954086,-4979.620737
20555.529556,-5477.523971,-11621.233289,-2757.943793
20555.529889,-74.020594,-10140.821405,3524.039291
20555.530222,0.000000,-6587.832884,3677.258390
20555.530555,1628.453072,-5625.565159,4136.915689
20555.530888,2072.576638,-5551.544565,4903.011187
20555.531221,1628.453072,-5995.668130,3983.696590
20555.531554,1998.556043,-6291.750507,0.000000
20555.531887,-2368.659014,-11473.192101,2068.457845
20555.532220,-4219.173869,-10140.821405,-4596.572988
20555.532553,-6513.812290,-11029.068536,-2145.067394
20555.532886,-1406.391290,-11547.212695,-689.485948
20555.533219,-1184.329507,-8438.347739,1149.143247
20555.533552,-962.267725,-6883.915261,-153.219100
20555.533886,-666.185348,-7698.141797,-306.438199
20555.534219,0.000000,-8956.491898,1838.629195
20555.534552,-592.164754,-5995.668130,612.876398
20555.534885,-74.020594,-10510.924376,2374.896044
20555.535218,-2442.679609,-9992.780217,-2298.286494
20555.535551,2664.741391,-10066.800811,2451.505594
20555.535884,1184.329507,-8364.327145,3064.381992
20555.536217,5847.626942,-6957.935855,3294.210641
20555.536550,518.144159,-8290.306550,-459.657299
20555.536883,-222.061783,-10214.842000,-3294.210641
20555.537216,1998.556043,-11843.295072,-1302.362347
20555.537549,-3552.988522,-10732.986159,-689.485948
20555.537882,-1258.350101,-8142.265362,-4903.011187
20555.538216,-4737.318029,-9548.656652,0.000000
20555.538549,7031.956449,-8882.471304,2374.896044
20555.538882,5329.482782,-8364.327145,4290.134789
20555.539215,7031.956449,-7105.977043,5132.839837
20555.539548,5699.585753,-6439.791695,2528.115143
20555.539881,5699.585753,-9178.553681,2911.162892
20555.540214,9400.615463,-9918.759623,2068.457845
20555.540547,888.247130,-11473.192101,-1455.581446
20555.540880,-1110.308913,-11177.109724,-5362.668486
20555.541213,-4219.173869,-13545.768739,-5745.716235
20555.541546,-1258.350101,-11399.171507,-2757.943793
20555.541879,2294.638420,-9474.636058,1149.143247
20555.542213,3552.988522,-4811.338623,0.000000
20555.542546,5921.647536,-6587.832884,6818.249932
20555.542879,5551.544565,-5699.585753,2451.505594
20555.543212,5329.482782,-6291.750507,4290.134789
20555.543545,6735.874072,-9178.553681,2374.896044
20555.543878,3108.864956,-10510.924376,383.047749
20555.544211,-444.123565,-12435.459826,-3447.429741
20555.544544,-3182.885551,-12953.603985,-5515.887586
20555.544877,-74.020594,-12435.459826,-1915.238745
20555.545210,0.000000,-11029.068536,2374.896044
20555.545543,1110.308913,-9474.636058,2374.896044
20555.545876,-1258.350101,-7105.977043,0.000000
20555.546209,0.000000,-8956.491898,3983.696590
20555.546543,1110.308913,-5329.482782,2451.505594
20555.546876,-1998.556043,-7328.038826,2451.505594
20555.547209,-5625.565159,-9252.574275,-536.266849
20555.547542,-3701.029710,-8882.471304,995.924147
20555.547875,-4145.153275,-10140.821405,1838.629195
20555.548208,0.000000,-8882.471304,4826.401637
20555.548541,-4885.359217,-7772.162391,-2451.505594
20555.548874,-5403.503377,-8364.327145,-6741.640382
20555.549207,-4145.153275,-11843.295072,-1302.362347
20555.549540,-6513.812290,-9548.656652,-1838.629195
20555.549873,-4663.297435,-8068.244768,-1378.971896
20555.550206,-6439.791695,-9770.718434,-459.657299
20555.550539,-2146.597232,-8660.409521,1991.848295
20555.550873,1776.494261,-8068.244768,8580.269578
20555.551206,4663.297435,-8290.306550,6052.154434
20555.551539,666.185348,-4811.338623,3064.381992
20555.551872,0.000000,-8512.368333,2374.896044
20555.552205,2294.638420,-10658.965565,-2528.115143
20555.552538,-4145.153275,-9844.739029,-3064.381992
20555.552871,-3775.050304,-11769.274478,-5975.544884
20555.553204,-5921.647536,-11325.150913,-6435.202183
20555.553537,-2146.597232,-11769.274478,-2987.772442
20555.553870,1776.494261,-10510.924376,1838.629195
20555.554203,6143.709319,-6365.771101,4213.525239
20555.554536,7105.977043,-5699.585753,6358.592633
20555.554869,4811.338623,-7920.203579,4213.525239
20555.555203,8216.285956,-4737.318029,3294.210641
20555.555536,4737.318029,-7179.997637,3064.381992
20555.555869,6217.729913,-8290.306550,995.924147
20555.556202,0.000000,-10066.800811,-5592.497135
20555.556535,-1776.494261,-13841.851115,-4060.306139
20555.556868,2294.638420,-12731.542202,-3140.991542
20555.557201,1776.494261,-10732.986159,306.438199
20555.557534,5033.400406,-7994.224174,1532.190996
20555.557867,1332.370696,-7402.059420,0.000000
20555.558200,5329.482782,-6587.832884,1838.629195
20555.558533,7031.956449,-7179.997637,2451.505594
20555.558866,7328.038826,-9474.636058,4213.525239
20555.559199,1110.308913,-8956.491898,-1838.629195
20555.559533,-1184.329507,-10140.821405,0.000000
20555.559866,2368.659014,-10732.986159,1608.800546
20555.560199,3849.070898,-9844.739029,3600.648841
20555.560532,2738.761985,-9178.553681,-689.485948
20555.560865,-814.226536,-10584.944971,-2911.162892
20555.561198,-370.102971,-13027.624579,-1302.362347
20555.561531,-2294.638420,-8364.327145,-2451.505594
20555.561864,-3034.844362,-9474.636058,-2528.115143
20555.562197,-5551.544565,-7772.162391,-1838.629195
20555.562530,-2442.679609,-9474.636058,1149.143247
20555.562863,-666.185348,-9474.636058,5209.449386
20555.563196,740.205942,-8216.285956,7277.907231
20555.563529,592.164754,-5847.626942,5745.716235
20555.563863,-2072.576638,-8216.285956,2221.676944
20555.564196,-1406.391290,-7846.182985,-76.609550
20555.564529,-4737.318029,-11325.150913,-76.609550
20555.564862,-4959.379811,-7179.997637,-4903.011187
20555.565195,-10362.883188,-10140.821405,-4903.011187
20555.565528,-7772.162391,-13619.789333,-4979.620737
20555.565861,-5403.503377,-11547.212695,-1608.800546
20555.566194,-2738.761985,-10066.800811,2987.772442
20555.566527,2072.576638,-5403.503377,6128.763984
20555.566860,518.144159,-6513.812290,5132.839837
20555.567193,1480.411884,-7254.018232,4366.744339
20555.567526,3478.967927,-9474.636058,4826.401637
20555.567859,0.000000,-7179.997637,2451.505594
20555.568193,-962.267725,-9474.636058,-76.609550
20555.568526,-5403.503377,-12435.459826,-6818.249932
20555.568859,-4737.318029,-9844.739029,-5362.668486
20555.569192,-1258.350101,-11843.295072,-689.485948
20555.569525,1702.473667,-7920.203579,383.047749
20555.569858,0.000000,-7624.121203,229.828649
20555.570191,1554.432478,-7846.182985,0.000000
20555.570524,6143.709319,-9178.553681,2834.553343
20555.570857,3701.029710,-8142.265362,3600.648841
20555.571190,2590.720797,-8882.471304,229.828649
20555.571523,3478.967927,-11843.295072,1149.143247
20555.571856,1332.370696,-9844.739029,1225.752797
20555.572189,8216.285956,-9474.636058,2834.553343
20555.572523,3552.988522,-7179.997637,0.000000
20555.572856,4663.297435,-11251.130318,-76.609550
20555.573189,2220.617826,-9326.594869,-2911.162892
20555.573522,1998.556043,-9252.574275,-3677.258390
20555.573855,814.226536,-9030.512492,-2681.334243
20555.574188,592.164754,-9918.759623,-2451.505594
20555.574521,2590.720797,-9474.636058,153.219100
20555.574854,4737.318029,-9696.697840,4826.401637
20555.575187,8808.450710,-10658.965565,4826.401637
20555.575520,5921.647536,-7179.997637,6741.640382
20555.575853,5921.647536,-10732.986159,6052.154434
20555.576186,6143.709319,-7105.977043,383.047749
20555.576519,592.164754,-9548.656652,0.000000
20555.576853,814.226536,-9844.739029,-4290.134789
20555.577186,-2368.659014,-10436.903782,-4673.182538
20555.577519,-6217.729913,-12509.480420,-5898.935335
20555.577852,-2442.679609,-9474.636058,-2528.115143
20555.578185,-74.020594,-13027.624579,-76.609550
20555.578518,2368.659014,-4811.338623,7354.516781
20555.578851,3627.009116,-6809.894666,7277.907231
20555.579184,4663.297435,-5921.647536,1532.190996
20555.579517,6439.791695,-8290.306550,6052.154434
20555.579850,2146.597232,-9992.780217,2374.896044
20555.580183,888.247130,-8808.450710,-536.266849
20555.580516,-8290.306550,-12805.562797,-6741.640382
20555.580849,-5329.482782,-11917.315666,-7048.078582
20555.581183,-3627.009116,-12435.459826,-2145.067394
20555.581516,-2368.659014,-8364.327145,1838.629195
20555.581849,-74.020594,-7994.224174,2374.896044
20555.582182,-3552.988522,-4811.338623,0.000000
20555.582515,2072.576638,-5921.647536,4213.525239
20555.582848,0.000000,-7179.997637,4903.011187
20555.583181,-666.185348,-7031.956449,0.000000
20555.583514,-5107.421000,-9844.739029,-1608.800546
20555.583847,-2960.823768,-10881.027347,-612.876398
20555.584180,-2368.659014,-9548.656652,1225.752797
20555.584513,-74.020594,-9474.636058,-76.609550
20555.584846,-1850.514855,-10658.965565,-3140.991542
20555.585179,-7105.977043,-10140.821405,-3677.258390
20555.585513,-1998.556043,-10362.883188,-1915.238745
20555.585846,-3552.988522,-9252.574275,76.609550
20555.586179,-1924.535449,-7476.080014,1838.629195
20555.586512,-2960.823768,-7624.121203,1685.410096
20555.586845,1480.411884,-8734.430116,4903.011187
20555.587178,1258.350101,-8068.244768,5822.325785
20555.587511,4663.297435,-6809.894666,5286.058936
20555.587844,1776.494261,-8364.327145,1838.629195
20555.588177,1036.288319,-9030.512492,-2298.286494
20555.588510,0.000000,-11029.068536,-3064.381992
20555.588843,222.061783,-9474.636058,-4366.744339
20555.589176,-2368.659014,-10881.027347,-1991.848295
20555.589510,-2738.761985,-11843.295072,-3753.867940
20555.589843,-1258.350101,-11843.295072,-3140.991542
20555.590176,1184.329507,-11399.171507,3907.087040
20555.590509,6883.915261,-5551.544565,6128.763984
20555.590842,7550.100608,-6365.771101,7277.907231
20555.591175,6143.709319,-7550.100608,3907.087040
20555.591508,9104.533087,-8290.306550,4826.401637
20555.591841,2368.659014,-8364.327145,3217.601092
20555.592174,7328.038826,-8586.388927,-76.609550
20555.592507,-4071.132681,-11917.315666,-6741.640382
20555.592840,-4737.318029,-11917.315666,-7354.516781
20555.593173,-1258.350101,-13915.871710,-3447.429741
20555.593506,296.082377,-11251.130318,-76.609550
20555.593840,2442.679609,-6661.853478,919.314598
20555.594173,1036.288319,-7846.182985,1685.410096
20555.594506,5107.421000,-5403.503377,1915.238745
20555.594839,2368.659014,-7920.203579,7277.907231
20555.595172,4367.215058,-8882.471304,2374.896044
20555.595505,-74.020594,-8956.491898,-2145.067394
20555.595838,-888.247130,-11029.068536,612.876398
20555.596171,1406.391290,-9844.739029,919.314598
20555.596504,2294.638420,-11251.130318,2298.286494
20555.596837,1628.453072,-8216.285956,229.828649
20555.597170,-2664.741391,-10140.821405,-2451.505594
20555.597503,-2368.659014,-8364.327145,-4290.134789
20555.597836,-1258.350101,-12731.542202,2068.457845
20555.598170,-2442.679609,-8660.409521,-1838.629195
20555.598503,-3849.070898,-7772.162391,0.000000
20555.598836,-1924.535449,-11843.295072,2374.896044
20555.599169,-444.123565,-6291.750507,2757.943793
20555.599502,1776.494261,-8290.306550,7277.907231
20555.599835,1628.453072,-5181.441594,4596.572988
20555.600168,-962.267725,-8290.306550,1455.581446
20555.600501,-4145.153275,-7772.162391,-4903.011187
20555.600834,-962.267725,-11399.171507,-2757.943793
20555.601167,-3404.947333,-10510.924376,-3600.648841
20555.601500,-4589.276840,-10584.944971,-5669.106685
20555.601833,-7179.997637,-14211.954086,-5286.058936
20555.602166,-1850.514855,-10584.944971,-2298.286494
20555.602500,296.082377,-9104.533087,6205.373534
20555.602833,7920.203579,-7698.141797,9729.412825
20555.603166,4367.215058,-4811.338623,4903.011187
20555.603499,5699.585753,-8808.450710,6971.469032
20555.603832,3478.967927,-7846.182985,2757.943793
20555.604165,1628.453072,-7772.162391,0.000000
20555.604498,-3627.009116,-11769.274478,-4519.963438
20555.604831,-7105.977043,-10436.903782,-8503.660028
20555.605164,-4441.235652,-12805.562797,-6511.811733
20555.605497,-2960.823768,-12361.439231,-76.609550
20555.605830,1924.535449,-7698.141797,2374.896044
20555.606163,2886.803174,-6365.771101,2528.115143
20555.606496,4145.153275,-5329.482782,4519.963438
20555.606830,3849.070898,-6735.874072,4903.011187
20555.607163,3256.906145,-7920.203579,2834.553343
20555.607496,592.164754,-8216.285956,383.047749
20555.607829,-2072.576638,-12509.480420,-1225.752797
20555.608162,1110.308913,-10510.924376,-3064.381992
20555.608495,2886.803174,-14211.954086,2068.457845
20555.608828,2294.638420,-8364.327145,-1838.629195
20555.609161,592.164754,-7179.997637,-2757.943793
20555.609494,1776.494261,-9548.656652,-1149.143247
20555.609827,1332.370696,-10436.903782,536.266849
20555.610160,1924.535449,-7920.203579,1225.752797
20555.610493,1776.494261,-7698.141797,1455.581446
20555.610826,1998.556043,-9326.594869,-76.609550
20555.611160,1850.514855,-7179.997637,1225.752797
20555.611493,6439.791695,-9474.636058,3294.210641
20555.611826,5773.606348,-4811.338623,2757.943793
20555.612159,3552.988522,-9252.574275,2681.334243
20555.612492,1702.473667,-10658.965565,-1915.238745
20555.612825,444.123565,-11473.192101,-2528.115143
20555.613158,-666.185348,-10807.006753,-2451.505594
20555.613491,-2664.741391,-10436.903782,-3524.039291
20555.613824,-4219.173869,-9474.636058,-4290.134789
20555.614157,-1776.494261,-10436.903782,2068.457845
20555.614490,4663.297435,-6587.832884,2757.943793
20555.614823,8068.244768,-7994.224174,12180.918418
20555.615156,7624.121203,-5329.482782,3907.087040
20555.615489,5551.544565,-7105.977043,3600.648841
20555.615822,4885.359217,-9474.636058,2374.896044
20555.616155,3552.988522,-10881.027347,459.657299
20555.616488,-2220.617826,-11177.109724,-4903.011187
20555.616821,-5107.421000,-12953.603985,-8886.707777
20555.617154,-7550.100608,-14878.139434,-5362.668486
20555.617487,-4219.173869,-10140.821405,-3677.258390
20555.617820,814.226536,-8290.306550,2528.115143
20555.618153,888.247130,-6587.832884,4366.744339
20555.618486,2738.761985,-3108.864956,4213.525239
20555.618819,1776.494261,-6291.750507,6665.030833
20555.619152,3552.988522,-7624.121203,6665.030833
20555.619486,-74.020594,-7402.059420,0.000000
20555.619819,-6365.771101,-11325.150913,-3370.820191
20555.620152,-2442.679609,-11843.295072,-4366.744339
20555.620485,-3849.070898,-13693.809927,-1072.533697
20555.620818,-74.020594,-9770.718434,0.000000
20555.621151,-2442.679609,-9474.636058,-76.609550
20555.621484,-4737.318029,-7772.162391,-3677.258390
20555.621817,-4737.318029,-9548.656652,1685.410096
20555.622150,-1850.514855,-7994.224174,536.266849
20555.622483,-666.185348,-2738.761985,612.876398
20555.622816,-3256.906145,-7772.162391,3217.601092
20555.623149,-74.020594,-6291.750507,0.000000
20555.623482,1110.308913,-9770.718434,4519.963438
20555.623815,2368.659014,-8290.306550,3600.648841
20555.624148,518.144159,-9030.512492,1072.533697
20555.624481,-2812.782580,-11103.089130,-2604.724693
20555.624814,-2072.576638,-15914.427753,-1915.238745
20555.625147,-2442.679609,-8956.491898,-3983.696590
20555.625480,-1480.411884,-10955.047942,-383.047749
20555.625813,-2590.720797,-9474.636058,-2528.115143
20555.626146,-2368.659014,-8364.327145,1225.752797
20555.626479,962.267725,-9178.553681,5286.058936
20555.626812,5921.647536,-4515.256246,7967.393179
20555.627145,4885.359217,-6809.894666,5362.668486
20555.627478,5551.544565,-6809.894666,2374.896044
20555.627811,6439.791695,-8882.471304,1762.019645
20555.628144,2886.803174,-8364.327145,0.000000
20555.628477,3256.906145,-11473.192101,-3447.429741
20555.628810,-2442.679609,-15988.448347,-6818.249932
20555.629143,-1554.432478,-14211.954086,-5286.058936
20555.629476,0.000000,-12435.459826,-1991.848295
20555.629809,4293.194464,-9992.780217,3524.039291
20555.630142,6809.894666,-5477.523971,5439.278036
20555.630475,5921.647536,-4811.338623,6281.983084
20555.630808,7920.203579,-4219.173869,2911.162892
20555.631141,7476.080014,-9104.533087,6665.030833
20555.631474,8216.285956,-8882.471304,1149.143247
20555.631808,0.000000,-10732.986159,-1072.533697
20555.632141,-74.020594,-13619.789333,-2834.553343
20555.632474,-2368.659014,-13693.809927,-4213.525239
20555.632807,1110.308913,-11843.295072,-842.705048
20555.633140,1184.329507,-8364.327145,0.000000
20555.633473,0.000000,-7179.997637,-1685.410096
20555.633806,-1850.514855,-7772.162391,-1225.752797
20555.634139,518.144159,-9474.636058,1225.752797
20555.634472,1332.370696,-7402.059420,3907.087040
20555.634805,666.185348,-5773.606348,3064.381992
20555.635138,-2072.576638,-7772.162391,153.219100
20555.635471,-74.020594,-11843.295072,2374.896044
20555.635804,-2368.659014,-7772.162391,3064.381992
20555.636137,-370.102971,-9474.636058,1762.019645
20555.636470,-2738.761985,-9474.636058,-1915.238745
20555.636803,-6809.894666,-10732.986159,-4443.353888
20555.637136,-3923.091493,-10881.027347,-1915.238745
20555.637469,-4737.318029,-8586.388927,-2221.676944
20555.637802,-6883.915261,-10658.965565,-2068.457845
20555.638135,-6365.771101,-10140.821405,-1225.752797
20555.638468,-3923.091493,-7772.162391,612.876398
20555.638801,0.000000,-7179.997637,9193.145976
20555.639134,3478.967927,-5625.565159,5209.449386
20555.639467,1628.453072,-5107.421000,4290.134789
20555.639800,2146.597232,-9474.636058,2987.772442
20555.640133,1480.411884,-9030.512492,1072.533697
20555.640466,-2442.679609,-10881.027347,-2451.505594
20555.640799,-5033.400406,-10881.027347,-5822.325785
20555.641132,-5995.668130,-13915.871710,-6205.373534
20555.641465,-6291.750507,-9844.739029,-4903.011187
20555.641798,-1184.329507,-9548.656652,612.876398
20555.642131,3330.926739,-8882.471304,4826.401637
20555.642464,2812.782580,-3627.009116,3064.381992
20555.642797,3478.967927,-6513.812290,4213.525239
20555.643130,4589.276840,-8068.244768,4290.134789
20555.643463,3182.885551,-8438.347739,2528.115143
20555.643796,0.000000,-9030.512492,-1378.971896
20555.644130,-1332.370696,-10214.842000,-4366.744339
20555.644463,-4737.318029,-11917.315666,-1838.629195
20555.644796,2886.803174,-11251.130318,-2068.457845
20555.645129,1702.473667,-8290.306550,-689.485948
20555.645462,0.000000,-6587.832884,0.000000
20555.645795,2886.803174,-8142.265362,-1915.238745
20555.646128,3923.091493,-9548.656652,1455.581446
20555.646461,6217.729913,-6883.915261,2987.772442
20555.646794,2886.803174,-9400.615463,1608.800546
20555.647127,2442.679609,-8290.306550,-1915.238745
20555.647460,1924.535449,-12879.583391,1762.019645
20555.647793,4737.318029,-9696.697840,2604.724693
20555.648126,7031.956449,-8142.265362,4060.306139
20555.648459,3552.988522,-10584.944971,1991.848295
20555.648792,5255.462188,-9474.636058,-1302.362347
20555.649125,0.000000,-10140.821405,0.000000
20555.649458,0.000000,-9548.656652,-612.876398
20555.649791,-1850.514855,-10362.883188,-3447.429741
20555.650124,-4145.153275,-10732.986159,-4290.134789
20555.650457,-1258.350101,-10658.965565,-76.609550
