#time,accel_x,accel_y,accel_z
21681.949252,7994.224174,-8956.491898,1225.752797
21681.949586,11251.130318,-10510.924376,4826.401637
21681.949919,9770.718434,-8956.491898,2451.505594
21681.950253,9918.759623,-9474.636058,1072.533697
21681.950586,6809.894666,-10288.862594,-1302.362347
21681.950920,6439.791695,-9918.759623,-2604.724693
21681.951253,7476.080014,-9474.636058,-2834.553343
21681.951586,7402.059420,-10214.842000,-76.609550
21681.951920,7624.121203,-7328.038826,-3677.258390
21681.952253,9474.636058,-9548.656652,1838.629195
21681.952587,12953.603985,-10658.965565,4060.306139
21681.952920,12361.439231,-8586.388927,4519.963438
21681.953254,10288.862594,-9770.718434,3370.820191
21681.953587,7994.224174,-10436.903782,2145.067394
21681.953920,3404.947333,-11325.150913,0.000000
21681.954254,592.164754,-9548.656652,-1225.752797
21681.954587,2294.638420,-11251.130318,-1915.238745
21681.954921,1184.329507,-7179.997637,-2451.505594
21681.955254,2368.659014,-6291.750507,2528.115143
21681.955588,5847.626942,-5773.606348,842.705048
21681.955921,5329.482782,-3627.009116,1225.752797
21681.956254,9326.594869,-5995.668130,2528.115143
21681.956588,11695.253884,-6513.812290,3064.381992
21681.956921,10732.986159,-8734.430116,995.924147
21681.957255,11103.089130,-11251.130318,-766.095498
21681.957588,10584.944971,-9548.656652,-4903.011187
21681.957921,9474.636058,-12213.398043,-1532.190996
21681.958255,11177.109724,-14211.954086,-1302.362347
21681.958588,3849.070898,-11917.315666,-3677.258390
21681.958922,4737.318029,-10436.903782,-1225.752797
21681.959255,7402.059420,-7920.203579,1838.629195
21681.959589,10510.924376,-6809.894666,3907.087040
21681.959922,11473.192101,-4737.318029,5132.839837
21681.960255,13027.624579,-7105.977043,7814.174080
21681.960589,11325.150913,-6291.750507,4903.011187
21681.960922,8808.450710,-9030.512492,1685.410096
21681.961256,5921.647536,-9844.739029,-1532.190996
21681.961589,4885.359217,-10214.842000,-2604.724693
21681.961923,4145.153275,-10881.027347,-2298.286494
21681.962256,7031.956449,-10066.800811,-3140.991542
21681.962589,6735.874072,-8882.471304,-3217.601092
21681.962923,7994.224174,-8364.327145,612.876398
21681.963256,10584.944971,-8290.306550,-76.609550
21681.963590,10955.047942,-8068.244768,1072.533697
21681.963923,9400.615463,-7920.203579,-2145.067394
21681.964257,10140.821405,-8364.327145,-1455.581446
21681.964590,10881.027347,-10140.821405,1072.533697
21681.964923,12805.562797,-12435.459826,4213.525239
21681.965257,11177.109724,-10658.965565,612.876398
21681.965590,10658.965565,-9548.656652,2451.505594
21681.965924,15248.242405,-8882.471304,6052.154434
21681.966257,15914.427753,-4737.318029,3983.696590
21681.966591,15100.201217,-8142.265362,2987.772442
21681.966924,10807.006753,-7179.997637,-1991.848295
21681.967257,9178.553681,-10584.944971,-4903.011187
21681.967591,7624.121203,-11399.171507,-5898.935335
21681.967924,4959.379811,-12287.418637,-7431.126331
21681.968258,6439.791695,-11029.068536,-9193.145976
21681.968591,9474.636058,-11769.274478,1149.143247
21681.968925,14211.954086,-6883.915261,7277.907231
21681.969258,17098.757260,-7105.977043,7431.126331
21681.969591,17394.839637,-6365.771101,6818.249932
21681.969925,13323.706956,-9400.615463,6741.640382
21681.970258,11843.295072,-7328.038826,3140.991542
21681.970592,12879.583391,-7698.141797,689.485948
21681.970925,9474.636058,-6587.832884,-2145.067394
21681.971259,9474.636058,-8660.409521,-3677.258390
21681.971592,7994.224174,-11251.130318,-4979.620737
21681.971925,6439.791695,-13027.624579,-6358.592633
21681.972259,3478.967927,-11917.315666,-5822.325785
21681.972592,7031.956449,-11843.295072,-2374.896044
21681.972926,10214.842000,-8586.388927,3524.039291
21681.973259,11695.253884,-7624.121203,6894.859482
21681.973592,13323.706956,-5995.668130,7124.688131
21681.973926,13619.789333,-5403.503377,7354.516781
21681.974259,11991.336260,-9696.697840,7048.078582
21681.974593,11103.089130,-7402.059420,1838.629195
21681.974926,6661.853478,-9252.574275,-3217.601092
21681.975260,5847.626942,-11251.130318,-5286.058936
21681.975593,2590.720797,-10658.965565,-6358.592633
21681.975926,1110.308913,-12213.398043,-8580.269578
21681.976260,2368.659014,-11917.315666,-4903.011187
21681.976593,3552.988522,-11621.233289,2298.286494
21681.976927,9400.615463,-9474.636058,6665.030833
21681.977260,6809.894666,-7476.080014,6435.202183
21681.977594,6439.791695,-7402.059420,4903.011187
21681.977927,7402.059420,-9178.553681,8197.221829
21681.978260,7031.956449,-5033.400406,5362.668486
21681.978594,5921.647536,-5107.421000,3600.648841
21681.978927,0.000000,-5403.503377,-4903.011187
21681.979261,-5921.647536,-11917.315666,-9269.755526
21681.979594,-3034.844362,-13989.892304,-8044.002729
21681.979928,-1258.350101,-12435.459826,-7737.564530
21681.980261,5699.585753,-10658.965565,-2068.457845
21681.980594,4589.276840,-11769.274478,4213.525239
21681.980928,5773.606348,-7105.977043,5515.887586
21681.981261,6143.709319,-10658.965565,7277.907231
21681.981595,11177.109724,-7105.977043,9422.974625
21681.981928,13027.624579,-4811.338623,12257.527968
21681.982262,9992.780217,-5921.647536,6665.030833
21681.982595,1924.535449,-7179.997637,-1225.752797
21681.982928,-1776.494261,-9548.656652,-5975.544884
21681.983262,-370.102971,-10584.944971,-7048.078582
21681.983595,1332.370696,-9474.636058,-4979.620737
21681.983929,-1184.329507,-9622.677246,-6052.154434
21681.984262,-2220.617826,-12731.542202,-3600.648841
21681.984596,1628.453072,-8068.244768,-995.924147
21681.984929,5477.523971,-11251.130318,6665.030833
21681.985262,8808.450710,-8290.306550,7890.783629
21681.985596,5181.441594,-5995.668130,3677.258390
21681.985929,9178.553681,-7772.162391,8120.612279
21681.986263,5181.441594,-10732.986159,3830.477490
21681.986596,4663.297435,-8142.265362,1455.581446
21681.986930,-1850.514855,-10362.883188,-2374.896044
21681.987263,-2738.761985,-11029.068536,-4903.011187
21681.987596,-1776.494261,-5551.544565,-4903.011187
21681.987930,-1036.288319,-16580.613101,-1915.238745
21681.988263,222.061783,-4811.338623,-4290.134789
21681.988597,-1554.432478,-11325.150913,-1838.629195
21681.988930,8438.347739,-8142.265362,7277.907231
21681.989263,5329.482782,-7476.080014,5822.325785
21681.989597,5107.421000,-7698.141797,3370.820191
21681.989930,4885.359217,-8734.430116,2145.067394
21681.990264,1628.453072,-11177.109724,1762.019645
21681.990597,2368.659014,-6587.832884,0.000000
21681.990931,518.144159,-9918.759623,-1608.800546
21681.991264,-1036.288319,-11547.212695,-3600.648841
21681.991597,-1924.535449,-8512.368333,-1685.410096
21681.991931,2294.638420,-10658.965565,-76.609550
21681.992264,814.226536,-7105.977043,-689.485948
21681.992598,-1776.494261,-9548.656652,0.000000
21681.992931,740.205942,-9178.553681,2374.896044
21681.993265,2294.638420,-10658.965565,2757.943793
21681.993598,2368.659014,-8216.285956,3907.087040
21681.993931,-2294.638420,-8586.388927,919.314598
21681.994265,-2886.803174,-9844.739029,-689.485948
21681.994598,370.102971,-8290.306550,-995.924147
21681.994932,-2960.823768,-10658.965565,-689.485948
21681.995265,-74.020594,-3627.009116,-2451.505594
21681.995599,-222.061783,-11843.295072,-76.609550
21681.995932,-74.020594,-11251.130318,1762.019645
21681.996265,-814.226536,-7772.162391,153.219100
21681.996599,222.061783,-7698.141797,-76.609550
21681.996932,592.164754,-10732.986159,383.047749
21681.997266,888.247130,-10584.944971,-536.266849
21681.997599,1480.411884,-11325.150913,689.485948
21681.997933,0.000000,-8364.327145,1532.190996
21681.998266,-666.185348,-8956.491898,0.000000
21681.998599,2886.803174,-11251.130318,-76.609550
21681.998933,1110.308913,-11251.130318,0.000000
21681.999266,-3256.906145,-7476.080014,1225.752797
21681.999600,-1184.329507,-5403.503377,-1072.533697
21681.999933,-444.123565,-7624.121203,-229.828649
21682.000267,0.000000,-8586.388927,0.000000
21682.000600,814.226536,-9844.739029,2068.457845
21682.000933,2294.638420,-7105.977043,1149.143247
21682.001267,-1776.494261,-10732.986159,612.876398
21682.001600,-74.020594,-13323.706956,-76.609550
21682.001934,-74.020594,-8512.368333,-1762.019645
21682.002267,0.000000,-8364.327145,0.000000
21682.002601,3478.967927,-9178.553681,1225.752797
21682.002934,2294.638420,-12879.583391,2834.553343
21682.003267,2516.700203,-6809.894666,2681.334243
21682.003601,-74.020594,-8438.347739,842.705048
21682.003934,-814.226536,-7698.141797,-2451.505594
21682.004268,962.267725,-11695.253884,-689.485948
21682.004601,-1258.350101,-9548.656652,0.000000
21682.004934,0.000000,-5995.668130,1532.190996
21682.005268,-74.020594,-8882.471304,-1915.238745
21682.005601,3478.967927,-10584.944971,612.876398
21682.005935,5477.523971,-9326.594869,5745.716235
21682.006268,2146.597232,-7179.997637,689.485948
21682.006602,888.247130,-9844.739029,1302.362347
21682.006935,-1258.350101,-8438.347739,-3370.820191
21682.007268,1554.432478,-13027.624579,-383.047749
21682.007602,-2072.576638,-9252.574275,459.657299
21682.007935,-1110.308913,-8438.347739,-2374.896044
21682.008269,-3108.864956,-10510.924376,-2068.457845
21682.008602,1702.473667,-9474.636058,-76.609550
21682.008936,0.000000,-8364.327145,3677.258390
21682.009269,2294.638420,-8882.471304,1149.143247
21682.009602,592.164754,-6587.832884,306.438199
21682.009936,1184.329507,-10732.986159,2451.505594
21682.010264,4663.297435,-7698.141797,3294.210641
21682.010597,962.267725,-8438.347739,229.828649
21682.010930,740.205942,-10584.944971,-383.047749
21682.011263,-222.061783,-10436.903782,-919.314598
21682.011597,-3182.885551,-7920.203579,-2451.505594
21682.011930,-1184.329507,-10362.883188,-76.609550
21682.012263,-6513.812290,-8364.327145,-153.219100
21682.012596,-1850.514855,-11547.212695,-2221.676944
21682.012929,1110.308913,-8290.306550,4826.401637
21682.013262,296.082377,-6291.750507,5745.716235
21682.013595,1406.391290,-6291.750507,612.876398
21682.013928,2738.761985,-8808.450710,2604.724693
21682.014261,1850.514855,-9474.636058,1149.143247
21682.014594,3997.112087,-8290.306550,2374.896044
21682.014927,2294.638420,-14211.954086,-1302.362347
21682.015260,-2368.659014,-10732.986159,-919.314598
21682.015593,-4145.153275,-12213.398043,689.485948
21682.015927,-74.020594,-9474.636058,-2681.334243
21682.016260,-2072.576638,-9474.636058,-459.657299
21682.016593,-1702.473667,-8364.327145,-306.438199
21682.016926,3182.885551,-8068.244768,3677.258390
21682.017259,2072.576638,-6439.791695,3294.210641
21682.017592,4071.132681,-9474.636058,3600.648841
21682.017925,1554.432478,-6661.853478,1762.019645
21682.018258,2368.659014,-9844.739029,2987.772442
21682.018591,1702.473667,-6661.853478,0.000000
21682.018924,-740.205942,-7179.997637,-6128.763984
21682.019257,-1184.329507,-10955.047942,-3140.991542
21682.019590,-3256.906145,-14063.912898,-766.095498
21682.019924,148.041188,-5699.585753,-2987.772442
21682.020257,-3108.864956,-12509.480420,-1072.533697
21682.020590,-74.020594,-7698.141797,-76.609550
21682.020923,592.164754,-10732.986159,2145.067394
21682.021256,2960.823768,-7550.100608,5362.668486
21682.021589,4293.194464,-6291.750507,4519.963438
21682.021922,0.000000,-8364.327145,3677.258390
21682.022255,5329.482782,-9252.574275,5898.935335
21682.022588,1702.473667,-7994.224174,0.000000
21682.022921,0.000000,-8808.450710,-2451.505594
21682.023254,-2738.761985,-13619.789333,-3753.867940
21682.023587,-4737.318029,-11029.068536,-4903.011187
21682.023920,-4737.318029,-9548.656652,-2374.896044
21682.024254,-3775.050304,-9326.594869,-1302.362347
21682.024587,-2072.576638,-6513.812290,-536.266849
21682.024920,2294.638420,-11843.295072,4826.401637
21682.025253,1258.350101,-5995.668130,7967.393179
21682.025586,2294.638420,-4737.318029,2068.457845
21682.025919,0.000000,-6587.832884,4903.011187
21682.026252,2368.659014,-7920.203579,2911.162892
21682.026585,4367.215058,-11473.192101,3677.258390
21682.026918,0.000000,-8438.347739,842.705048
21682.027251,-2812.782580,-9548.656652,-5822.325785
21682.027584,-3330.926739,-13397.727550,-4136.915689
21682.027917,-1554.432478,-10732.986159,-3753.867940
21682.028250,-2072.576638,-11325.150913,-76.609550
21682.028584,-3552.988522,-7179.997637,-3677.258390
21682.028917,1776.494261,-8512.368333,3600.648841
21682.029250,3182.885551,-8808.450710,5132.839837
21682.029583,5255.462188,-5403.503377,8503.660028
21682.029916,1998.556043,-6809.894666,2221.676944
21682.030249,1776.494261,-9474.636058,2757.943793
21682.030582,888.247130,-9400.615463,76.609550
21682.030915,-222.061783,-7402.059420,-2374.896044
21682.031248,-1850.514855,-12435.459826,-3140.991542
21682.031581,-3552.988522,-8364.327145,-3677.258390
21682.031914,-2368.659014,-11917.315666,-919.314598
21682.032247,-666.185348,-9474.636058,-2221.676944
21682.032581,-2368.659014,-4811.338623,-5822.325785
21682.032914,-2738.761985,-11621.233289,0.000000
21682.033247,6143.709319,-8808.450710,3753.867940
21682.033580,3775.050304,-9326.594869,6818.249932
21682.033913,6661.853478,-5107.421000,5975.544884
21682.034246,3478.967927,-8512.368333,2068.457845
21682.034579,2960.823768,-9030.512492,4060.306139
21682.034912,2294.638420,-9548.656652,0.000000
21682.035245,-3552.988522,-5995.668130,-3677.258390
21682.035578,-3552.988522,-10732.986159,-3677.258390
21682.035911,-3627.009116,-9992.780217,-4213.525239
21682.036244,-2072.576638,-9770.718434,-2834.553343
21682.036577,-3627.009116,-8734.430116,-2374.896044
21682.036911,-1850.514855,-10510.924376,-689.485948
21682.037244,1702.473667,-6365.771101,306.438199
21682.037577,962.267725,-11843.295072,4136.915689
21682.037910,2886.803174,-4737.318029,3370.820191
21682.038243,1702.473667,-7994.224174,3294.210641
21682.038576,3701.029710,-9178.553681,4826.401637
21682.038909,4663.297435,-8882.471304,2221.676944
21682.039242,-2368.659014,-9548.656652,-3677.258390
21682.039575,-74.020594,-11843.295072,-2528.115143
21682.039908,-3182.885551,-9548.656652,-4290.134789
21682.040241,0.000000,-11917.315666,-1838.629195
21682.040574,-1258.350101,-8956.491898,153.219100
21682.040908,-2368.659014,-8068.244768,-2298.286494
21682.041241,-1110.308913,-10362.883188,1149.143247
21682.041574,2294.638420,-9474.636058,3600.648841
21682.041907,3478.967927,-8882.471304,2987.772442
21682.042240,1184.329507,-5403.503377,5439.278036
21682.042573,2664.741391,-10510.924376,4826.401637
21682.042906,1110.308913,-7402.059420,0.000000
21682.043239,518.144159,-10140.821405,2374.896044
21682.043572,-3997.112087,-7624.121203,-3677.258390
21682.043905,-5403.503377,-11547.212695,-4979.620737
21682.044238,-2886.803174,-10436.903782,-4673.182538
21682.044571,-2812.782580,-10436.903782,-3217.601092
21682.044904,-74.020594,-7179.997637,-4596.572988
21682.045238,5033.400406,-11251.130318,7277.907231
21682.045571,4663.297435,-7476.080014,3677.258390
21682.045904,2516.700203,-9548.656652,6128.763984
21682.046237,814.226536,-4737.318029,1149.143247
21682.046570,0.000000,-10510.924376,229.828649
21682.046903,148.041188,-8438.347739,459.657299
21682.047236,-814.226536,-10658.965565,-842.705048
21682.047569,-1110.308913,-7179.997637,-1149.143247
21682.047902,-3849.070898,-7772.162391,-2451.505594
21682.048235,-74.020594,-11695.253884,-2528.115143
21682.048568,-74.020594,-11547.212695,-1378.971896
21682.048901,-2072.576638,-5403.503377,-4290.134789
21682.049235,592.164754,-9548.656652,0.000000
21682.049568,2294.638420,-8882.471304,2068.457845
21682.049901,3701.029710,-11325.150913,3140.991542
21682.050234,4515.256246,-7402.059420,6128.763984
21682.050567,4663.297435,-7105.977043,3294.210641
21682.050900,1184.329507,-10436.903782,1762.019645
21682.051233,4071.132681,-10214.842000,-2757.943793
21682.051566,0.000000,-10732.986159,-1838.629195
21682.051899,-74.020594,-13027.624579,-76.609550
21682.052232,148.041188,-8512.368333,-3064.381992
21682.052565,296.082377,-10362.883188,-1149.143247
21682.052898,666.185348,-7846.182985,1532.190996
21682.053231,2294.638420,-5551.544565,229.828649
21682.053565,-74.020594,-10658.965565,2374.896044
21682.053898,1332.370696,-9400.615463,2987.772442
21682.054231,1184.329507,-9696.697840,4060.306139
21682.054564,74.020594,-5847.626942,1225.752797
21682.054897,-444.123565,-9252.574275,0.000000
21682.055230,-74.020594,-11547.212695,-1302.362347
21682.055563,-3552.988522,-9548.656652,0.000000
21682.055896,-1924.535449,-7698.141797,-2528.115143
21682.056229,-4219.173869,-11843.295072,-3677.258390
21682.056562,-2368.659014,-3627.009116,-2451.505594
21682.056895,2886.803174,-13619.789333,2834.553343
21682.057228,1184.329507,-4219.173869,2451.505594
21682.057561,1480.411884,-11695.253884,3370.820191
21682.057895,296.082377,-6365.771101,-536.266849
21682.058228,3478.967927,-11547.212695,2374.896044
21682.058561,0.000000,-7476.080014,2298.286494
21682.058894,2886.803174,-11843.295072,1762.019645
21682.059227,-4145.153275,-7179.997637,0.000000
21682.059560,296.082377,-14211.954086,766.095498
21682.059893,-1258.350101,-7328.038826,-2145.067394
21682.060226,-3182.885551,-9696.697840,-995.924147
21682.060559,-4959.379811,-8290.306550,-2757.943793
21682.060892,-3404.947333,-8808.450710,-766.095498
21682.061225,0.000000,-4219.173869,0.000000
21682.061558,2368.659014,-9474.636058,6052.154434
21682.061892,4515.256246,-7624.121203,3294.210641
21682.062225,518.144159,-9696.697840,612.876398
21682.062558,1924.535449,-10658.965565,2374.896044
21682.062891,-1776.494261,-6587.832884,-1532.190996
21682.063224,-148.041188,-12583.501014,-995.924147
21682.063557,-1480.411884,-10288.862594,-1302.362347
21682.063890,-2146.597232,-10658.965565,-919.314598
21682.064223,148.041188,-7105.977043,1685.410096
21682.064556,-74.020594,-11843.295072,2374.896044
21682.064889,518.144159,-7179.997637,-2145.067394
21682.065222,-740.205942,-11029.068536,4290.134789
21682.065555,3478.967927,-5921.647536,-76.609550
21682.065888,-1628.453072,-9548.656652,1838.629195
21682.066222,3997.112087,-5699.585753,1608.800546
21682.066555,3701.029710,-12287.418637,4826.401637
21682.066888,2960.823768,-4811.338623,1685.410096
21682.067221,3997.112087,-9474.636058,1225.752797
21682.067554,-1258.350101,-10658.965565,-5822.325785
21682.067887,2368.659014,-13323.706956,-3140.991542
21682.068220,-518.144159,-10584.944971,-4903.011187
21682.068553,666.185348,-12139.377449,-2528.115143
21682.068886,-666.185348,-7920.203579,306.438199
21682.069219,4737.318029,-10881.027347,5132.839837
21682.069552,5255.462188,-4737.318029,4826.401637
21682.069885,2886.803174,-6143.709319,2145.067394
21682.070219,4663.297435,-6217.729913,2221.676944
21682.070552,2368.659014,-10436.903782,3983.696590
21682.070885,2442.679609,-6513.812290,153.219100
21682.071218,-1998.556043,-8808.450710,-1838.629195
21682.071551,-4145.153275,-12509.480420,-4290.134789
21682.071884,-1258.350101,-10955.047942,-6128.763984
21682.072217,-1258.350101,-14211.954086,-2528.115143
21682.072550,-4441.235652,-7179.997637,-4290.134789
21682.072883,-5921.647536,-8956.491898,0.000000
21682.073216,0.000000,-8364.327145,689.485948
21682.073549,3552.988522,-7772.162391,7890.783629
21682.073882,2368.659014,-4515.256246,4060.306139
21682.074215,3108.864956,-9326.594869,4826.401637
21682.074549,3478.967927,-8882.471304,4213.525239
21682.074882,-1036.288319,-8364.327145,612.876398
21682.075215,-74.020594,-8290.306550,-2528.115143
21682.075548,-5625.565159,-11621.233289,-4290.134789
21682.075881,-1924.535449,-11843.295072,-4596.572988
21682.076214,-2738.761985,-14211.954086,-383.047749
21682.076547,-2368.659014,-7698.141797,-1532.190996
21682.076880,-3256.906145,-8956.491898,-689.485948
21682.077213,-1850.514855,-11177.109724,1149.143247
21682.077546,592.164754,-7179.997637,4290.134789
21682.077879,0.000000,-3627.009116,6665.030833
21682.078212,2294.638420,-4219.173869,1225.752797
21682.078545,0.000000,-9548.656652,4903.011187
21682.078879,4663.297435,-11251.130318,2374.896044
21682.079212,222.061783,-7920.203579,-842.705048
21682.079545,-3034.844362,-11547.212695,-5286.058936
21682.079878,-1554.432478,-8882.471304,-6358.592633
21682.080211,-2738.761985,-13989.892304,-1915.238745
21682.080544,888.247130,-7031.956449,-2068.457845
21682.080877,-74.020594,-14211.954086,-76.609550
21682.081210,0.000000,-6587.832884,612.876398
21682.081543,5033.400406,-10066.800811,8197.221829
21682.081876,3478.967927,-7105.977043,3294.210641
21682.082209,3552.988522,-3627.009116,2528.115143
21682.082542,2294.638420,-9178.553681,2374.896044
21682.082876,4811.338623,-7105.977043,2145.067394
21682.083209,1332.370696,-9030.512492,1455.581446
21682.083542,1258.350101,-8882.471304,-2374.896044
21682.083875,-74.020594,-10658.965565,-3140.991542
21682.084208,-2368.659014,-11547.212695,-4979.620737
21682.084541,888.247130,-11325.150913,-3907.087040
21682.084874,-3775.050304,-9326.594869,-4290.134789
21682.085207,592.164754,-8364.327145,-3677.258390
21682.085540,3404.947333,-11399.171507,3524.039291
21682.085873,7031.956449,-13027.624579,6052.154434
21682.086206,4737.318029,-2442.679609,7354.516781
21682.086539,3256.906145,-10658.965565,3447.429741
21682.086872,4663.297435,-6513.812290,0.000000
21682.087206,1258.350101,-9918.759623,1608.800546
21682.087539,1850.514855,-7254.018232,-1072.533697
21682.087872,-2664.741391,-9844.739029,-3524.039291
21682.088205,-3404.947333,-12805.562797,-3217.601092
21682.088538,-1036.288319,-13619.789333,-689.485948
21682.088871,-6513.812290,-7179.997637,-3677.258390
21682.089204,-5921.647536,-10732.986159,-919.314598
21682.089537,-666.185348,-8882.471304,1608.800546
21682.089870,0.000000,-7179.997637,3677.258390
21682.090203,1258.350101,-6809.894666,4519.963438
21682.090536,1258.350101,-6513.812290,3064.381992
21682.090869,-296.082377,-9992.780217,3677.258390
21682.091203,3478.967927,-9178.553681,2987.772442
21682.091536,814.226536,-13027.624579,-76.609550
21682.091869,-5921.647536,-7772.162391,-3370.820191
21682.092202,-4737.318029,-9844.739029,-4903.011187
21682.092535,-2590.720797,-13323.706956,-3140.991542
21682.092868,-2738.761985,-13471.748144,-76.609550
21682.093201,-2886.803174,-6957.935855,-1838.629195
21682.093534,-1776.494261,-10288.862594,2528.115143
21682.093867,222.061783,-7846.182985,4673.182538
21682.094200,888.247130,-5107.421000,6205.373534
21682.094533,1998.556043,-3552.988522,3140.991542
21682.094866,0.000000,-5403.503377,3677.258390
21682.095199,2294.638420,-11843.295072,1149.143247
21682.095533,0.000000,-9548.656652,-1838.629195
21682.095866,-3182.885551,-9474.636058,-4060.306139
21682.096199,-5181.441594,-12731.542202,-5592.497135
21682.096532,-2664.741391,-10807.006753,-5056.230287
21682.096865,-1628.453072,-11843.295072,-459.657299
21682.097198,2368.659014,-7328.038826,0.000000
21682.097531,0.000000,-9548.656652,2451.505594
21682.097864,7031.956449,-8882.471304,7277.907231
21682.098197,7624.121203,-11843.295072,8197.221829
21682.098530,4737.318029,-4811.338623,7354.516781
21682.098863,2664.741391,-8290.306550,2374.896044
21682.099196,1480.411884,-6587.832884,-1149.143247
21682.099530,1924.535449,-11177.109724,-995.924147
21682.099863,-740.205942,-9104.533087,-3217.601092
21682.100196,-592.164754,-9696.697840,-3677.258390
21682.100529,-3997.112087,-9548.656652,-3677.258390
21682.100862,888.247130,-9844.739029,-3677.258390
21682.101195,-2738.761985,-12139.377449,-2374.896044
21682.101528,2812.782580,-7772.162391,-1072.533697
21682.101861,2960.823768,-8956.491898,2757.943793
21682.102194,6439.791695,-7179.997637,2911.162892
21682.102527,8290.306550,-10658.965565,10648.727422
21682.102860,5255.462188,-5699.585753,3217.601092
21682.103193,4663.297435,-8882.471304,2987.772442
21682.103526,740.205942,-12139.377449,-919.314598
21682.103860,370.102971,-11769.274478,-1532.190996
21682.104193,-1924.535449,-8734.430116,-2528.115143
21682.104526,-1628.453072,-9326.594869,-2681.334243
21682.104859,-666.185348,-13027.624579,-76.609550
21682.105192,-4737.318029,-9548.656652,0.000000
21682.105525,-4737.318029,-5995.668130,0.000000
21682.105858,-74.020594,-9178.553681,1149.143247
21682.106191,-1184.329507,-4811.338623,612.876398
21682.106524,-74.020594,-10658.965565,3600.648841
21682.106857,0.000000,-8512.368333,3447.429741
21682.107190,-888.247130,-4885.359217,1378.971896
21682.107523,-814.226536,-10807.006753,-995.924147
21682.107856,1702.473667,-7994.224174,1455.581446
21682.108190,-7105.977043,-9548.656652,-3370.820191
21682.108523,-3627.009116,-11843.295072,-1302.362347
21682.108856,-1554.432478,-7105.977043,-5898.935335
21682.109189,-2368.659014,-15766.386565,1838.629195
21682.109522,-74.020594,-6365.771101,2528.115143
21682.109855,-2516.700203,-6217.729913,-76.609550
21682.110188,518.144159,-10288.862594,3370.820191
21682.110521,518.144159,-7772.162391,5362.668486
21682.110854,2072.576638,-5403.503377,4903.011187
21682.111187,-2368.659014,-5995.668130,6358.592633
21682.111520,-74.020594,-4811.338623,-3064.381992
21682.111853,-6217.729913,-14285.974681,-4903.011187
21682.112187,0.000000,-8512.368333,-153.219100
21682.112520,-5995.668130,-11325.150913,-6128.763984
21682.112853,-3330.926739,-9770.718434,-3447.429741
21682.113186,-1480.411884,-9992.780217,-2298.286494
21682.113519,0.000000,-10881.027347,2528.115143
21682.113852,5329.482782,-2590.720797,4290.134789
21682.114185,3404.947333,-9474.636058,3907.087040
21682.114518,6217.729913,-9770.718434,4903.011187
21682.114851,5033.400406,-9844.739029,5822.325785
21682.115184,8216.285956,-7105.977043,4826.401637
21682.115517,1110.308913,-8734.430116,-3370.820191
21682.115850,0.000000,-9844.739029,-3830.477490
21682.116183,-74.020594,-14211.954086,-76.609550
21682.116517,-814.226536,-8438.347739,-4136.915689
21682.116850,1184.329507,-8956.491898,-919.314598
21682.117183,-1850.514855,-9474.636058,-1072.533697
21682.117516,3775.050304,-8808.450710,766.095498
21682.117849,2368.659014,-4811.338623,995.924147
21682.118182,4367.215058,-7105.977043,1225.752797
21682.118515,3701.029710,-9696.697840,0.000000
21682.118848,5921.647536,-11621.233289,5362.668486
21682.119181,4367.215058,-9770.718434,2987.772442
21682.119514,4663.297435,-5995.668130,-1838.629195
21682.119847,1702.473667,-12583.501014,-229.828649
21682.120180,-1406.391290,-11325.150913,-3524.039291
21682.120514,-74.020594,-9770.718434,-2145.067394
21682.120847,-3478.967927,-9770.718434,-1608.800546
21682.121180,-2960.823768,-6587.832884,-2451.505594
21682.121513,1110.308913,-11251.130318,-536.266849
21682.121846,2368.659014,-9104.533087,7890.783629
21682.122179,-74.020594,-5921.647536,2451.505594
21682.122512,2368.659014,-7328.038826,2757.943793
21682.122845,1184.329507,-10288.862594,2757.943793
21682.123178,-2960.823768,-8660.409521,919.314598
21682.123511,-2442.679609,-7772.162391,-1915.238745
21682.123844,-6661.853478,-10807.006753,-4673.182538
21682.124177,-1554.432478,-13027.624579,-2528.115143
21682.124510,-5551.544565,-8364.327145,0.000000
21682.124844,-1258.350101,-6809.894666,-2528.115143
21682.125177,-4811.338623,-9104.533087,-3524.039291
21682.125510,-2368.659014,-7624.121203,459.657299
21682.125843,2886.803174,-10658.965565,5439.278036
21682.126176,-1036.288319,-7179.997637,4596.572988
21682.126509,592.164754,-7550.100608,1915.238745
21682.126842,-2220.617826,-9548.656652,1225.752797
21682.127175,0.000000,-9178.553681,2604.724693
21682.127508,0.000000,-7179.997637,5439.278036
21682.127841,-1258.350101,-6883.915261,-3064.381992
21682.128174,-2368.659014,-8364.327145,-4290.134789
21682.128507,-3256.906145,-15988.448347,-689.485948
21682.128841,-74.020594,-9474.636058,-1608.800546
21682.129174,-4293.194464,-12065.356855,-2987.772442
21682.129507,-2442.679609,-9326.594869,-1302.362347
21682.129840,0.000000,-9548.656652,536.266849
21682.130173,1406.391290,-6439.791695,4213.525239
21682.130506,2368.659014,-7476.080014,5669.106685
21682.130839,5033.400406,-6883.915261,2528.115143
21682.131172,4737.318029,-11843.295072,7431.126331
21682.131505,5847.626942,-5181.441594,4366.744339
21682.131838,4071.132681,-9178.553681,-76.609550
21682.132171,0.000000,-7179.997637,-3217.601092
21682.132504,-74.020594,-15396.283594,-6818.249932
21682.132837,-1258.350101,-10288.862594,-4903.011187
21682.133171,0.000000,-9844.739029,-3140.991542
21682.133504,1702.473667,-11251.130318,-1915.238745
21682.133837,5403.503377,-7920.203579,3677.258390
21682.134170,5477.523971,-8808.450710,5286.058936
21682.134503,6809.894666,-4219.173869,2757.943793
21682.134836,4737.318029,-7179.997637,2451.505594
21682.135169,7105.977043,-8956.491898,4903.011187
21682.135502,7624.121203,-10066.800811,1149.143247
21682.135835,3034.844362,-7772.162391,0.000000
21682.136168,-1036.288319,-11399.171507,-4366.744339
21682.136501,1110.308913,-10362.883188,-6128.763984
21682.136834,-1332.370696,-13693.809927,-2911.162892
21682.137167,-1554.432478,-9770.718434,-1608.800546
21682.137501,-2220.617826,-8512.368333,-536.266849
21682.137834,-1184.329507,-9474.636058,2451.505594
21682.138167,4737.318029,-7476.080014,9422.974625
21682.138500,1110.308913,-7105.977043,5439.278036
21682.138833,888.247130,-4811.338623,0.000000
21682.139166,2368.659014,-10658.965565,4519.963438
21682.139499,592.164754,-9548.656652,2757.943793
21682.139832,-2590.720797,-10881.027347,-995.924147
21682.140165,-6513.812290,-8660.409521,-5362.668486
21682.140498,-8142.265362,-11695.253884,-6588.421283
21682.140831,-3627.009116,-11843.295072,-2528.115143
21682.141164,-1998.556043,-10362.883188,1455.581446
21682.141498,-5995.668130,-7624.121203,-3677.258390
21682.141831,-1184.329507,-8808.450710,4673.182538
21682.142164,2294.638420,-8882.471304,4826.401637
21682.142497,4663.297435,-7846.182985,8810.098227
21682.142830,740.205942,-3923.091493,3753.867940
21682.143163,-1184.329507,-11029.068536,1838.629195
21682.143496,-1702.473667,-8068.244768,459.657299
21682.143829,-6069.688724,-10881.027347,-2451.505594
21682.144162,-3034.844362,-6513.812290,-4903.011187
21682.144495,-4441.235652,-9252.574275,-3677.258390
21682.144828,-666.185348,-13027.624579,-2528.115143
21682.145161,-2368.659014,-10732.986159,612.876398
21682.145494,-2146.597232,-7994.224174,1608.800546
21682.145828,-2960.823768,-10140.821405,919.314598
21682.146161,1924.535449,-5107.421000,1915.238745
21682.146494,2886.803174,-11251.130318,5286.058936
21682.146827,2960.823768,-4219.173869,4903.011187
21682.147160,2294.638420,-6883.915261,1838.629195
21682.147493,1628.453072,-8290.306550,-229.828649
21682.147826,2812.782580,-11029.068536,1685.410096
21682.148159,0.000000,-9030.512492,-1991.848295
21682.148492,-1184.329507,-8882.471304,-4060.306139
21682.148825,-74.020594,-13027.624579,-4979.620737
21682.149158,444.123565,-10140.821405,-3370.820191
21682.149491,1702.473667,-9178.553681,1302.362347
21682.149825,4663.297435,-9326.594869,459.657299
21682.150158,2516.700203,-8068.244768,4290.134789
21682.150491,6883.915261,-7179.997637,5592.497135
21682.150824,8512.368333,-6957.935855,4443.353888
21682.151157,4885.359217,-7624.121203,3064.381992
21682.151490,4737.318029,-7179.997637,0.000000
21682.151823,4663.297435,-11917.315666,-1532.190996
21682.152156,2368.659014,-9548.656652,0.000000
21682.152489,1036.288319,-11843.295072,-4366.744339
21682.152822,-1258.350101,-11251.130318,-4979.620737
21682.153155,592.164754,-10140.821405,-2528.115143
21682.153488,-2664.741391,-12657.521608,-842.705048
21682.153821,2368.659014,-5699.585753,2528.115143
21682.154155,1480.411884,-6883.915261,4366.744339
21682.154488,4071.132681,-8882.471304,6511.811733
21682.154821,4071.132681,-7179.997637,3677.258390
21682.155154,2960.823768,-5625.565159,3064.381992
21682.155487,4071.132681,-9474.636058,-76.609550
21682.155820,-4737.318029,-9548.656652,0.000000
21682.156153,-1258.350101,-13027.624579,-2528.115143
21682.156486,-3701.029710,-7920.203579,-4519.963438
21682.156819,-5699.585753,-12435.459826,-4826.401637
21682.157152,-3997.112087,-8660.409521,-3753.867940
21682.157485,-4811.338623,-14804.118840,-689.485948
21682.157818,-4145.153275,-4811.338623,1838.629195
21682.158151,0.000000,-8290.306550,5439.278036
21682.158485,1110.308913,-4737.318029,2987.772442
21682.158818,296.082377,-7179.997637,2451.505594
21682.159151,1110.308913,-11547.212695,4213.525239
21682.159484,0.000000,-6439.791695,1685.410096
21682.159817,-2072.576638,-9104.533087,-229.828649
21682.160150,-3923.091493,-12953.603985,689.485948
21682.160483,-4811.338623,-8882.471304,-3753.867940
21682.160816,-6661.853478,-9992.780217,-3064.381992
21682.161149,-3775.050304,-5625.565159,-4596.572988
21682.161482,-3923.091493,-12213.398043,-3447.429741
21682.161815,296.082377,-8956.491898,5209.449386
21682.162148,296.082377,-7550.100608,2374.896044
21682.162482,814.226536,-7772.162391,612.876398
21682.162815,0.000000,-7772.162391,3064.381992
21682.163148,4663.297435,-11547.212695,3294.210641
21682.163481,3849.070898,-4811.338623,1225.752797
21682.163814,2294.638420,-10436.903782,1608.800546
21682.164147,444.123565,-10658.965565,-2681.334243
21682.164480,740.205942,-12509.480420,612.876398
21682.164813,-74.020594,-10362.883188,-1915.238745
21682.165146,-74.020594,-11843.295072,-1302.362347
21682.165479,-666.185348,-6587.832884,-2451.505594
21682.165812,592.164754,-9548.656652,0.000000
21682.166145,3256.906145,-5329.482782,4213.525239
21682.166478,3182.885551,-9770.718434,2451.505594
21682.166812,4663.297435,-8290.306550,3447.429741
21682.167145,4145.153275,-10066.800811,4826.401637
21682.167478,2960.823768,-5255.462188,766.095498
21682.167811,1036.288319,-8438.347739,-4060.306139
21682.168144,2516.700203,-13619.789333,-4979.620737
21682.168477,0.000000,-10732.986159,-1838.629195
21682.168810,-74.020594,-14211.954086,-76.609550
21682.169143,2812.782580,-8882.471304,-1302.362347
21682.169476,-1110.308913,-10955.047942,-536.266849
21682.169809,2738.761985,-9326.594869,-306.438199
21682.170142,3182.885551,-8512.368333,4060.306139
21682.170475,3256.906145,-6513.812290,4519.963438
21682.170809,1184.329507,-8364.327145,4903.011187
21682.171142,2294.638420,-7105.977043,1378.971896
21682.171475,2960.823768,-9474.636058,5745.716235
21682.171808,-74.020594,-9474.636058,-689.485948
21682.172141,-2368.659014,-9844.739029,-2451.505594
21682.172474,-6513.812290,-10732.986159,-4596.572988
21682.172807,-4737.318029,-11843.295072,-2604.724693
21682.173140,-3034.844362,-5699.585753,-3064.381992
21682.173473,-5255.462188,-11399.171507,-995.924147
21682.173806,1110.308913,-7105.977043,-1302.362347
21682.174139,-2368.659014,-9548.656652,4903.011187
21682.174472,2886.803174,-5921.647536,2068.457845
21682.174805,1924.535449,-4811.338623,919.314598
21682.175139,0.000000,-12657.521608,4826.401637
21682.175472,3108.864956,-8364.327145,766.095498
21682.175805,-1702.473667,-9844.739029,3600.648841
21682.176138,1036.288319,-7698.141797,-2451.505594
21682.176471,-2738.761985,-10436.903782,-2374.896044
21682.176804,-3034.844362,-14211.954086,-76.609550
21682.177137,-5033.400406,-6291.750507,-2451.505594
21682.177470,-6069.688724,-9178.553681,-2834.553343
21682.177803,-2960.823768,-6957.935855,-1608.800546
21682.178136,-888.247130,-11251.130318,2681.334243
21682.178469,5551.544565,-7105.977043,8503.660028
21682.178802,518.144159,-4959.379811,1225.752797
21682.179136,0.000000,-7772.162391,3064.381992
21682.179469,5847.626942,-9474.636058,2374.896044
21682.179802,0.000000,-8660.409521,306.438199
21682.180135,1184.329507,-10066.800811,-76.609550
21682.180468,-2738.761985,-11103.089130,-3907.087040
21682.180801,3404.947333,-10584.944971,-2221.676944
21682.181134,1184.329507,-12583.501014,1838.629195
21682.181467,814.226536,-7105.977043,-1915.238745
21682.181800,-3256.906145,-8660.409521,-3677.258390
21682.182133,3182.885551,-9474.636058,-76.609550
21682.182466,6439.791695,-10658.965565,4826.401637
21682.182799,3849.070898,-2442.679609,3677.258390
21682.183132,5847.626942,-9474.636058,3907.087040
21682.183466,3701.029710,-6883.915261,3064.381992
21682.183799,4663.297435,-9474.636058,4213.525239
21682.184132,1702.473667,-6587.832884,-995.924147
21682.184465,-2368.659014,-9548.656652,-8580.269578
21682.184798,-7105.977043,-13101.645173,-7354.516781
21682.185131,2294.638420,-12435.459826,-2528.115143
21682.185464,-1258.350101,-8882.471304,-1915.238745
21682.185797,1332.370696,-8068.244768,2757.943793
21682.186130,4071.132681,-7994.224174,2451.505594
21682.186463,3404.947333,-9918.759623,5439.278036
21682.186797,4293.194464,-3108.864956,4136.915689
21682.187130,148.041188,-10955.047942,2834.553343
21682.187463,2960.823768,-6883.915261,2757.943793
21682.187796,1776.494261,-11843.295072,4519.963438
21682.188130,0.000000,-5995.668130,0.000000
21682.188463,-2960.823768,-10881.027347,-2221.676944
21682.188796,-3627.009116,-13027.624579,-4979.620737
21682.189130,-4145.153275,-9548.656652,-3064.381992
21682.189463,-3849.070898,-12065.356855,-2145.067394
21682.189796,-1406.391290,-6365.771101,-1149.143247
21682.190129,-2812.782580,-9696.697840,919.314598
21682.190463,4663.297435,-7698.141797,5898.935335
21682.190796,2812.782580,-9474.636058,7277.907231
21682.191129,1702.473667,-7105.977043,1762.019645
21682.191463,0.000000,-7179.997637,2451.505594
21682.191796,1110.308913,-11843.295072,-76.609550
21682.192129,-1776.494261,-11917.315666,306.438199
21682.192462,-3034.844362,-6513.812290,-1762.019645
21682.192796,-4071.132681,-12139.377449,-3753.867940
21682.193129,-2812.782580,-9104.533087,-1838.629195
21682.193462,-1850.514855,-12139.377449,-229.828649
21682.193796,-1776.494261,-6661.853478,-76.609550
21682.194129,-2146.597232,-8512.368333,229.828649
21682.194462,1554.432478,-7254.018232,2604.724693
21682.194796,2294.638420,-9178.553681,5439.278036
21682.195129,2368.659014,-5847.626942,2681.334243
21682.195462,-4737.318029,-9548.656652,3064.381992
21682.195795,-74.020594,-9178.553681,-995.924147
21682.196129,0.000000,-13101.645173,306.438199
21682.196462,-518.144159,-3849.070898,-3294.210641
21682.196795,2294.638420,-12435.459826,-2528.115143
21682.197129,444.123565,-11177.109724,995.924147
21682.197462,3404.947333,-10140.821405,-612.876398
21682.197795,-1258.350101,-11695.253884,612.876398
21682.198128,1702.473667,-7105.977043,-689.485948
21682.198462,740.205942,-11473.192101,4596.572988
21682.198795,6217.729913,-8660.409521,6052.154434
21682.199128,2368.659014,-6143.709319,2757.943793
21682.199462,2664.741391,-7772.162391,4596.572988
21682.199795,3108.864956,-9474.636058,3524.039291
21682.200128,1776.494261,-9548.656652,536.266849
21682.200461,296.082377,-9696.697840,-1838.629195
21682.200795,-1998.556043,-9474.636058,-4060.306139
21682.201128,-3849.070898,-9548.656652,-5822.325785
21682.201461,814.226536,-11843.295072,-1915.238745
21682.201795,518.144159,-11843.295072,-76.609550
21682.202128,0.000000,-5403.503377,0.000000
21682.202461,3478.967927,-10362.883188,4213.525239
21682.202795,2072.576638,-8364.327145,2374.896044
21682.203128,3182.885551,-10510.924376,3830.477490
21682.203461,2960.823768,-5329.482782,2834.553343
21682.203794,3256.906145,-10140.821405,4136.915689
21682.204128,3849.070898,-7031.956449,2145.067394
21682.204461,3478.967927,-13619.789333,-1302.362347
21682.204794,-3552.988522,-7179.997637,-2451.505594
21682.205128,-7105.977043,-11917.315666,-3600.648841
21682.205461,-1258.350101,-10658.965565,-4060.306139
21682.205794,-4737.318029,-12509.480420,1608.800546
21682.206127,-2220.617826,-6883.915261,1225.752797
21682.206461,-296.082377,-6069.688724,3600.648841
21682.206794,-74.020594,-6809.894666,2987.772442
21682.207127,740.205942,-6291.750507,1532.190996
21682.207461,370.102971,-8808.450710,3064.381992
21682.207794,666.185348,-6883.915261,-1838.629195
21682.208127,-1924.535449,-11843.295072,-1302.362347
21682.208460,-666.185348,-13175.665768,-3140.991542
21682.208794,-4737.318029,-9548.656652,-919.314598
21682.209127,-1258.350101,-11251.130318,-689.485948
21682.209460,-74.020594,-9474.636058,-3907.087040
21682.209794,-1554.432478,-11103.089130,1608.800546
21682.210127,2294.638420,-10658.965565,4826.401637
21682.210460,1702.473667,-3627.009116,1302.362347
21682.210793,2072.576638,-9770.718434,2451.505594
21682.211127,3404.947333,-8438.347739,4290.134789
21682.211460,2368.659014,-7179.997637,4903.011187
21682.211793,0.000000,-4811.338623,0.000000
21682.212127,-3627.009116,-11843.295072,-3140.991542
21682.212460,-1184.329507,-4811.338623,-5669.106685
21682.212793,-4441.235652,-13693.809927,153.219100
21682.213127,0.000000,-3627.009116,-2528.115143
21682.213460,-1702.473667,-11917.315666,-1302.362347
21682.213793,-3256.906145,-9548.656652,-1991.848295
21682.214126,1110.308913,-9474.636058,2068.457845
21682.214460,-666.185348,-7698.141797,1455.581446
21682.214793,1184.329507,-7772.162391,5439.278036
21682.215126,4071.132681,-3404.947333,0.000000
21682.215460,5329.482782,-13545.768739,5898.935335
21682.215793,5847.626942,-5329.482782,3600.648841
21682.216126,2664.741391,-10140.821405,1225.752797
21682.216459,3182.885551,-11103.089130,-842.705048
21682.216793,296.082377,-13101.645173,-1991.848295
21682.217126,-2146.597232,-10362.883188,-5286.058936
21682.217459,-1258.350101,-9474.636058,-3447.429741
21682.217793,-888.247130,-10066.800811,-76.609550
21682.218126,74.020594,-8882.471304,-383.047749
21682.218459,1184.329507,-6587.832884,6894.859482
21682.218792,-74.020594,-6513.812290,1762.019645
21682.219126,2294.638420,-5625.565159,1762.019645
21682.219459,296.082377,-10140.821405,1378.971896
21682.219792,2146.597232,-7624.121203,2604.724693
21682.220126,1258.350101,-6217.729913,689.485948
21682.220459,0.000000,-11917.315666,-2145.067394
21682.220792,2294.638420,-10362.883188,-3140.991542
21682.221126,-4145.153275,-13397.727550,-919.314598
21682.221459,0.000000,-7179.997637,-1302.362347
21682.221792,-1850.514855,-13619.789333,-2681.334243
21682.222125,-666.185348,-9770.718434,-2834.553343
21682.222459,1110.308913,-10510.924376,4903.011187
21682.222792,2442.679609,-4293.194464,4826.401637
21682.223125,4663.297435,-5773.606348,6281.983084
21682.223459,0.000000,-5403.503377,4903.011187
21682.223792,4367.215058,-6217.729913,2068.457845
21682.224125,-2886.803174,-8438.347739,-842.705048
21682.224458,-2738.761985,-11325.150913,-3983.696590
21682.224792,-3701.029710,-10584.944971,-5669.106685
21682.225125,-5181.441594,-14285.974681,-3064.381992
21682.225458,-1702.473667,-9474.636058,-2528.115143
21682.225792,-3034.844362,-10658.965565,-4366.744339
21682.226125,-4145.153275,-11325.150913,306.438199
21682.226458,3478.967927,-10658.965565,6971.469032
21682.226791,1110.308913,-6291.750507,6128.763984
21682.227125,3182.885551,-3034.844362,4443.353888
21682.227458,1924.535449,-7772.162391,4979.620737
21682.227791,4515.256246,-8734.430116,4290.134789
21682.228125,2368.659014,-7179.997637,4903.011187
21682.228458,-74.020594,-9474.636058,-2834.553343
21682.228791,-4737.318029,-9548.656652,-7354.516781
21682.229124,-4145.153275,-13397.727550,-3753.867940
21682.229458,-2442.679609,-10658.965565,-5286.058936
21682.229791,-3552.988522,-11029.068536,-1225.752797
21682.230124,-814.226536,-8068.244768,-536.266849
21682.230458,1628.453072,-10066.800811,2528.115143
21682.230791,4071.132681,-7105.977043,8197.221829
21682.231124,3478.967927,-3849.070898,4519.963438
21682.231458,3478.967927,-8882.471304,1762.019645
21682.231791,2960.823768,-6587.832884,3370.820191
21682.232124,4071.132681,-14211.954086,3600.648841
21682.232457,1184.329507,-3330.926739,-1838.629195
21682.232791,-1998.556043,-14211.954086,-5132.839837
21682.233124,-592.164754,-13915.871710,-3524.039291
21682.233457,-1258.350101,-13693.809927,-1762.019645
21682.233791,-1406.391290,-7105.977043,-4060.306139
21682.234124,-1110.308913,-8586.388927,-3064.381992
21682.234457,1776.494261,-7179.997637,612.876398
21682.234790,6217.729913,-11843.295072,9729.412825
21682.235124,5551.544565,-2368.659014,4979.620737
21682.235457,1850.514855,-8364.327145,0.000000
21682.235790,3923.091493,-9474.636058,2374.896044
21682.236124,2886.803174,-10436.903782,2298.286494
21682.236457,-2146.597232,-8438.347739,-1762.019645
21682.236790,814.226536,-7994.224174,-5745.716235
21682.237123,-5921.647536,-13101.645173,-5209.449386
21682.237457,1184.329507,-10584.944971,-612.876398
21682.237790,-1924.535449,-7920.203579,-2451.505594
21682.238123,-1184.329507,-10510.924376,-995.924147
21682.238457,1628.453072,-9178.553681,3217.601092
21682.238790,3775.050304,-11103.089130,5745.716235
21682.239123,4663.297435,-5403.503377,4903.011187
21682.239456,592.164754,-5995.668130,2451.505594
21682.239790,4515.256246,-11843.295072,2987.772442
21682.240123,592.164754,-10732.986159,2451.505594
21682.240456,-74.020594,-11843.295072,-229.828649
21682.240790,-2072.576638,-5995.668130,-3064.381992
21682.241123,-2294.638420,-12509.480420,-3524.039291
21682.241456,-74.020594,-9474.636058,-2528.115143
21682.241790,-3552.988522,-11917.315666,4290.134789
21682.242123,-1258.350101,-1850.514855,-4290.134789
21682.242456,-2960.823768,-9696.697840,1072.533697
21682.242789,-74.020594,-9474.636058,2987.772442
21682.243123,3478.967927,-9474.636058,3600.648841
21682.243456,-666.185348,-5773.606348,1149.143247
21682.243789,518.144159,-9030.512492,1608.800546
21682.244123,-74.020594,-7772.162391,1225.752797
21682.244456,2294.638420,-10955.047942,3907.087040
21682.244789,-666.185348,-7105.977043,-2528.115143
21682.245122,-4441.235652,-12805.562797,-4903.011187
21682.245456,-3552.988522,-13027.624579,-2834.553343
21682.245789,814.226536,-10584.944971,-1225.752797
21682.246122,0.000000,-7772.162391,1225.752797
21682.246456,1998.556043,-8216.285956,153.219100
21682.246789,1628.453072,-8438.347739,2987.772442
21682.247122,3034.844362,-9844.739029,4596.572988
21682.247455,4515.256246,-5699.585753,3370.820191
21682.247789,1998.556043,-8586.388927,1455.581446
21682.248122,296.082377,-9474.636058,3600.648841
21682.248455,518.144159,-9474.636058,-383.047749
21682.248789,-2368.659014,-8364.327145,0.000000
21682.249122,-592.164754,-9178.553681,-1838.629195
21682.249455,-4145.153275,-9844.739029,-3064.381992
21682.249789,-2146.597232,-9622.677246,-2911.162892
21682.250122,-3330.926739,-10658.965565,-1762.019645
21682.250455,-962.267725,-6143.709319,-2221.676944
21682.250788,-2368.659014,-8660.409521,0.000000
21682.251122,5255.462188,-11251.130318,2987.772442
21682.251455,4071.132681,-9548.656652,4290.134789
21682.251788,1184.329507,-4811.338623,4903.011187
21682.252122,6069.688724,-11843.295072,4826.401637
21682.252455,1776.494261,-7179.997637,1225.752797
21682.252788,2442.679609,-12435.459826,919.314598
21682.253121,1110.308913,-6957.935855,-1915.238745
21682.253455,-2072.576638,-12139.377449,-3830.477490
21682.253788,-4441.235652,-10140.821405,-4136.915689
21682.254121,-1850.514855,-11473.192101,-1685.410096
21682.254455,-1924.535449,-6587.832884,-919.314598
21682.254788,1110.308913,-8734.430116,3294.210641
21682.255121,3478.967927,-5329.482782,4213.525239
21682.255454,2072.576638,-9548.656652,3677.258390
21682.255788,3256.906145,-5921.647536,7201.297681
21682.256121,-1258.350101,-8290.306550,-995.924147
21682.256454,-1776.494261,-7476.080014,-612.876398
21682.256788,-444.123565,-14878.139434,-76.609550
21682.257121,-2072.576638,-7254.018232,-4903.011187
21682.257454,-1258.350101,-11769.274478,-2451.505594
21682.257787,-888.247130,-10214.842000,-2451.505594
21682.258121,-962.267725,-10214.842000,-3064.381992
21682.258454,-1850.514855,-8660.409521,1225.752797
21682.258787,3701.029710,-5921.647536,2987.772442
21682.259121,2516.700203,-11103.089130,6665.030833
21682.259454,5255.462188,-6291.750507,2604.724693
21682.259787,1998.556043,-9474.636058,6052.154434
21682.260121,296.082377,-5921.647536,2987.772442
21682.260454,1702.473667,-7402.059420,459.657299
21682.260787,-1480.411884,-12879.583391,-1149.143247
21682.261120,-2960.823768,-11325.150913,-2451.505594
21682.261454,-7105.977043,-6587.832884,-7354.516781
21682.261787,-3627.009116,-13027.624579,-6205.373534
21682.262120,-3034.844362,-7772.162391,-4290.134789
21682.262454,0.000000,-9548.656652,2604.724693
21682.262787,592.164754,-5403.503377,2451.505594
21682.263120,4663.297435,-5329.482782,5822.325785
21682.263453,3478.967927,-6365.771101,2528.115143
21682.263787,4737.318029,-11917.315666,4903.011187
21682.264120,7031.956449,-7698.141797,2374.896044
21682.264453,592.164754,-13397.727550,459.657299
21682.264787,2294.638420,-11843.295072,-689.485948
21682.265120,-1480.411884,-11029.068536,-2451.505594
21682.265453,-74.020594,-10066.800811,-76.609550
21682.265786,-74.020594,-8290.306550,-842.705048
21682.266120,-740.205942,-9104.533087,-919.314598
21682.266453,74.020594,-9622.677246,3447.429741
21682.266786,444.123565,-5181.441594,2221.676944
21682.267120,-1036.288319,-4811.338623,1302.362347
21682.267453,2886.803174,-7105.977043,2374.896044
21682.267786,592.164754,-9548.656652,1225.752797
21682.268120,0.000000,-8660.409521,2987.772442
21682.268453,1110.308913,-7994.224174,-2834.553343
21682.268786,-74.020594,-11547.212695,-2298.286494
21682.269119,-1110.308913,-12583.501014,-2221.676944
21682.269453,-962.267725,-11843.295072,-76.609550
21682.269786,888.247130,-6143.709319,-612.876398
21682.270119,-1036.288319,-9992.780217,0.000000
21682.270453,1850.514855,-7994.224174,-76.609550
21682.270786,-1036.288319,-11325.150913,3217.601092
21682.271119,2220.617826,-3478.967927,1991.848295
21682.271452,1924.535449,-7772.162391,4826.401637
21682.271786,2590.720797,-6291.750507,1762.019645
21682.272119,3330.926739,-11843.295072,5745.716235
21682.272452,-666.185348,-6809.894666,-1915.238745
21682.272786,-3552.988522,-11325.150913,-2068.457845
21682.273119,-4589.276840,-10288.862594,-2451.505594
21682.273452,-3034.844362,-12213.398043,-3677.258390
21682.273785,-4737.318029,-6513.812290,-3524.039291
21682.274119,-1924.535449,-9770.718434,-2374.896044
21682.274452,-2072.576638,-10955.047942,-1762.019645
21682.274785,1776.494261,-8364.327145,5515.887586
21682.275119,3478.967927,-8882.471304,6052.154434
21682.275452,4071.132681,-7105.977043,3294.210641
21682.275785,-1776.494261,-9548.656652,2451.505594
21682.276118,5847.626942,-10658.965565,4826.401637
21682.276452,592.164754,-7476.080014,3677.258390
21682.276785,0.000000,-8512.368333,-2987.772442
21682.277118,-1480.411884,-10288.862594,-2451.505594
21682.277452,-2812.782580,-13545.768739,-2451.505594
21682.277785,-592.164754,-8364.327145,-1685.410096
21682.278118,-3034.844362,-11843.295072,-4979.620737
21682.278452,-3552.988522,-8364.327145,-2451.505594
21682.278785,-3552.988522,-9548.656652,3064.381992
21682.279118,4367.215058,-7698.141797,6665.030833
21682.279451,6291.750507,-4737.318029,7890.783629
21682.279785,2368.659014,-7328.038826,3753.867940
21682.280118,8364.327145,-6809.894666,2068.457845
21682.280451,2220.617826,-14508.036463,2681.334243
21682.280785,6439.791695,-6217.729913,-1915.238745
21682.281118,-2146.597232,-14285.974681,-6741.640382
21682.281451,0.000000,-13841.851115,-1302.362347
21682.281784,1110.308913,-12435.459826,-1455.581446
21682.282118,-518.144159,-4811.338623,-3677.258390
21682.282451,0.000000,-9400.615463,1149.143247
21682.282784,0.000000,-7624.121203,1302.362347
21682.283118,2960.823768,-8882.471304,6741.640382
21682.283451,0.000000,-3256.906145,3600.648841
21682.283784,2886.803174,-7105.977043,2374.896044
21682.284117,1036.288319,-6291.750507,2145.067394
21682.284451,2590.720797,-12287.418637,2987.772442
21682.284784,0.000000,-6069.688724,-2681.334243
21682.285117,-6513.812290,-14285.974681,-6128.763984
21682.285451,-4589.276840,-10140.821405,-6741.640382
21682.285784,-74.020594,-15100.201217,-2068.457845
21682.286117,-962.267725,-8586.388927,-2528.115143
21682.286451,0.000000,-6587.832884,919.314598
21682.286784,-1480.411884,-8956.491898,1532.190996
21682.287117,4737.318029,-7179.997637,4596.572988
21682.287450,2886.803174,-7550.100608,6818.249932
21682.287784,2072.576638,-7105.977043,3830.477490
21682.288117,1924.535449,-8586.388927,4060.306139
21682.288450,-592.164754,-9696.697840,-76.609550
21682.288784,1110.308913,-11843.295072,-76.609550
21682.289117,-4145.153275,-6291.750507,-1838.629195
21682.289450,-4441.235652,-13027.624579,-2528.115143
21682.289783,-3034.844362,-13027.624579,-1915.238745
21682.290117,-4145.153275,-11695.253884,-76.609550
21682.290450,-3997.112087,-3775.050304,-3753.867940
21682.290783,-962.267725,-11621.233289,-536.266849
21682.291117,592.164754,-9400.615463,919.314598
21682.291450,3997.112087,-11103.089130,8503.660028
21682.291783,1850.514855,-4219.173869,1532.190996
21682.292116,2368.659014,-9548.656652,4443.353888
21682.292450,2886.803174,-9474.636058,383.047749
21682.292783,2664.741391,-7772.162391,1225.752797
21682.293116,666.185348,-9474.636058,-995.924147
21682.293450,-592.164754,-11029.068536,-2834.553343
21682.293783,-1924.535449,-10510.924376,-1302.362347
21682.294116,-740.205942,-11843.295072,-689.485948
21682.294450,-2442.679609,-8882.471304,-2528.115143
21682.294783,-4145.153275,-6587.832884,-1838.629195
21682.295116,1702.473667,-9474.636058,3600.648841
21682.295449,5255.462188,-8142.265362,3294.210641
21682.295783,0.000000,-7179.997637,4903.011187
21682.296116,4071.132681,-6365.771101,2757.943793
21682.296449,2516.700203,-6883.915261,2451.505594
21682.296783,3923.091493,-10436.903782,0.000000
21682.297116,1036.288319,-10807.006753,-1685.410096
21682.297449,-2664.741391,-7772.162391,-7354.516781
21682.297782,0.000000,-12213.398043,-2145.067394
21682.298116,3182.885551,-13027.624579,-76.609550
21682.298449,0.000000,-7476.080014,-1915.238745
21682.298782,0.000000,-6291.750507,612.876398
21682.299116,1110.308913,-9326.594869,0.000000
21682.299449,4441.235652,-8882.471304,3600.648841
21682.299782,2442.679609,-8364.327145,5592.497135
21682.300115,2812.782580,-4811.338623,1455.581446
21682.300449,0.000000,-7772.162391,842.705048
21682.300782,3478.967927,-8290.306550,1915.238745
21682.301115,1850.514855,-11177.109724,689.485948
21682.301449,-3849.070898,-9992.780217,-3753.867940
21682.301782,-3849.070898,-11843.295072,-3753.867940
21682.302115,-2442.679609,-11843.295072,-5592.497135
21682.302449,-1776.494261,-10140.821405,919.314598
21682.302782,-74.020594,-9474.636058,3600.648841
21682.303115,-74.020594,-6809.894666,842.705048
21682.303448,2072.576638,-7179.997637,2451.505594
21682.303782,2960.823768,-10436.903782,4596.572988
21682.304115,4811.338623,-6513.812290,7048.078582
21682.304448,-444.123565,-8364.327145,2604.724693
21682.304782,1702.473667,-7698.141797,-1608.800546
21682.305115,0.000000,-13619.789333,-76.609550
21682.305448,-4145.153275,-8660.409521,0.000000
21682.305781,-2146.597232,-9178.553681,-3753.867940
21682.306115,-4811.338623,-12435.459826,-4366.744339
21682.306448,-2442.679609,-10362.883188,-1915.238745
21682.306781,-4071.132681,-8956.491898,0.000000
21682.307115,1332.370696,-3108.864956,2757.943793
21682.307448,740.205942,-6957.935855,1915.238745
21682.307781,2960.823768,-7772.162391,5515.887586
21682.308114,2886.803174,-9474.636058,4673.182538
21682.308448,0.000000,-7772.162391,2987.772442
21682.308781,-666.185348,-8882.471304,-2451.505594
21682.309114,0.000000,-13101.645173,-3677.258390
21682.309448,962.267725,-9400.615463,0.000000
21682.309781,-3108.864956,-10732.986159,-1455.581446
21682.310114,-2590.720797,-10066.800811,-3217.601092
21682.310448,-1184.329507,-9548.656652,-1302.362347
21682.310781,4367.215058,-11547.212695,5898.935335
21682.311114,3478.967927,-1554.432478,2451.505594
21682.311447,3330.926739,-8290.306550,4826.401637
21682.311781,4663.297435,-6809.894666,842.705048
21682.312114,1184.329507,-12805.562797,4519.963438
21682.312447,3108.864956,-7105.977043,2987.772442
21682.312781,-888.247130,-8808.450710,-459.657299
21682.313114,222.061783,-9030.512492,-4749.792088
21682.313447,-1258.350101,-13397.727550,-3447.429741
21682.313780,-2590.720797,-9030.512492,-4366.744339
21682.314114,-3256.906145,-5995.668130,-2298.286494
21682.314447,-74.020594,-13027.624579,-2221.676944
21682.314780,3256.906145,-7254.018232,2068.457845
21682.315114,2368.659014,-8364.327145,6971.469032
21682.315447,7031.956449,-9918.759623,5898.935335
21682.315780,4737.318029,-6809.894666,3064.381992
21682.316113,5921.647536,-10214.842000,4136.915689
21682.316447,4515.256246,-8068.244768,3294.210641
21682.316780,518.144159,-9474.636058,-842.705048
21682.317113,-1776.494261,-10436.903782,-3370.820191
21682.317447,-2960.823768,-15840.407159,-1072.533697
21682.317780,-1998.556043,-10362.883188,-1608.800546
21682.318113,-3997.112087,-8216.285956,-2528.115143
21682.318447,-1258.350101,-9474.636058,-76.609550
21682.318780,-2960.823768,-5995.668130,0.000000
21682.319113,0.000000,-7772.162391,4826.401637
21682.319446,2294.638420,-6217.729913,1685.410096
21682.319780,-1998.556043,-6587.832884,1225.752797
21682.320113,2960.823768,-10362.883188,1149.143247
21682.320446,1480.411884,-9992.780217,1532.190996
21682.320780,1110.308913,-9104.533087,536.266849
21682.321113,148.041188,-8512.368333,-612.876398
21682.321446,-1184.329507,-10732.986159,-3677.258390
21682.321779,0.000000,-12805.562797,0.000000
21682.322113,-666.185348,-8290.306550,1762.019645
21682.322446,-74.020594,-9474.636058,-689.485948
21682.322779,-2960.823768,-7179.997637,1378.971896
21682.323113,-74.020594,-10658.965565,2374.896044
21682.323446,740.205942,-4071.132681,3600.648841
21682.323779,-370.102971,-4885.359217,4213.525239
21682.324112,1998.556043,-6661.853478,229.828649
21682.324446,1776.494261,-13101.645173,3064.381992
21682.324779,-4737.318029,-7179.997637,2451.505594
21682.325112,-74.020594,-10658.965565,-4826.401637
21682.325446,-7105.977043,-10732.986159,-7354.516781
21682.325779,0.000000,-12879.583391,-2834.553343
21682.326112,-2294.638420,-10140.821405,612.876398
21682.326446,1406.391290,-6735.874072,0.000000
21682.326779,-814.226536,-10362.883188,-1302.362347
21682.327112,3701.029710,-9770.718434,4366.744339
21682.327445,7031.956449,-7994.224174,9729.412825
21682.327779,3552.988522,-4737.318029,8503.660028
21682.328112,5847.626942,-6809.894666,995.924147
21682.328445,0.000000,-10732.986159,919.314598
21682.328779,5921.647536,-10658.965565,3600.648841
21682.329112,-888.247130,-10732.986159,-306.438199
21682.329445,-2146.597232,-9844.739029,-4903.011187
21682.329778,-2738.761985,-12879.583391,-4290.134789
21682.330112,-2590.720797,-12583.501014,-3447.429741
21682.330445,-962.267725,-6809.894666,-3447.429741
21682.330778,-1258.350101,-10658.965565,-1302.362347
21682.331112,4145.153275,-4811.338623,0.000000
21682.331445,3552.988522,-10584.944971,9422.974625
21682.331778,5847.626942,-4885.359217,3294.210641
21682.332111,4145.153275,-6587.832884,3983.696590
21682.332445,4293.194464,-9696.697840,1455.581446
21682.332778,5329.482782,-11103.089130,2451.505594
21682.333111,1924.535449,-8956.491898,0.000000
21682.333445,-370.102971,-10955.047942,-4519.963438
21682.333778,-1554.432478,-10955.047942,-6128.763984
21682.334111,-888.247130,-16728.654289,0.000000
21682.334445,-2442.679609,-7254.018232,229.828649
21682.334778,-4441.235652,-8142.265362,-2221.676944
21682.335111,-666.185348,-8290.306550,1149.143247
21682.335444,2368.659014,-7920.203579,7584.345430
21682.335778,2294.638420,-3552.988522,4979.620737
21682.336111,0.000000,-4219.173869,1225.752797
21682.336444,-2368.659014,-9548.656652,919.314598
21682.336778,0.000000,-9548.656652,0.000000
21682.337111,-1258.350101,-11695.253884,-689.485948
21682.337444,-3404.947333,-10436.903782,-4290.134789
21682.337777,-4145.153275,-10658.965565,-5056.230287
21682.338111,-4441.235652,-13397.727550,-3370.820191
21682.338444,-74.020594,-9474.636058,-76.609550
21682.338777,-2442.679609,-4811.338623,-2451.505594
21682.339111,0.000000,-8734.430116,3600.648841
21682.339444,4663.297435,-7105.977043,6052.154434
21682.339777,0.000000,-10436.903782,7814.174080
21682.340110,1406.391290,-444.123565,1608.800546
21682.340444,-1258.350101,-8808.450710,1072.533697
21682.340777,1998.556043,-7402.059420,-2221.676944
21682.341110,962.267725,-16136.489536,3370.820191
21682.341444,-2442.679609,-7402.059420,-7354.516781
21682.341777,-4145.153275,-12509.480420,-8580.269578
21682.342110,-4737.318029,-13545.768739,-2528.115143
21682.342444,-74.020594,-11843.295072,-3140.991542
21682.342777,-1036.288319,-7105.977043,-76.609550
21682.343110,0.000000,-10436.903782,383.047749
21682.343443,1554.432478,-7624.121203,2834.553343
21682.343777,5255.462188,-9252.574275,9039.926876
21682.344110,7031.956449,-3552.988522,7890.783629
21682.344443,4663.297435,-3627.009116,1838.629195
21682.344777,2368.659014,-8808.450710,2068.457845
21682.345110,4663.297435,-13027.624579,2987.772442
21682.345443,-2738.761985,-7994.224174,-6741.640382
21682.345776,-3182.885551,-12731.542202,-6511.811733
21682.346110,-4219.173869,-11177.109724,-5592.497135
21682.346443,74.020594,-11843.295072,-1378.971896
21682.346776,-518.144159,-6513.812290,-1532.190996
21682.347110,2294.638420,-9474.636058,-76.609550
21682.347443,2368.659014,-7179.997637,3064.381992
21682.347776,7328.038826,-8438.347739,5822.325785
21682.348109,7698.141797,-7476.080014,7431.126331
21682.348443,4737.318029,-5995.668130,3064.381992
21682.348776,5921.647536,-7402.059420,2681.334243
21682.349109,4071.132681,-11325.150913,-1225.752797
21682.349443,592.164754,-10140.821405,0.000000
21682.349776,-74.020594,-10658.965565,-4673.182538
21682.350109,-3182.885551,-11103.089130,-6205.373534
21682.350443,666.185348,-14063.912898,-4213.525239
21682.350776,-666.185348,-12805.562797,842.705048
21682.351109,222.061783,-7994.224174,3753.867940
21682.351442,592.164754,-7402.059420,5056.230287
21682.351776,2368.659014,-4515.256246,7890.783629
21682.352109,-1554.432478,-7772.162391,1838.629195
21682.352442,1406.391290,-2664.741391,5822.325785
21682.352776,-3034.844362,-11547.212695,-689.485948
21682.353109,0.000000,-7179.997637,-2451.505594
21682.353442,-1998.556043,-13767.830521,0.000000
21682.353775,-3034.844362,-9104.533087,-4136.915689
21682.354109,-2812.782580,-9104.533087,-3830.477490
21682.354442,-4811.338623,-14211.954086,-6205.373534
21682.354775,1258.350101,-12879.583391,2987.772442
21682.355109,-4811.338623,-7031.956449,-2451.505594
21682.355442,1184.329507,-8364.327145,2145.067394
21682.355775,0.000000,-7179.997637,6588.421283
21682.356108,4663.297435,-9474.636058,6052.154434
21682.356442,0.000000,-5995.668130,4903.011187
21682.356775,-666.185348,-5921.647536,1762.019645
21682.357108,-3256.906145,-6883.915261,-1072.533697
21682.357442,-2368.659014,-9548.656652,-2451.505594
21682.357775,-1850.514855,-13619.789333,-2528.115143
21682.358108,-5921.647536,-5995.668130,-7354.516781
21682.358442,-4441.235652,-13027.624579,-2528.115143
21682.358775,-5403.503377,-11843.295072,-4519.963438
21682.359108,-2220.617826,-7476.080014,0.000000
21682.359441,-592.164754,-5551.544565,2911.162892
21682.359775,2738.761985,-6957.935855,3370.820191
21682.360108,4219.173869,-7920.203579,5439.278036
21682.360441,4737.318029,-11103.089130,9193.145976
21682.360775,4071.132681,-74.020594,1225.752797
21682.361108,1628.453072,-13619.789333,1149.143247
21682.361441,2294.638420,-11843.295072,-1915.238745
21682.361774,-1184.329507,-11917.315666,-3370.820191
21682.362108,-2368.659014,-7179.997637,-4596.572988
21682.362441,814.226536,-9622.677246,-306.438199
21682.362774,-518.144159,-9400.615463,-153.219100
21682.363108,3256.906145,-6883.915261,4136.915689
21682.363441,-74.020594,-7105.977043,-76.609550
21682.363774,3701.029710,-7476.080014,1225.752797
21682.364107,3182.885551,-6069.688724,1455.581446
21682.364441,6069.688724,-12361.439231,3830.477490
21682.364774,4145.153275,-7772.162391,3524.039291
21682.365107,2960.823768,-10140.821405,0.000000
21682.365441,4071.132681,-10066.800811,-3447.429741
21682.365774,0.000000,-11917.315666,-2451.505594
21682.366107,2294.638420,-13027.624579,-1302.362347
21682.366441,-74.020594,-9178.553681,-2681.334243
21682.366774,592.164754,-9844.739029,1225.752797
21682.367107,3404.947333,-9326.594869,1991.848295
21682.367440,4515.256246,-8068.244768,6052.154434
21682.367774,4367.215058,-5107.421000,4136.915689
21682.368107,1110.308913,-9178.553681,2374.896044
21682.368440,2294.638420,-9548.656652,0.000000
21682.368774,74.020594,-12435.459826,2451.505594
21682.369107,1998.556043,-8290.306550,-3753.867940
21682.369440,-1628.453072,-13175.665768,-2451.505594
21682.369773,-1480.411884,-11547.212695,-76.609550
21682.370107,-2294.638420,-12065.356855,689.485948
21682.370440,-2960.823768,-5773.606348,-995.924147
21682.370773,-4441.235652,-8808.450710,-1225.752797
21682.371107,-4367.215058,-8290.306550,-1915.238745
21682.371440,-74.020594,-4811.338623,3677.258390
21682.371773,-740.205942,-5921.647536,2374.896044
21682.372106,-74.020594,-8290.306550,2068.457845
21682.372440,-3552.988522,-10140.821405,3524.039291
21682.372773,1702.473667,-10362.883188,536.266849
21682.373106,-3404.947333,-9992.780217,1915.238745
21682.373440,-2368.659014,-9548.656652,229.828649
21682.373773,-4145.153275,-7179.997637,-1991.848295
21682.374106,-3552.988522,-12805.562797,-3064.381992
21682.374440,-2368.659014,-10288.862594,2451.505594
21682.374773,-4441.235652,-8290.306550,-1915.238745
21682.375106,-1554.432478,-6957.935855,-2451.505594
21682.375439,-4737.318029,-10732.986159,3830.477490
21682.375773,2294.638420,-5329.482782,1762.019645
21682.376106,592.164754,-5551.544565,4826.401637
21682.376439,666.185348,-7920.203579,1762.019645
21682.376773,4367.215058,-9326.594869,2528.115143
21682.377106,-2072.576638,-10881.027347,3370.820191
21682.377439,1480.411884,-7105.977043,-2681.334243
21682.377772,-4293.194464,-11917.315666,-4290.134789
21682.378106,518.144159,-12435.459826,-3830.477490
21682.378439,2294.638420,-11843.295072,2374.896044
21682.378772,-666.185348,-8882.471304,-1302.362347
21682.379106,1184.329507,-4811.338623,0.000000
21682.379439,148.041188,-11177.109724,4213.525239
21682.379772,9400.615463,-6217.729913,5669.106685
21682.380105,1998.556043,-9474.636058,2987.772442
21682.380439,6735.874072,-8586.388927,-1608.800546
21682.380772,3849.070898,-15174.221811,2451.505594
21682.381105,8734.430116,-6661.853478,4213.525239
21682.381439,7624.121203,-10066.800811,4213.525239
21682.381772,2368.659014,-8660.409521,536.266849
21682.382105,2368.659014,-7179.997637,-3064.381992
21682.382439,-2590.720797,-18357.107362,-1302.362347
21682.382772,2738.761985,-4737.318029,-3753.867940
21682.383105,-7698.141797,-11843.295072,-4596.572988
21682.383438,3478.967927,-7105.977043,-76.609550
21682.383772,2960.823768,-8512.368333,4519.963438
21682.384105,4737.318029,-7402.059420,5132.839837
21682.384438,4219.173869,-6439.791695,3524.039291
21682.384772,-666.185348,-11843.295072,-76.609550
21682.385105,3849.070898,-11843.295072,3677.258390
21682.385438,2294.638420,-11251.130318,2068.457845
21682.385771,-2886.803174,-9696.697840,-4596.572988
21682.386105,-3552.988522,-7920.203579,-1838.629195
21682.386438,-3701.029710,-15174.221811,-2451.505594
21682.386771,296.082377,-7105.977043,1072.533697
21682.387105,-4293.194464,-7624.121203,0.000000
21682.387438,-3478.967927,-9474.636058,0.000000
21682.387771,0.000000,-5403.503377,689.485948
21682.388104,-1258.350101,-13619.789333,5439.278036
21682.388438,2220.617826,-1184.329507,2987.772442
21682.388771,-4737.318029,-8956.491898,2681.334243
21682.389104,2886.803174,-10658.965565,3600.648841
21682.389438,-3552.988522,-9548.656652,995.924147
21682.389771,-4811.338623,-10510.924376,-3140.991542
21682.390104,-6513.812290,-9474.636058,-3753.867940
21682.390438,-5847.626942,-11029.068536,-3753.867940
21682.390771,-3552.988522,-8364.327145,-1685.410096
21682.391104,-4811.338623,-10658.965565,-2834.553343
21682.391437,-2368.659014,-5699.585753,-76.609550
21682.391771,-370.102971,-12731.542202,3600.648841
21682.392104,2294.638420,-9474.636058,4060.306139
21682.392437,1184.329507,-6661.853478,4826.401637
21682.392771,1924.535449,-6883.915261,4443.353888
21682.393104,5847.626942,-5773.606348,3370.820191
21682.393437,2960.823768,-11843.295072,3447.429741
21682.393770,296.082377,-7772.162391,919.314598
21682.394104,-4737.318029,-8956.491898,-7277.907231
21682.394437,-2590.720797,-13101.645173,-5669.106685
21682.394770,-1184.329507,-12805.562797,-3447.429741
21682.395104,1110.308913,-7105.977043,-2528.115143
21682.395437,0.000000,-7772.162391,1225.752797
21682.395770,4663.297435,-8290.306550,6052.154434
21682.396104,8216.285956,-7994.224174,5132.839837
21682.396437,6217.729913,-4811.338623,6741.640382
21682.396770,9992.780217,-7105.977043,3600.648841
21682.397103,4737.318029,-12213.398043,766.095498
21682.397437,9696.697840,-9474.636058,2911.162892
21682.397770,3923.091493,-11251.130318,-153.219100
21682.398103,3552.988522,-8364.327145,-3983.696590
21682.398437,-4145.153275,-10140.821405,-6128.763984
21682.398770,2294.638420,-15396.283594,-4979.620737
21682.399103,0.000000,-8290.306550,-689.485948
21682.399436,-2368.659014,-8512.368333,-76.609550
21682.399770,1924.535449,-7698.141797,1762.019645
21682.400103,2516.700203,-4441.235652,5209.449386
21682.400436,4589.276840,-7920.203579,3217.601092
21682.400770,4589.276840,-6217.729913,3907.087040
21682.401103,-1332.370696,-11843.295072,306.438199
21682.401436,0.000000,-8364.327145,-919.314598
21682.401769,-74.020594,-15396.283594,-2528.115143
21682.402103,-2960.823768,-7772.162391,-4903.011187
21682.402436,-3552.988522,-11325.150913,-1225.752797
21682.402769,-3404.947333,-8956.491898,-3677.258390
21682.403103,-2368.659014,-12287.418637,306.438199
21682.403436,-3627.009116,-8438.347739,1149.143247
21682.403769,0.000000,-7179.997637,2757.943793
21682.404103,-74.020594,-7105.977043,4826.401637
21682.404436,3552.988522,-9548.656652,7277.907231
21682.404769,74.020594,-8290.306550,4826.401637
21682.405102,-2072.576638,-4811.338623,2145.067394
21682.405436,-3034.844362,-11843.295072,-2528.115143
21682.405769,-2738.761985,-11547.212695,-3140.991542
21682.406102,-7105.977043,-11769.274478,-4903.011187
21682.406436,-5255.462188,-6661.853478,-4903.011187
21682.406769,-4145.153275,-10436.903782,-2528.115143
21682.407102,-3552.988522,-9548.656652,306.438199
21682.407435,-74.020594,-8290.306550,3294.210641
21682.407769,-4145.153275,-5551.544565,1532.190996
21682.408102,-74.020594,-9474.636058,2374.896044
21682.408435,-4737.318029,-9548.656652,2757.943793
21682.408769,4663.297435,-6513.812290,7277.907231
21682.409102,2886.803174,-2738.761985,153.219100
21682.409435,2886.803174,-12139.377449,2604.724693
21682.409769,1406.391290,-8290.306550,-842.705048
21682.410102,-3256.906145,-15766.386565,-1532.190996
21682.410435,-1258.350101,-8290.306550,-5286.058936
21682.410768,-3034.844362,-14211.954086,-5132.839837
21682.411102,296.082377,-10214.842000,-1378.971896
21682.411435,3034.844362,-8882.471304,2911.162892
21682.411768,1850.514855,-5181.441594,1838.629195
21682.412102,6957.935855,-7105.977043,7277.907231
21682.412435,5551.544565,-5921.647536,4519.963438
21682.412768,5921.647536,-9474.636058,4826.401637
21682.413101,4663.297435,-8882.471304,3140.991542
21682.413435,1110.308913,-7772.162391,-2451.505594
21682.413768,2886.803174,-7846.182985,-3294.210641
21682.414101,666.185348,-12879.583391,-2221.676944
21682.414435,518.144159,-9326.594869,-4443.353888
21682.414768,148.041188,-10140.821405,-4903.011187
21682.415101,-74.020594,-15396.283594,-1302.362347
21682.415435,3627.009116,-7402.059420,-383.047749
21682.415768,1776.494261,-7772.162391,7967.393179
21682.416101,6735.874072,-6513.812290,3600.648841
21682.416434,2368.659014,-7179.997637,5209.449386
21682.416768,2812.782580,-9252.574275,3064.381992
21682.417101,4071.132681,-7920.203579,1838.629195
21682.417434,-740.205942,-9992.780217,-995.924147
21682.417768,1036.288319,-11843.295072,-2221.676944
21682.418101,-74.020594,-13027.624579,-4979.620737
21682.418434,-3256.906145,-10732.986159,-1838.629195
21682.418767,-4737.318029,-8364.327145,-612.876398
21682.419101,-2590.720797,-11251.130318,-383.047749
21682.419434,-3552.988522,-10066.800811,-76.609550
21682.419767,-296.082377,-8660.409521,4596.572988
21682.420101,1480.411884,-5403.503377,6435.202183
21682.420434,3552.988522,-3997.112087,6971.469032
21682.420767,1110.308913,-7105.977043,2374.896044
21682.421100,-1184.329507,-7179.997637,-2451.505594
21682.421434,-3256.906145,-11251.130318,-76.609550
21682.421767,-2738.761985,-11547.212695,-4979.620737
21682.422100,-4367.215058,-10732.986159,-7354.516781
21682.422434,-1776.494261,-14508.036463,-995.924147
21682.422767,-3108.864956,-8660.409521,0.000000
21682.423100,-2738.761985,-6957.935855,-1608.800546
21682.423434,-1258.350101,-8068.244768,-76.609550
21682.423767,518.144159,-9474.636058,3907.087040
21682.424100,2664.741391,-4959.379811,3983.696590
21682.424433,888.247130,-9178.553681,3753.867940
21682.424767,1036.288319,-8586.388927,3753.867940
21682.425100,2368.659014,-7179.997637,1532.190996
21682.425433,-592.164754,-11325.150913,4060.306139
21682.425767,1110.308913,-7105.977043,-4366.744339
21682.426100,-4737.318029,-11029.068536,-4903.011187
21682.426433,-2368.659014,-13989.892304,-1302.362347
21682.426766,-2368.659014,-9548.656652,-1685.410096
21682.427100,-4293.194464,-10214.842000,2068.457845
21682.427433,1184.329507,-888.247130,383.047749
21682.427766,1184.329507,-7328.038826,919.314598
21682.428100,7031.956449,-11251.130318,5745.716235
21682.428433,3552.988522,-5107.421000,4596.572988
21682.428766,1998.556043,-9622.677246,-3370.820191
21682.429100,3552.988522,-12065.356855,1608.800546
21682.429433,3478.967927,-14211.954086,2374.896044
21682.429766,6291.750507,-7994.224174,766.095498
21682.430099,0.000000,-10881.027347,-995.924147
21682.430433,1480.411884,-11251.130318,-2145.067394
21682.430766,1998.556043,-10436.903782,995.924147
21682.431099,2590.720797,-6957.935855,1762.019645
21682.431433,2368.659014,-7772.162391,2374.896044
21682.431766,0.000000,-7179.997637,0.000000
21682.432099,3849.070898,-9992.780217,4519.963438
21682.432432,1110.308913,-6587.832884,0.000000
21682.432766,-1184.329507,-10214.842000,-2451.505594
21682.433099,4367.215058,-9474.636058,-76.609550
21682.433432,1036.288319,-14582.057057,3524.039291
21682.433766,5403.503377,-5107.421000,3600.648841
21682.434099,444.123565,-8216.285956,306.438199
21682.434432,2294.638420,-11547.212695,-2528.115143
21682.434766,0.000000,-10140.821405,612.876398
21682.435099,-6513.812290,-9548.656652,0.000000
21682.435432,-666.185348,-7105.977043,-2221.676944
21682.435765,-6809.894666,-7772.162391,-2451.505594
21682.436099,518.144159,-10362.883188,2068.457845
21682.436432,0.000000,-6439.791695,4136.915689
21682.436765,296.082377,-7031.956449,1225.752797
21682.437099,592.164754,-8068.244768,2987.772442
21682.437432,518.144159,-9770.718434,0.000000
21682.437765,0.000000,-10288.862594,2374.896044
21682.438098,-1850.514855,-9474.636058,-1915.238745
21682.438432,-3330.926739,-8512.368333,-6128.763984
21682.438765,-2368.659014,-9548.656652,0.000000
21682.439098,-2442.679609,-10584.944971,-1532.190996
21682.439432,-3404.947333,-7254.018232,-1915.238745
21682.439765,-4811.338623,-9622.677246,-1378.971896
21682.440098,814.226536,-9178.553681,1608.800546
21682.440431,1998.556043,-7179.997637,4903.011187
21682.440765,1850.514855,-5847.626942,2528.115143
21682.441098,1480.411884,-9252.574275,3907.087040
21682.441431,1480.411884,-8438.347739,76.609550
21682.441765,4441.235652,-13989.892304,2987.772442
21682.442098,-74.020594,-8586.388927,-2451.505594
21682.442431,-2220.617826,-12657.521608,-1378.971896
21682.442765,-74.020594,-11251.130318,-4060.306139
21682.443098,-3552.988522,-11917.315666,0.000000
21682.443431,-2368.659014,-4811.338623,0.000000
21682.443764,-370.102971,-7402.059420,383.047749
21682.444098,0.000000,-7920.203579,2834.553343
21682.444431,2368.659014,-6513.812290,5056.230287
21682.444764,2886.803174,-7105.977043,4213.525239
21682.445098,4663.297435,-6513.812290,-1455.581446
21682.445431,2368.659014,-12361.439231,2374.896044
21682.445764,3775.050304,-11843.295072,-76.609550
21682.446097,814.226536,-9030.512492,-2757.943793
21682.446431,-74.020594,-12287.418637,-2528.115143
21682.446764,-1036.288319,-11621.233289,-3830.477490
21682.447097,1110.308913,-11621.233289,-1302.362347
21682.447431,2146.597232,-9770.718434,1072.533697
21682.447764,1776.494261,-5995.668130,1838.629195
21682.448097,4663.297435,-5403.503377,1225.752797
21682.448431,5847.626942,-11251.130318,4826.401637
21682.448764,2738.761985,-7476.080014,3217.601092
21682.449097,0.000000,-5403.503377,1838.629195
21682.449430,962.267725,-10362.883188,-689.485948
21682.449764,296.082377,-11325.150913,-1302.362347
21682.450097,-1184.329507,-11695.253884,-995.924147
21682.450430,-2072.576638,-8660.409521,-2528.115143
21682.450764,-2072.576638,-10066.800811,-1838.629195
21682.451097,-2368.659014,-8956.491898,0.000000
21682.451430,2072.576638,-9844.739029,2374.896044
21682.451763,-74.020594,-5625.565159,-1302.362347
21682.452097,2220.617826,-8734.430116,0.000000
21682.452430,3552.988522,-11473.192101,2451.505594
21682.452763,4959.379811,-9622.677246,5898.935335
21682.453097,2294.638420,-8290.306550,3370.820191
21682.453430,2294.638420,-7994.224174,995.924147
21682.453763,-1258.350101,-11695.253884,-1302.362347
21682.454097,-1776.494261,-12213.398043,842.705048
21682.454430,-4811.338623,-7772.162391,-3677.258390
21682.454763,-6439.791695,-7179.997637,-6128.763984
21682.455096,-4219.173869,-10362.883188,-1302.362347
21682.455430,-5033.400406,-10732.986159,0.000000
21682.455763,-1332.370696,-6957.935855,536.266849
21682.456096,-1480.411884,-6365.771101,1685.410096
21682.456430,1850.514855,-6883.915261,2451.505594
21682.456763,2886.803174,-11251.130318,4213.525239
21682.457096,1924.535449,-8660.409521,3064.381992
21682.457429,888.247130,-7772.162391,-612.876398
21682.457763,-296.082377,-11103.089130,-1072.533697
21682.458096,1110.308913,-11769.274478,-1762.019645
21682.458429,-666.185348,-13027.624579,-689.485948
21682.458763,-2960.823768,-9548.656652,-2451.505594
21682.459096,0.000000,-8142.265362,-842.705048
21682.459429,222.061783,-9992.780217,1225.752797
21682.459762,592.164754,-4811.338623,3064.381992
21682.460096,2294.638420,-5921.647536,2681.334243
21682.460429,296.082377,-7328.038826,1838.629195
21682.460762,2442.679609,-8068.244768,76.609550
21682.461096,4589.276840,-11473.192101,2374.896044
21682.461429,3330.926739,-6809.894666,229.828649
21682.461762,1184.329507,-10510.924376,2068.457845
21682.462096,1998.556043,-14211.954086,-689.485948
21682.462429,-666.185348,-9844.739029,-3524.039291
21682.462762,-3552.988522,-9844.739029,-2451.505594
21682.463095,-1406.391290,-7550.100608,-3907.087040
21682.463429,-2738.761985,-9696.697840,-995.924147
21682.463762,1702.473667,-8290.306550,2068.457845
21682.464095,1628.453072,-5625.565159,4596.572988
21682.464429,1776.494261,-4811.338623,3677.258390
21682.464762,4737.318029,-9474.636058,4826.401637
21682.465095,2294.638420,-11029.068536,766.095498
21682.465428,0.000000,-8364.327145,2451.505594
21682.465762,2664.741391,-10658.965565,-689.485948
21682.466095,0.000000,-10732.986159,-2451.505594
21682.466428,1036.288319,-12139.377449,-2451.505594
21682.466762,-962.267725,-12287.418637,-153.219100
21682.467095,0.000000,-7772.162391,-842.705048
21682.467428,-2368.659014,-9474.636058,612.876398
21682.467762,-74.020594,-11843.295072,-76.609550
21682.468095,-1184.329507,-4811.338623,4903.011187
21682.468428,-666.185348,-6513.812290,4213.525239
21682.468761,1110.308913,-4737.318029,-689.485948
21682.469095,0.000000,-10140.821405,4596.572988
21682.469428,3404.947333,-3108.864956,1838.629195
21682.469761,-518.144159,-8808.450710,-2068.457845
21682.470095,-1332.370696,-11769.274478,-4826.401637
21682.470428,-1924.535449,-14211.954086,-6128.763984
21682.470761,-2220.617826,-17172.777854,-1149.143247
21682.471094,-888.247130,-7624.121203,-459.657299
21682.471428,-4589.276840,-10288.862594,-2298.286494
21682.471761,-370.102971,-7105.977043,766.095498
21682.472094,444.123565,-5107.421000,3677.258390
21682.472428,4811.338623,-5921.647536,7890.783629
21682.472761,2368.659014,-962.267725,3294.210641
21682.473094,-1184.329507,-9696.697840,3064.381992
21682.473428,3923.091493,-8882.471304,2068.457845
21682.473761,-2220.617826,-7772.162391,0.000000
21682.474094,-2072.576638,-9548.656652,-6588.421283
21682.474427,-6069.688724,-14730.098246,-6971.469032
21682.474761,-3552.988522,-13693.809927,-4596.572988
21682.475094,-1554.432478,-10362.883188,0.000000
21682.475427,1702.473667,-8290.306550,1762.019645
21682.475761,1702.473667,-6217.729913,1455.581446
21682.476094,2738.761985,-8956.491898,4903.011187
21682.476427,6513.812290,-5107.421000,8963.317327
21682.476760,2368.659014,-6143.709319,4443.353888
21682.477094,2886.803174,-9104.533087,612.876398
21682.477427,3775.050304,-11325.150913,-1225.752797
21682.477760,4663.297435,-14211.954086,1762.019645
21682.478094,3034.844362,-7179.997637,0.000000
21682.478427,-74.020594,-11843.295072,-4979.620737
21682.478760,-2368.659014,-11917.315666,-3064.381992
21682.479093,-2442.679609,-9474.636058,-2145.067394
21682.479427,-1998.556043,-8290.306550,-1532.190996
21682.479760,-2664.741391,-9400.615463,536.266849
21682.480093,148.041188,-6957.935855,2834.553343
21682.480427,1850.514855,-7179.997637,5286.058936
21682.480760,592.164754,-4219.173869,4213.525239
21682.481093,592.164754,-6735.874072,2528.115143
21682.481427,1110.308913,-9548.656652,0.000000
21682.481760,0.000000,-10732.986159,3677.258390
21682.482093,3478.967927,-8882.471304,-2221.676944
21682.482426,-3182.885551,-10510.924376,-4903.011187
21682.482760,1110.308913,-11251.130318,-3447.429741
21682.483093,0.000000,-12435.459826,-76.609550
21682.483426,1184.329507,-10288.862594,919.314598
21682.483760,-74.020594,-9474.636058,229.828649
21682.484093,-962.267725,-11251.130318,-76.609550
21682.484426,0.000000,-9548.656652,5209.449386
21682.484759,1628.453072,-6513.812290,6665.030833
21682.485093,2294.638420,-4441.235652,0.000000
21682.485426,-444.123565,-7624.121203,1685.410096
21682.485759,-814.226536,-9326.594869,536.266849
21682.486093,-1702.473667,-8734.430116,-536.266849
21682.486426,-3478.967927,-8808.450710,-2681.334243
21682.486759,-1184.329507,-7772.162391,-6281.983084
21682.487092,-666.185348,-19837.519246,-689.485948
21682.487426,222.061783,-8290.306550,536.266849
21682.487759,-3478.967927,-10362.883188,-1991.848295
21682.488092,-1554.432478,-10436.903782,229.828649
21682.488425,1184.329507,-9548.656652,3064.381992
21682.488758,2294.638420,-9474.636058,6052.154434
21682.489092,4219.173869,-1480.411884,3217.601092
21682.489425,0.000000,-8364.327145,3677.258390
21682.489758,3775.050304,-7698.141797,4060.306139
21682.490091,74.020594,-5995.668130,0.000000
21682.490425,-74.020594,-8882.471304,-2528.115143
21682.490758,-5403.503377,-10510.924376,-7354.516781
21682.491091,-4515.256246,-14285.974681,-4290.134789
21682.491424,-3256.906145,-13323.706956,-2528.115143
21682.491757,-74.020594,-8290.306550,-689.485948
21682.492091,592.164754,-7328.038826,3370.820191
21682.492424,4737.318029,-4811.338623,8044.002729
21682.492757,5847.626942,-10510.924376,4903.011187
21682.493090,2368.659014,-4811.338623,4903.011187
21682.493424,3775.050304,-9844.739029,306.438199
21682.493757,6143.709319,-9474.636058,1685.410096
21682.494090,7624.121203,-11325.150913,1072.533697
21682.494423,1406.391290,-11251.130318,-2528.115143
21682.494756,2294.638420,-9178.553681,-2834.553343
21682.495090,-2368.659014,-12213.398043,-2834.553343
21682.495423,2886.803174,-15988.448347,1455.581446
21682.495756,-2738.761985,-4737.318029,-153.219100
21682.496089,-1258.350101,-11251.130318,-383.047749
21682.496423,1184.329507,-4515.256246,1838.629195
21682.496756,1850.514855,-9992.780217,4903.011187
21682.497089,2072.576638,-7105.977043,5056.230287
21682.497422,0.000000,-2442.679609,0.000000
21682.497755,-666.185348,-9770.718434,-3907.087040
21682.498089,2368.659014,-12509.480420,2374.896044
21682.498422,-2442.679609,-11843.295072,-3753.867940
21682.498755,-3552.988522,-5995.668130,-6894.859482
21682.499088,-5033.400406,-8290.306550,-4366.744339
21682.499422,1406.391290,-13027.624579,1149.143247
21682.499755,2516.700203,-8142.265362,4519.963438
21682.500088,148.041188,-10140.821405,3217.601092
21682.500421,4219.173869,-8216.285956,3983.696590
21682.500754,0.000000,-8068.244768,5209.449386
21682.501088,6735.874072,-9474.636058,4826.401637
21682.501421,-1776.494261,-4811.338623,3064.381992
21682.501754,-370.102971,-9474.636058,-1915.238745
21682.502087,-2368.659014,-10732.986159,-3907.087040
21682.502421,-5033.400406,-12361.439231,-1302.362347
21682.502754,-3182.885551,-6143.709319,-3294.210641
21682.503087,-4811.338623,-6513.812290,-2374.896044
21682.503420,-74.020594,-9474.636058,-4060.306139
21682.503753,-3404.947333,-14730.098246,2757.943793
21682.504087,-370.102971,-6143.709319,3294.210641
21682.504420,1480.411884,-6143.709319,2298.286494
21682.504753,0.000000,-8956.491898,2451.505594
21682.505086,4663.297435,-13619.789333,3677.258390
21682.505420,0.000000,-4811.338623,0.000000
21682.505753,2368.659014,-11251.130318,2374.896044
21682.506086,0.000000,-9548.656652,-2451.505594
21682.506419,-1184.329507,-11103.089130,-612.876398
21682.506752,-148.041188,-7698.141797,-1302.362347
21682.507086,-2368.659014,-8216.285956,-3907.087040
21682.507419,-3330.926739,-11399.171507,-3830.477490
21682.507752,296.082377,-10807.006753,842.705048
21682.508085,1702.473667,-8290.306550,842.705048
21682.508419,592.164754,-7179.997637,5822.325785
21682.508752,4663.297435,-7105.977043,5439.278036
21682.509085,1776.494261,-6291.750507,3677.258390
21682.509418,6217.729913,-9844.739029,3064.381992
21682.509751,2738.761985,-8956.491898,-995.924147
21682.510085,444.123565,-11251.130318,-3140.991542
21682.510418,4293.194464,-11251.130318,-2757.943793
21682.510751,2516.700203,-14285.974681,-689.485948
21682.511084,2960.823768,-8956.491898,0.000000
21682.511418,3923.091493,-11843.295072,2068.457845
21682.511751,74.020594,-8364.327145,-1225.752797
21682.512084,0.000000,-10732.986159,3677.258390
21682.512417,1110.308913,-4737.318029,1762.019645
21682.512750,-2368.659014,-7772.162391,0.000000
21682.513084,0.000000,-6143.709319,1225.752797
21682.513417,2516.700203,-8586.388927,3524.039291
21682.513750,296.082377,-6217.729913,2604.724693
21682.514083,-222.061783,-6069.688724,-459.657299
21682.514417,-3627.009116,-13619.789333,-5592.497135
21682.514750,-2072.576638,-11325.150913,-3064.381992
21682.515083,-3256.906145,-10658.965565,1072.533697
21682.515416,-74.020594,-10658.965565,-3753.867940
21682.515749,-4737.318029,-9548.656652,-612.876398
21682.516083,962.267725,-10658.965565,842.705048
21682.516416,2368.659014,-7550.100608,5132.839837
21682.516749,2368.659014,-7328.038826,5822.325785
21682.517082,2590.720797,-7698.141797,4519.963438
21682.517415,2590.720797,-11473.192101,4136.915689
21682.517749,1036.288319,-7994.224174,3064.381992
21682.518082,296.082377,-6661.853478,536.266849
21682.518415,-2442.679609,-7772.162391,-4903.011187
21682.518748,-4441.235652,-9548.656652,-3677.258390
21682.519082,-4959.379811,-14137.933492,-2528.115143
21682.519415,-4219.173869,-7105.977043,-4979.620737
21682.519748,-6661.853478,-8068.244768,-2451.505594
21682.520081,-1258.350101,-7698.141797,-995.924147
21682.520414,1184.329507,-9548.656652,5975.544884
21682.520748,1480.411884,-4293.194464,4673.182538
21682.521081,1258.350101,-8290.306550,-76.609550
21682.521414,0.000000,-13101.645173,0.000000
21682.521747,3478.967927,-11843.295072,3677.258390
21682.522081,5847.626942,-8290.306550,3600.648841
21682.522414,3849.070898,-7772.162391,1225.752797
21682.522747,0.000000,-10732.986159,-306.438199
21682.523080,0.000000,-10436.903782,-1225.752797
21682.523413,-2368.659014,-7550.100608,-689.485948
21682.523747,-2442.679609,-8808.450710,-4366.744339
21682.524080,-3923.091493,-10066.800811,-3447.429741
21682.524413,-1258.350101,-14211.954086,-76.609550
21682.524746,148.041188,-2442.679609,1838.629195
21682.525080,2294.638420,-9474.636058,1762.019645
21682.525413,4145.153275,-2442.679609,3983.696590
21682.525746,6735.874072,-9474.636058,6665.030833
21682.526079,4663.297435,-10066.800811,2987.772442
21682.526412,2812.782580,-9326.594869,-1302.362347
21682.526746,-2368.659014,-13989.892304,-5056.230287
21682.527079,5847.626942,-11325.150913,-1225.752797
21682.527412,-740.205942,-12213.398043,459.657299
21682.527745,3552.988522,-6883.915261,-76.609550
21682.528079,-1480.411884,-8364.327145,-1838.629195
21682.528412,1184.329507,-9548.656652,2451.505594
21682.528745,6439.791695,-9474.636058,5745.716235
21682.529078,0.000000,-5995.668130,2145.067394
21682.529411,3478.967927,-7994.224174,1762.019645
21682.529745,0.000000,-9548.656652,2221.676944
21682.530078,5255.462188,-8512.368333,2221.676944
21682.530411,-1850.514855,-10955.047942,1225.752797
21682.530744,-1258.350101,-9474.636058,-4979.620737
21682.531078,-7105.977043,-11325.150913,-2451.505594
21682.531411,-1258.350101,-9474.636058,-383.047749
21682.531744,-1258.350101,-7105.977043,-3447.429741
21682.532077,-6809.894666,-8956.491898,-2451.505594
21682.532410,-74.020594,-10955.047942,-1608.800546
21682.532744,444.123565,-10362.883188,5439.278036
21682.533077,1850.514855,-5477.523971,3983.696590
21682.533410,1554.432478,-5773.606348,3140.991542
21682.533743,2886.803174,-10955.047942,2681.334243
21682.534077,3256.906145,-11843.295072,3294.210641
21682.534410,-1406.391290,-9770.718434,0.000000
21682.534743,-2220.617826,-7698.141797,-3524.039291
21682.535076,-4145.153275,-10140.821405,-2451.505594
21682.535409,1110.308913,-11843.295072,-689.485948
21682.535743,-4367.215058,-7476.080014,-1532.190996
21682.536076,-4737.318029,-6291.750507,-383.047749
21682.536409,-2886.803174,-8142.265362,1149.143247
21682.536742,1998.556043,-6143.709319,1915.238745
21682.537076,3330.926739,-8142.265362,5898.935335
21682.537409,666.185348,-7254.018232,3140.991542
21682.537742,-444.123565,-9178.553681,-689.485948
21682.538075,2072.576638,-11547.212695,-76.609550
21682.538408,2886.803174,-12731.542202,-76.609550
21682.538742,-1184.329507,-6291.750507,-1838.629195
21682.539075,-2368.659014,-8364.327145,-612.876398
21682.539408,0.000000,-10436.903782,-919.314598
21682.539741,0.000000,-10732.986159,5362.668486
21682.540075,1110.308913,-7105.977043,-76.609550
21682.540408,1702.473667,-10066.800811,1762.019645
21682.540741,1998.556043,-8660.409521,459.657299
21682.541074,7031.956449,-10066.800811,4826.401637
21682.541407,1110.308913,-9474.636058,1762.019645
21682.541741,2368.659014,-7179.997637,612.876398
21682.542074,1924.535449,-11843.295072,3600.648841
21682.542407,5551.544565,-8586.388927,842.705048
21682.542740,1110.308913,-6587.832884,-842.705048
21682.543074,-3404.947333,-11029.068536,-4290.134789
21682.543407,740.205942,-12879.583391,-2834.553343
21682.543740,444.123565,-13619.789333,1149.143247
21682.544073,2368.659014,-5699.585753,612.876398
21682.544406,-74.020594,-9474.636058,766.095498
21682.544740,2368.659014,-7179.997637,4290.134789
21682.545073,4663.297435,-11547.212695,4826.401637
21682.545406,2368.659014,-5995.668130,2451.505594
21682.545739,1406.391290,-7698.141797,-76.609550
21682.546073,-222.061783,-10658.965565,689.485948
21682.546406,2516.700203,-9178.553681,-689.485948
21682.546739,-1924.535449,-12139.377449,-459.657299
21682.547072,-2294.638420,-7476.080014,-1838.629195
21682.547405,-6809.894666,-9548.656652,-3677.258390
21682.547739,-3034.844362,-13027.624579,-76.609550
21682.548072,-2442.679609,-6513.812290,-1685.410096
21682.548405,1184.329507,-4737.318029,2374.896044
21682.548738,-74.020594,-9474.636058,3600.648841
21682.549071,296.082377,-7105.977043,2374.896044
21682.549405,-1184.329507,-9992.780217,3140.991542
21682.549738,-370.102971,-8364.327145,0.000000
21682.550071,2368.659014,-10140.821405,2145.067394
21682.550404,-2812.782580,-10732.986159,-919.314598
21682.550738,222.061783,-11917.315666,153.219100
21682.551071,-5107.421000,-6883.915261,-4519.963438
21682.551404,-1184.329507,-10436.903782,-2221.676944
21682.551737,592.164754,-9548.656652,0.000000
21682.552070,-1554.432478,-11843.295072,1455.581446
21682.552404,-3552.988522,-6587.832884,1225.752797
21682.552737,-74.020594,-9474.636058,2374.896044
21682.553070,1110.308913,-7402.059420,2374.896044
21682.553403,3552.988522,-8660.409521,5669.106685
21682.553737,2886.803174,-7105.977043,2834.553343
21682.554070,-1702.473667,-9622.677246,-1838.629195
21682.554403,-1110.308913,-11621.233289,-1838.629195
21682.554736,-74.020594,-13619.789333,-383.047749
21682.555069,-2960.823768,-9548.656652,-1532.190996
21682.555403,0.000000,-8364.327145,-2451.505594
21682.555736,-74.020594,-11843.295072,-2528.115143
21682.556069,0.000000,-7179.997637,1225.752797
21682.556402,4663.297435,-7994.224174,4213.525239
21682.556736,5551.544565,-4737.318029,4060.306139
21682.557069,2146.597232,-9252.574275,1608.800546
21682.557402,3923.091493,-8586.388927,2681.334243
21682.557735,3182.885551,-9474.636058,2374.896044
21682.558068,0.000000,-6587.832884,1532.190996
21682.558402,1110.308913,-10362.883188,-689.485948
21682.558735,-74.020594,-12435.459826,-2681.334243
21682.559068,0.000000,-10140.821405,-1838.629195
21682.559401,814.226536,-5107.421000,-2987.772442
21682.559735,-1702.473667,-11473.192101,-2834.553343
21682.560068,2368.659014,-7624.121203,-1608.800546
21682.560401,1998.556043,-14137.933492,4290.134789
21682.560734,5921.647536,-2442.679609,1225.752797
21682.561067,5921.647536,-11325.150913,9729.412825
21682.561401,4071.132681,-8290.306550,229.828649
21682.561734,4737.318029,-11325.150913,4903.011187
21682.562067,0.000000,-8660.409521,1149.143247
21682.562400,2886.803174,-10140.821405,-2374.896044
21682.562734,-1628.453072,-10584.944971,-3140.991542
21682.563067,296.082377,-13101.645173,-2298.286494
21682.563400,-4219.173869,-9918.759623,-1991.848295
21682.563733,-1924.535449,-7772.162391,0.000000
21682.564066,-5181.441594,-9548.656652,-1455.581446
21682.564400,-3182.885551,-10881.027347,2987.772442
21682.564733,-1924.535449,-3034.844362,1532.190996
21682.565066,-74.020594,-6513.812290,4213.525239
21682.565399,1110.308913,-5033.400406,536.266849
21682.565733,0.000000,-10881.027347,4903.011187
21682.566066,-74.020594,-11251.130318,1762.019645
21682.566399,-1702.473667,-5477.523971,-4290.134789
21682.566732,-4589.276840,-15174.221811,-4290.134789
21682.567065,-1998.556043,-13471.748144,-3524.039291
21682.567399,-2812.782580,-11103.089130,-383.047749
21682.567732,-1850.514855,-8216.285956,-1302.362347
21682.568065,962.267725,-7994.224174,-1455.581446
21682.568398,-370.102971,-9844.739029,2068.457845
21682.568732,2664.741391,-6291.750507,7431.126331
21682.569065,2146.597232,-5921.647536,5745.716235
21682.569398,3182.885551,-7105.977043,1149.143247
21682.569731,-666.185348,-9696.697840,1149.143247
21682.570064,444.123565,-7328.038826,1838.629195
21682.570398,-74.020594,-6365.771101,-3140.991542
21682.570731,-3034.844362,-13619.789333,-3294.210641
21682.571064,-5921.647536,-9548.656652,-6128.763984
21682.571397,-2738.761985,-13619.789333,-4903.011187
21682.571731,-1776.494261,-10436.903782,-76.609550
21682.572064,-74.020594,-9474.636058,-383.047749
21682.572397,1998.556043,-8290.306550,4673.182538
21682.572730,2368.659014,-7772.162391,6281.983084
21682.573063,4441.235652,-3701.029710,5286.058936
21682.573397,3330.926739,-7624.121203,3677.258390
21682.573730,3997.112087,-9696.697840,1378.971896
21682.574063,5255.462188,-14211.954086,1762.019645
21682.574396,1110.308913,-6587.832884,0.000000
21682.574730,3478.967927,-10066.800811,-1915.238745
21682.575063,-962.267725,-8956.491898,-6128.763984
21682.575396,0.000000,-13989.892304,459.657299
21682.575729,-74.020594,-8586.388927,-1762.019645
21682.576062,0.000000,-6069.688724,-1991.848295
21682.576396,-444.123565,-9918.759623,76.609550
21682.576729,3923.091493,-9548.656652,2604.724693
21682.577062,5699.585753,-5329.482782,4596.572988
21682.577395,4737.318029,-5995.668130,5362.668486
21682.577729,4663.297435,-7624.121203,-2374.896044
21682.578062,4737.318029,-12361.439231,1225.752797
21682.578395,3849.070898,-11251.130318,-76.609550
21682.578728,3478.967927,-10362.883188,-1991.848295
21682.579061,-1480.411884,-12805.562797,-2298.286494
21682.579395,1332.370696,-10436.903782,-1455.581446
21682.579728,888.247130,-10140.821405,3140.991542
21682.580061,1776.494261,-6513.812290,-306.438199
21682.580394,0.000000,-9548.656652,3370.820191
21682.580727,-3108.864956,-9548.656652,1225.752797
21682.581061,444.123565,-9104.533087,3753.867940
21682.581394,518.144159,-6513.812290,1991.848295
21682.581727,2886.803174,-9474.636058,1149.143247
21682.582060,-1776.494261,-9992.780217,4826.401637
21682.582394,-1258.350101,-9474.636058,-76.609550
21682.582727,-2738.761985,-6883.915261,-3064.381992
21682.583060,-5329.482782,-9622.677246,-3677.258390
21682.583393,-1554.432478,-13323.706956,-1302.362347
21682.583726,-3404.947333,-11917.315666,919.314598
21682.584060,-4441.235652,-6883.915261,-1149.143247
21682.584393,-4811.338623,-8660.409521,-2145.067394
21682.584726,-2072.576638,-5107.421000,153.219100
21682.585059,0.000000,-9844.739029,7201.297681
21682.585393,-74.020594,-3849.070898,2221.676944
21682.585726,-1406.391290,-5995.668130,1838.629195
21682.586059,-1110.308913,-8882.471304,3600.648841
21682.586392,2294.638420,-7105.977043,1072.533697
21682.586725,-222.061783,-6439.791695,-383.047749
21682.587059,-3478.967927,-10658.965565,-4519.963438
21682.587392,-4737.318029,-12065.356855,-4903.011187
21682.587725,-3552.988522,-13693.809927,-3677.258390
21682.588058,-1776.494261,-9548.656652,1762.019645
21682.588392,-3034.844362,-9030.512492,-2451.505594
21682.588725,1184.329507,-6587.832884,0.000000
21682.589058,2960.823768,-10584.944971,7584.345430
21682.589391,2368.659014,-5995.668130,5515.887586
21682.589724,4515.256246,-4663.297435,3677.258390
21682.590058,1924.535449,-8956.491898,1685.410096
21682.590391,4441.235652,-9104.533087,1838.629195
21682.590724,4071.132681,-10658.965565,2298.286494
21682.591057,296.082377,-9844.739029,-2681.334243
21682.591391,-4737.318029,-12509.480420,-3064.381992
21682.591724,1110.308913,-14211.954086,-4060.306139
21682.592057,148.041188,-9548.656652,-1838.629195
21682.592390,1702.473667,-6809.894666,-76.609550
21682.592724,2294.638420,-8586.388927,-76.609550
21682.593057,3552.988522,-8364.327145,3064.381992
21682.593390,6587.832884,-9400.615463,6665.030833
21682.593723,7105.977043,-2442.679609,6128.763984
21682.594056,6143.709319,-7476.080014,3677.258390
21682.594390,6439.791695,-9474.636058,4826.401637
21682.594723,3478.967927,-11843.295072,-2374.896044
21682.595056,-2368.659014,-9548.656652,-4903.011187
21682.595389,296.082377,-11251.130318,-5592.497135
21682.595723,-4441.235652,-14656.077652,-4136.915689
21682.596056,1184.329507,-10140.821405,-919.314598
21682.596389,-2812.782580,-8660.409521,-842.705048
21682.596722,2516.700203,-7476.080014,1225.752797
21682.597056,4737.318029,-4219.173869,7354.516781
21682.597389,2146.597232,-10140.821405,6741.640382
21682.597722,3923.091493,-4293.194464,4060.306139
21682.598055,-2960.823768,-10510.924376,0.000000
21682.598388,0.000000,-8364.327145,-2451.505594
21682.598722,-1258.350101,-11547.212695,-1915.238745
21682.599055,-4145.153275,-10436.903782,-76.609550
21682.599388,-4219.173869,-6735.874072,-7048.078582
21682.599721,-4219.173869,-11843.295072,-3140.991542
21682.600055,-1036.288319,-10955.047942,-383.047749
21682.600388,-5477.523971,-11917.315666,3677.258390
21682.600721,74.020594,-3775.050304,1302.362347
21682.601054,-2590.720797,-9992.780217,3217.601092
21682.601388,2886.803174,-8290.306550,7277.907231
21682.601721,-2368.659014,-5995.668130,2757.943793
21682.602054,0.000000,-6883.915261,4826.401637
21682.602387,-1554.432478,-9474.636058,-1991.848295
21682.602720,-4145.153275,-7476.080014,-2145.067394
21682.603054,-2738.761985,-11843.295072,-1302.362347
21682.603387,-3849.070898,-5551.544565,-3447.429741
21682.603720,-3034.844362,-12583.501014,-4213.525239
21682.604053,-2590.720797,-11103.089130,-76.609550
21682.604387,-370.102971,-11251.130318,-76.609550
21682.604720,-4145.153275,-5995.668130,1838.629195
21682.605053,1924.535449,-9326.594869,4826.401637
21682.605386,4663.297435,-7698.141797,2068.457845
21682.605720,4737.318029,-8956.491898,7354.516781
21682.606053,2294.638420,-7698.141797,2834.553343
21682.606386,1110.308913,-8438.347739,-612.876398
21682.606719,518.144159,-9326.594869,-612.876398
21682.607052,222.061783,-12731.542202,-2451.505594
21682.607386,296.082377,-5403.503377,-3983.696590
21682.607719,-3552.988522,-9548.656652,-2528.115143
21682.608052,1702.473667,-11251.130318,-2834.553343
21682.608385,-592.164754,-8364.327145,-2068.457845
21682.608719,2368.659014,-9548.656652,3677.258390
21682.609052,5255.462188,-3182.885551,1838.629195
21682.609385,5995.668130,-9178.553681,229.828649
21682.609718,5181.441594,-10584.944971,2528.115143
21682.610052,6587.832884,-10658.965565,4673.182538
21682.610385,5329.482782,-5403.503377,536.266849
21682.610718,4145.153275,-10066.800811,-76.609550
21682.611051,1924.535449,-11843.295072,-2068.457845
21682.611385,2812.782580,-11251.130318,-689.485948
21682.611718,2294.638420,-8882.471304,-1302.362347
21682.612051,-74.020594,-12731.542202,-4136.915689
21682.612384,-2368.659014,-10288.862594,0.000000
21682.612717,0.000000,-11029.068536,2911.162892
21682.613051,1702.473667,-6809.894666,1762.019645
21682.613384,2368.659014,-7328.038826,2451.505594
21682.613717,2294.638420,-7994.224174,3370.820191
21682.614050,3034.844362,-9474.636058,5745.716235
21682.614384,74.020594,-7328.038826,2221.676944
21682.614717,-1850.514855,-7994.224174,-1302.362347
21682.615050,-1924.535449,-10658.965565,-3140.991542
21682.615383,-3552.988522,-10732.986159,0.000000
21682.615717,-3182.885551,-9178.553681,-1302.362347
21682.616050,-1258.350101,-9178.553681,-3753.867940
21682.616383,-4219.173869,-10658.965565,-2221.676944
21682.616716,2294.638420,-11843.295072,1149.143247
21682.617049,-592.164754,-10140.821405,6128.763984
21682.617383,1628.453072,-4737.318029,3907.087040
21682.617716,-2368.659014,-8364.327145,2757.943793
21682.618049,1702.473667,-9474.636058,2987.772442
21682.618382,1776.494261,-8364.327145,4826.401637
21682.618716,-1554.432478,-7402.059420,-1225.752797
21682.619049,-4737.318029,-11325.150913,-3677.258390
21682.619382,-6365.771101,-10214.842000,-4749.792088
21682.619715,-5181.441594,-9030.512492,-1838.629195
21682.620049,-5255.462188,-6439.791695,-3294.210641
21682.620382,-3775.050304,-9104.533087,-3294.210641
21682.620715,-74.020594,-11695.253884,2987.772442
21682.621048,1406.391290,-8068.244768,2757.943793
21682.621381,4663.297435,-5625.565159,6052.154434
21682.621715,3478.967927,-9474.636058,2374.896044
21682.622048,1184.329507,-10140.821405,2757.943793
21682.622381,3256.906145,-9844.739029,3370.820191
21682.622714,2220.617826,-7698.141797,-689.485948
21682.623048,1702.473667,-9918.759623,-3524.039291
21682.623381,-1258.350101,-12065.356855,-3753.867940
21682.623714,-814.226536,-13619.789333,-1608.800546
21682.624047,0.000000,-4811.338623,919.314598
21682.624381,-74.020594,-7994.224174,-3753.867940
21682.624714,0.000000,-9770.718434,536.266849
21682.625047,2960.823768,-7179.997637,5209.449386
21682.625380,5551.544565,-8290.306550,5132.839837
21682.625713,4811.338623,-7402.059420,383.047749
21682.626047,2442.679609,-13249.686362,306.438199
21682.626380,4293.194464,-11399.171507,4673.182538
21682.626713,5551.544565,-5329.482782,2681.334243
21682.627046,1184.329507,-6587.832884,1225.752797
21682.627380,-592.164754,-9178.553681,-2221.676944
21682.627713,518.144159,-8734.430116,-1991.848295
21682.628046,-1332.370696,-9918.759623,-1762.019645
21682.628379,-74.020594,-7698.141797,-3753.867940
21682.628713,-4145.153275,-11325.150913,-2451.505594
21682.629046,2960.823768,-11325.150913,4826.401637
21682.629379,3775.050304,-8364.327145,2451.505594
21682.629712,2368.659014,-6587.832884,2451.505594
21682.630045,5847.626942,-11251.130318,4213.525239
21682.630379,1924.535449,-9918.759623,2681.334243
21682.630712,1628.453072,-10436.903782,3140.991542
21682.631045,-518.144159,-8290.306550,-1532.190996
21682.631378,-2960.823768,-8660.409521,-4826.401637
21682.631712,-3552.988522,-9548.656652,0.000000
21682.632045,-74.020594,-9474.636058,-689.485948
21682.632378,-2442.679609,-7105.977043,-2298.286494
21682.632711,-4441.235652,-7920.203579,-1072.533697
21682.633045,-2738.761985,-11251.130318,76.609550
21682.633378,296.082377,-10066.800811,4290.134789
21682.633711,518.144159,-6365.771101,3753.867940
21682.634044,1258.350101,-6809.894666,459.657299
21682.634377,2368.659014,-9548.656652,0.000000
21682.634711,0.000000,-13101.645173,4443.353888
21682.635044,1110.308913,-9474.636058,995.924147
21682.635377,-4441.235652,-5403.503377,-6741.640382
21682.635710,-4145.153275,-11843.295072,-1302.362347
21682.636044,-2220.617826,-7476.080014,-1532.190996
21682.636377,-2812.782580,-6883.915261,0.000000
21682.636710,-1998.556043,-4515.256246,-536.266849
21682.637043,-3034.844362,-10658.965565,-76.609550
21682.637377,2294.638420,-9474.636058,3907.087040
21682.637710,1776.494261,-9474.636058,7277.907231
21682.638043,1406.391290,-3923.091493,0.000000
21682.638376,2368.659014,-10362.883188,2374.896044
21682.638709,1110.308913,-13027.624579,-76.609550
21682.639043,296.082377,-8956.491898,1838.629195
21682.639376,-1998.556043,-6809.894666,-3830.477490
21682.639709,-2442.679609,-11991.336260,-4366.744339
21682.640042,296.082377,-9474.636058,-1455.581446
21682.640376,0.000000,-11547.212695,1532.190996
21682.640709,4071.132681,-7105.977043,1455.581446
21682.641042,592.164754,-7179.997637,0.000000
21682.641375,4293.194464,-11843.295072,6052.154434
21682.641709,4071.132681,-6883.915261,3677.258390
21682.642042,1776.494261,-5995.668130,3524.039291
21682.642375,2146.597232,-10066.800811,229.828649
21682.642708,1702.473667,-9400.615463,-76.609550
21682.643041,2368.659014,-10288.862594,153.219100
21682.643375,592.164754,-6069.688724,-2911.162892
21682.643708,-74.020594,-11843.295072,-4060.306139
21682.644041,-1850.514855,-11695.253884,-3064.381992
21682.644374,222.061783,-10955.047942,536.266849
21682.644708,-1628.453072,-7920.203579,-612.876398
21682.645041,2294.638420,-9474.636058,1455.581446
21682.645374,3478.967927,-10658.965565,4826.401637
21682.645707,3182.885551,-6883.915261,4903.011187
21682.646041,4145.153275,-7105.977043,7354.516781
21682.646374,3552.988522,-5995.668130,1838.629195
21682.646707,-888.247130,-11621.233289,306.438199
21682.647040,1184.329507,-9474.636058,-1608.800546
21682.647374,-1332.370696,-12287.418637,-2374.896044
21682.647707,-1924.535449,-8364.327145,-4596.572988
21682.648040,-3552.988522,-10732.986159,-5515.887586
21682.648373,-1258.350101,-12435.459826,-1915.238745
21682.648706,-74.020594,-6291.750507,-1762.019645
21682.649040,0.000000,-8660.409521,4213.525239
21682.649373,4663.297435,-9178.553681,6052.154434
21682.649706,296.082377,-6735.874072,4826.401637
21682.650039,-592.164754,-9548.656652,3140.991542
21682.650373,518.144159,-6217.729913,-76.609550
21682.650706,-1110.308913,-11251.130318,-76.609550
21682.651039,-1776.494261,-9844.739029,0.000000
21682.651372,-2738.761985,-11251.130318,-4979.620737
21682.651706,-5625.565159,-7179.997637,-6741.640382
21682.652039,0.000000,-7328.038826,-459.657299
21682.652372,1702.473667,-9474.636058,536.266849
21682.652705,3034.844362,-8808.450710,-76.609550
21682.653038,1036.288319,-9622.677246,3064.381992
21682.653372,-888.247130,-11251.130318,2528.115143
21682.653705,3404.947333,-9474.636058,4213.525239
21682.654038,2886.803174,-13027.624579,6052.154434
21682.654371,2886.803174,-1258.350101,0.000000
21682.654705,296.082377,-10066.800811,3294.210641
21682.655038,-74.020594,-10658.965565,-689.485948
21682.655371,-1850.514855,-6883.915261,-4903.011187
21682.655704,-1924.535449,-11547.212695,-1302.362347
21682.656038,-3256.906145,-7179.997637,-3983.696590
21682.656371,-5033.400406,-11991.336260,-3217.601092
21682.656704,-1554.432478,-7476.080014,229.828649
21682.657037,1702.473667,-8882.471304,1762.019645
21682.657370,3923.091493,-8882.471304,4903.011187
21682.657704,2072.576638,-9252.574275,3370.820191
21682.658037,2368.659014,-11695.253884,2757.943793
21682.658370,3552.988522,-6587.832884,3677.258390
21682.658703,2664.741391,-10066.800811,1762.019645
21682.659037,3478.967927,-8364.327145,0.000000
21682.659370,-2368.659014,-7772.162391,0.000000
21682.659703,1554.432478,-11843.295072,-995.924147
21682.660036,0.000000,-5995.668130,-2528.115143
21682.660370,-666.185348,-10214.842000,-1532.190996
21682.660703,-1480.411884,-10140.821405,-612.876398
21682.661036,-1036.288319,-10658.965565,1149.143247
21682.661369,2072.576638,-8512.368333,3064.381992
21682.661702,-592.164754,-10732.986159,5439.278036
21682.662036,2886.803174,-5995.668130,0.000000
21682.662369,2516.700203,-11917.315666,3677.258390
21682.662702,3478.967927,-8142.265362,3294.210641
21682.663035,0.000000,-7994.224174,0.000000
21682.663369,518.144159,-7698.141797,-4519.963438
21682.663702,-1480.411884,-14582.057057,-3064.381992
21682.664035,518.144159,-9178.553681,-76.609550
21682.664368,1702.473667,-9474.636058,-3140.991542
21682.664702,-1184.329507,-11103.089130,842.705048
21682.665035,-814.226536,-9548.656652,0.000000
21682.665368,0.000000,-7698.141797,3600.648841
21682.665701,592.164754,-9548.656652,3907.087040
21682.666034,2294.638420,-7994.224174,1762.019645
21682.666368,2738.761985,-10510.924376,5362.668486
21682.666701,2072.576638,-5255.462188,1915.238745
21682.667034,-74.020594,-7624.121203,-1608.800546
21682.667367,-5921.647536,-9548.656652,-5515.887586
21682.667701,-74.020594,-13027.624579,-3140.991542
21682.668034,-4737.318029,-10732.986159,-4290.134789
21682.668367,0.000000,-9474.636058,-689.485948
21682.668700,-3627.009116,-9030.512492,-2451.505594
21682.669034,592.164754,-5995.668130,612.876398
21682.669367,2960.823768,-8660.409521,6818.249932
21682.669700,4293.194464,-5551.544565,4366.744339
21682.670033,2294.638420,-9030.512492,1991.848295
21682.670366,1480.411884,-13027.624579,3830.477490
21682.670700,1998.556043,-7772.162391,0.000000
21682.671033,2368.659014,-8290.306550,2068.457845
21682.671366,1998.556043,-11843.295072,-2528.115143
21682.671699,-1554.432478,-8956.491898,-4903.011187
21682.672033,-2368.659014,-11917.315666,-2451.505594
21682.672366,-3404.947333,-7920.203579,-1225.752797
21682.672699,-1776.494261,-7328.038826,-2374.896044
21682.673032,-444.123565,-10807.006753,2374.896044
21682.673366,3701.029710,-9252.574275,8427.050478
21682.673699,3478.967927,-1258.350101,4903.011187
21682.674032,2886.803174,-6809.894666,2068.457845
21682.674365,518.144159,-10732.986159,76.609550
21682.674698,518.144159,-12657.521608,536.266849
21682.675032,0.000000,-9622.677246,919.314598
21682.675365,-666.185348,-9178.553681,-4903.011187
21682.675698,-7105.977043,-10140.821405,-3370.820191
21682.676031,-74.020594,-10658.965565,-4366.744339
21682.676365,-1480.411884,-8734.430116,-76.609550
21682.676698,0.000000,-6587.832884,766.095498
21682.677031,-444.123565,-8586.388927,1685.410096
21682.677364,2590.720797,-8512.368333,3217.601092
21682.677698,3404.947333,-9474.636058,5439.278036
21682.678031,5255.462188,-7698.141797,4213.525239
21682.678364,2886.803174,-9992.780217,0.000000
21682.678697,1184.329507,-10436.903782,612.876398
21682.679030,-74.020594,-11843.295072,-1302.362347
21682.679364,-1850.514855,-7179.997637,-4290.134789
21682.679697,-1332.370696,-13027.624579,-2528.115143
21682.680030,-2072.576638,-9548.656652,-2757.943793
21682.680363,-444.123565,-10066.800811,536.266849
21682.680697,-2220.617826,-5181.441594,-536.266849
21682.681030,-1110.308913,-8586.388927,-1302.362347
21682.681363,-1850.514855,-7772.162391,1225.752797
21682.681696,5847.626942,-10658.965565,8503.660028
21682.682030,3775.050304,-2368.659014,2374.896044
21682.682363,888.247130,-11325.150913,3370.820191
21682.682696,1110.308913,-8882.471304,-689.485948
21682.683029,-1850.514855,-10584.944971,-2298.286494
21682.683363,0.000000,-9030.512492,-3294.210641
21682.683696,-2590.720797,-11399.171507,-4903.011187
21682.684029,-3849.070898,-11325.150913,-3370.820191
21682.684362,0.000000,-9252.574275,1838.629195
21682.684695,1998.556043,-7105.977043,-689.485948
21682.685029,518.144159,-8364.327145,76.609550
21682.685362,3182.885551,-7179.997637,5515.887586
21682.685695,3478.967927,-10658.965565,4060.306139
21682.686028,2664.741391,-6587.832884,2604.724693
21682.686362,2960.823768,-8586.388927,2528.115143
21682.686695,2220.617826,-10658.965565,2145.067394
21682.687028,2960.823768,-7179.997637,612.876398
21682.687361,-740.205942,-9770.718434,-1149.143247
21682.687695,-2368.659014,-7624.121203,-4060.306139
21682.688028,-2516.700203,-10955.047942,-2298.286494
21682.688361,-222.061783,-11251.130318,-689.485948
21682.688694,-962.267725,-8586.388927,-689.485948
21682.689027,-2368.659014,-7476.080014,2451.505594
21682.689361,1406.391290,-10658.965565,3600.648841
21682.689694,4663.297435,-9474.636058,3524.039291
21682.690027,6143.709319,-7105.977043,4060.306139
21682.690360,2294.638420,-12731.542202,2681.334243
21682.690693,3256.906145,-6661.853478,3600.648841
21682.691027,0.000000,-9104.533087,-1378.971896
21682.691360,1998.556043,-10436.903782,2604.724693
21682.691693,-1184.329507,-6587.832884,-995.924147
21682.692026,-3478.967927,-10658.965565,-2987.772442
21682.692359,-2368.659014,-10436.903782,-995.924147
21682.692693,-1258.350101,-11843.295072,-1302.362347
21682.693026,-2442.679609,-8290.306550,-689.485948
21682.693359,-1406.391290,-8364.327145,0.000000
21682.693692,2294.638420,-11251.130318,2987.772442
21682.694025,2072.576638,-8734.430116,4596.572988
21682.694359,2664.741391,-7179.997637,4673.182538
21682.694692,-1258.350101,-9474.636058,-76.609550
21682.695025,1258.350101,-10362.883188,2374.896044
21682.695358,3182.885551,-12435.459826,1149.143247
21682.695691,1406.391290,-4811.338623,306.438199
21682.696025,-2072.576638,-9548.656652,-2451.505594
21682.696358,-3997.112087,-10436.903782,-3064.381992
21682.696691,-2368.659014,-8956.491898,-2681.334243
21682.697024,-1406.391290,-11325.150913,0.000000
21682.697357,1702.473667,-7994.224174,1762.019645
21682.697691,0.000000,-9548.656652,0.000000
21682.698024,5107.421000,-10658.965565,4826.401637
21682.698357,740.205942,-6217.729913,2298.286494
21682.698690,0.000000,-7179.997637,1455.581446
21682.699023,-74.020594,-11251.130318,-383.047749
21682.699357,592.164754,-10140.821405,306.438199
21682.699690,1554.432478,-9178.553681,459.657299
21682.700023,2442.679609,-5921.647536,76.609550
21682.700356,-1480.411884,-9400.615463,-1608.800546
21682.700689,-2072.576638,-9104.533087,-2528.115143
21682.701023,-74.020594,-12435.459826,-1608.800546
21682.701356,-2368.659014,-7772.162391,919.314598
21682.701689,2664.741391,-13323.706956,4826.401637
21682.702022,2294.638420,-8290.306550,2987.772442
21682.702355,3552.988522,-9104.533087,5439.278036
21682.702689,4145.153275,-4663.297435,3983.696590
21682.703022,1628.453072,-8586.388927,1991.848295
21682.703355,1110.308913,-9178.553681,-612.876398
21682.703688,-2368.659014,-11325.150913,-1991.848295
21682.704021,-1924.535449,-8438.347739,-3064.381992
21682.704354,-444.123565,-9474.636058,-995.924147
21682.704688,814.226536,-7254.018232,536.266849
21682.705021,-74.020594,-7698.141797,689.485948
21682.705354,0.000000,-6587.832884,-919.314598
21682.705687,-74.020594,-11843.295072,-76.609550
21682.706020,1110.308913,-7698.141797,-2145.067394
21682.706354,4145.153275,-11325.150913,3217.601092
21682.706687,5255.462188,-12731.542202,6052.154434
21682.707020,6365.771101,-7105.977043,3753.867940
21682.707353,222.061783,-9474.636058,1302.362347
21682.707686,2442.679609,-7328.038826,-3064.381992
21682.708020,-3552.988522,-11029.068536,-3677.258390
21682.708353,-4145.153275,-7179.997637,-3677.258390
21682.708686,-74.020594,-10658.965565,-3140.991542
21682.709019,-4737.318029,-8364.327145,-2451.505594
21682.709352,296.082377,-8660.409521,2374.896044
21682.709686,-814.226536,-5107.421000,4060.306139
21682.710019,0.000000,-8882.471304,2068.457845
21682.710352,0.000000,-9622.677246,1838.629195
21682.710685,1776.494261,-8808.450710,3217.601092
21682.711018,-74.020594,-9474.636058,2145.067394
21682.711352,-1776.494261,-7179.997637,1685.410096
21682.711685,-1850.514855,-11843.295072,-3753.867940
21682.712018,592.164754,-7772.162391,612.876398
21682.712351,-2368.659014,-8364.327145,-995.924147
21682.712684,-1184.329507,-12583.501014,-3370.820191
21682.713018,-1258.350101,-9178.553681,-1378.971896
21682.713351,-1332.370696,-12287.418637,-229.828649
21682.713684,4071.132681,-7328.038826,5056.230287
21682.714017,-74.020594,-7402.059420,2374.896044
21682.714350,2960.823768,-9770.718434,4519.963438
21682.714684,740.205942,-7179.997637,612.876398
21682.715017,0.000000,-8068.244768,2374.896044
21682.715350,-666.185348,-7476.080014,0.000000
21682.715683,-1554.432478,-8882.471304,-1915.238745
21682.716016,-2516.700203,-10658.965565,-3140.991542
21682.716349,-74.020594,-8290.306550,-1072.533697
21682.716683,-444.123565,-9178.553681,-383.047749
21682.717016,-3552.988522,-7920.203579,0.000000
21682.717349,-74.020594,-11843.295072,-1915.238745
21682.717682,-2960.823768,-8660.409521,1532.190996
21682.718015,2368.659014,-8364.327145,5745.716235
21682.718349,1110.308913,-8364.327145,306.438199
21682.718682,1628.453072,-10732.986159,4213.525239
21682.719015,1998.556043,-6291.750507,1915.238745
21682.719348,1480.411884,-7624.121203,76.609550
21682.719681,444.123565,-9548.656652,-1225.752797
21682.720015,-1776.494261,-8660.409521,0.000000
21682.720348,-666.185348,-10658.965565,-4519.963438
21682.720681,2294.638420,-8882.471304,-995.924147
21682.721014,-2368.659014,-9548.656652,-2451.505594
21682.721347,3478.967927,-8808.450710,2604.724693
21682.721681,2368.659014,-7179.997637,3370.820191
21682.722014,6291.750507,-8290.306550,3600.648841
21682.722347,-74.020594,-9844.739029,0.000000
21682.722680,2368.659014,-10955.047942,-76.609550
21682.723013,6439.791695,-10066.800811,2834.553343
21682.723347,3182.885551,-8956.491898,306.438199
21682.723680,7476.080014,-8808.450710,2681.334243
21682.724013,-4515.256246,-11399.171507,-919.314598
21682.724346,3627.009116,-6513.812290,-1455.581446
21682.724679,-4737.318029,-8956.491898,-919.314598
21682.725013,2886.803174,-9474.636058,-2528.115143
21682.725346,-2368.659014,-7179.997637,0.000000
21682.725679,-1776.494261,-12953.603985,2068.457845
21682.726012,4663.297435,-4737.318029,1149.143247
21682.726345,-1776.494261,-10140.821405,5056.230287
21682.726679,3923.091493,-8734.430116,1838.629195
21682.727012,-1036.288319,-9030.512492,1302.362347
21682.727345,-74.020594,-11621.233289,-766.095498
21682.727678,-74.020594,-10362.883188,-689.485948
21682.728011,-2442.679609,-13027.624579,-4060.306139
21682.728345,0.000000,-6291.750507,-536.266849
21682.728678,-4145.153275,-10881.027347,2681.334243
21682.729011,1702.473667,-3997.112087,-1532.190996
21682.729344,-1406.391290,-13323.706956,2221.676944
21682.729677,0.000000,-10288.862594,3064.381992
21682.730010,2368.659014,-8364.327145,4366.744339
21682.730344,-2220.617826,-9326.594869,2681.334243
21682.730677,2590.720797,-8882.471304,1762.019645
21682.731010,-5329.482782,-7772.162391,-2451.505594
21682.731343,296.082377,-10584.944971,1149.143247
21682.731676,-4811.338623,-8882.471304,-2987.772442
21682.732010,-4811.338623,-8512.368333,-4903.011187
21682.732343,-2220.617826,-7105.977043,-76.609550
21682.732676,-1036.288319,-4811.338623,-1838.629195
21682.733009,370.102971,-10436.903782,153.219100
21682.733342,-1184.329507,-10658.965565,2068.457845
21682.733676,-1258.350101,-8882.471304,-229.828649
21682.734009,1332.370696,-11177.109724,3524.039291
21682.734342,2812.782580,-8290.306550,3294.210641
21682.734675,2220.617826,-9178.553681,2681.334243
21682.735008,2368.659014,-7476.080014,3064.381992
21682.735342,3701.029710,-9252.574275,2374.896044
21682.735675,-74.020594,-8142.265362,-2374.896044
21682.736008,0.000000,-7772.162391,-3677.258390
21682.736341,-4145.153275,-13027.624579,-2834.553343
21682.736674,-1776.494261,-8364.327145,-3064.381992
21682.737008,-1036.288319,-9104.533087,-76.609550
21682.737341,0.000000,-6809.894666,306.438199
21682.737674,2590.720797,-8808.450710,2451.505594
21682.738007,6439.791695,-8290.306550,6052.154434
21682.738340,4737.318029,-5995.668130,7660.954980
21682.738674,4663.297435,-7105.977043,612.876398
21682.739007,3552.988522,-11325.150913,1225.752797
21682.739340,2664.741391,-10732.986159,-76.609550
21682.739673,6439.791695,-9474.636058,-1302.362347
21682.740006,2220.617826,-10658.965565,-2528.115143
21682.740340,1332.370696,-12805.562797,-2221.676944
21682.740673,-592.164754,-9474.636058,-2604.724693
21682.741006,2146.597232,-10362.883188,-842.705048
21682.741339,3701.029710,-9844.739029,1149.143247
