#time,accel_x,accel_y,accel_z
20426.756495,1480.411884,-9548.656652,0.000000
20426.756829,8734.430116,-10658.965565,2374.896044
20426.757162,7698.141797,-8364.327145,4290.134789
20426.757496,10881.027347,-9474.636058,3983.696590
20426.757829,11695.253884,-8956.491898,4903.011187
20426.758163,11695.253884,-9178.553681,3447.429741
20426.758496,10881.027347,-8290.306550,1149.143247
20426.758830,11177.109724,-11843.295072,-1302.362347
20426.759163,5921.647536,-9548.656652,-1072.533697
20426.759497,9400.615463,-9474.636058,-1302.362347
20426.759830,9400.615463,-10658.965565,-3294.210641
20426.760164,8216.285956,-11547.212695,-689.485948
20426.760497,7550.100608,-10288.862594,0.000000
20426.760830,7105.977043,-11399.171507,2681.334243
20426.761164,6439.791695,-10066.800811,2451.505594
20426.761497,4737.318029,-8364.327145,3064.381992
20426.761831,8216.285956,-7772.162391,3983.696590
20426.762164,5921.647536,-6587.832884,8580.269578
20426.762498,9400.615463,-5921.647536,4213.525239
20426.762831,5551.544565,-5921.647536,383.047749
20426.763165,5625.565159,-6069.688724,-1915.238745
20426.763498,6587.832884,-7105.977043,-2834.553343
20426.763832,7179.997637,-8216.285956,-3983.696590
20426.764165,6735.874072,-10288.862594,-4979.620737
20426.764499,7105.977043,-12583.501014,-3294.210641
20426.764832,5329.482782,-11917.315666,-1225.752797
20426.765166,8808.450710,-13027.624579,-76.609550
20426.765499,7031.956449,-12435.459826,-766.095498
20426.765833,4737.318029,-11917.315666,4213.525239
20426.766166,4737.318029,-9030.512492,4213.525239
20426.766500,6365.771101,-6587.832884,6281.983084
20426.766833,6217.729913,-5033.400406,5898.935335
20426.767166,5181.441594,-5107.421000,3753.867940
20426.767500,5033.400406,-6365.771101,2451.505594
20426.767833,888.247130,-6883.915261,-1532.190996
20426.768167,-74.020594,-9622.677246,-3753.867940
20426.768500,-3256.906145,-12509.480420,-5822.325785
20426.768834,-5033.400406,-12657.521608,-4979.620737
20426.769167,-5329.482782,-12805.562797,-4290.134789
20426.769501,-2442.679609,-14211.954086,-1302.362347
20426.769834,0.000000,-8364.327145,4903.011187
20426.770168,3997.112087,-7105.977043,9039.926876
20426.770501,8216.285956,-4145.153275,6665.030833
20426.770835,7105.977043,-4737.318029,6818.249932
20426.771168,7179.997637,-3997.112087,2604.724693
20426.771502,6809.894666,-5403.503377,-459.657299
20426.771835,4145.153275,-8438.347739,-4136.915689
20426.772169,3478.967927,-13027.624579,-5592.497135
20426.772502,518.144159,-13101.645173,-8273.831378
20426.772836,0.000000,-13397.727550,-3677.258390
20426.773169,2664.741391,-15396.283594,-76.609550
20426.773503,1998.556043,-10732.986159,612.876398
20426.773836,7550.100608,-10510.924376,6358.592633
20426.774169,9400.615463,-5625.565159,9039.926876
20426.774503,10732.986159,-3552.988522,8503.660028
20426.774836,9844.739029,-3849.070898,6205.373534
20426.775170,8216.285956,-4737.318029,2068.457845
20426.775503,3552.988522,-5403.503377,-1532.190996
20426.775837,4663.297435,-9474.636058,-5592.497135
20426.776170,3478.967927,-11843.295072,-9882.631924
20426.776504,1184.329507,-12509.480420,-7967.393179
20426.776837,1110.308913,-14804.118840,-5515.887586
20426.777171,518.144159,-15840.407159,-1302.362347
20426.777504,888.247130,-15470.304188,2145.067394
20426.777838,4959.379811,-11843.295072,6971.469032
20426.778171,6217.729913,-5995.668130,8886.707777
20426.778505,5921.647536,-3627.009116,11338.213370
20426.778838,8808.450710,-3997.112087,5745.716235
20426.779172,3404.947333,-2442.679609,0.000000
20426.779505,1776.494261,-6587.832884,-153.219100
20426.779839,-666.185348,-6587.832884,-7814.174080
20426.780172,-4885.359217,-11399.171507,-8350.440928
20426.780505,-6217.729913,-12953.603985,-8120.612279
20426.780839,-4071.132681,-13101.645173,-4213.525239
20426.781172,-1184.329507,-11621.233289,0.000000
20426.781506,4367.215058,-11251.130318,6818.249932
20426.781839,5847.626942,-8808.450710,8810.098227
20426.782173,5551.544565,-9474.636058,8580.269578
20426.782506,5847.626942,-9474.636058,6665.030833
20426.782840,2294.638420,-7105.977043,1149.143247
20426.783173,0.000000,-4811.338623,-1838.629195
20426.783507,-4737.318029,-6587.832884,-3370.820191
20426.783840,-5403.503377,-9326.594869,-7890.783629
20426.784174,-10658.965565,-11325.150913,-8273.831378
20426.784507,-7624.121203,-11399.171507,-5362.668486
20426.784841,-2590.720797,-10955.047942,2068.457845
20426.785174,2886.803174,-7105.977043,7814.174080
20426.785508,4367.215058,-7550.100608,8197.221829
20426.785841,5181.441594,-11251.130318,8503.660028
20426.786175,1184.329507,-8364.327145,5515.887586
20426.786508,2368.659014,-10214.842000,4443.353888
20426.786841,-74.020594,-10658.965565,-4060.306139
20426.787175,-7772.162391,-12879.583391,-6971.469032
20426.787508,-11399.171507,-12213.398043,-8350.440928
20426.787842,-7846.182985,-8734.430116,-6052.154434
20426.788175,-2442.679609,-6513.812290,842.705048
20426.788509,592.164754,-3034.844362,5515.887586
20426.788842,7031.956449,-4737.318029,7890.783629
20426.789176,2960.823768,-4811.338623,8580.269578
20426.789509,5773.606348,-8882.471304,5439.278036
20426.789843,4737.318029,-9474.636058,536.266849
20426.790176,1184.329507,-10140.821405,-2451.505594
20426.790510,-2590.720797,-14137.933492,-4673.182538
20426.790843,-7031.956449,-15248.242405,-8656.879127
20426.791177,-7624.121203,-14211.954086,-7584.345430
20426.791510,-1702.473667,-11843.295072,-76.609550
20426.791844,3478.967927,-3034.844362,1225.752797
20426.792177,5477.523971,-5773.606348,8580.269578
20426.792511,7179.997637,-4737.318029,6511.811733
20426.792844,5921.647536,-4811.338623,5056.230287
20426.793178,9770.718434,-8068.244768,7354.516781
20426.793511,7328.038826,-9474.636058,2068.457845
20426.793844,888.247130,-13693.809927,-1532.190996
20426.794178,-2664.741391,-15026.180623,-6205.373534
20426.794511,-4811.338623,-15396.283594,-7431.126331
20426.794845,-4737.318029,-11917.315666,-1838.629195
20426.795178,-74.020594,-9474.636058,-689.485948
20426.795512,-1184.329507,-7179.997637,536.266849
20426.795845,0.000000,-6587.832884,3983.696590
20426.796179,3108.864956,-6217.729913,4596.572988
20426.796512,5477.523971,-5255.462188,4749.792088
20426.796846,5033.400406,-6735.874072,4366.744339
20426.797179,740.205942,-8364.327145,842.705048
20426.797513,-2442.679609,-11843.295072,-2528.115143
20426.797846,-4737.318029,-12657.521608,-2604.724693
20426.798180,-1554.432478,-10214.842000,-1302.362347
20426.798513,-444.123565,-8438.347739,1915.238745
20426.798847,-74.020594,-9030.512492,1149.143247
20426.799180,-74.020594,-9474.636058,1762.019645
20426.799514,-962.267725,-8290.306550,0.000000
20426.799847,0.000000,-7179.997637,2757.943793
20426.800180,1110.308913,-8290.306550,-1455.581446
20426.800514,-1924.535449,-9030.512492,-1838.629195
20426.800847,-2886.803174,-12731.542202,-1302.362347
20426.801181,-3108.864956,-8956.491898,-1378.971896
20426.801514,148.041188,-9548.656652,2451.505594
20426.801848,2812.782580,-6661.853478,4366.744339
20426.802181,2590.720797,-6365.771101,4366.744339
20426.802515,0.000000,-6587.832884,2757.943793
20426.802848,1998.556043,-8290.306550,-76.609550
20426.803182,-74.020594,-8364.327145,-3064.381992
20426.803515,-1184.329507,-9992.780217,-1608.800546
20426.803849,-3034.844362,-12731.542202,-5286.058936
20426.804182,-7772.162391,-12805.562797,-6052.154434
20426.804516,-6513.812290,-11029.068536,-5209.449386
20426.804849,-1480.411884,-10066.800811,1915.238745
20426.805183,3552.988522,-4219.173869,5209.449386
20426.805516,2664.741391,-3034.844362,9806.022374
20426.805850,7328.038826,-7105.977043,7277.907231
20426.806183,4663.297435,-7105.977043,2374.896044
20426.806517,5181.441594,-6291.750507,1378.971896
20426.806850,2738.761985,-9548.656652,-2145.067394
20426.807183,-2442.679609,-13545.768739,-5592.497135
20426.807517,-6883.915261,-15248.242405,-7431.126331
20426.807850,-7624.121203,-13767.830521,-7431.126331
20426.808183,-666.185348,-11843.295072,-1762.019645
20426.808516,0.000000,-8438.347739,3677.258390
20426.808850,4071.132681,-8290.306550,6052.154434
20426.809183,5255.462188,-4441.235652,6052.154434
20426.809516,6439.791695,-3552.988522,2528.115143
20426.809849,9400.615463,-6957.935855,7277.907231
20426.810183,8808.450710,-8290.306550,4826.401637
20426.810516,2294.638420,-10436.903782,-1991.848295
20426.810849,-3849.070898,-13175.665768,-6435.202183
20426.811182,-7105.977043,-12361.439231,-8733.488677
20426.811516,-3034.844362,-13027.624579,-6665.030833
20426.811849,-1628.453072,-8364.327145,-3677.258390
20426.812182,1184.329507,-11177.109724,3600.648841
20426.812515,814.226536,-7179.997637,1532.190996
20426.812848,4367.215058,-8216.285956,6894.859482
20426.813182,5181.441594,-5107.421000,5362.668486
20426.813515,4367.215058,-6883.915261,3907.087040
20426.813848,1258.350101,-10066.800811,1991.848295
20426.814181,-2368.659014,-8364.327145,0.000000
20426.814515,-3627.009116,-10658.965565,-1915.238745
20426.814848,-1480.411884,-10214.842000,-76.609550
20426.815181,-2442.679609,-8438.347739,-536.266849
20426.815514,-2072.576638,-9030.512492,153.219100
20426.815848,-1850.514855,-8290.306550,-689.485948
20426.816181,-1184.329507,-9548.656652,2374.896044
20426.816514,2294.638420,-7402.059420,-1302.362347
20426.816847,0.000000,-9252.574275,0.000000
20426.817181,0.000000,-10436.903782,306.438199
20426.817514,-3997.112087,-10732.986159,0.000000
20426.817847,-2146.597232,-11029.068536,383.047749
20426.818180,1258.350101,-7920.203579,3830.477490
20426.818514,2738.761985,-5107.421000,4519.963438
20426.818847,2368.659014,-3923.091493,2451.505594
20426.819180,1998.556043,-8290.306550,-76.609550
20426.819513,-370.102971,-7476.080014,-3370.820191
20426.819846,0.000000,-9548.656652,-1608.800546
20426.820180,-1258.350101,-10658.965565,-4060.306139
20426.820513,-4441.235652,-11991.336260,-3983.696590
20426.820846,-4145.153275,-12805.562797,-3217.601092
20426.821179,-1628.453072,-10436.903782,-766.095498
20426.821513,2812.782580,-9918.759623,3600.648841
20426.821846,4737.318029,-8438.347739,8350.440928
20426.822179,7031.956449,-6809.894666,5592.497135
20426.822512,4441.235652,-5033.400406,4519.963438
20426.822846,4737.318029,-5995.668130,4826.401637
20426.823179,4367.215058,-5329.482782,0.000000
20426.823512,2442.679609,-8882.471304,-2834.553343
20426.823845,-2220.617826,-12657.521608,-5286.058936
20426.824179,-7772.162391,-14582.057057,-8580.269578
20426.824512,-8290.306550,-13989.892304,-7354.516781
20426.824845,-1258.350101,-12731.542202,-383.047749
20426.825178,4071.132681,-5551.544565,3370.820191
20426.825512,3849.070898,-4811.338623,8733.488677
20426.825845,5329.482782,-7920.203579,9729.412825
20426.826178,4663.297435,-3923.091493,3677.258390
20426.826511,6365.771101,-7105.977043,4060.306139
20426.826844,4145.153275,-7031.956449,153.219100
20426.827178,-2590.720797,-10807.006753,-4903.011187
20426.827511,-7698.141797,-12953.603985,-8273.831378
20426.827844,-5995.668130,-13915.871710,-6205.373534
20426.828177,-3478.967927,-12509.480420,-1991.848295
20426.828511,0.000000,-9252.574275,1991.848295
20426.828844,1924.535449,-9326.594869,5286.058936
20426.829177,2368.659014,-5995.668130,6128.763984
20426.829510,4145.153275,-6513.812290,7277.907231
20426.829844,5847.626942,-6069.688724,4979.620737
20426.830177,3478.967927,-5107.421000,1225.752797
20426.830510,-1776.494261,-11695.253884,-76.609550
20426.830843,-5995.668130,-10066.800811,-7431.126331
20426.831177,-8364.327145,-12583.501014,-7048.078582
20426.831510,-5403.503377,-11547.212695,-3370.820191
20426.831843,-2294.638420,-7105.977043,-76.609550
20426.832176,592.164754,-7772.162391,3830.477490
20426.832509,-666.185348,-8660.409521,4826.401637
20426.832843,3182.885551,-6439.791695,1532.190996
20426.833176,4145.153275,-7179.997637,3064.381992
20426.833509,4885.359217,-7994.224174,4519.963438
20426.833842,1554.432478,-10140.821405,0.000000
20426.834176,-74.020594,-11843.295072,-1608.800546
20426.834509,-1924.535449,-10807.006753,-2374.896044
20426.834842,0.000000,-10066.800811,-842.705048
20426.835175,-74.020594,-8290.306550,-1302.362347
20426.835509,296.082377,-10658.965565,-76.609550
20426.835842,-666.185348,-6587.832884,-2451.505594
20426.836175,740.205942,-8142.265362,536.266849
20426.836508,3552.988522,-8660.409521,2604.724693
20426.836842,4663.297435,-9474.636058,1762.019645
20426.837175,1036.288319,-11325.150913,1225.752797
20426.837508,-1258.350101,-11843.295072,-689.485948
20426.837841,-2664.741391,-13027.624579,0.000000
20426.838175,296.082377,-7476.080014,3064.381992
20426.838508,4663.297435,-6513.812290,3907.087040
20426.838841,4145.153275,-5403.503377,3064.381992
20426.839174,1776.494261,-8586.388927,2987.772442
20426.839507,-74.020594,-7179.997637,-3370.820191
20426.839841,0.000000,-7179.997637,-2757.943793
20426.840174,-1184.329507,-10436.903782,-3217.601092
20426.840507,-3701.029710,-12805.562797,-4826.401637
20426.840840,-5107.421000,-12953.603985,-4290.134789
20426.841174,-2516.700203,-11843.295072,-76.609550
20426.841507,1110.308913,-7179.997637,2451.505594
20426.841840,5329.482782,-7698.141797,8503.660028
20426.842173,5773.606348,-8290.306550,7277.907231
20426.842507,1776.494261,-5403.503377,6741.640382
20426.842840,2664.741391,-6143.709319,1302.362347
20426.843173,1184.329507,-7476.080014,306.438199
20426.843506,-962.267725,-9474.636058,-4596.572988
20426.843840,-5847.626942,-12139.377449,-7354.516781
20426.844173,-9030.512492,-15988.448347,-7737.564530
20426.844506,-10436.903782,-12805.562797,-7814.174080
20426.844839,-3478.967927,-11251.130318,153.219100
20426.845172,2960.823768,-5699.585753,6665.030833
20426.845506,5551.544565,-4737.318029,10495.508323
20426.845839,5625.565159,-4589.276840,9806.022374
20426.846172,5847.626942,-6217.729913,5822.325785
20426.846505,2368.659014,-4811.338623,3064.381992
20426.846839,3478.967927,-10362.883188,-1302.362347
20426.847172,-4367.215058,-11177.109724,-7354.516781
20426.847505,-8290.306550,-13397.727550,-8350.440928
20426.847838,-8660.409521,-13101.645173,-8197.221829
20426.848172,-3404.947333,-11843.295072,-2911.162892
20426.848505,-370.102971,-8734.430116,612.876398
20426.848838,2886.803174,-8882.471304,5439.278036
20426.849171,4071.132681,-6069.688724,5056.230287
20426.849505,4737.318029,-6587.832884,5515.887586
20426.849838,8216.285956,-8290.306550,6665.030833
20426.850171,4959.379811,-6439.791695,3064.381992
20426.850504,888.247130,-11547.212695,1149.143247
20426.850838,-5033.400406,-11695.253884,-4979.620737
20426.851171,-7179.997637,-12287.418637,-7507.735880
20426.851504,-4145.153275,-11177.109724,-4903.011187
20426.851837,-740.205942,-6957.935855,-1915.238745
20426.852170,1998.556043,-4811.338623,0.000000
20426.852504,3108.864956,-9178.553681,3294.210641
20426.852837,5847.626942,-8882.471304,2374.896044
20426.853170,6291.750507,-8956.491898,2757.943793
20426.853503,6439.791695,-8586.388927,1072.533697
20426.853837,2442.679609,-11695.253884,-76.609550
20426.854170,-740.205942,-12509.480420,-2145.067394
20426.854503,-370.102971,-11547.212695,-689.485948
20426.854836,1184.329507,-7772.162391,1532.190996
20426.855170,2368.659014,-8808.450710,5822.325785
20426.855503,4663.297435,-8290.306550,2068.457845
20426.855836,518.144159,-6735.874072,0.000000
20426.856169,0.000000,-7179.997637,1225.752797
20426.856503,3478.967927,-7698.141797,-1455.581446
20426.856836,2072.576638,-8660.409521,-1225.752797
20426.857169,222.061783,-10807.006753,-459.657299
20426.857502,-2516.700203,-12953.603985,-2068.457845
20426.857836,-3256.906145,-11917.315666,-1838.629195
20426.858169,888.247130,-11177.109724,3370.820191
20426.858502,3627.009116,-6661.853478,5669.106685
20426.858835,3849.070898,-5255.462188,5056.230287
20426.859168,2294.638420,-7994.224174,3600.648841
20426.859502,-222.061783,-8882.471304,-995.924147
20426.859835,74.020594,-6291.750507,-2451.505594
20426.860168,-222.061783,-9474.636058,-689.485948
20426.860501,-3627.009116,-11177.109724,-7124.688131
20426.860835,-4293.194464,-13027.624579,-4979.620737
20426.861168,-4367.215058,-13619.789333,-2528.115143
20426.861501,148.041188,-10140.821405,2528.115143
20426.861834,2960.823768,-7994.224174,5745.716235
20426.862168,4293.194464,-7476.080014,7354.516781
20426.862501,3552.988522,-6957.935855,7277.907231
20426.862834,592.164754,-4811.338623,3677.258390
20426.863167,2812.782580,-7846.182985,2681.334243
20426.863501,-74.020594,-10362.883188,-1915.238745
20426.863834,-7698.141797,-10658.965565,-6052.154434
20426.864167,-8660.409521,-13619.789333,-9882.631924
20426.864500,-10362.883188,-13471.748144,-7124.688131
20426.864833,-3997.112087,-10955.047942,-1225.752797
20426.865167,1184.329507,-6809.894666,5209.449386
20426.865500,4663.297435,-7105.977043,7890.783629
20426.865833,5033.400406,-7031.956449,9729.412825
20426.866166,6291.750507,-8290.306550,5439.278036
20426.866500,3775.050304,-6883.915261,3370.820191
20426.866833,2664.741391,-8660.409521,1378.971896
20426.867166,-3182.885551,-11177.109724,-5439.278036
20426.867499,-6661.853478,-12287.418637,-7507.735880
20426.867833,-6661.853478,-12805.562797,-5592.497135
20426.868166,-2368.659014,-10658.965565,-995.924147
20426.868499,-1628.453072,-5995.668130,0.000000
20426.868832,3478.967927,-9178.553681,4826.401637
20426.869166,4663.297435,-9474.636058,6665.030833
20426.869499,3923.091493,-4219.173869,4290.134789
20426.869832,9104.533087,-7105.977043,6052.154434
20426.870165,5329.482782,-8438.347739,3294.210641
20426.870499,1184.329507,-11325.150913,766.095498
20426.870832,-4071.132681,-12213.398043,-4749.792088
20426.871165,-4959.379811,-12805.562797,-6205.373534
20426.871498,-2960.823768,-11029.068536,-2451.505594
20426.871831,3478.967927,-9474.636058,-689.485948
20426.872165,2590.720797,-6291.750507,1378.971896
20426.872498,0.000000,-6587.832884,3677.258390
20426.872831,7031.956449,-8290.306550,4213.525239
20426.873164,5921.647536,-8364.327145,5669.106685
20426.873498,6957.935855,-6809.894666,2987.772442
20426.873831,2294.638420,-10881.027347,76.609550
20426.874164,-1258.350101,-13027.624579,-2528.115143
20426.874497,-4737.318029,-11325.150913,-2451.505594
20426.874831,-1332.370696,-10214.842000,-459.657299
20426.875164,518.144159,-9104.533087,842.705048
20426.875497,-222.061783,-9178.553681,842.705048
20426.875830,-74.020594,-6957.935855,-383.047749
20426.876164,0.000000,-6143.709319,0.000000
20426.876497,2886.803174,-8290.306550,2604.724693
20426.876830,3182.885551,-9474.636058,-76.609550
20426.877163,-2368.659014,-10732.986159,-1838.629195
20426.877497,-3627.009116,-13249.686362,-1302.362347
20426.877830,-4885.359217,-11917.315666,-2145.067394
20426.878163,518.144159,-10362.883188,2987.772442
20426.878496,3256.906145,-6439.791695,5745.716235
20426.878829,1480.411884,-4811.338623,3983.696590
20426.879163,-1776.494261,-5107.421000,1225.752797
20426.879496,-74.020594,-9474.636058,-1302.362347
20426.879829,-962.267725,-6587.832884,-3983.696590
20426.880162,-2368.659014,-9696.697840,-2681.334243
20426.880496,-4811.338623,-10955.047942,-5286.058936
20426.880829,-6735.874072,-12657.521608,-5362.668486
20426.881162,-5107.421000,-11991.336260,-1838.629195
20426.881495,740.205942,-9400.615463,4213.525239
20426.881829,5033.400406,-7624.121203,8120.612279
20426.882162,2368.659014,-6291.750507,9959.241474
20426.882495,4663.297435,-6513.812290,4213.525239
20426.882828,2220.617826,-5107.421000,3064.381992
20426.883162,2368.659014,-6587.832884,2451.505594
20426.883495,592.164754,-8660.409521,-3064.381992
20426.883828,-5107.421000,-12139.377449,-6818.249932
20426.884161,-8660.409521,-14211.954086,-9422.974625
20426.884494,-8808.450710,-12805.562797,-7967.393179
20426.884828,-1850.514855,-11103.089130,-1302.362347
20426.885161,3552.988522,-8068.244768,6971.469032
20426.885494,7031.956449,-7105.977043,8503.660028
20426.885827,4885.359217,-3923.091493,7354.516781
20426.886161,7624.121203,-7994.224174,7967.393179
20426.886494,9400.615463,-6809.894666,4826.401637
20426.886827,5625.565159,-8068.244768,919.314598
20426.887160,1406.391290,-10807.006753,-3753.867940
20426.887494,-4737.318029,-13397.727550,-8580.269578
20426.887827,-8290.306550,-13101.645173,-8580.269578
20426.888160,-74.020594,-13027.624579,-3753.867940
20426.888493,0.000000,-8364.327145,919.314598
20426.888827,0.000000,-7772.162391,4290.134789
20426.889160,4663.297435,-8142.265362,3600.648841
20426.889493,6291.750507,-5921.647536,6052.154434
20426.889826,6217.729913,-6217.729913,5975.544884
20426.890160,5847.626942,-8142.265362,4443.353888
20426.890493,0.000000,-9622.677246,0.000000
20426.890826,-5921.647536,-10140.821405,-4903.011187
20426.891159,-4811.338623,-11843.295072,-6511.811733
20426.891492,-3775.050304,-11695.253884,-3447.429741
20426.891826,-1332.370696,-8290.306550,-995.924147
20426.892159,-222.061783,-8586.388927,689.485948
20426.892492,0.000000,-5995.668130,76.609550
20426.892825,740.205942,-10066.800811,3600.648841
20426.893159,4071.132681,-6587.832884,1225.752797
20426.893492,3701.029710,-9474.636058,4519.963438
20426.893825,2516.700203,-9178.553681,1838.629195
20426.894158,-2294.638420,-11991.336260,0.000000
20426.894492,-2886.803174,-10066.800811,-995.924147
20426.894825,-1110.308913,-10140.821405,1838.629195
20426.895158,0.000000,-7476.080014,1532.190996
20426.895491,-1776.494261,-6587.832884,919.314598
20426.895825,-1258.350101,-8882.471304,-1302.362347
20426.896158,-2368.659014,-6587.832884,-2681.334243
20426.896491,-2368.659014,-8364.327145,306.438199
20426.896824,-74.020594,-9474.636058,-1302.362347
20426.897157,-4737.318029,-9844.739029,0.000000
20426.897491,-4145.153275,-10881.027347,-1378.971896
20426.897824,-2590.720797,-10140.821405,0.000000
20426.898157,1184.329507,-9844.739029,5669.106685
20426.898490,7031.956449,-5921.647536,8503.660028
20426.898824,7031.956449,-7105.977043,5439.278036
20426.899157,2072.576638,-5403.503377,1838.629195
20426.899490,1184.329507,-8956.491898,1762.019645
20426.899823,1702.473667,-9326.594869,-3907.087040
20426.900157,1184.329507,-10955.047942,-2681.334243
20426.900490,-2590.720797,-11843.295072,-5975.544884
20426.900823,-4811.338623,-13545.768739,-6205.373534
20426.901156,-2738.761985,-12657.521608,-2451.505594
20426.901490,3478.967927,-10066.800811,3600.648841
20426.901823,5329.482782,-4811.338623,4903.011187
20426.902156,6217.729913,-6291.750507,9806.022374
20426.902489,8808.450710,-6513.812290,6052.154434
20426.902823,5847.626942,-3627.009116,2451.505594
20426.903156,7328.038826,-9474.636058,2374.896044
20426.903489,2072.576638,-9030.512492,-3524.039291
20426.903822,-3997.112087,-12213.398043,-8580.269578
20426.904155,-7179.997637,-14582.057057,-10418.898773
20426.904489,-7254.018232,-14211.954086,-7431.126331
20426.904822,-3404.947333,-12361.439231,-1225.752797
20426.905155,3775.050304,-7254.018232,5132.839837
20426.905488,7328.038826,-5625.565159,9499.584175
20426.905822,5921.647536,-3923.091493,9806.022374
20426.906155,7105.977043,-6587.832884,8503.660028
20426.906488,6217.729913,-8586.388927,4213.525239
20426.906821,3552.988522,-11473.192101,2987.772442
20426.907155,-2738.761985,-8660.409521,-6128.763984
20426.907488,-9474.636058,-11917.315666,-7967.393179
20426.907821,-7402.059420,-14211.954086,-5592.497135
20426.908154,-5921.647536,-10732.986159,-1378.971896
20426.908487,-2072.576638,-7179.997637,1762.019645
20426.908821,-1406.391290,-8290.306550,3600.648841
20426.909154,0.000000,-5995.668130,4903.011187
20426.909487,1110.308913,-2738.761985,2451.505594
20426.909820,2664.741391,-6365.771101,4213.525239
20426.910154,0.000000,-7179.997637,5132.839837
20426.910487,-74.020594,-11843.295072,-689.485948
20426.910820,-5551.544565,-11917.315666,-7814.174080
20426.911153,-7550.100608,-13101.645173,-4366.744339
20426.911486,-5847.626942,-11621.233289,-3064.381992
20426.911820,-962.267725,-6587.832884,536.266849
20426.912153,1702.473667,-8586.388927,4826.401637
20426.912486,1776.494261,-5995.668130,2451.505594
20426.912819,1628.453072,-11251.130318,4826.401637
20426.913152,4959.379811,-7476.080014,3064.381992
20426.913486,2960.823768,-7179.997637,3677.258390
20426.913819,1998.556043,-8882.471304,-995.924147
20426.914152,-1998.556043,-11991.336260,-2221.676944
20426.914485,-3775.050304,-11177.109724,-3370.820191
20426.914818,-296.082377,-10436.903782,919.314598
20426.915152,518.144159,-7105.977043,842.705048
20426.915485,1184.329507,-9474.636058,4519.963438
20426.915818,592.164754,-8438.347739,2374.896044
20426.916151,1702.473667,-6143.709319,-1838.629195
20426.916484,3552.988522,-7476.080014,919.314598
20426.916818,3404.947333,-7772.162391,0.000000
20426.917151,444.123565,-11843.295072,-2374.896044
20426.917484,-2664.741391,-13397.727550,-2834.553343
20426.917817,-1998.556043,-12213.398043,-1838.629195
20426.918151,1776.494261,-9844.739029,1225.752797
20426.918484,8882.471304,-8290.306550,7890.783629
20426.918817,8068.244768,-5329.482782,6588.421283
20426.919150,4959.379811,-4811.338623,2451.505594
20426.919483,1776.494261,-9844.739029,459.657299
20426.919817,888.247130,-8808.450710,-3370.820191
20426.920150,666.185348,-9622.677246,-4290.134789
20426.920483,-2368.659014,-11991.336260,-5209.449386
20426.920816,-4959.379811,-12805.562797,-5515.887586
20426.921149,-5477.523971,-11325.150913,-3677.258390
20426.921483,1406.391290,-10066.800811,3294.210641
20426.921816,4293.194464,-6291.750507,7048.078582
20426.922149,6069.688724,-6217.729913,7737.564530
20426.922482,7031.956449,-7105.977043,7277.907231
20426.922815,2738.761985,-5699.585753,3064.381992
20426.923149,3701.029710,-7328.038826,1225.752797
20426.923482,888.247130,-10658.965565,-689.485948
20426.923815,-5181.441594,-11325.150913,-7354.516781
20426.924148,-11251.130318,-13249.686362,-7277.907231
20426.924482,-12065.356855,-12879.583391,-9806.022374
20426.924815,-7328.038826,-11769.274478,-3753.867940
20426.925148,-814.226536,-6513.812290,2987.772442
20426.925481,2886.803174,-5329.482782,8197.221829
20426.925814,4663.297435,-1998.556043,7507.735880
20426.926148,3552.988522,-7328.038826,8503.660028
20426.926481,6439.791695,-7994.224174,7277.907231
20426.926814,2294.638420,-6291.750507,0.000000
20426.927147,-222.061783,-11843.295072,-2528.115143
20426.927480,-6809.894666,-13989.892304,-7354.516781
20426.927814,-9252.574275,-14285.974681,-8580.269578
20426.928147,-5551.544565,-12731.542202,-4060.306139
20426.928480,-2960.823768,-8364.327145,0.000000
20426.928813,-962.267725,-7772.162391,0.000000
20426.929146,2368.659014,-7994.224174,5745.716235
20426.929480,4515.256246,-6217.729913,5745.716235
20426.929813,5255.462188,-4293.194464,4903.011187
20426.930146,4145.153275,-5995.668130,4136.915689
20426.930479,1776.494261,-8734.430116,1072.533697
20426.930813,-3701.029710,-11917.315666,-3294.210641
20426.931146,-4663.297435,-11103.089130,-6205.373534
20426.931479,-1480.411884,-13027.624579,-1915.238745
20426.931812,-2368.659014,-8364.327145,-1225.752797
20426.932145,2294.638420,-8882.471304,-383.047749
20426.932479,1258.350101,-7476.080014,0.000000
20426.932812,3552.988522,-9474.636058,1225.752797
20426.933145,6587.832884,-9474.636058,3064.381992
20426.933478,6291.750507,-8882.471304,3294.210641
20426.933811,3256.906145,-8808.450710,995.924147
20426.934145,814.226536,-12361.439231,-76.609550
20426.934478,814.226536,-10362.883188,-995.924147
20426.934811,2960.823768,-11843.295072,3600.648841
20426.935144,2516.700203,-4811.338623,2451.505594
20426.935477,0.000000,-7476.080014,3064.381992
20426.935811,2294.638420,-9474.636058,-842.705048
20426.936144,0.000000,-7476.080014,-2451.505594
20426.936477,1702.473667,-8882.471304,-1915.238745
20426.936810,518.144159,-8808.450710,-1991.848295
20426.937143,-1702.473667,-11621.233289,-2374.896044
20426.937477,-2590.720797,-10807.006753,-3294.210641
20426.937810,-1332.370696,-11547.212695,383.047749
20426.938143,2516.700203,-9474.636058,4213.525239
20426.938476,5847.626942,-6883.915261,7354.516781
20426.938810,5847.626942,-5847.626942,6971.469032
20426.939143,5847.626942,-7105.977043,3600.648841
20426.939476,1332.370696,-8364.327145,0.000000
20426.939809,2812.782580,-10658.965565,-689.485948
20426.940142,-2220.617826,-7772.162391,-4290.134789
20426.940476,-5329.482782,-12065.356855,-7048.078582
20426.940809,-7179.997637,-13027.624579,-8656.879127
20426.941142,-6735.874072,-13471.748144,-4979.620737
20426.941475,222.061783,-10214.842000,3217.601092
20426.941808,3923.091493,-5551.544565,7737.564530
20426.942142,4441.235652,-4811.338623,7967.393179
20426.942475,6513.812290,-7105.977043,9729.412825
20426.942808,4663.297435,-8290.306550,4826.401637
20426.943141,3256.906145,-4811.338623,612.876398
20426.943474,1998.556043,-13027.624579,-383.047749
20426.943808,-5699.585753,-11029.068536,-9193.145976
20426.944141,-9474.636058,-15100.201217,-9269.755526
20426.944474,-9474.636058,-13915.871710,-8503.660028
20426.944807,-4737.318029,-12065.356855,-2374.896044
20426.945141,0.000000,-8068.244768,3983.696590
20426.945474,7031.956449,-8290.306550,9116.536426
20426.945807,4145.153275,-4811.338623,7967.393179
20426.946140,2368.659014,-3034.844362,7354.516781
20426.946473,6439.791695,-7105.977043,4213.525239
20426.946807,1776.494261,-7179.997637,2145.067394
20426.947140,-1258.350101,-10066.800811,-3600.648841
20426.947473,-7698.141797,-13619.789333,-7584.345430
20426.947806,-8660.409521,-12879.583391,-8656.879127
20426.948139,-4811.338623,-12731.542202,-2528.115143
20426.948473,-666.185348,-8290.306550,-1608.800546
20426.948806,0.000000,-7772.162391,4673.182538
20426.949139,2294.638420,-7994.224174,4213.525239
20426.949472,2442.679609,-4441.235652,2451.505594
20426.949805,5033.400406,-7031.956449,6358.592633
20426.950139,5107.421000,-7846.182985,3524.039291
20426.950472,2442.679609,-10658.965565,1915.238745
20426.950805,-2442.679609,-12139.377449,-2374.896044
20426.951138,-2738.761985,-11843.295072,-1915.238745
20426.951472,-1776.494261,-9992.780217,-2068.457845
20426.951805,518.144159,-8364.327145,0.000000
20426.952138,296.082377,-7698.141797,1072.533697
20426.952471,0.000000,-5995.668130,0.000000
20426.952804,-1776.494261,-7772.162391,612.876398
20426.953138,5255.462188,-9474.636058,1149.143247
20426.953471,3552.988522,-6291.750507,229.828649
20426.953804,2368.659014,-8660.409521,1915.238745
20426.954137,-666.185348,-11843.295072,-1302.362347
20426.954470,-1184.329507,-9992.780217,-919.314598
20426.954804,74.020594,-10955.047942,1225.752797
20426.955137,3997.112087,-5921.647536,2757.943793
20426.955470,2368.659014,-9844.739029,4903.011187
20426.955803,1998.556043,-6957.935855,229.828649
20426.956136,3478.967927,-9178.553681,-1302.362347
20426.956470,1110.308913,-7846.182985,-2298.286494
20426.956803,3552.988522,-10436.903782,-76.609550
20426.957136,-2960.823768,-11029.068536,-3370.820191
20426.957469,-4441.235652,-13545.768739,-3140.991542
20426.957803,-3997.112087,-11251.130318,-2451.505594
20426.958136,814.226536,-10510.924376,2374.896044
20426.958469,6439.791695,-7105.977043,6665.030833
20426.958802,2368.659014,-4811.338623,7660.954980
20426.959135,4071.132681,-7105.977043,2374.896044
20426.959469,0.000000,-7179.997637,612.876398
20426.959802,2886.803174,-9326.594869,-76.609550
20426.960135,-74.020594,-10658.965565,-3140.991542
20426.960468,-3404.947333,-12361.439231,-5592.497135
20426.960801,-7105.977043,-13989.892304,-5898.935335
20426.961135,-6365.771101,-12657.521608,-4826.401637
20426.961468,-74.020594,-10955.047942,2681.334243
20426.961801,3256.906145,-7772.162391,9116.536426
20426.962134,3182.885551,-4811.338623,7354.516781
20426.962467,1776.494261,-3627.009116,7354.516781
20426.962801,4663.297435,-6513.812290,4519.963438
20426.963134,2368.659014,-3923.091493,1532.190996
20426.963467,1554.432478,-9178.553681,-1455.581446
20426.963800,-4515.256246,-11251.130318,-5898.935335
20426.964133,-10066.800811,-13545.768739,-8963.317327
20426.964467,-10214.842000,-13767.830521,-8963.317327
20426.964800,-5403.503377,-13027.624579,-3753.867940
20426.965133,-2368.659014,-7920.203579,3064.381992
20426.965466,4071.132681,-8290.306550,9729.412825
20426.965800,6439.791695,-5921.647536,7277.907231
20426.966133,3330.926739,-4071.132681,6511.811733
20426.966466,6735.874072,-6513.812290,5745.716235
20426.966799,4885.359217,-6143.709319,2911.162892
20426.967132,296.082377,-9030.512492,-1532.190996
20426.967466,-4663.297435,-12509.480420,-6741.640382
20426.967799,-5995.668130,-14211.954086,-8810.098227
20426.968132,-4293.194464,-13101.645173,-4366.744339
20426.968465,0.000000,-8956.491898,-1378.971896
20426.968798,1628.453072,-9474.636058,1762.019645
20426.969132,1184.329507,-8364.327145,2451.505594
20426.969465,5255.462188,-8216.285956,4213.525239
20426.969798,7476.080014,-7105.977043,5439.278036
20426.970131,4737.318029,-6291.750507,6128.763984
20426.970464,1554.432478,-9548.656652,1378.971896
20426.970798,-1998.556043,-9992.780217,-3600.648841
20426.971131,-4293.194464,-12287.418637,-4060.306139
20426.971464,-2368.659014,-9844.739029,-3217.601092
20426.971797,-518.144159,-7698.141797,-1532.190996
20426.972131,592.164754,-9104.533087,1685.410096
20426.972464,2886.803174,-9474.636058,-76.609550
20426.972797,0.000000,-7179.997637,306.438199
20426.973130,2368.659014,-7772.162391,3370.820191
20426.973463,4663.297435,-8882.471304,2068.457845
20426.973797,1184.329507,-8660.409521,2451.505594
20426.974130,-296.082377,-11399.171507,-536.266849
20426.974463,-1258.350101,-11177.109724,-612.876398
20426.974796,1406.391290,-10362.883188,2374.896044
20426.975129,3478.967927,-7105.977043,3294.210641
20426.975463,3182.885551,-9474.636058,-76.609550
20426.975796,-2812.782580,-7179.997637,0.000000
20426.976129,-3849.070898,-8068.244768,-2451.505594
20426.976462,-74.020594,-9474.636058,-2528.115143
20426.976795,962.267725,-8882.471304,-76.609550
20426.977129,-3034.844362,-9844.739029,-2451.505594
20426.977462,-4293.194464,-11991.336260,-2298.286494
20426.977795,-4737.318029,-10436.903782,-1225.752797
20426.978128,0.000000,-8956.491898,1838.629195
20426.978462,3478.967927,-5773.606348,4903.011187
20426.978795,2368.659014,-4811.338623,6741.640382
20426.979128,5255.462188,-7105.977043,4673.182538
20426.979461,1184.329507,-6217.729913,0.000000
20426.979794,2072.576638,-7328.038826,-995.924147
20426.980128,-370.102971,-11103.089130,-3140.991542
20426.980461,-3034.844362,-11843.295072,-6205.373534
20426.980794,-7994.224174,-13249.686362,-6971.469032
20426.981127,-5477.523971,-12509.480420,-4903.011187
20426.981460,-2368.659014,-9548.656652,2451.505594
20426.981794,5699.585753,-7105.977043,8503.660028
20426.982127,7624.121203,-5329.482782,6818.249932
20426.982460,7254.018232,-5995.668130,10342.289223
20426.982793,7031.956449,-6217.729913,5439.278036
20426.983126,7254.018232,-5255.462188,2987.772442
20426.983460,3404.947333,-9770.718434,-1915.238745
20426.983793,-1258.350101,-10658.965565,-7660.954980
20426.984126,-6365.771101,-16580.613101,-8580.269578
20426.984459,-6809.894666,-12657.521608,-9039.926876
20426.984793,-2368.659014,-12953.603985,-2911.162892
20426.985126,1184.329507,-9178.553681,1838.629195
20426.985459,6661.853478,-7031.956449,7277.907231
20426.985792,5921.647536,-4811.338623,7967.393179
20426.986125,7550.100608,-3108.864956,5286.058936
20426.986459,5921.647536,-6291.750507,6894.859482
20426.986792,8216.285956,-8882.471304,4826.401637
20426.987125,-74.020594,-9178.553681,-3447.429741
20426.987458,-5773.606348,-13841.851115,-6205.373534
20426.987791,-7476.080014,-11843.295072,-10648.727422
20426.988125,-6291.750507,-14508.036463,-4213.525239
20426.988458,-1628.453072,-7328.038826,-919.314598
20426.988791,-74.020594,-9474.636058,2374.896044
20426.989124,-2072.576638,-6587.832884,4903.011187
20426.989457,0.000000,-6587.832884,6588.421283
20426.989791,4663.297435,-5773.606348,6052.154434
20426.990124,2368.659014,-4811.338623,4903.011187
20426.990457,-74.020594,-10362.883188,-76.609550
20426.990790,-3627.009116,-11843.295072,-3140.991542
20426.991123,-7920.203579,-12361.439231,-5286.058936
20426.991457,-4293.194464,-11917.315666,-3140.991542
20426.991790,-2886.803174,-7772.162391,-2451.505594
20426.992123,-2368.659014,-9844.739029,3600.648841
20426.992456,-222.061783,-8290.306550,2374.896044
20426.992790,-1258.350101,-5995.668130,-2451.505594
20426.993123,1554.432478,-8882.471304,3294.210641
20426.993456,1332.370696,-6291.750507,2451.505594
20426.993789,1036.288319,-8290.306550,2374.896044
20426.994122,-2442.679609,-11103.089130,-1455.581446
20426.994456,-3849.070898,-10288.862594,-1302.362347
20426.994789,-2072.576638,-11029.068536,1532.190996
20426.995122,4071.132681,-9178.553681,2374.896044
20426.995455,962.267725,-8364.327145,612.876398
20426.995788,0.000000,-7179.997637,0.000000
20426.996122,962.267725,-9474.636058,-76.609550
20426.996455,1036.288319,-7772.162391,0.000000
20426.996788,4219.173869,-8512.368333,995.924147
20426.997121,-1110.308913,-11695.253884,-1455.581446
20426.997454,-1850.514855,-13027.624579,-2604.724693
20426.997788,-1258.350101,-12731.542202,-612.876398
20426.998121,2294.638420,-10362.883188,2221.676944
20426.998454,5403.503377,-6365.771101,6588.421283
20426.998787,4959.379811,-5403.503377,4903.011187
20426.999121,5847.626942,-4367.215058,2528.115143
20426.999454,296.082377,-6587.832884,1838.629195
20426.999787,3552.988522,-9252.574275,1762.019645
20427.000120,2294.638420,-11251.130318,-3140.991542
20427.000453,-2072.576638,-10732.986159,-4596.572988
20427.000787,-3627.009116,-13323.706956,-5898.935335
20427.001120,-5181.441594,-13249.686362,-5515.887586
20427.001453,0.000000,-11399.171507,459.657299
20427.001786,3701.029710,-8290.306550,3983.696590
20427.002119,7105.977043,-7105.977043,8503.660028
20427.002453,5847.626942,-6513.812290,7277.907231
20427.002786,8216.285956,-6809.894666,4826.401637
20427.003119,3775.050304,-5107.421000,3677.258390
20427.003452,1332.370696,-7328.038826,306.438199
20427.003785,-3701.029710,-11251.130318,-4903.011187
20427.004119,-8660.409521,-13693.809927,-8503.660028
20427.004452,-9474.636058,-13101.645173,-8044.002729
20427.004785,-6957.935855,-11917.315666,-4903.011187
20427.005118,-2146.597232,-7698.141797,-383.047749
20427.005452,0.000000,-7476.080014,7890.783629
20427.005785,1924.535449,-2664.741391,6665.030833
20427.006118,296.082377,-5107.421000,8580.269578
20427.006451,4071.132681,-6365.771101,4213.525239
20427.006784,1998.556043,-6809.894666,536.266849
20427.007118,-1554.432478,-10362.883188,-1302.362347
20427.007451,-4737.318029,-11991.336260,-5898.935335
20427.007784,-8586.388927,-13619.789333,-7201.297681
20427.008117,-5625.565159,-12435.459826,-4136.915689
20427.008451,-2442.679609,-11547.212695,-76.609550
20427.008784,-3552.988522,-7179.997637,2604.724693
20427.009117,-2368.659014,-7179.997637,3524.039291
20427.009450,2294.638420,-7105.977043,3447.429741
20427.009784,4737.318029,-2442.679609,5515.887586
20427.010117,4663.297435,-5921.647536,4596.572988
20427.010450,518.144159,-9326.594869,612.876398
20427.010784,-3849.070898,-12509.480420,-2911.162892
20427.011117,-5699.585753,-13027.624579,-4979.620737
20427.011450,-2146.597232,-10436.903782,-4366.744339
20427.011783,-2812.782580,-7476.080014,-1532.190996
20427.012117,888.247130,-9178.553681,2757.943793
20427.012450,2886.803174,-9474.636058,1149.143247
20427.012783,592.164754,-4811.338623,0.000000
20427.013117,3627.009116,-8364.327145,2451.505594
20427.013450,4071.132681,-7624.121203,1838.629195
20427.013783,1998.556043,-10510.924376,459.657299
20427.014116,-1184.329507,-9844.739029,-1455.581446
20427.014450,-370.102971,-11325.150913,-1225.752797
20427.014783,3034.844362,-9400.615463,2757.943793
20427.015116,3701.029710,-7772.162391,4443.353888
20427.015449,4367.215058,-7624.121203,2834.553343
20427.015783,2886.803174,-8734.430116,1685.410096
20427.016116,814.226536,-8068.244768,-3217.601092
20427.016449,2368.659014,-7179.997637,-3064.381992
20427.016783,2664.741391,-10140.821405,-689.485948
20427.017116,-74.020594,-9252.574275,-4290.134789
20427.017449,-3552.988522,-11917.315666,-1685.410096
20427.017782,-1480.411884,-11621.233289,-1532.190996
20427.018116,2516.700203,-9474.636058,1991.848295
20427.018449,7031.956449,-7698.141797,5592.497135
20427.018782,9400.615463,-5921.647536,6052.154434
20427.019116,8808.450710,-4441.235652,2834.553343
20427.019449,5921.647536,-7772.162391,3600.648841
20427.019782,5847.626942,-11251.130318,-76.609550
20427.020115,1406.391290,-10955.047942,-4213.525239
20427.020449,-1258.350101,-11843.295072,-4979.620737
20427.020782,-5921.647536,-13101.645173,-7048.078582
20427.021115,-4959.379811,-11547.212695,-5898.935335
20427.021448,-370.102971,-11177.109724,1225.752797
20427.021782,3552.988522,-5995.668130,6128.763984
20427.022115,6143.709319,-4367.215058,4903.011187
20427.022448,5625.565159,-8586.388927,8503.660028
20427.022782,6439.791695,-5625.565159,4903.011187
20427.023115,2738.761985,-5181.441594,1532.190996
20427.023448,4145.153275,-5403.503377,-1302.362347
20427.023781,-3849.070898,-12805.562797,-5515.887586
20427.024115,-6883.915261,-12509.480420,-8350.440928
20427.024448,-10288.862594,-14804.118840,-8197.221829
20427.024781,-5033.400406,-13175.665768,-3600.648841
20427.025114,-3552.988522,-8364.327145,612.876398
20427.025448,1184.329507,-8660.409521,7890.783629
20427.025781,5847.626942,-4145.153275,7277.907231
20427.026114,148.041188,-4811.338623,4903.011187
20427.026448,4145.153275,-6439.791695,5515.887586
20427.026781,3478.967927,-8290.306550,2528.115143
20427.027114,-2146.597232,-10362.883188,-995.924147
20427.027447,-7476.080014,-12287.418637,-5898.935335
20427.027781,-11325.150913,-12583.501014,-9729.412825
20427.028114,-7254.018232,-14211.954086,-4366.744339
20427.028447,-5699.585753,-7476.080014,-1685.410096
20427.028781,-5625.565159,-7179.997637,2451.505594
20427.029114,-2590.720797,-9326.594869,3294.210641
20427.029447,-74.020594,-7105.977043,3983.696590
20427.029780,3108.864956,-7105.977043,7584.345430
20427.030114,4293.194464,-4515.256246,5439.278036
20427.030447,0.000000,-8882.471304,2298.286494
20427.030780,-3330.926739,-9918.759623,-3677.258390
20427.031113,-4811.338623,-11843.295072,-3753.867940
20427.031447,-2368.659014,-11621.233289,-3064.381992
20427.031780,0.000000,-8956.491898,-1225.752797
20427.032113,296.082377,-8956.491898,-612.876398
20427.032447,0.000000,-7772.162391,-1225.752797
20427.032780,1998.556043,-9474.636058,2374.896044
20427.033113,4071.132681,-9178.553681,1455.581446
20427.033446,4737.318029,-5403.503377,3064.381992
20427.033780,5921.647536,-10510.924376,5439.278036
20427.034113,5847.626942,-9474.636058,-76.609550
20427.034446,1554.432478,-11991.336260,2221.676944
20427.034779,4071.132681,-9104.533087,1838.629195
20427.035113,5255.462188,-8142.265362,3600.648841
20427.035446,1776.494261,-7179.997637,0.000000
20427.035779,1184.329507,-8364.327145,1225.752797
20427.036113,-74.020594,-9178.553681,-4213.525239
20427.036446,5847.626942,-6069.688724,-3370.820191
20427.036779,3108.864956,-10214.842000,-459.657299
20427.037112,1702.473667,-9548.656652,-4903.011187
20427.037446,-1110.308913,-12139.377449,-3294.210641
20427.037779,-1332.370696,-12879.583391,-1149.143247
20427.038112,4293.194464,-8882.471304,3294.210641
20427.038446,5921.647536,-7920.203579,7354.516781
20427.038779,9770.718434,-6883.915261,11568.042020
20427.039112,6143.709319,-5107.421000,4903.011187
20427.039445,5329.482782,-8364.327145,4290.134789
20427.039779,4071.132681,-9474.636058,-1915.238745
20427.040112,-2368.659014,-9548.656652,-3677.258390
20427.040445,-3627.009116,-10510.924376,-7814.174080
20427.040778,-8142.265362,-14952.160028,-6818.249932
20427.041112,-7994.224174,-11695.253884,-5975.544884
20427.041445,-3034.844362,-12435.459826,1762.019645
20427.041778,2146.597232,-8290.306550,6052.154434
20427.042112,1110.308913,-3627.009116,6128.763984
20427.042445,1776.494261,-6513.812290,7890.783629
20427.042778,4071.132681,-6365.771101,6665.030833
20427.043111,2886.803174,-6513.812290,4213.525239
20427.043445,592.164754,-7179.997637,0.000000
20427.043778,-6365.771101,-11843.295072,-5362.668486
20427.044111,-11399.171507,-14434.015869,-9193.145976
20427.044444,-13323.706956,-13397.727550,-9269.755526
20427.044778,-7772.162391,-12435.459826,-5669.106685
20427.045111,-4441.235652,-6587.832884,0.000000
20427.045444,-1776.494261,-5699.585753,7354.516781
20427.045778,3182.885551,-5033.400406,8503.660028
20427.046111,3182.885551,-5181.441594,9422.974625
20427.046444,2960.823768,-5699.585753,6205.373534
20427.046777,2516.700203,-6069.688724,3294.210641
20427.047111,-2368.659014,-9474.636058,-1915.238745
20427.047444,-6365.771101,-10140.821405,-6971.469032
20427.047777,-8364.327145,-12213.398043,-8886.707777
20427.048111,-4737.318029,-11843.295072,-4979.620737
20427.048444,-1850.514855,-10214.842000,-459.657299
20427.048777,296.082377,-9474.636058,1149.143247
20427.049110,370.102971,-7105.977043,1455.581446
20427.049444,5699.585753,-9474.636058,6052.154434
20427.049777,8216.285956,-5329.482782,5132.839837
20427.050110,7105.977043,-5403.503377,3677.258390
20427.050443,5329.482782,-10510.924376,2911.162892
20427.050777,0.000000,-10881.027347,-1838.629195
20427.051110,-2294.638420,-12361.439231,-4366.744339
20427.051443,1554.432478,-10955.047942,-2451.505594
20427.051777,3330.926739,-9474.636058,-76.609550
20427.052110,2960.823768,-7179.997637,0.000000
20427.052443,4663.297435,-7994.224174,-536.266849
20427.052776,2590.720797,-7179.997637,0.000000
20427.053110,5107.421000,-10955.047942,2374.896044
20427.053443,5847.626942,-9474.636058,2374.896044
20427.053776,2664.741391,-9844.739029,1991.848295
20427.054110,-740.205942,-10214.842000,-1455.581446
20427.054443,-1628.453072,-11399.171507,-1532.190996
20427.054776,1998.556043,-9474.636058,2681.334243
20427.055109,5181.441594,-7994.224174,6052.154434
20427.055443,3775.050304,-4959.379811,1532.190996
20427.055776,370.102971,-6587.832884,0.000000
20427.056109,740.205942,-11251.130318,-1302.362347
20427.056442,0.000000,-5995.668130,-4136.915689
20427.056776,2294.638420,-8882.471304,-1915.238745
20427.057109,-2368.659014,-12139.377449,-2987.772442
20427.057442,-3478.967927,-12509.480420,-3140.991542
20427.057776,-4663.297435,-13101.645173,-2068.457845
20427.058109,518.144159,-9474.636058,1762.019645
20427.058442,3256.906145,-4811.338623,7354.516781
20427.058775,6513.812290,-6291.750507,9422.974625
20427.059109,7031.956449,-6513.812290,6665.030833
20427.059442,0.000000,-5403.503377,0.000000
20427.059775,2886.803174,-8290.306550,-1302.362347
20427.060108,-814.226536,-10658.965565,-3447.429741
20427.060442,-3552.988522,-9696.697840,-6588.421283
20427.060775,-7772.162391,-13915.871710,-7354.516781
20427.061108,-9548.656652,-13915.871710,-7431.126331
20427.061442,-3330.926739,-10732.986159,-1149.143247
20427.061775,1776.494261,-9252.574275,6205.373534
20427.062108,5699.585753,-4737.318029,9116.536426
20427.062441,2368.659014,-7179.997637,8580.269578
20427.062775,5921.647536,-5329.482782,7277.907231
20427.063108,5847.626942,-5329.482782,2911.162892
20427.063441,2368.659014,-7179.997637,2451.505594
20427.063775,-74.020594,-9474.636058,-5286.058936
20427.064108,-10362.883188,-14878.139434,-11031.775171
20427.064441,-8660.409521,-13249.686362,-9959.241474
20427.064774,-7179.997637,-14804.118840,-5439.278036
20427.065108,-518.144159,-9030.512492,1072.533697
20427.065441,4663.297435,-7031.956449,7277.907231
20427.065774,6069.688724,-8882.471304,11568.042020
20427.066107,5107.421000,-1258.350101,6128.763984
20427.066441,5329.482782,-5995.668130,4903.011187
20427.066774,8512.368333,-7698.141797,4519.963438
20427.067107,-888.247130,-10955.047942,-1225.752797
20427.067441,-3627.009116,-11695.253884,-6588.421283
20427.067774,-9030.512492,-15026.180623,-8733.488677
20427.068107,-4219.173869,-11695.253884,-6052.154434
20427.068440,-2960.823768,-10362.883188,-1378.971896
20427.068774,-74.020594,-9474.636058,1762.019645
20427.069107,-2368.659014,-7179.997637,2451.505594
20427.069440,444.123565,-8882.471304,3907.087040
20427.069773,5847.626942,-4737.318029,5745.716235
20427.070107,5551.544565,-5625.565159,6052.154434
20427.070440,2886.803174,-9474.636058,1149.143247
20427.070773,-1776.494261,-11547.212695,-1302.362347
20427.071107,-5995.668130,-13175.665768,-4366.744339
20427.071440,-4145.153275,-9548.656652,-3524.039291
20427.071773,-74.020594,-10658.965565,-1915.238745
20427.072106,0.000000,-8364.327145,0.000000
20427.072440,-2368.659014,-9326.594869,2451.505594
20427.072773,1110.308913,-6513.812290,-919.314598
20427.073106,592.164754,-7179.997637,2451.505594
20427.073440,4737.318029,-7254.018232,2911.162892
20427.073773,3404.947333,-8068.244768,2451.505594
20427.074106,-1480.411884,-11103.089130,0.000000
20427.074439,-74.020594,-10658.965565,-76.609550
20427.074773,-2072.576638,-10732.986159,612.876398
20427.075106,5551.544565,-8290.306550,3294.210641
20427.075439,2294.638420,-9474.636058,1762.019645
20427.075772,-2368.659014,-8364.327145,612.876398
20427.076106,0.000000,-7179.997637,-1991.848295
20427.076439,0.000000,-7920.203579,-459.657299
20427.076772,4293.194464,-7105.977043,-1455.581446
20427.077106,-1850.514855,-11029.068536,-2604.724693
20427.077439,-1258.350101,-13619.789333,-1915.238745
20427.077772,-5551.544565,-11473.192101,-2451.505594
20427.078105,222.061783,-9474.636058,842.705048
20427.078439,5255.462188,-7550.100608,4979.620737
20427.078772,7105.977043,-7105.977043,7507.735880
20427.079105,6809.894666,-7476.080014,6588.421283
20427.079438,3478.967927,-7179.997637,1608.800546
20427.079772,592.164754,-7179.997637,0.000000
20427.080105,2294.638420,-11843.295072,-2528.115143
20427.080438,-2960.823768,-10140.821405,-4903.011187
20427.080772,-6513.812290,-14285.974681,-4673.182538
20427.081105,-7328.038826,-12657.521608,-5439.278036
20427.081438,-2738.761985,-10362.883188,229.828649
20427.081771,2294.638420,-7105.977043,6052.154434
20427.082105,5255.462188,-5921.647536,8503.660028
20427.082438,1998.556043,-4515.256246,4903.011187
20427.082771,2738.761985,-7031.956449,5515.887586
20427.083105,4663.297435,-6513.812290,1149.143247
20427.083438,1554.432478,-6587.832884,-1225.752797
20427.083771,-2442.679609,-11843.295072,-4979.620737
20427.084104,-8142.265362,-13841.851115,-8503.660028
20427.084438,-9104.533087,-14952.160028,-7584.345430
20427.084771,-4811.338623,-12509.480420,-3983.696590
20427.085104,0.000000,-7179.997637,383.047749
20427.085437,1110.308913,-3627.009116,4903.011187
20427.085771,5847.626942,-7994.224174,8503.660028
20427.086104,4367.215058,-5921.647536,5439.278036
20427.086437,2960.823768,-5403.503377,4903.011187
20427.086771,5551.544565,-7105.977043,2528.115143
20427.087104,222.061783,-8956.491898,-536.266849
20427.087437,-3330.926739,-11843.295072,-4366.744339
20427.087770,-6661.853478,-13545.768739,-6894.859482
20427.088104,-5921.647536,-11473.192101,-5515.887586
20427.088437,-2072.576638,-10955.047942,1072.533697
20427.088770,1998.556043,-9474.636058,-76.609550
20427.089104,-1776.494261,-7772.162391,1838.629195
20427.089437,592.164754,-5995.668130,4673.182538
20427.089770,6439.791695,-5847.626942,3370.820191
20427.090103,5847.626942,-6661.853478,4673.182538
20427.090437,1628.453072,-8956.491898,536.266849
20427.090770,-2812.782580,-12361.439231,-2451.505594
20427.091103,-4737.318029,-11399.171507,-4290.134789
20427.091436,-666.185348,-11621.233289,-383.047749
20427.091770,2738.761985,-8290.306550,1608.800546
20427.092103,2516.700203,-8586.388927,2681.334243
20427.092436,888.247130,-8734.430116,1762.019645
20427.092770,-888.247130,-9474.636058,-995.924147
20427.093103,0.000000,-7179.997637,0.000000
20427.093436,2960.823768,-9474.636058,2374.896044
20427.093769,1702.473667,-10658.965565,-383.047749
20427.094103,-666.185348,-10510.924376,-383.047749
20427.094436,-2294.638420,-13027.624579,-76.609550
20427.094769,2220.617826,-8586.388927,3370.820191
20427.095102,3404.947333,-8068.244768,5745.716235
20427.095436,3849.070898,-6365.771101,3600.648841
20427.095769,1628.453072,-10066.800811,2374.896044
20427.096102,-3552.988522,-7179.997637,-306.438199
20427.096436,4071.132681,-9474.636058,-1302.362347
20427.096769,2664.741391,-6291.750507,-2451.505594
20427.097102,148.041188,-11473.192101,-2374.896044
20427.097435,-3330.926739,-12953.603985,-4903.011187
20427.097769,-2516.700203,-12509.480420,-2221.676944
20427.098102,222.061783,-10362.883188,2145.067394
20427.098435,6661.853478,-5773.606348,6205.373534
20427.098769,6439.791695,-5625.565159,7890.783629
20427.099102,6661.853478,-7105.977043,8503.660028
20427.099435,4663.297435,-7105.977043,1762.019645
20427.099768,0.000000,-7476.080014,0.000000
20427.100102,1184.329507,-9844.739029,-2528.115143
20427.100435,-4737.318029,-10732.986159,-6128.763984
20427.100768,-6069.688724,-12805.562797,-7890.783629
20427.101101,-7846.182985,-12509.480420,-6588.421283
20427.101435,-1998.556043,-11325.150913,-1991.848295
20427.101768,3108.864956,-6587.832884,4903.011187
20427.102101,8068.244768,-8882.471304,9729.412825
20427.102435,7920.203579,-7105.977043,7277.907231
20427.102768,5107.421000,-4811.338623,5515.887586
20427.103101,7328.038826,-8290.306550,5745.716235
20427.103434,5329.482782,-7476.080014,1455.581446
20427.103768,-2294.638420,-12435.459826,-4979.620737
20427.104101,-7550.100608,-12731.542202,-9882.631924
20427.104434,-10214.842000,-14582.057057,-9116.536426
20427.104767,-7105.977043,-13471.748144,-3830.477490
20427.105101,-74.020594,-8290.306550,-76.609550
20427.105434,0.000000,-5699.585753,5209.449386
20427.105767,2368.659014,-4811.338623,10418.898773
20427.106101,7031.956449,-7105.977043,9116.536426
20427.106434,3552.988522,-5699.585753,7048.078582
20427.106767,4145.153275,-6587.832884,3064.381992
20427.107100,-1850.514855,-9252.574275,-2834.553343
20427.107434,-4811.338623,-11991.336260,-6741.640382
20427.107767,-10658.965565,-13101.645173,-7048.078582
20427.108100,-7476.080014,-13915.871710,-5822.325785
20427.108433,-3330.926739,-9474.636058,-842.705048
20427.108767,-2072.576638,-9474.636058,1532.190996
20427.109100,-1110.308913,-7105.977043,2374.896044
20427.109433,0.000000,-4811.338623,4290.134789
20427.109766,4663.297435,-7105.977043,8503.660028
20427.110099,7031.956449,-4441.235652,4519.963438
20427.110433,-1184.329507,-8364.327145,1378.971896
20427.110766,-2442.679609,-12435.459826,-76.609550
20427.111099,-7105.977043,-12435.459826,-4519.963438
20427.111432,-3404.947333,-10955.047942,-3753.867940
20427.111766,-3552.988522,-9844.739029,919.314598
20427.112099,-1184.329507,-7179.997637,0.000000
20427.112432,-1850.514855,-7476.080014,-3677.258390
20427.112765,0.000000,-8808.450710,1762.019645
20427.113099,2886.803174,-8438.347739,2528.115143
20427.113432,4663.297435,-2738.761985,1225.752797
20427.113765,4737.318029,-7476.080014,2451.505594
20427.114098,592.164754,-9548.656652,459.657299
20427.114431,148.041188,-10955.047942,-612.876398
20427.114765,1554.432478,-11843.295072,1455.581446
20427.115098,5847.626942,-8882.471304,3600.648841
20427.115431,2368.659014,-8364.327145,2374.896044
20427.115764,2294.638420,-8142.265362,-2451.505594
20427.116098,0.000000,-9548.656652,-1838.629195
20427.116431,4145.153275,-9474.636058,1608.800546
20427.116764,6143.709319,-9474.636058,766.095498
20427.117097,814.226536,-11547.212695,-1378.971896
20427.117431,-1850.514855,-11103.089130,-2987.772442
20427.117764,-2960.823768,-11843.295072,-1915.238745
20427.118097,518.144159,-7179.997637,842.705048
20427.118430,7254.018232,-8290.306550,6665.030833
20427.118763,6217.729913,-3627.009116,4903.011187
20427.119097,5329.482782,-5403.503377,6741.640382
20427.119430,6439.791695,-7994.224174,842.705048
20427.119763,2886.803174,-8882.471304,-1685.410096
20427.120096,1924.535449,-10881.027347,-3983.696590
20427.120430,-2146.597232,-12361.439231,-6358.592633
20427.120763,-5255.462188,-13989.892304,-7277.907231
20427.121096,-6957.935855,-14285.974681,-6128.763984
20427.121429,-666.185348,-11843.295072,-1762.019645
20427.121762,2368.659014,-7772.162391,8350.440928
20427.122096,7031.956449,-8290.306550,11568.042020
20427.122429,2590.720797,-3034.844362,6741.640382
20427.122762,1998.556043,-5477.523971,5975.544884
20427.123095,3034.844362,-4515.256246,3677.258390
20427.123429,2368.659014,-6587.832884,842.705048
20427.123762,-4737.318029,-11177.109724,-4443.353888
20427.124095,-11103.089130,-13101.645173,-9193.145976
20427.124428,-12583.501014,-14582.057057,-11031.775171
20427.124762,-9474.636058,-13249.686362,-5132.839837
20427.125095,-4367.215058,-9252.574275,-306.438199
20427.125428,-1776.494261,-7994.224174,3753.867940
20427.125761,0.000000,-3627.009116,6128.763984
20427.126094,2886.803174,-4737.318029,7277.907231
20427.126428,4663.297435,-3330.926739,4903.011187
20427.126761,4737.318029,-6735.874072,6971.469032
20427.127094,1702.473667,-9474.636058,-76.609550
20427.127427,-4589.276840,-9844.739029,-4903.011187
20427.127761,-7550.100608,-14211.954086,-8044.002729
20427.128094,-5107.421000,-13619.789333,-6818.249932
20427.128427,-3108.864956,-11695.253884,-1762.019645
20427.128760,0.000000,-10140.821405,2298.286494
20427.129093,-74.020594,-9474.636058,1149.143247
20427.129427,1184.329507,-5403.503377,1532.190996
20427.129760,4737.318029,-6291.750507,8427.050478
20427.130093,7031.956449,-4737.318029,5439.278036
20427.130426,2960.823768,-7179.997637,4136.915689
20427.130760,-2294.638420,-10288.862594,-1532.190996
20427.131093,-3775.050304,-10732.986159,-4673.182538
20427.131426,-1184.329507,-10584.944971,-1991.848295
20427.131759,3478.967927,-10658.965565,-76.609550
20427.132093,3478.967927,-8290.306550,-2911.162892
20427.132426,296.082377,-9104.533087,842.705048
20427.132759,0.000000,-10881.027347,-76.609550
20427.133092,4071.132681,-9474.636058,-995.924147
20427.133425,7031.956449,-9474.636058,1762.019645
20427.133759,4145.153275,-9474.636058,2374.896044
20427.134092,814.226536,-10214.842000,0.000000
20427.134425,-592.164754,-10658.965565,-76.609550
20427.134758,2960.823768,-8512.368333,3217.601092
20427.135092,4737.318029,-5403.503377,2757.943793
20427.135425,4737.318029,-7328.038826,6358.592633
20427.135758,1702.473667,-8882.471304,-76.609550
20427.136091,-74.020594,-8068.244768,-4903.011187
20427.136425,1850.514855,-10658.965565,-1915.238745
20427.136758,2442.679609,-8808.450710,-2068.457845
20427.137091,-2294.638420,-11769.274478,-4136.915689
20427.137424,-3849.070898,-12657.521608,-3907.087040
20427.137757,-5181.441594,-10732.986159,-2911.162892
20427.138091,296.082377,-10140.821405,3600.648841
20427.138424,6439.791695,-5921.647536,7890.783629
20427.138757,6143.709319,-5773.606348,9116.536426
20427.139090,5921.647536,-5921.647536,8733.488677
20427.139424,3478.967927,-8290.306550,3600.648841
20427.139757,2294.638420,-5995.668130,-3064.381992
20427.140090,1184.329507,-10436.903782,-2145.067394
20427.140423,-1628.453072,-12435.459826,-4979.620737
20427.140756,-6735.874072,-13693.809927,-7354.516781
20427.141090,-9178.553681,-14582.057057,-6511.811733
20427.141423,-4367.215058,-11251.130318,-2987.772442
20427.141756,1258.350101,-8364.327145,5439.278036
20427.142089,3997.112087,-7698.141797,7890.783629
20427.142423,1776.494261,-4811.338623,7660.954980
20427.142756,2294.638420,-4811.338623,3064.381992
20427.143089,3552.988522,-5107.421000,4826.401637
20427.143422,6439.791695,-8882.471304,3600.648841
20427.143756,-1258.350101,-10066.800811,-3753.867940
20427.144089,-7846.182985,-14211.954086,-8810.098227
20427.144422,-11695.253884,-14285.974681,-10572.117872
20427.144755,-6957.935855,-14285.974681,-5439.278036
20427.145088,-2590.720797,-9844.739029,0.000000
20427.145422,4367.215058,-9326.594869,6665.030833
20427.145755,1776.494261,-6587.832884,7354.516781
20427.146088,4737.318029,-6143.709319,9422.974625
20427.146421,5847.626942,-4293.194464,5669.106685
20427.146755,3552.988522,-4811.338623,4903.011187
20427.147088,2294.638420,-7994.224174,-383.047749
20427.147421,-4071.132681,-10955.047942,-4443.353888
20427.147754,-7105.977043,-13249.686362,-8044.002729
20427.148088,-5847.626942,-12509.480420,-5669.106685
20427.148421,-3034.844362,-10066.800811,-3140.991542
20427.148754,0.000000,-10140.821405,2374.896044
20427.149087,1332.370696,-9844.739029,4213.525239
20427.149420,1702.473667,-5995.668130,1225.752797
20427.149754,4737.318029,-7179.997637,6128.763984
20427.150087,5847.626942,-5699.585753,5056.230287
20427.150420,4441.235652,-7698.141797,2604.724693
20427.150753,-296.082377,-10807.006753,-459.657299
20427.151087,-2442.679609,-12435.459826,-3447.429741
20427.151420,-2072.576638,-9548.656652,-3677.258390
20427.151753,4071.132681,-12435.459826,-76.609550
20427.152086,1702.473667,-8438.347739,0.000000
20427.152419,-74.020594,-6735.874072,-2451.505594
20427.152753,0.000000,-9696.697840,0.000000
20427.153086,1850.514855,-7476.080014,919.314598
20427.153419,5181.441594,-7105.977043,2604.724693
20427.153752,3997.112087,-8364.327145,2298.286494
20427.154086,1998.556043,-9474.636058,229.828649
20427.154419,-3256.906145,-11029.068536,-2451.505594
20427.154752,1776.494261,-10658.965565,2068.457845
20427.155085,3701.029710,-8290.306550,4060.306139
20427.155419,3404.947333,-7624.121203,2451.505594
20427.155752,4071.132681,-9474.636058,1762.019645
20427.156085,-2072.576638,-8660.409521,-2451.505594
20427.156418,3256.906145,-7476.080014,0.000000
20427.156751,4071.132681,-10658.965565,-1915.238745
20427.157085,-2368.659014,-10140.821405,-3677.258390
20427.157418,-5921.647536,-11917.315666,-2528.115143
20427.157751,-7105.977043,-12657.521608,-3677.258390
20427.158084,148.041188,-8364.327145,2221.676944
20427.158418,3478.967927,-7550.100608,6358.592633
20427.158751,6883.915261,-4737.318029,7354.516781
20427.159084,4663.297435,-5181.441594,3677.258390
20427.159417,3256.906145,-9474.636058,2374.896044
20427.159751,-74.020594,-11843.295072,-1915.238745
20427.160084,-1480.411884,-9548.656652,-3983.696590
20427.160417,-2442.679609,-12731.542202,-4979.620737
20427.160750,-7846.182985,-13989.892304,-6818.249932
20427.161083,-8586.388927,-12213.398043,-6281.983084
20427.161417,-5255.462188,-11843.295072,-689.485948
20427.161750,0.000000,-6291.750507,5056.230287
20427.162083,2886.803174,-4219.173869,6128.763984
20427.162416,5551.544565,-6513.812290,6052.154434
20427.162750,1776.494261,-4811.338623,6128.763984
20427.163083,2960.823768,-5995.668130,5669.106685
20427.163416,2960.823768,-5403.503377,0.000000
20427.163749,-2738.761985,-12435.459826,-4060.306139
20427.164082,-7772.162391,-13619.789333,-9193.145976
20427.164416,-10436.903782,-15840.407159,-10035.851024
20427.164749,-3627.009116,-14063.912898,-2834.553343
20427.165082,-3552.988522,-9548.656652,2145.067394
20427.165415,3478.967927,-8290.306550,6665.030833
20427.165749,4071.132681,-4663.297435,6128.763984
20427.166082,3849.070898,-5403.503377,6741.640382
20427.166415,7179.997637,-5477.523971,6741.640382
20427.166748,5181.441594,-6883.915261,3600.648841
20427.167082,2590.720797,-8216.285956,-689.485948
20427.167415,-1554.432478,-11843.295072,-4596.572988
20427.167748,-3034.844362,-13619.789333,-7584.345430
20427.168081,-2072.576638,-15396.283594,-3140.991542
20427.168414,-370.102971,-9844.739029,-3370.820191
20427.168748,814.226536,-8364.327145,0.000000
20427.169081,1776.494261,-10658.965565,2374.896044
20427.169414,4219.173869,-8882.471304,2451.505594
20427.169747,5995.668130,-6513.812290,5439.278036
20427.170081,8808.450710,-5477.523971,5745.716235
20427.170414,3256.906145,-7476.080014,4443.353888
20427.170747,-1554.432478,-10658.965565,-2451.505594
20427.171080,-3034.844362,-12731.542202,-3140.991542
20427.171413,-1480.411884,-11177.109724,-1915.238745
20427.171747,2590.720797,-9474.636058,536.266849
20427.172080,2294.638420,-8290.306550,1762.019645
20427.172413,1998.556043,-8290.306550,-76.609550
20427.172746,0.000000,-9844.739029,0.000000
20427.173080,1406.391290,-11843.295072,-383.047749
20427.173413,1110.308913,-8068.244768,-1532.190996
20427.173746,-1776.494261,-9548.656652,0.000000
20427.174079,-1258.350101,-10658.965565,-2221.676944
20427.174413,-3849.070898,-11251.130318,-383.047749
20427.174746,666.185348,-9474.636058,3753.867940
20427.175079,4145.153275,-5699.585753,6052.154434
20427.175412,1776.494261,-5995.668130,3983.696590
20427.175745,1480.411884,-9474.636058,2987.772442
20427.176079,-1850.514855,-10658.965565,-2528.115143
20427.176412,-3552.988522,-7179.997637,-2145.067394
20427.176745,3478.967927,-11251.130318,-689.485948
20427.177078,-5107.421000,-9548.656652,-4903.011187
20427.177412,-4811.338623,-12509.480420,-5898.935335
20427.177745,-6069.688724,-13323.706956,-3600.648841
20427.178078,518.144159,-10510.924376,2681.334243
20427.178411,3849.070898,-6587.832884,7354.516781
20427.178745,7698.141797,-7698.141797,10955.165621
20427.179078,5847.626942,-3775.050304,5515.887586
20427.179411,0.000000,-5995.668130,3677.258390
20427.179744,3775.050304,-7105.977043,-1608.800546
20427.180077,0.000000,-8364.327145,-1225.752797
20427.180411,-2516.700203,-10955.047942,-5898.935335
20427.180744,-5699.585753,-12879.583391,-7431.126331
20427.181077,-7920.203579,-13397.727550,-6894.859482
20427.181410,-962.267725,-12657.521608,-76.609550
20427.181744,4071.132681,-8290.306550,2068.457845
20427.182077,4737.318029,-7772.162391,7967.393179
20427.182410,7254.018232,-6513.812290,9729.412825
20427.182743,7031.956449,-7698.141797,4826.401637
20427.183076,6513.812290,-4811.338623,6128.763984
20427.183410,6957.935855,-6587.832884,2911.162892
20427.183743,1850.514855,-9918.759623,-3830.477490
20427.184076,-4589.276840,-13027.624579,-7584.345430
20427.184409,-8068.244768,-15988.448347,-9269.755526
20427.184743,-3627.009116,-13471.748144,-5592.497135
20427.185076,-1776.494261,-10140.821405,-612.876398
20427.185409,3775.050304,-8586.388927,4213.525239
20427.185742,2368.659014,-4219.173869,5669.106685
20427.186076,2368.659014,-4811.338623,7354.516781
20427.186409,8216.285956,-5921.647536,6052.154434
20427.186742,5181.441594,-4811.338623,2451.505594
20427.187075,2960.823768,-8808.450710,2911.162892
20427.187408,-4219.173869,-10584.944971,-3983.696590
20427.187742,-7105.977043,-13323.706956,-6894.859482
20427.188075,-6587.832884,-13175.665768,-5286.058936
20427.188408,-3923.091493,-10732.986159,-2911.162892
20427.188741,-2220.617826,-9548.656652,766.095498
20427.189075,-1850.514855,-8068.244768,0.000000
20427.189408,2294.638420,-8882.471304,1762.019645
20427.189741,2146.597232,-6217.729913,4979.620737
20427.190074,2664.741391,-3034.844362,6128.763984
20427.190408,1924.535449,-7920.203579,3753.867940
20427.190741,-3256.906145,-11029.068536,-76.609550
20427.191074,-5995.668130,-11325.150913,-3830.477490
20427.191407,-3923.091493,-10658.965565,-2987.772442
20427.191740,-1258.350101,-11547.212695,-76.609550
20427.192074,-3256.906145,-7179.997637,0.000000
20427.192407,-666.185348,-9474.636058,-689.485948
20427.192740,-1258.350101,-8734.430116,-1838.629195
20427.193073,592.164754,-8956.491898,612.876398
20427.193407,4071.132681,-9178.553681,2374.896044
20427.193740,1850.514855,-8438.347739,2221.676944
20427.194073,0.000000,-8142.265362,459.657299
20427.194406,-3034.844362,-11843.295072,-383.047749
20427.194739,1332.370696,-9474.636058,2374.896044
20427.195073,2368.659014,-10140.821405,6052.154434
20427.195406,1998.556043,-5995.668130,1225.752797
20427.195739,0.000000,-7179.997637,0.000000
20427.196072,-74.020594,-10658.965565,-2528.115143
20427.196406,1998.556043,-6513.812290,-2604.724693
20427.196739,2146.597232,-10362.883188,-1455.581446
20427.197072,740.205942,-9400.615463,-2374.896044
20427.197405,-3627.009116,-11473.192101,-3677.258390
20427.197739,-2886.803174,-12953.603985,-2528.115143
20427.198072,2886.803174,-9474.636058,2374.896044
20427.198405,2960.823768,-7179.997637,7354.516781
20427.198738,10584.944971,-5921.647536,7277.907231
20427.199071,5847.626942,-5625.565159,3677.258390
20427.199405,4737.318029,-6735.874072,2451.505594
20427.199738,4071.132681,-9918.759623,-1072.533697
20427.200071,3256.906145,-9548.656652,-2911.162892
20427.200404,-1776.494261,-11843.295072,-5286.058936
20427.200738,-4589.276840,-12953.603985,-7354.516781
20427.201071,-4811.338623,-13915.871710,-6511.811733
20427.201404,-2664.741391,-12731.542202,-766.095498
20427.201737,3478.967927,-7550.100608,5132.839837
20427.202071,4515.256246,-5995.668130,8580.269578
20427.202404,3552.988522,-4811.338623,7354.516781
20427.202737,4663.297435,-5921.647536,5132.839837
20427.203070,2664.741391,-4811.338623,0.000000
20427.203403,4737.318029,-7994.224174,2374.896044
20427.203737,-2442.679609,-11843.295072,-4673.182538
20427.204070,-6883.915261,-11177.109724,-9806.022374
20427.204403,-9844.739029,-15618.345376,-8656.879127
20427.204736,-6883.915261,-13175.665768,-4826.401637
20427.205070,-3256.906145,-10140.821405,842.705048
20427.205403,1628.453072,-7994.224174,6052.154434
20427.205736,4663.297435,-7105.977043,8503.660028
20427.206069,1628.453072,-3923.091493,6741.640382
20427.206402,2368.659014,-3627.009116,6128.763984
20427.206736,3701.029710,-8142.265362,4060.306139
20427.207069,0.000000,-8364.327145,612.876398
20427.207402,-4219.173869,-10288.862594,-3830.477490
20427.207735,-6587.832884,-14211.954086,-6665.030833
20427.208069,-5033.400406,-12731.542202,-4060.306139
20427.208402,-2442.679609,-10658.965565,-1302.362347
20427.208735,-74.020594,-11843.295072,-76.609550
20427.209068,-3552.988522,-6587.832884,2145.067394
20427.209402,1036.288319,-8586.388927,3983.696590
20427.209735,4441.235652,-7105.977043,4826.401637
20427.210068,6735.874072,-6513.812290,5745.716235
20427.210401,888.247130,-7920.203579,1225.752797
20427.210734,-1776.494261,-11547.212695,-1455.581446
20427.211067,-3552.988522,-11695.253884,-3447.429741
20427.211401,-2960.823768,-11325.150913,-1838.629195
20427.211734,2886.803174,-8956.491898,-612.876398
20427.212067,0.000000,-8364.327145,2451.505594
20427.212400,444.123565,-7772.162391,612.876398
20427.212733,2294.638420,-9474.636058,-76.609550
20427.213066,0.000000,-7179.997637,0.000000
20427.213399,5847.626942,-9178.553681,2374.896044
20427.213733,3330.926739,-9474.636058,-76.609550
20427.214066,-1480.411884,-10584.944971,-1302.362347
20427.214399,-1258.350101,-11843.295072,-1608.800546
20427.214732,0.000000,-9844.739029,3524.039291
20427.215065,4663.297435,-8290.306550,4826.401637
20427.215398,4663.297435,-7698.141797,2681.334243
20427.215731,0.000000,-7772.162391,1762.019645
20427.216064,296.082377,-8512.368333,-2834.553343
20427.216398,1554.432478,-8438.347739,-919.314598
20427.216731,3478.967927,-8808.450710,-1378.971896
20427.217064,-1480.411884,-10955.047942,-3524.039291
20427.217397,-2442.679609,-12435.459826,-4979.620737
20427.217730,-3552.988522,-12657.521608,-1608.800546
20427.218063,1258.350101,-9696.697840,2221.676944
20427.218396,7624.121203,-7105.977043,6971.469032
20427.218729,7698.141797,-6513.812290,9499.584175
20427.219063,8808.450710,-7105.977043,7201.297681
20427.219396,3108.864956,-6587.832884,612.876398
20427.219729,592.164754,-8660.409521,459.657299
20427.220062,2294.638420,-8734.430116,-4673.182538
20427.220395,-4737.318029,-9844.739029,-5975.544884
20427.220728,-4811.338623,-12731.542202,-6971.469032
20427.221061,-8882.471304,-13471.748144,-6741.640382
20427.221394,-3330.926739,-10658.965565,-2374.896044
20427.221728,3182.885551,-7994.224174,5822.325785
20427.222061,5847.626942,-6513.812290,8503.660028
20427.222394,4737.318029,-4811.338623,10189.070123
20427.222727,5847.626942,-9474.636058,7890.783629
20427.223060,4071.132681,-4811.338623,3064.381992
20427.223393,3849.070898,-7772.162391,2604.724693
20427.223726,-666.185348,-9918.759623,-5898.935335
20427.224060,-7994.224174,-14359.995275,-9499.584175
20427.224393,-11325.150913,-15322.262999,-9806.022374
20427.224726,-7624.121203,-13249.686362,-5898.935335
20427.225059,-2812.782580,-8364.327145,0.000000
20427.225392,0.000000,-7772.162391,7584.345430
20427.225725,3182.885551,-6217.729913,9116.536426
20427.226058,4663.297435,-2960.823768,6128.763984
20427.226391,4367.215058,-5551.544565,7277.907231
20427.226725,4145.153275,-6291.750507,4903.011187
20427.227058,666.185348,-8586.388927,-766.095498
20427.227391,-3775.050304,-11695.253884,-4903.011187
20427.227724,-8364.327145,-13989.892304,-9039.926876
20427.228057,-7698.141797,-13989.892304,-7048.078582
20427.228390,-1258.350101,-15396.283594,-689.485948
20427.228723,-2220.617826,-8660.409521,-1685.410096
20427.229056,-1480.411884,-8808.450710,2451.505594
20427.229390,2294.638420,-9474.636058,4826.401637
20427.229723,3256.906145,-3923.091493,6435.202183
20427.230056,6735.874072,-4737.318029,7584.345430
20427.230389,2886.803174,-6809.894666,3217.601092
20427.230722,-888.247130,-10807.006753,229.828649
20427.231055,-4145.153275,-11325.150913,-4596.572988
20427.231388,-2220.617826,-11325.150913,-3294.210641
20427.231722,-296.082377,-10807.006753,-919.314598
20427.232055,0.000000,-8660.409521,-1685.410096
20427.232388,-74.020594,-10658.965565,-842.705048
20427.232721,518.144159,-7772.162391,-2145.067394
20427.233054,1776.494261,-8364.327145,2604.724693
20427.233387,7105.977043,-7179.997637,6052.154434
20427.233720,4071.132681,-7031.956449,1838.629195
20427.234053,2294.638420,-9474.636058,1455.581446
20427.234387,148.041188,-10658.965565,-612.876398
20427.234720,1480.411884,-11325.150913,2221.676944
20427.235053,5033.400406,-7772.162391,3447.429741
20427.235386,1184.329507,-8364.327145,919.314598
20427.235719,4071.132681,-7179.997637,-3370.820191
20427.236052,0.000000,-12213.398043,-76.609550
20427.236385,3478.967927,-7994.224174,-1915.238745
20427.236718,4071.132681,-8142.265362,-1532.190996
20427.237052,-2072.576638,-9696.697840,-2911.162892
20427.237385,-1998.556043,-10584.944971,-3447.429741
20427.237718,-4811.338623,-12509.480420,-2298.286494
20427.238051,1258.350101,-9400.615463,1991.848295
20427.238384,5181.441594,-8290.306550,8120.612279
20427.238717,7624.121203,-4441.235652,6128.763984
20427.239050,5847.626942,-8290.306550,4826.401637
20427.239383,2886.803174,-7179.997637,919.314598
20427.239717,2072.576638,-10732.986159,0.000000
20427.240050,1480.411884,-11029.068536,-2911.162892
20427.240383,-2516.700203,-11547.212695,-5439.278036
20427.240716,-7550.100608,-14211.954086,-7048.078582
20427.241049,-8808.450710,-13619.789333,-6435.202183
20427.241382,-5329.482782,-12435.459826,-1302.362347
20427.241715,0.000000,-7179.997637,6128.763984
20427.242049,4071.132681,-4737.318029,7431.126331
20427.242382,2294.638420,-3330.926739,4903.011187
20427.242715,2368.659014,-5921.647536,7277.907231
20427.243048,4071.132681,-6809.894666,3907.087040
20427.243381,3256.906145,-7031.956449,766.095498
20427.243714,-3552.988522,-11177.109724,-3447.429741
20427.244047,-8660.409521,-12805.562797,-9652.803275
20427.244380,-10881.027347,-14952.160028,-8886.707777
20427.244714,-6735.874072,-15840.407159,-3140.991542
20427.245047,-3034.844362,-9178.553681,-1225.752797
20427.245380,296.082377,-7179.997637,3677.258390
20427.245713,3775.050304,-8290.306550,8503.660028
20427.246046,4663.297435,-4737.318029,7277.907231
20427.246379,5773.606348,-7105.977043,6511.811733
20427.246712,5847.626942,-6291.750507,5132.839837
20427.247045,1924.535449,-7624.121203,1149.143247
20427.247379,-1702.473667,-10140.821405,-3753.867940
20427.247712,-3923.091493,-14211.954086,-5592.497135
20427.248045,-4737.318029,-13693.809927,-5286.058936
20427.248378,-666.185348,-11843.295072,-2068.457845
20427.248711,370.102971,-9844.739029,0.000000
20427.249044,-666.185348,-7179.997637,0.000000
20427.249377,1924.535449,-7476.080014,2987.772442
20427.249711,8216.285956,-7550.100608,7277.907231
20427.250044,7031.956449,-3627.009116,3983.696590
20427.250377,4589.276840,-8068.244768,3524.039291
20427.250710,1702.473667,-11251.130318,-1608.800546
20427.251043,-2664.741391,-11621.233289,-2604.724693
20427.251376,148.041188,-11029.068536,-1532.190996
20427.251709,1924.535449,-9770.718434,-689.485948
20427.252042,1480.411884,-8364.327145,0.000000
20427.252376,1184.329507,-10732.986159,2221.676944
20427.252709,1702.473667,-9770.718434,-995.924147
20427.253042,222.061783,-7179.997637,0.000000
20427.253375,4145.153275,-8216.285956,2221.676944
20427.253708,2590.720797,-6587.832884,0.000000
20427.254041,1406.391290,-9178.553681,1072.533697
20427.254374,-1850.514855,-11251.130318,229.828649
20427.254707,518.144159,-10658.965565,1915.238745
20427.255041,3775.050304,-8586.388927,5439.278036
20427.255374,4219.173869,-11251.130318,6052.154434
20427.255707,518.144159,-6587.832884,0.000000
20427.256040,-2072.576638,-10140.821405,-1838.629195
20427.256373,-814.226536,-10288.862594,-1608.800546
20427.256706,0.000000,-7920.203579,-1072.533697
20427.257039,-3034.844362,-10584.944971,-3294.210641
20427.257372,-5551.544565,-10510.924376,-3983.696590
20427.257706,-5625.565159,-12361.439231,-1762.019645
20427.258039,-1258.350101,-9474.636058,2374.896044
20427.258372,5255.462188,-7698.141797,6358.592633
20427.258705,4737.318029,-3034.844362,8580.269578
20427.259038,4737.318029,-7105.977043,7277.907231
20427.259371,3478.967927,-8882.471304,1762.019645
20427.259704,814.226536,-10658.965565,-76.609550
20427.260038,-888.247130,-9252.574275,-4060.306139
20427.260371,-3775.050304,-11473.192101,-6358.592633
20427.260704,-6809.894666,-13841.851115,-7124.688131
20427.261037,-7105.977043,-11917.315666,-6128.763984
20427.261370,-2738.761985,-9030.512492,-1838.629195
20427.261703,4145.153275,-7772.162391,5209.449386
20427.262036,4441.235652,-8882.471304,9729.412825
20427.262369,2664.741391,-4219.173869,6128.763984
20427.262703,5255.462188,-7105.977043,7277.907231
20427.263036,4145.153275,-6587.832884,4519.963438
20427.263369,5033.400406,-6069.688724,1378.971896
20427.263702,-2368.659014,-11473.192101,-4060.306139
20427.264035,-5921.647536,-12509.480420,-9039.926876
20427.264368,-9104.533087,-14952.160028,-8350.440928
20427.264701,-4737.318029,-13027.624579,-4979.620737
20427.265034,-888.247130,-9474.636058,842.705048
20427.265368,1258.350101,-7920.203579,4673.182538
20427.265701,2368.659014,-4219.173869,4903.011187
20427.266034,5847.626942,-7105.977043,6665.030833
20427.266367,5329.482782,-3775.050304,5515.887586
20427.266700,7179.997637,-8290.306550,6741.640382
20427.267033,3330.926739,-9474.636058,1149.143247
20427.267366,-3552.988522,-10732.986159,-4903.011187
20427.267700,-5995.668130,-14656.077652,-7584.345430
20427.268033,-3034.844362,-13767.830521,-5898.935335
20427.268366,-592.164754,-10955.047942,-1532.190996
20427.268699,888.247130,-10732.986159,1225.752797
20427.269032,-74.020594,-7772.162391,0.000000
20427.269365,0.000000,-5995.668130,4290.134789
20427.269698,7031.956449,-6809.894666,6052.154434
20427.270031,7624.121203,-2960.823768,5439.278036
20427.270365,4145.153275,-7994.224174,4673.182538
20427.270698,-1110.308913,-10732.986159,-229.828649
20427.271031,-4959.379811,-12213.398043,-3753.867940
20427.271364,-3552.988522,-11177.109724,-3370.820191
20427.271697,-74.020594,-11843.295072,-76.609550
20427.272030,-1850.514855,-7179.997637,0.000000
20427.272363,-592.164754,-8660.409521,0.000000
20427.272696,1036.288319,-10658.965565,2068.457845
20427.273030,0.000000,-4811.338623,0.000000
20427.273363,4663.297435,-8290.306550,3294.210641
20427.273696,2294.638420,-7994.224174,919.314598
20427.274029,-2368.659014,-9918.759623,-1225.752797
20427.274362,-2664.741391,-12287.418637,-1915.238745
20427.274695,666.185348,-10066.800811,1455.581446
20427.275028,0.000000,-6587.832884,4903.011187
20427.275361,4515.256246,-9474.636058,4213.525239
20427.275695,-518.144159,-8882.471304,-689.485948
20427.276028,-4145.153275,-7179.997637,-2451.505594
20427.276361,-74.020594,-8882.471304,-2528.115143
20427.276694,1110.308913,-8882.471304,-1608.800546
20427.277027,-1924.535449,-10362.883188,-2834.553343
20427.277360,-5181.441594,-11547.212695,-3753.867940
20427.277693,-4515.256246,-10658.965565,-1302.362347
20427.278027,-1702.473667,-9844.739029,2528.115143
20427.278360,2960.823768,-7402.059420,5209.449386
20427.278693,5255.462188,-6957.935855,7277.907231
20427.279026,3552.988522,-7179.997637,6894.859482
20427.279359,4663.297435,-8882.471304,2374.896044
20427.279692,1406.391290,-8068.244768,-1225.752797
20427.280025,0.000000,-8364.327145,-612.876398
20427.280358,-962.267725,-11695.253884,-4979.620737
20427.280692,-6513.812290,-12509.480420,-8580.269578
20427.281025,-6883.915261,-13915.871710,-6741.640382
20427.281358,-2960.823768,-11621.233289,-459.657299
20427.281691,3330.926739,-6883.915261,6128.763984
20427.282024,7031.956449,-6809.894666,9422.974625
20427.282357,4737.318029,-7105.977043,8503.660028
20427.282690,3108.864956,-4811.338623,5515.887586
20427.283023,4145.153275,-6883.915261,3677.258390
20427.283357,6143.709319,-8882.471304,-76.609550
20427.283690,-1258.350101,-11325.150913,-3217.601092
20427.284023,-5995.668130,-13027.624579,-8963.317327
20427.284356,-8068.244768,-14952.160028,-8427.050478
20427.284689,-4737.318029,-13027.624579,-3830.477490
20427.285022,0.000000,-7476.080014,612.876398
20427.285355,5107.421000,-8290.306550,6052.154434
20427.285689,2960.823768,-3627.009116,7354.516781
20427.286022,5033.400406,-6291.750507,7277.907231
20427.286355,5551.544565,-7105.977043,2987.772442
20427.286688,4737.318029,-6217.729913,2911.162892
20427.287021,592.164754,-9548.656652,-919.314598
20427.287354,-1776.494261,-10955.047942,-4366.744339
20427.287687,-5255.462188,-13397.727550,-5898.935335
20427.288020,-2664.741391,-13545.768739,-3140.991542
20427.288354,-74.020594,-9548.656652,-1532.190996
20427.288687,1406.391290,-10955.047942,3524.039291
20427.289020,2294.638420,-8882.471304,1762.019645
20427.289353,0.000000,-6883.915261,4136.915689
20427.289686,5625.565159,-6957.935855,5822.325785
20427.290019,5551.544565,-6513.812290,4826.401637
20427.290352,2368.659014,-7846.182985,919.314598
20427.290685,-1850.514855,-11029.068536,-2298.286494
20427.291019,-5107.421000,-12731.542202,-4979.620737
20427.291352,-4737.318029,-10732.986159,-1838.629195
20427.291685,-74.020594,-10658.965565,-1608.800546
20427.292018,0.000000,-7402.059420,-1302.362347
20427.292351,-1776.494261,-7179.997637,1225.752797
20427.292684,1184.329507,-9474.636058,2604.724693
20427.293017,1628.453072,-7846.182985,2604.724693
20427.293351,3775.050304,-7846.182985,2604.724693
20427.293684,2072.576638,-7476.080014,1762.019645
20427.294017,-2072.576638,-11251.130318,-76.609550
20427.294350,-5773.606348,-11029.068536,-2145.067394
20427.294683,-1332.370696,-10584.944971,306.438199
20427.295016,1776.494261,-9474.636058,3370.820191
20427.295349,3182.885551,-8216.285956,3370.820191
20427.295682,-74.020594,-9474.636058,2068.457845
20427.296016,-3404.947333,-7920.203579,-1838.629195
20427.296349,0.000000,-8364.327145,1455.581446
20427.296682,2886.803174,-7105.977043,-76.609550
20427.297015,-2368.659014,-8364.327145,-1838.629195
20427.297348,-3849.070898,-12435.459826,-1915.238745
20427.297681,-4441.235652,-11843.295072,-1149.143247
20427.298014,-518.144159,-9992.780217,2068.457845
20427.298347,4737.318029,-7698.141797,5515.887586
20427.298681,5699.585753,-5403.503377,5286.058936
20427.299014,2368.659014,-5995.668130,5209.449386
20427.299347,4367.215058,-8290.306550,2374.896044
20427.299680,3478.967927,-9474.636058,-2528.115143
20427.300013,0.000000,-8364.327145,-3064.381992
20427.300346,-666.185348,-10955.047942,-5286.058936
20427.300679,-4811.338623,-12805.562797,-7124.688131
20427.301012,-6217.729913,-12509.480420,-5515.887586
20427.301346,-518.144159,-11547.212695,306.438199
20427.301679,5329.482782,-7772.162391,7354.516781
20427.302012,5921.647536,-6587.832884,13406.671215
20427.302345,6735.874072,-6217.729913,6665.030833
20427.302678,5181.441594,-4811.338623,3753.867940
20427.303011,2960.823768,-7328.038826,4136.915689
20427.303344,4737.318029,-5403.503377,0.000000
20427.303678,-1480.411884,-11547.212695,-3830.477490
20427.304011,-5107.421000,-13027.624579,-9269.755526
20427.304344,-9252.574275,-15248.242405,-8580.269578
20427.304677,-6587.832884,-13619.789333,-5592.497135
20427.305010,-74.020594,-10658.965565,-76.609550
20427.305343,2294.638420,-5995.668130,2757.943793
20427.305676,4737.318029,-5107.421000,9116.536426
20427.306009,6217.729913,-5625.565159,9422.974625
20427.306343,7031.956449,-7105.977043,6971.469032
20427.306676,7476.080014,-5699.585753,4979.620737
20427.307009,2146.597232,-9622.677246,306.438199
20427.307342,-2442.679609,-11547.212695,-5439.278036
20427.307675,-8882.471304,-13101.645173,-9193.145976
20427.308008,-5995.668130,-13545.768739,-8886.707777
20427.308341,-2368.659014,-10732.986159,0.000000
20427.308674,-74.020594,-11843.295072,1762.019645
20427.309008,-1702.473667,-6587.832884,1838.629195
20427.309341,1406.391290,-7105.977043,5439.278036
20427.309674,5181.441594,-4219.173869,7737.564530
20427.310007,6365.771101,-3775.050304,7048.078582
20427.310340,2590.720797,-7698.141797,3064.381992
20427.310673,-3552.988522,-8364.327145,-2145.067394
20427.311006,-6587.832884,-12287.418637,-5822.325785
20427.311340,-4737.318029,-12879.583391,-4903.011187
20427.311673,-3552.988522,-11843.295072,-3064.381992
20427.312006,-1776.494261,-9992.780217,-1762.019645
20427.312339,-2072.576638,-5995.668130,0.000000
20427.312672,3478.967927,-11251.130318,3600.648841
20427.313005,3330.926739,-5921.647536,2528.115143
20427.313338,3552.988522,-7179.997637,3677.258390
20427.313671,4663.297435,-8290.306550,4136.915689
20427.314005,-2368.659014,-8956.491898,383.047749
20427.314338,-2516.700203,-11399.171507,-1762.019645
20427.314671,-740.205942,-11399.171507,0.000000
20427.315004,1850.514855,-9030.512492,2145.067394
20427.315337,2368.659014,-9548.656652,2451.505594
20427.315670,-74.020594,-7920.203579,-1225.752797
20427.316003,-4145.153275,-8364.327145,-1838.629195
20427.316336,296.082377,-8586.388927,-842.705048
20427.316670,1998.556043,-8290.306550,-1915.238745
20427.317003,0.000000,-10066.800811,-383.047749
20427.317336,-2442.679609,-9992.780217,-1608.800546
20427.317669,-3701.029710,-10140.821405,-536.266849
20427.318002,1628.453072,-8808.450710,1838.629195
20427.318335,6957.935855,-9474.636058,7277.907231
20427.318668,6143.709319,-4959.379811,4903.011187
20427.319001,5033.400406,-7402.059420,3677.258390
20427.319335,5847.626942,-10658.965565,-76.609550
20427.319668,1184.329507,-7772.162391,-2451.505594
20427.320001,4071.132681,-10362.883188,-2834.553343
20427.320334,-74.020594,-12435.459826,-4366.744339
20427.320667,-5181.441594,-13323.706956,-6435.202183
20427.321000,-6661.853478,-13619.789333,-5669.106685
20427.321333,-2738.761985,-10658.965565,-383.047749
20427.321667,1184.329507,-4811.338623,7967.393179
20427.322000,7105.977043,-4737.318029,10495.508323
20427.322333,5625.565159,-7624.121203,10955.165621
20427.322666,1332.370696,-1850.514855,3064.381992
20427.322999,2294.638420,-6809.894666,1225.752797
20427.323332,5847.626942,-9474.636058,-1915.238745
20427.323665,-2886.803174,-11917.315666,-5822.325785
20427.323998,-7772.162391,-13397.727550,-9806.022374
20427.324332,-9400.615463,-13397.727550,-9422.974625
20427.324665,-5107.421000,-14137.933492,-4060.306139
20427.324998,814.226536,-9326.594869,1915.238745
20427.325331,3256.906145,-7402.059420,7584.345430
20427.325664,7031.956449,-5625.565159,9729.412825
20427.325997,4663.297435,-4737.318029,6665.030833
20427.326330,2960.823768,-4811.338623,5515.887586
20427.326664,7624.121203,-7105.977043,6052.154434
20427.326997,518.144159,-9400.615463,-1455.581446
20427.327330,-2960.823768,-11177.109724,-5822.325785
20427.327663,-8956.491898,-15248.242405,-8503.660028
20427.327996,-6883.915261,-14211.954086,-7431.126331
20427.328329,-3256.906145,-10584.944971,-1455.581446
20427.328662,-1554.432478,-9474.636058,1149.143247
20427.328995,1258.350101,-6735.874072,2374.896044
20427.329329,1184.329507,-6883.915261,7737.564530
20427.329662,6439.791695,-4737.318029,6665.030833
20427.329995,5699.585753,-2738.761985,4903.011187
20427.330328,3034.844362,-8290.306550,2145.067394
20427.330661,-1776.494261,-9844.739029,-2145.067394
20427.330994,-5403.503377,-13545.768739,-4826.401637
20427.331327,-3552.988522,-12879.583391,-3983.696590
20427.331660,-2072.576638,-10732.986159,-1225.752797
20427.331994,370.102971,-7772.162391,-1685.410096
20427.332327,2294.638420,-9474.636058,3600.648841
20427.332660,1110.308913,-7402.059420,459.657299
20427.332993,1184.329507,-6069.688724,0.000000
20427.333326,3701.029710,-7698.141797,3447.429741
20427.333659,2738.761985,-6661.853478,1532.190996
20427.333992,-74.020594,-8438.347739,-1685.410096
20427.334326,-962.267725,-11991.336260,-1302.362347
20427.334659,1110.308913,-11843.295072,-76.609550
20427.334992,1184.329507,-9548.656652,3677.258390
20427.335325,4367.215058,-8586.388927,842.705048
20427.335658,2294.638420,-8808.450710,-1149.143247
20427.335991,0.000000,-9844.739029,-153.219100
20427.336324,4367.215058,-9474.636058,-76.609550
20427.336657,4071.132681,-8586.388927,536.266849
20427.336991,-222.061783,-9548.656652,-1762.019645
20427.337324,-4515.256246,-11103.089130,-3907.087040
20427.337657,-5329.482782,-11473.192101,-2604.724693
20427.337990,-74.020594,-11251.130318,2987.772442
20427.338323,3775.050304,-5403.503377,4903.011187
20427.338656,7105.977043,-5625.565159,10418.898773
20427.338989,7031.956449,-7105.977043,4826.401637
20427.339323,4663.297435,-7994.224174,2068.457845
20427.339656,1702.473667,-10955.047942,-995.924147
20427.339989,-1036.288319,-10436.903782,-4136.915689
20427.340322,-3330.926739,-11399.171507,-7660.954980
20427.340655,-7698.141797,-13545.768739,-8503.660028
20427.340988,-7105.977043,-14804.118840,-5286.058936
20427.341321,-2516.700203,-11251.130318,1608.800546
20427.341654,3034.844362,-5995.668130,8197.221829
20427.341988,5921.647536,-4811.338623,10035.851024
20427.342321,3923.091493,-3034.844362,7354.516781
20427.342654,4145.153275,-5995.668130,7354.516781
20427.342987,4737.318029,-6883.915261,5745.716235
20427.343320,3478.967927,-5403.503377,-2451.505594
20427.343653,-3256.906145,-11991.336260,-4673.182538
20427.343986,-7179.997637,-14211.954086,-10648.727422
20427.344319,-10066.800811,-15914.427753,-9116.536426
20427.344653,-8216.285956,-14878.139434,-5669.106685
20427.344986,-2664.741391,-9696.697840,0.000000
20427.345319,0.000000,-7179.997637,6128.763984
20427.345652,2960.823768,-4515.256246,10801.946522
20427.345985,4959.379811,-2812.782580,8580.269578
20427.346318,6143.709319,-1850.514855,6128.763984
20427.346651,7254.018232,-5329.482782,6435.202183
20427.346985,1998.556043,-7179.997637,0.000000
20427.347318,-2886.803174,-11769.274478,-6741.640382
20427.347651,-7846.182985,-14434.015869,-9499.584175
20427.347984,-6439.791695,-14952.160028,-8886.707777
20427.348317,-666.185348,-12879.583391,-1915.238745
20427.348650,518.144159,-13619.789333,-76.609550
20427.348983,-1184.329507,-7179.997637,1532.190996
20427.349316,3849.070898,-6883.915261,8120.612279
20427.349650,8364.327145,-5033.400406,9422.974625
20427.349983,8290.306550,-2738.761985,9806.022374
20427.350316,5255.462188,-6365.771101,3447.429741
20427.350649,74.020594,-9918.759623,-1302.362347
20427.350982,-5329.482782,-12879.583391,-4749.792088
20427.351315,-3627.009116,-13027.624579,-6052.154434
20427.351648,-74.020594,-11843.295072,-3753.867940
20427.351982,148.041188,-8660.409521,-3524.039291
20427.352315,1776.494261,-9696.697840,1149.143247
20427.352648,3478.967927,-11843.295072,-76.609550
20427.352981,4071.132681,-7994.224174,2374.896044
20427.353314,5033.400406,-8216.285956,4749.792088
20427.353647,3404.947333,-7328.038826,3677.258390
20427.353980,-444.123565,-8290.306550,689.485948
20427.354313,-4441.235652,-10140.821405,0.000000
20427.354647,-370.102971,-7328.038826,0.000000
20427.354980,2590.720797,-9474.636058,3064.381992
20427.355313,3478.967927,-9474.636058,3600.648841
20427.355646,-2442.679609,-8068.244768,-1685.410096
20427.355979,-3701.029710,-11695.253884,-1915.238745
20427.356312,-2368.659014,-8364.327145,-2834.553343
20427.356645,-370.102971,-8364.327145,-2374.896044
20427.356979,-1776.494261,-9696.697840,-1762.019645
20427.357312,-4737.318029,-9548.656652,-1838.629195
20427.357645,-3627.009116,-10140.821405,0.000000
20427.357978,814.226536,-8364.327145,3370.820191
20427.358311,3997.112087,-8068.244768,6741.640382
20427.358644,4811.338623,-6587.832884,6665.030833
20427.358977,1776.494261,-5995.668130,2528.115143
20427.359310,2886.803174,-9474.636058,-689.485948
20427.359644,0.000000,-8364.327145,-1838.629195
20427.359977,1110.308913,-9474.636058,-1915.238745
20427.360310,-666.185348,-11251.130318,-3907.087040
20427.360643,-7698.141797,-12509.480420,-5439.278036
20427.360976,-6217.729913,-12583.501014,-4749.792088
20427.361309,-3627.009116,-11547.212695,383.047749
20427.361642,1850.514855,-7031.956449,5745.716235
20427.361975,4737.318029,-5551.544565,8580.269578
20427.362309,3478.967927,-3627.009116,6128.763984
20427.362642,2368.659014,-3627.009116,4903.011187
20427.362975,4663.297435,-7698.141797,2987.772442
20427.363308,3478.967927,-6957.935855,-2451.505594
20427.363641,-888.247130,-12583.501014,-4060.306139
20427.363974,-6291.750507,-13323.706956,-8580.269578
20427.364307,-7179.997637,-14878.139434,-8044.002729
20427.364641,-4219.173869,-13027.624579,-4366.744339
20427.364974,1110.308913,-10658.965565,2374.896044
20427.365307,3923.091493,-4811.338623,4903.011187
20427.365640,5921.647536,-4811.338623,6128.763984
20427.365973,7920.203579,-7105.977043,7890.783629
20427.366306,4737.318029,-4811.338623,3677.258390
20427.366639,6883.915261,-5477.523971,2451.505594
20427.366972,2738.761985,-9104.533087,-1149.143247
20427.367306,-3404.947333,-11917.315666,-6435.202183
20427.367639,-6365.771101,-14285.974681,-9193.145976
20427.367972,-5699.585753,-14211.954086,-7277.907231
20427.368305,-4737.318029,-10140.821405,0.000000
20427.368638,2294.638420,-9474.636058,842.705048
20427.368971,962.267725,-6587.832884,1532.190996
20427.369304,2368.659014,-5403.503377,6128.763984
20427.369638,7624.121203,-4737.318029,6971.469032
20427.369971,7698.141797,-3923.091493,6358.592633
20427.370304,3923.091493,-9474.636058,2528.115143
20427.370637,-1628.453072,-10140.821405,-2221.676944
20427.370970,-5403.503377,-14211.954086,-4979.620737
20427.371303,-4737.318029,-14211.954086,-4519.963438
20427.371636,-2442.679609,-10658.965565,-3294.210641
20427.371969,-1480.411884,-9992.780217,229.828649
20427.372303,1776.494261,-7476.080014,3600.648841
20427.372636,2294.638420,-8882.471304,2987.772442
20427.372969,1850.514855,-4219.173869,2757.943793
20427.373302,592.164754,-5995.668130,5822.325785
20427.373635,2590.720797,-6809.894666,842.705048
20427.373968,-3552.988522,-8364.327145,-3370.820191
20427.374301,-4811.338623,-12435.459826,-3140.991542
20427.374635,-3182.885551,-10658.965565,-2834.553343
20427.374968,-1036.288319,-10584.944971,1072.533697
20427.375301,2294.638420,-11251.130318,2374.896044
20427.375634,0.000000,-10658.965565,2374.896044
20427.375967,-2072.576638,-7179.997637,1225.752797
20427.376300,3478.967927,-7994.224174,2298.286494
20427.376633,4663.297435,-8290.306550,1149.143247
20427.376966,518.144159,-9030.512492,-536.266849
20427.377300,-3330.926739,-10362.883188,-3524.039291
20427.377633,-5995.668130,-12435.459826,-3064.381992
20427.377966,-2294.638420,-10732.986159,-383.047749
20427.378299,666.185348,-7179.997637,3830.477490
20427.378632,4663.297435,-7105.977043,4826.401637
20427.378965,592.164754,-5403.503377,6281.983084
20427.379298,2886.803174,-9326.594869,2834.553343
20427.379631,1184.329507,-5403.503377,-2145.067394
20427.379965,0.000000,-8882.471304,-1072.533697
20427.380298,-2368.659014,-8660.409521,-4903.011187
20427.380631,-6069.688724,-12435.459826,-6818.249932
20427.380964,-5551.544565,-12657.521608,-5362.668486
20427.381297,-1480.411884,-11473.192101,306.438199
20427.381630,3478.967927,-8290.306550,2451.505594
20427.381963,5847.626942,-8586.388927,8580.269578
20427.382297,5551.544565,-8290.306550,6052.154434
20427.382630,3552.988522,-5995.668130,6128.763984
20427.382963,6217.729913,-6143.709319,4903.011187
20427.383296,5699.585753,-7402.059420,1762.019645
20427.383629,1628.453072,-9622.677246,-2068.457845
20427.383962,-5255.462188,-12879.583391,-7354.516781
20427.384295,-6291.750507,-15396.283594,-7737.564530
20427.384628,-8882.471304,-13101.645173,-6128.763984
20427.384962,-74.020594,-11251.130318,-1302.362347
20427.385295,2294.638420,-7105.977043,3907.087040
20427.385628,2368.659014,-5403.503377,8810.098227
20427.385961,5329.482782,-5403.503377,7354.516781
20427.386294,5033.400406,-6883.915261,6894.859482
20427.386627,9178.553681,-4737.318029,5209.449386
20427.386960,2738.761985,-10066.800811,919.314598
20427.387294,-1554.432478,-13027.624579,-4979.620737
20427.387627,-7994.224174,-13693.809927,-9039.926876
20427.387960,-5847.626942,-15026.180623,-6665.030833
20427.388293,-592.164754,-9770.718434,-1149.143247
20427.388626,-1628.453072,-10140.821405,306.438199
20427.388959,2294.638420,-7994.224174,3600.648841
20427.389292,0.000000,-7179.997637,4903.011187
20427.389625,3552.988522,-3034.844362,7967.393179
20427.389959,7920.203579,-3552.988522,5439.278036
20427.390292,2368.659014,-8364.327145,3064.381992
20427.390625,-1776.494261,-11399.171507,-1302.362347
20427.390958,-7846.182985,-13989.892304,-5515.887586
20427.391291,-5625.565159,-13915.871710,-5669.106685
20427.391624,-4219.173869,-10584.944971,-3677.258390
20427.391957,-370.102971,-9474.636058,-76.609550
20427.392290,-1110.308913,-5403.503377,1225.752797
20427.392624,1110.308913,-9178.553681,3524.039291
20427.392957,4663.297435,-7994.224174,2374.896044
20427.393290,1776.494261,-5995.668130,4903.011187
20427.393623,3478.967927,-7105.977043,2374.896044
20427.393956,-1406.391290,-10214.842000,-76.609550
20427.394289,-3330.926739,-11621.233289,-1762.019645
20427.394622,-1480.411884,-10288.862594,-153.219100
20427.394956,74.020594,-8364.327145,612.876398
20427.395289,0.000000,-8364.327145,2451.505594
20427.395622,-666.185348,-10658.965565,-689.485948
20427.395955,-1258.350101,-9474.636058,-2528.115143
20427.396288,0.000000,-7179.997637,-1762.019645
20427.396621,1924.535449,-5995.668130,-919.314598
20427.396954,0.000000,-8808.450710,-1072.533697
20427.397287,-2590.720797,-10658.965565,-1378.971896
20427.397621,-3775.050304,-11473.192101,-1072.533697
20427.397954,-296.082377,-11325.150913,3064.381992
20427.398287,4071.132681,-9474.636058,7277.907231
20427.398620,5255.462188,-6513.812290,4213.525239
20427.398953,2368.659014,-5403.503377,3983.696590
20427.399286,4441.235652,-9474.636058,3600.648841
20427.399619,2294.638420,-6291.750507,-2451.505594
20427.399953,2590.720797,-9178.553681,-1455.581446
20427.400286,74.020594,-10436.903782,-4213.525239
20427.400619,-4071.132681,-12065.356855,-7048.078582
20427.400952,-4589.276840,-13915.871710,-4749.792088
20427.401285,-666.185348,-12583.501014,-76.609550
20427.401618,3552.988522,-8364.327145,5745.716235
20427.401951,6957.935855,-6439.791695,7890.783629
20427.402284,5551.544565,-6513.812290,7277.907231
20427.402618,4737.318029,-3627.009116,2604.724693
20427.402951,3552.988522,-6587.832884,3983.696590
20427.403284,5255.462188,-8586.388927,-689.485948
20427.403617,-2368.659014,-9548.656652,-6128.763984
20427.403950,-5995.668130,-13027.624579,-8044.002729
20427.404283,-7328.038826,-14063.912898,-9576.193725
20427.404616,-6587.832884,-13693.809927,-4979.620737
20427.404950,370.102971,-8660.409521,1149.143247
20427.405283,3256.906145,-7550.100608,7124.688131
20427.405616,7031.956449,-5921.647536,8503.660028
20427.405949,2368.659014,-5403.503377,9193.145976
20427.406282,7031.956449,-6513.812290,4826.401637
20427.406615,4737.318029,-4737.318029,2068.457845
20427.406948,296.082377,-8660.409521,-1225.752797
20427.407281,-2590.720797,-12065.356855,-6818.249932
20427.407615,-7328.038826,-14211.954086,-8350.440928
20427.407948,-7179.997637,-15396.283594,-6358.592633
20427.408281,-3108.864956,-9844.739029,-1991.848295
20427.408614,-2368.659014,-8734.430116,995.924147
20427.408947,2886.803174,-6809.894666,4826.401637
20427.409280,4071.132681,-7105.977043,6052.154434
20427.409613,4737.318029,-3627.009116,8273.831378
20427.409946,7772.162391,-5921.647536,7584.345430
20427.410280,0.000000,-8364.327145,1838.629195
20427.410613,-1628.453072,-10807.006753,-3140.991542
20427.410946,-8068.244768,-14063.912898,-5975.544884
20427.411279,-5329.482782,-13841.851115,-5592.497135
20427.411612,-4737.318029,-10140.821405,-3677.258390
20427.411945,2294.638420,-9474.636058,-76.609550
20427.412278,740.205942,-5033.400406,1762.019645
20427.412612,0.000000,-7476.080014,4903.011187
20427.412945,4663.297435,-8290.306550,3600.648841
20427.413278,3552.988522,-7105.977043,4826.401637
20427.413611,2516.700203,-6217.729913,2298.286494
20427.413944,-962.267725,-9030.512492,-1149.143247
20427.414277,-1628.453072,-11029.068536,-1455.581446
20427.414610,-74.020594,-11251.130318,1072.533697
20427.414943,2294.638420,-8290.306550,-2068.457845
20427.415277,-2072.576638,-10732.986159,-612.876398
20427.415610,888.247130,-10140.821405,-76.609550
20427.415943,-74.020594,-10658.965565,-2528.115143
20427.416276,3552.988522,-8142.265362,1149.143247
20427.416609,4071.132681,-7105.977043,2068.457845
20427.416942,888.247130,-8512.368333,-612.876398
20427.417275,1036.288319,-9252.574275,-76.609550
20427.417609,-3552.988522,-11917.315666,459.657299
20427.417942,1036.288319,-10140.821405,0.000000
20427.418275,2886.803174,-9030.512492,3677.258390
20427.418608,4515.256246,-7994.224174,4060.306139
20427.418941,3849.070898,-5403.503377,2757.943793
20427.419274,592.164754,-9548.656652,2145.067394
20427.419607,3478.967927,-9178.553681,-1302.362347
20427.419940,-74.020594,-9474.636058,-3447.429741
20427.420274,-1184.329507,-10214.842000,-4060.306139
20427.420607,-4811.338623,-13619.789333,-5592.497135
20427.420940,-5625.565159,-11843.295072,-3907.087040
20427.421273,-1554.432478,-11399.171507,536.266849
20427.421606,3034.844362,-7846.182985,6511.811733
20427.421939,4737.318029,-6735.874072,7660.954980
20427.422272,592.164754,-4811.338623,7967.393179
20427.422605,4071.132681,-5033.400406,2451.505594
20427.422938,4367.215058,-7105.977043,1762.019645
20427.423271,2368.659014,-7179.997637,2911.162892
20427.423605,-2368.659014,-9844.739029,-2528.115143
20427.423938,-6587.832884,-13027.624579,-9652.803275
20427.424271,-10955.047942,-13989.892304,-8273.831378
20427.424604,-8068.244768,-13249.686362,-5822.325785
20427.424937,-74.020594,-10510.924376,1762.019645
20427.425270,888.247130,-6587.832884,8503.660028
20427.425603,4663.297435,-2812.782580,5515.887586
20427.425936,2516.700203,-5403.503377,7354.516781
20427.426269,5921.647536,-6587.832884,8503.660028
20427.426602,5847.626942,-5773.606348,3677.258390
20427.426935,2146.597232,-8438.347739,-919.314598
20427.427269,-2516.700203,-12139.377449,-5286.058936
20427.427602,-7254.018232,-14730.098246,-7967.393179
20427.427935,-6735.874072,-13397.727550,-7277.907231
20427.428268,-2220.617826,-13619.789333,-1302.362347
20427.428601,-2368.659014,-8364.327145,0.000000
20427.428934,0.000000,-7179.997637,4979.620737
20427.429267,3330.926739,-6513.812290,6052.154434
20427.429600,5847.626942,-2960.823768,6358.592633
20427.429933,6513.812290,-4515.256246,6588.421283
20427.430266,4367.215058,-8142.265362,3064.381992
20427.430600,-1110.308913,-10066.800811,-1685.410096
20427.430933,-6513.812290,-12213.398043,-4903.011187
20427.431266,-3923.091493,-14804.118840,-8810.098227
20427.431599,-2960.823768,-11473.192101,-2834.553343
20427.431932,0.000000,-10140.821405,1149.143247
20427.432265,2294.638420,-7994.224174,0.000000
20427.432598,1702.473667,-7105.977043,2374.896044
20427.432931,3923.091493,-6957.935855,4213.525239
20427.433264,7031.956449,-5329.482782,5745.716235
20427.433597,4145.153275,-6439.791695,3217.601092
20427.433930,592.164754,-9548.656652,0.000000
20427.434264,-370.102971,-11547.212695,-2451.505594
20427.434597,0.000000,-11695.253884,-689.485948
20427.434930,2516.700203,-9474.636058,1149.143247
20427.435263,1184.329507,-11177.109724,76.609550
20427.435596,-1776.494261,-8364.327145,-2451.505594
20427.435929,-74.020594,-10658.965565,-76.609550
20427.436262,2886.803174,-8290.306550,-2221.676944
20427.436595,1184.329507,-6291.750507,919.314598
20427.436928,4071.132681,-11843.295072,-76.609550
20427.437261,-1480.411884,-8660.409521,0.000000
20427.437595,-1924.535449,-10436.903782,-76.609550
20427.437928,518.144159,-11177.109724,1149.143247
20427.438261,1628.453072,-9548.656652,5669.106685
20427.438594,2812.782580,-7698.141797,7584.345430
20427.438927,2886.803174,-7105.977043,2068.457845
20427.439260,-1776.494261,-8364.327145,0.000000
20427.439593,444.123565,-10510.924376,-689.485948
20427.439926,-962.267725,-7476.080014,-2987.772442
20427.440259,-2368.659014,-9548.656652,-1455.581446
20427.440592,-6513.812290,-11473.192101,-5209.449386
20427.440925,-6883.915261,-12213.398043,-4290.134789
20427.441259,-2442.679609,-10214.842000,0.000000
20427.441592,2886.803174,-9474.636058,5745.716235
20427.441925,6439.791695,-6513.812290,3677.258390
20427.442258,4737.318029,-8068.244768,8503.660028
20427.442591,4663.297435,-8586.388927,6052.154434
20427.442924,4367.215058,-5995.668130,689.485948
20427.443257,3256.906145,-9474.636058,-383.047749
20427.443590,-1258.350101,-10955.047942,-5669.106685
20427.443923,-6883.915261,-13767.830521,-7507.735880
20427.444256,-9474.636058,-13989.892304,-8580.269578
20427.444589,-8068.244768,-11991.336260,-5132.839837
20427.444923,-2960.823768,-7772.162391,0.000000
20427.445256,2960.823768,-7031.956449,8810.098227
20427.445589,5255.462188,-3552.988522,7584.345430
20427.445922,3552.988522,-3627.009116,6128.763984
20427.446255,6883.915261,-6513.812290,5439.278036
20427.446588,5033.400406,-5995.668130,3370.820191
20427.446921,3256.906145,-8956.491898,-459.657299
20427.447254,-2442.679609,-12287.418637,-6665.030833
20427.447587,-6809.894666,-13471.748144,-9576.193725
20427.447920,-5181.441594,-15544.324782,-6435.202183
20427.448254,-1332.370696,-12361.439231,-1762.019645
20427.448587,1184.329507,-9400.615463,1915.238745
20427.448920,2960.823768,-9400.615463,6894.859482
20427.449253,5773.606348,-6439.791695,7890.783629
20427.449586,7624.121203,-2664.741391,5592.497135
20427.449919,7105.977043,-2442.679609,4903.011187
20427.450252,5625.565159,-7698.141797,4673.182538
20427.450585,-1036.288319,-11325.150913,-2451.505594
20427.450918,-4293.194464,-13619.789333,-5286.058936
20427.451251,-5847.626942,-14359.995275,-6741.640382
20427.451584,-2442.679609,-11843.295072,-4519.963438
20427.451918,1406.391290,-11251.130318,-76.609550
20427.452251,148.041188,-8364.327145,1685.410096
20427.452584,1110.308913,-6291.750507,0.000000
20427.452917,2368.659014,-7179.997637,4596.572988
20427.453250,7031.956449,-7698.141797,6665.030833
20427.453583,4663.297435,-6809.894666,2987.772442
20427.453916,1554.432478,-10362.883188,1149.143247
20427.454249,-1702.473667,-11547.212695,229.828649
20427.454582,-1924.535449,-9548.656652,0.000000
20427.454915,370.102971,-8956.491898,842.705048
20427.455249,1702.473667,-11251.130318,2068.457845
20427.455582,-2368.659014,-7179.997637,-3677.258390
20427.455915,-2368.659014,-10510.924376,-842.705048
20427.456248,-74.020594,-8882.471304,-2221.676944
20427.456581,0.000000,-4811.338623,0.000000
20427.456914,2294.638420,-9178.553681,229.828649
20427.457247,-1258.350101,-9918.759623,612.876398
20427.457580,-2960.823768,-10214.842000,-459.657299
20427.457913,-1776.494261,-11473.192101,0.000000
20427.458246,2886.803174,-8882.471304,3600.648841
20427.458579,2960.823768,-8364.327145,7737.564530
20427.458913,5699.585753,-9474.636058,5745.716235
20427.459246,814.226536,-6587.832884,0.000000
20427.459579,0.000000,-9400.615463,0.000000
20427.459912,74.020594,-7846.182985,-2911.162892
20427.460245,-2072.576638,-9992.780217,-4979.620737
20427.460578,-5403.503377,-12065.356855,-6435.202183
20427.460911,-5847.626942,-13027.624579,-4519.963438
20427.461244,-3552.988522,-9548.656652,0.000000
20427.461577,2368.659014,-10066.800811,7277.907231
20427.461910,4663.297435,-6217.729913,6052.154434
20427.462244,3182.885551,-4811.338623,5515.887586
20427.462577,2368.659014,-6883.915261,5669.106685
20427.462910,1998.556043,-7179.997637,2451.505594
20427.463243,1702.473667,-7105.977043,-1455.581446
20427.463576,-370.102971,-10436.903782,-3753.867940
20427.463909,-5699.585753,-12509.480420,-6511.811733
20427.464242,-7476.080014,-11325.150913,-8273.831378
20427.464575,-7254.018232,-13693.809927,-5132.839837
20427.464908,74.020594,-9622.677246,1072.533697
20427.465241,3552.988522,-7476.080014,7277.907231
20427.465574,7031.956449,-5921.647536,9116.536426
20427.465908,5699.585753,-4293.194464,5515.887586
20427.466241,4737.318029,-7179.997637,4903.011187
20427.466574,7624.121203,-7698.141797,2068.457845
20427.466907,148.041188,-9548.656652,-3064.381992
20427.467240,-4737.318029,-11473.192101,-5515.887586
20427.467573,-7550.100608,-13989.892304,-8273.831378
20427.467906,-4293.194464,-13841.851115,-5209.449386
20427.468239,370.102971,-10066.800811,-76.609550
20427.468572,1110.308913,-8438.347739,2451.505594
20427.468905,4663.297435,-4811.338623,2451.505594
20427.469239,4737.318029,-7846.182985,8810.098227
20427.469572,8808.450710,-8290.306550,7277.907231
20427.469905,6143.709319,-5551.544565,3983.696590
20427.470238,4071.132681,-10214.842000,2987.772442
20427.470571,-1258.350101,-10658.965565,-2757.943793
20427.470904,-5625.565159,-12361.439231,-5745.716235
20427.471237,-4515.256246,-14137.933492,-5132.839837
20427.471570,-3552.988522,-9548.656652,-2451.505594
20427.471903,-1258.350101,-8364.327145,0.000000
20427.472236,1776.494261,-8290.306550,2374.896044
20427.472569,518.144159,-6809.894666,1225.752797
20427.472903,2960.823768,-4811.338623,2451.505594
20427.473236,4367.215058,-4811.338623,2987.772442
20427.473569,3701.029710,-7624.121203,1838.629195
20427.473902,-1924.535449,-10732.986159,-2068.457845
20427.474235,-3330.926739,-12361.439231,-2987.772442
20427.474568,-666.185348,-12879.583391,-689.485948
20427.474901,592.164754,-9548.656652,2757.943793
20427.475234,3478.967927,-10658.965565,4213.525239
20427.475567,1110.308913,-8216.285956,0.000000
20427.475900,-1776.494261,-8956.491898,1225.752797
20427.476233,-74.020594,-9474.636058,-2451.505594
20427.476567,814.226536,-7254.018232,536.266849
20427.476900,814.226536,-8882.471304,536.266849
20427.477233,-2294.638420,-9030.512492,-612.876398
20427.477566,-4811.338623,-10955.047942,-1915.238745
20427.477899,-2072.576638,-12435.459826,-76.609550
20427.478232,1406.391290,-7772.162391,3064.381992
20427.478565,1998.556043,-6883.915261,2604.724693
20427.478898,1184.329507,-8142.265362,4060.306139
20427.479231,-1554.432478,-10658.965565,-1225.752797
20427.479564,-296.082377,-8216.285956,-1608.800546
20427.479898,1332.370696,-8068.244768,-229.828649
20427.480231,222.061783,-9622.677246,-1685.410096
20427.480564,-4219.173869,-11547.212695,-4366.744339
20427.480897,-5255.462188,-13323.706956,-4060.306139
20427.481230,-1702.473667,-11473.192101,536.266849
20427.481563,2294.638420,-8882.471304,6281.983084
20427.481896,4959.379811,-6587.832884,6741.640382
20427.482229,5551.544565,-5773.606348,7277.907231
20427.482562,2368.659014,-7772.162391,4903.011187
20427.482895,4145.153275,-6513.812290,2374.896044
20427.483228,1554.432478,-6883.915261,-2451.505594
20427.483562,-2368.659014,-10140.821405,-5515.887586
20427.483895,-4811.338623,-14211.954086,-7737.564530
20427.484228,-8290.306550,-14508.036463,-8350.440928
20427.484561,-6069.688724,-12287.418637,-5056.230287
20427.484894,148.041188,-9474.636058,2145.067394
20427.485227,5551.544565,-5107.421000,6281.983084
20427.485560,7994.224174,-5921.647536,10955.165621
20427.485893,8216.285956,-8290.306550,8503.660028
20427.486226,6069.688724,-4811.338623,4903.011187
20427.486559,7846.182985,-9474.636058,6052.154434
20427.486893,3330.926739,-8660.409521,-1838.629195
20427.487226,-3330.926739,-12583.501014,-7354.516781
20427.487559,-7105.977043,-14434.015869,-9806.022374
20427.487892,-6439.791695,-14878.139434,-6128.763984
20427.488225,-4145.153275,-11029.068536,-1225.752797
20427.488558,1998.556043,-10658.965565,3600.648841
20427.488891,888.247130,-5107.421000,4903.011187
20427.489224,2368.659014,-3034.844362,9806.022374
20427.489557,7031.956449,-4737.318029,8197.221829
20427.489890,6217.729913,-3923.091493,6281.983084
20427.490223,3478.967927,-8512.368333,1991.848295
20427.490557,-2664.741391,-11399.171507,-4366.744339
20427.490890,-5403.503377,-14285.974681,-7507.735880
20427.491223,-4959.379811,-16136.489536,-5592.497135
20427.491556,-1850.514855,-14211.954086,-4366.744339
20427.491889,0.000000,-9548.656652,1532.190996
20427.492222,2886.803174,-8882.471304,4213.525239
20427.492555,3478.967927,-7698.141797,2987.772442
20427.492888,1776.494261,-6587.832884,6588.421283
20427.493221,3478.967927,-5107.421000,5515.887586
20427.493554,3182.885551,-5181.441594,3753.867940
20427.493888,-666.185348,-9178.553681,459.657299
20427.494221,-1554.432478,-11103.089130,-76.609550
20427.494554,-3775.050304,-10436.903782,-2451.505594
20427.494887,-148.041188,-9104.533087,-459.657299
20427.495220,-1850.514855,-10955.047942,-1072.533697
20427.495553,-2368.659014,-7179.997637,-3677.258390
20427.495886,-2960.823768,-8364.327145,0.000000
20427.496219,2220.617826,-10658.965565,-76.609550
20427.496552,4367.215058,-7105.977043,1149.143247
20427.496885,888.247130,-7179.997637,1225.752797
20427.497218,814.226536,-7994.224174,-689.485948
20427.497552,-2590.720797,-11177.109724,-766.095498
20427.497885,-666.185348,-11991.336260,-383.047749
20427.498218,3552.988522,-8142.265362,4443.353888
20427.498551,3552.988522,-7772.162391,5209.449386
20427.498884,5847.626942,-6217.729913,4290.134789
20427.499217,4071.132681,-9474.636058,-76.609550
20427.499550,296.082377,-8364.327145,-1532.190996
20427.499883,0.000000,-8364.327145,-1685.410096
20427.500216,-2368.659014,-11325.150913,-5515.887586
20427.500549,-5033.400406,-13027.624579,-4979.620737
20427.500883,-5847.626942,-12435.459826,-3370.820191
20427.501216,-592.164754,-9474.636058,1149.143247
20427.501549,3478.967927,-7994.224174,7277.907231
20427.501882,3256.906145,-4811.338623,7967.393179
20427.502215,6439.791695,-8290.306550,7277.907231
20427.502548,2886.803174,-6291.750507,2451.505594
20427.502881,2960.823768,-8142.265362,1225.752797
20427.503214,2294.638420,-9474.636058,-689.485948
20427.503547,-1924.535449,-11473.192101,-4826.401637
20427.503880,-6957.935855,-13693.809927,-6665.030833
20427.504213,-8142.265362,-13323.706956,-7431.126331
20427.504547,-7105.977043,-13545.768739,-3677.258390
20427.504880,592.164754,-9548.656652,5745.716235
20427.505213,3478.967927,-5699.585753,7354.516781
20427.505546,1776.494261,-2442.679609,9806.022374
20427.505879,5847.626942,-4737.318029,6052.154434
20427.506212,3182.885551,-4145.153275,2987.772442
20427.506545,4663.297435,-7105.977043,1149.143247
20427.506878,-518.144159,-9918.759623,-3524.039291
20427.507211,-5847.626942,-13471.748144,-8427.050478
20427.507544,-7550.100608,-14656.077652,-7660.954980
20427.507877,-4811.338623,-15396.283594,-3140.991542
20427.508211,-2960.823768,-8364.327145,1225.752797
20427.508544,814.226536,-9474.636058,6052.154434
20427.508877,4663.297435,-5329.482782,4213.525239
20427.509210,2368.659014,-4515.256246,5822.325785
20427.509543,5847.626942,-4441.235652,5132.839837
20427.509876,4737.318029,-6365.771101,3983.696590
20427.510209,2590.720797,-8068.244768,-76.609550
20427.510542,-2072.576638,-12139.377449,-3447.429741
20427.510875,-4811.338623,-13027.624579,-6205.373534
20427.511208,-5921.647536,-14582.057057,-6281.983084
20427.511542,-2886.803174,-12361.439231,-2451.505594
20427.511875,1184.329507,-8438.347739,1685.410096
20427.512208,1184.329507,-5995.668130,3677.258390
20427.512541,3923.091493,-6661.853478,4826.401637
20427.512874,4663.297435,-7698.141797,3600.648841
20427.513207,3256.906145,-4811.338623,4903.011187
20427.513540,3849.070898,-7846.182985,2068.457845
20427.513873,-222.061783,-9030.512492,-3983.696590
20427.514206,-1924.535449,-12731.542202,-2528.115143
20427.514539,-1480.411884,-12287.418637,-2221.676944
20427.514872,2886.803174,-10955.047942,995.924147
20427.515206,2368.659014,-10214.842000,2221.676944
20427.515539,2886.803174,-11547.212695,1149.143247
20427.515872,-1776.494261,-7772.162391,0.000000
20427.516205,0.000000,-7179.997637,1838.629195
20427.516538,3478.967927,-6513.812290,536.266849
20427.516871,0.000000,-6587.832884,1838.629195
20427.517204,-74.020594,-8438.347739,0.000000
20427.517537,-2886.803174,-10658.965565,-536.266849
20427.517870,-1406.391290,-11621.233289,-459.657299
20427.518203,2886.803174,-8364.327145,3600.648841
20427.518537,4663.297435,-11843.295072,3600.648841
20427.518870,592.164754,-7179.997637,3677.258390
20427.519203,592.164754,-9474.636058,2451.505594
20427.519536,-74.020594,-11103.089130,-1302.362347
20427.519869,962.267725,-7920.203579,-229.828649
20427.520202,-2886.803174,-10362.883188,-3677.258390
20427.520535,-5625.565159,-10955.047942,-4136.915689
20427.520868,-5921.647536,-11695.253884,-2145.067394
20427.521202,-3775.050304,-9548.656652,306.438199
20427.521535,1998.556043,-6661.853478,4290.134789
20427.521868,2960.823768,-8364.327145,9729.412825
20427.522201,7031.956449,-7105.977043,7277.907231
20427.522535,1776.494261,-5995.668130,2451.505594
20427.522868,2812.782580,-7105.977043,842.705048
20427.523201,148.041188,-8512.368333,-689.485948
20427.523534,-1258.350101,-11251.130318,-6741.640382
20427.523867,-6069.688724,-12953.603985,-6588.421283
20427.524201,-7550.100608,-14285.974681,-7048.078582
20427.524534,-8586.388927,-11325.150913,-4903.011187
20427.524867,-370.102971,-10066.800811,2374.896044
20427.525200,4663.297435,-5329.482782,5745.716235
20427.525534,4737.318029,-4219.173869,10265.679673
20427.525867,7031.956449,-4737.318029,6665.030833
20427.526200,5773.606348,-6291.750507,5975.544884
20427.526533,5255.462188,-6217.729913,1991.848295
20427.526866,2146.597232,-10288.862594,-2451.505594
20427.527200,-3478.967927,-13027.624579,-7354.516781
20427.527533,-8882.471304,-15470.304188,-9499.584175
20427.527866,-7328.038826,-14804.118840,-7354.516781
20427.528199,-3330.926739,-11325.150913,-1762.019645
20427.528533,-1406.391290,-9622.677246,1838.629195
20427.528866,1776.494261,-4811.338623,6128.763984
20427.529199,4071.132681,-4737.318029,7890.783629
20427.529532,4885.359217,-1850.514855,8273.831378
20427.529865,7624.121203,-4145.153275,7277.907231
20427.530199,4071.132681,-8290.306550,2374.896044
20427.530532,-2368.659014,-9548.656652,-3064.381992
20427.530865,-4959.379811,-13323.706956,-7201.297681
20427.531198,-6661.853478,-14804.118840,-9346.365076
20427.531531,-1702.473667,-13471.748144,-4213.525239
20427.531865,2294.638420,-11843.295072,-76.609550
20427.532198,1184.329507,-7772.162391,1838.629195
20427.532531,1184.329507,-7179.997637,4290.134789
20427.532864,6143.709319,-8290.306550,4213.525239
20427.533198,4737.318029,-2442.679609,6128.763984
20427.533531,8216.285956,-6513.812290,4826.401637
20427.533864,2368.659014,-8808.450710,1378.971896
20427.534197,148.041188,-10288.862594,-842.705048
20427.534530,-1850.514855,-11325.150913,-2068.457845
20427.534864,814.226536,-10066.800811,-1302.362347
20427.535197,-3552.988522,-9548.656652,0.000000
20427.535530,-74.020594,-11103.089130,-689.485948
20427.535863,2294.638420,-9474.636058,-2221.676944
20427.536197,2368.659014,-8364.327145,1838.629195
20427.536530,4663.297435,-6439.791695,383.047749
20427.536863,4737.318029,-8438.347739,3524.039291
20427.537196,1924.535449,-8734.430116,689.485948
20427.537529,1036.288319,-9548.656652,0.000000
20427.537863,-1184.329507,-11029.068536,0.000000
20427.538196,2368.659014,-9844.739029,4826.401637
20427.538529,4663.297435,-9474.636058,2834.553343
20427.538862,3256.906145,-5995.668130,919.314598
20427.539196,1184.329507,-8956.491898,3064.381992
20427.539529,-370.102971,-8512.368333,-2987.772442
20427.539862,1110.308913,-7402.059420,-1608.800546
20427.540195,-3182.885551,-10584.944971,-3217.601092
20427.540528,-4219.173869,-9696.697840,-3600.648841
20427.540862,-7698.141797,-9844.739029,-3064.381992
20427.541195,-3478.967927,-10955.047942,1149.143247
20427.541528,222.061783,-6957.935855,5439.278036
20427.541861,0.000000,-8660.409521,6741.640382
20427.542195,4071.132681,-6809.894666,6358.592633
20427.542528,-74.020594,-8290.306550,2298.286494
20427.542861,0.000000,-7772.162391,1608.800546
20427.543194,-74.020594,-11251.130318,-76.609550
20427.543527,-3775.050304,-10436.903782,-4903.011187
20427.543861,-6809.894666,-12213.398043,-6741.640382
20427.544194,-10584.944971,-14211.954086,-7584.345430
20427.544527,-7772.162391,-12879.583391,-4060.306139
20427.544860,-2664.741391,-9992.780217,2987.772442
