#time,accel_x,accel_y,accel_z
21795.541846,7772.162391,-9474.636058,3600.648841
21795.542180,9474.636058,-10140.821405,4596.572988
21795.542513,10510.924376,-8512.368333,3753.867940
21795.542846,9918.759623,-8882.471304,3064.381992
21795.543180,9474.636058,-9548.656652,1838.629195
21795.543513,6217.729913,-7772.162391,0.000000
21795.543846,8808.450710,-11843.295072,-1915.238745
21795.544179,7328.038826,-8364.327145,-3677.258390
21795.544513,6735.874072,-8364.327145,-3677.258390
21795.544846,7105.977043,-8364.327145,-2987.772442
21795.545179,10955.047942,-10066.800811,1762.019645
21795.545513,11547.212695,-9178.553681,4213.525239
21795.545846,10436.903782,-9252.574275,3294.210641
21795.546179,9400.615463,-11843.295072,2987.772442
21795.546513,4737.318029,-9844.739029,2451.505594
21795.546846,5847.626942,-13027.624579,-76.609550
21795.547179,2368.659014,-7476.080014,1225.752797
21795.547512,4663.297435,-9474.636058,1762.019645
21795.547846,5255.462188,-7994.224174,1455.581446
21795.548179,5699.585753,-6587.832884,842.705048
21795.548512,6291.750507,-7105.977043,383.047749
21795.548846,7254.018232,-6957.935855,383.047749
21795.549179,8586.388927,-6883.915261,0.000000
21795.549512,12879.583391,-9474.636058,1762.019645
21795.549846,9474.636058,-8364.327145,0.000000
21795.550179,7698.141797,-10732.986159,0.000000
21795.550512,11769.274478,-12731.542202,-689.485948
21795.550845,9178.553681,-11621.233289,0.000000
21795.551179,8216.285956,-11547.212695,-1608.800546
21795.551512,5847.626942,-11473.192101,0.000000
21795.551845,7920.203579,-8068.244768,1685.410096
21795.552179,9474.636058,-4219.173869,2911.162892
21795.552512,11769.274478,-6809.894666,3294.210641
21795.552845,9992.780217,-7105.977043,2834.553343
21795.553179,9252.574275,-9400.615463,2298.286494
21795.553512,7772.162391,-9252.574275,919.314598
21795.553845,5255.462188,-9178.553681,-1608.800546
21795.554179,4737.318029,-10140.821405,612.876398
21795.554512,9400.615463,-9474.636058,-1608.800546
21795.554845,7105.977043,-8364.327145,1532.190996
21795.555178,10955.047942,-9252.574275,2145.067394
21795.555512,11177.109724,-8882.471304,0.000000
21795.555845,9992.780217,-9696.697840,-689.485948
21795.556178,8734.430116,-9548.656652,-1455.581446
21795.556512,8142.265362,-9104.533087,-2451.505594
21795.556845,7402.059420,-5995.668130,-4290.134789
21795.557178,9770.718434,-11843.295072,1149.143247
21795.557512,9400.615463,-13027.624579,2987.772442
21795.557845,6735.874072,-7179.997637,2451.505594
21795.558178,12361.439231,-11843.295072,5745.716235
21795.558511,13027.624579,-4811.338623,5209.449386
21795.558845,14285.974681,-5033.400406,4903.011187
21795.559178,14952.160028,-5255.462188,2604.724693
21795.559511,11399.171507,-7698.141797,-2451.505594
21795.559845,9474.636058,-10881.027347,-4290.134789
21795.560178,8734.430116,-15988.448347,-4366.744339
21795.560511,4071.132681,-11917.315666,-8580.269578
21795.560845,4515.256246,-10732.986159,-6741.640382
21795.561178,9770.718434,-10584.944971,-76.609550
21795.561511,14508.036463,-8956.491898,7124.688131
21795.561844,16654.633695,-6291.750507,9116.536426
21795.562178,15026.180623,-7105.977043,6971.469032
21795.562511,13841.851115,-8808.450710,5898.935335
21795.562844,15026.180623,-8882.471304,4826.401637
21795.563178,12953.603985,-5921.647536,536.266849
21795.563511,7105.977043,-8364.327145,-1225.752797
21795.563844,8734.430116,-9178.553681,-4903.011187
21795.564178,8586.388927,-11251.130318,-5592.497135
21795.564511,8290.306550,-11103.089130,-2681.334243
21795.564844,5699.585753,-11843.295072,-2911.162892
21795.565177,5551.544565,-11103.089130,-3294.210641
21795.565511,9622.677246,-10807.006753,1378.971896
21795.565844,16506.592507,-7105.977043,7277.907231
21795.566177,15100.201217,-6587.832884,7354.516781
21795.566511,13471.748144,-8660.409521,6741.640382
21795.566844,12065.356855,-9474.636058,6281.983084
21795.567177,8290.306550,-5403.503377,3064.381992
21795.567511,10658.965565,-5995.668130,0.000000
21795.567844,9178.553681,-8586.388927,-3753.867940
21795.568177,4367.215058,-9474.636058,-9269.755526
21795.568511,2516.700203,-10732.986159,-7354.516781
21795.568844,2812.782580,-11917.315666,-5439.278036
21795.569177,6513.812290,-10140.821405,-1608.800546
21795.569510,10140.821405,-10140.821405,3677.258390
21795.569844,11029.068536,-9474.636058,5592.497135
21795.570177,9474.636058,-10955.047942,6741.640382
21795.570510,9252.574275,-8364.327145,6128.763984
21795.570844,12953.603985,-7698.141797,4826.401637
21795.571177,8290.306550,-7179.997637,3983.696590
21795.571510,2368.659014,-8364.327145,1991.848295
21795.571844,-2146.597232,-9474.636058,-6128.763984
21795.572177,-2146.597232,-11769.274478,-6818.249932
21795.572510,370.102971,-7994.224174,-4443.353888
21795.572843,2590.720797,-7476.080014,-2145.067394
21795.573177,2886.803174,-7698.141797,-1455.581446
21795.573510,0.000000,-11917.315666,2298.286494
21795.573843,2590.720797,-10658.965565,536.266849
21795.574177,6069.688724,-6587.832884,3677.258390
21795.574510,10436.903782,-8882.471304,9729.412825
21795.574843,5847.626942,-4441.235652,4519.963438
21795.575177,4959.379811,-10658.965565,1149.143247
21795.575510,1924.535449,-10807.006753,-1532.190996
21795.575843,3627.009116,-8734.430116,-2221.676944
21795.576176,1628.453072,-8586.388927,-2298.286494
21795.576510,3478.967927,-10658.965565,-689.485948
21795.576843,1406.391290,-8956.491898,-4903.011187
21795.577176,7031.956449,-7772.162391,-2451.505594
21795.577510,7994.224174,-11695.253884,5439.278036
21795.577843,8290.306550,-4071.132681,3830.477490
21795.578176,6439.791695,-10066.800811,1838.629195
21795.578510,6143.709319,-10807.006753,3447.429741
21795.578843,4071.132681,-9326.594869,1762.019645
21795.579176,1184.329507,-10140.821405,612.876398
21795.579509,4663.297435,-7698.141797,-76.609550
21795.579843,-1554.432478,-8364.327145,-2451.505594
21795.580176,1480.411884,-9400.615463,612.876398
21795.580509,1702.473667,-8882.471304,-1915.238745
21795.580843,0.000000,-7179.997637,-4903.011187
21795.581176,2886.803174,-9326.594869,0.000000
21795.581509,2072.576638,-8882.471304,459.657299
21795.581843,3108.864956,-8216.285956,1302.362347
21795.582176,5255.462188,-10140.821405,2145.067394
21795.582509,8216.285956,-10658.965565,2374.896044
21795.582843,5033.400406,-10510.924376,4213.525239
21795.583176,1480.411884,-8586.388927,919.314598
21795.583509,-74.020594,-9178.553681,-1991.848295
21795.583842,-2072.576638,-13101.645173,-1225.752797
21795.584176,962.267725,-8290.306550,-842.705048
21795.584509,-2368.659014,-7179.997637,-2145.067394
21795.584842,0.000000,-7031.956449,-76.609550
21795.585176,-1850.514855,-10732.986159,-2757.943793
21795.585509,148.041188,-5403.503377,766.095498
21795.585842,3182.885551,-7846.182985,5209.449386
21795.586176,5477.523971,-4293.194464,3064.381992
21795.586509,3775.050304,-12435.459826,3753.867940
21795.586842,2886.803174,-8290.306550,-76.609550
21795.587175,4663.297435,-11251.130318,-383.047749
21795.587509,-1776.494261,-10732.986159,0.000000
21795.587842,-4145.153275,-14285.974681,-1072.533697
21795.588175,-3627.009116,-11843.295072,-3294.210641
21795.588509,-3552.988522,-9548.656652,766.095498
21795.588842,-1554.432478,-6217.729913,-766.095498
21795.589175,666.185348,-7105.977043,2757.943793
21795.589509,2146.597232,-6661.853478,3753.867940
21795.589842,2368.659014,-5921.647536,5745.716235
21795.590175,4663.297435,-4737.318029,1762.019645
21795.590508,0.000000,-12213.398043,4136.915689
21795.590842,3256.906145,-8882.471304,2374.896044
21795.591175,-74.020594,-11843.295072,-1608.800546
21795.591508,-962.267725,-9474.636058,-2528.115143
21795.591842,-2442.679609,-11029.068536,-2987.772442
21795.592175,-4071.132681,-11843.295072,-2374.896044
21795.592508,-666.185348,-8438.347739,-3447.429741
21795.592842,-5329.482782,-13101.645173,-1838.629195
21795.593175,-74.020594,-6587.832884,612.876398
21795.593508,-3552.988522,-10732.986159,3983.696590
21795.593841,7031.956449,-3552.988522,5745.716235
21795.594175,2368.659014,-5403.503377,3677.258390
21795.594508,3997.112087,-4811.338623,3140.991542
21795.594841,3552.988522,-7772.162391,3294.210641
21795.595175,444.123565,-8882.471304,-1762.019645
21795.595508,0.000000,-11621.233289,-2834.553343
21795.595841,-2442.679609,-12731.542202,-3753.867940
21795.596175,-4737.318029,-11325.150913,-4903.011187
21795.596508,-2442.679609,-11843.295072,-1302.362347
21795.596841,-74.020594,-11843.295072,-1608.800546
21795.597175,-5329.482782,-8660.409521,0.000000
21795.597508,-1184.329507,-7772.162391,4826.401637
21795.597841,1184.329507,-5255.462188,4290.134789
21795.598174,5403.503377,-6439.791695,6511.811733
21795.598508,4959.379811,-5773.606348,5898.935335
21795.598841,5551.544565,-7698.141797,4826.401637
21795.599174,1332.370696,-7179.997637,919.314598
21795.599508,962.267725,-9770.718434,-1838.629195
21795.599841,-1554.432478,-12879.583391,-5362.668486
21795.600174,-2664.741391,-11695.253884,-4749.792088
21795.600508,-4737.318029,-15692.365970,-3677.258390
21795.600841,-4589.276840,-8438.347739,-5592.497135
21795.601174,-4441.235652,-13101.645173,766.095498
21795.601507,4663.297435,-4737.318029,4213.525239
21795.601841,1924.535449,-8956.491898,6128.763984
21795.602174,7179.997637,-4737.318029,8503.660028
21795.602507,2590.720797,-7328.038826,5132.839837
21795.602841,4737.318029,-5625.565159,2834.553343
21795.603174,4219.173869,-8290.306550,2374.896044
21795.603507,1702.473667,-9474.636058,-1915.238745
21795.603841,-1184.329507,-11695.253884,-3294.210641
21795.604174,-4737.318029,-11325.150913,-3753.867940
21795.604507,-1554.432478,-13027.624579,-5592.497135
21795.604840,-5921.647536,-10140.821405,-3677.258390
21795.605174,-2072.576638,-10732.986159,0.000000
21795.605507,740.205942,-7550.100608,1149.143247
21795.605840,1702.473667,-9770.718434,4749.792088
21795.606174,3552.988522,-5625.565159,4136.915689
21795.606507,1184.329507,-7179.997637,3677.258390
21795.606840,4145.153275,-8068.244768,6358.592633
21795.607174,4663.297435,-6513.812290,3447.429741
21795.607507,1702.473667,-5107.421000,0.000000
21795.607840,1406.391290,-7105.977043,-2528.115143
21795.608173,-2960.823768,-11769.274478,-5975.544884
21795.608507,-1110.308913,-12213.398043,-5822.325785
21795.608840,-2960.823768,-16136.489536,-2528.115143
21795.609173,-1850.514855,-11399.171507,-536.266849
21795.609507,-74.020594,-11843.295072,2374.896044
21795.609840,-74.020594,-9474.636058,1762.019645
21795.610173,0.000000,-5995.668130,6128.763984
21795.610507,4071.132681,-4737.318029,4826.401637
21795.610840,4367.215058,-5773.606348,2451.505594
21795.611173,-1184.329507,-6883.915261,4749.792088
21795.611507,-1036.288319,-6069.688724,-766.095498
21795.611840,-2812.782580,-8438.347739,-2145.067394
21795.612173,-3701.029710,-10807.006753,-4596.572988
21795.612506,-1850.514855,-9474.636058,-2834.553343
21795.612840,-3108.864956,-12879.583391,-3140.991542
21795.613173,-1776.494261,-8660.409521,-3983.696590
21795.613506,-2442.679609,-13323.706956,-1302.362347
21795.613840,592.164754,-9548.656652,1225.752797
21795.614173,6439.791695,-11843.295072,7890.783629
21795.614506,2072.576638,-6587.832884,3064.381992
21795.614840,4737.318029,-8512.368333,8580.269578
21795.615173,-74.020594,-8290.306550,842.705048
21795.615506,2960.823768,-3034.844362,1838.629195
21795.615839,-1184.329507,-9030.512492,919.314598
21795.616173,-1628.453072,-9252.574275,-1455.581446
21795.616506,-4885.359217,-9030.512492,-4136.915689
21795.616839,-4145.153275,-9844.739029,-3677.258390
21795.617173,-1850.514855,-9548.656652,-5822.325785
21795.617506,-74.020594,-13027.624579,-76.609550
21795.617839,2368.659014,-6735.874072,3677.258390
21795.618173,296.082377,-7179.997637,4903.011187
21795.618506,3256.906145,-10881.027347,3983.696590
21795.618839,2886.803174,-9326.594869,2374.896044
21795.619172,888.247130,-11843.295072,4213.525239
21795.619506,1850.514855,-4663.297435,76.609550
21795.619839,-666.185348,-10658.965565,-1608.800546
21795.620172,-1776.494261,-5995.668130,0.000000
21795.620506,-3404.947333,-7179.997637,-4749.792088
21795.620839,0.000000,-8956.491898,-1915.238745
21795.621172,-74.020594,-10658.965565,-2528.115143
21795.621506,-1850.514855,-9474.636058,-3830.477490
21795.621839,1702.473667,-11547.212695,1762.019645
21795.622172,296.082377,-8438.347739,1378.971896
21795.622505,1628.453072,-10732.986159,3524.039291
21795.622839,3775.050304,-7031.956449,5132.839837
21795.623172,4663.297435,-11251.130318,4826.401637
21795.623505,592.164754,-5995.668130,1225.752797
21795.623839,2368.659014,-12139.377449,2374.896044
21795.624172,-370.102971,-7846.182985,-4749.792088
21795.624505,0.000000,-9548.656652,-3064.381992
21795.624839,-666.185348,-10955.047942,-2451.505594
21795.625172,0.000000,-9104.533087,-536.266849
21795.625505,-1628.453072,-8068.244768,-2068.457845
21795.625839,814.226536,-9622.677246,1302.362347
21795.626172,2294.638420,-7328.038826,536.266849
21795.626505,1184.329507,-9548.656652,6052.154434
21795.626838,2146.597232,-7698.141797,2987.772442
21795.627172,-370.102971,-7179.997637,1225.752797
21795.627505,0.000000,-7179.997637,1838.629195
21795.627838,-370.102971,-9030.512492,-1532.190996
21795.628172,-3478.967927,-10510.924376,-1991.848295
21795.628505,-1480.411884,-7624.121203,-1378.971896
21795.628838,-518.144159,-9104.533087,-536.266849
21795.629172,-2442.679609,-9252.574275,-4596.572988
21795.629505,-3404.947333,-9696.697840,-459.657299
21795.629838,-370.102971,-8142.265362,1378.971896
21795.630171,3701.029710,-7698.141797,3907.087040
21795.630505,2368.659014,-10140.821405,7354.516781
21795.630838,2886.803174,-8290.306550,2068.457845
21795.631171,296.082377,-7179.997637,0.000000
21795.631505,-1110.308913,-11695.253884,3294.210641
21795.631838,-74.020594,-8290.306550,-2068.457845
21795.632171,-8142.265362,-9548.656652,0.000000
21795.632505,-1332.370696,-6809.894666,-5898.935335
21795.632838,-1850.514855,-14063.912898,-2528.115143
21795.633171,-814.226536,-8660.409521,2451.505594
21795.633504,4071.132681,-4737.318029,-76.609550
21795.633838,1702.473667,-12731.542202,1762.019645
21795.634171,4145.153275,-6587.832884,4213.525239
21795.634504,1480.411884,-11029.068536,3294.210641
21795.634838,3478.967927,-10658.965565,2068.457845
21795.635171,2812.782580,-11325.150913,2681.334243
21795.635504,0.000000,-9622.677246,689.485948
21795.635838,1184.329507,-8068.244768,919.314598
21795.636171,-1702.473667,-9178.553681,-2374.896044
21795.636504,-2220.617826,-10140.821405,-2911.162892
21795.636838,-3034.844362,-7179.997637,-6741.640382
21795.637171,-1184.329507,-10288.862594,-76.609550
21795.637504,1110.308913,-6809.894666,-76.609550
21795.637837,2294.638420,-9400.615463,2604.724693
21795.638171,4145.153275,-3552.988522,5439.278036
21795.638504,2368.659014,-7920.203579,3677.258390
21795.638837,3256.906145,-8290.306550,229.828649
21795.639171,3775.050304,-11547.212695,919.314598
21795.639504,1184.329507,-12435.459826,-76.609550
21795.639837,1776.494261,-9548.656652,0.000000
21795.640171,-1258.350101,-10658.965565,-4060.306139
21795.640504,0.000000,-11917.315666,0.000000
21795.640837,-740.205942,-9474.636058,-76.609550
21795.641170,-74.020594,-11843.295072,-612.876398
21795.641504,1110.308913,-4811.338623,-459.657299
21795.641837,-2220.617826,-10140.821405,2757.943793
21795.642170,2960.823768,-4515.256246,3677.258390
21795.642504,1406.391290,-5995.668130,3370.820191
21795.642837,5847.626942,-9474.636058,3600.648841
21795.643170,592.164754,-9548.656652,1532.190996
21795.643504,-3552.988522,-9844.739029,1302.362347
21795.643837,1110.308913,-10214.842000,-1915.238745
21795.644170,-3627.009116,-11769.274478,-2374.896044
21795.644503,-1776.494261,-9696.697840,-1149.143247
21795.644837,-5403.503377,-12287.418637,-2911.162892
21795.645170,148.041188,-8290.306550,-536.266849
21795.645503,-3552.988522,-8364.327145,-1225.752797
21795.645837,1702.473667,-9178.553681,2221.676944
21795.646170,3108.864956,-5847.626942,5592.497135
21795.646503,2146.597232,-6513.812290,3370.820191
21795.646837,3923.091493,-7179.997637,3294.210641
21795.647170,0.000000,-6735.874072,2451.505594
21795.647503,-1110.308913,-11177.109724,-76.609550
21795.647836,-74.020594,-7105.977043,-3524.039291
21795.648170,-4737.318029,-12213.398043,-3677.258390
21795.648503,-2368.659014,-12287.418637,-76.609550
21795.648836,-2590.720797,-7179.997637,-3064.381992
21795.649170,-1554.432478,-9474.636058,-3294.210641
21795.649503,-3923.091493,-11917.315666,0.000000
21795.649836,-1110.308913,-6809.894666,-1378.971896
21795.650170,0.000000,-9548.656652,4903.011187
21795.650503,4663.297435,-7105.977043,3600.648841
21795.650836,1480.411884,-7179.997637,1225.752797
21795.651170,2368.659014,-9474.636058,5439.278036
21795.651503,4663.297435,-6513.812290,1149.143247
21795.651836,1480.411884,-8660.409521,459.657299
21795.652169,1110.308913,-12139.377449,-995.924147
21795.652503,-2072.576638,-11325.150913,-2068.457845
21795.652836,-1702.473667,-9770.718434,-3217.601092
21795.653169,1554.432478,-13027.624579,-76.609550
21795.653503,-74.020594,-10658.965565,-1915.238745
21795.653836,0.000000,-8364.327145,2834.553343
21795.654169,2368.659014,-7624.121203,6665.030833
21795.654503,4071.132681,-3997.112087,306.438199
21795.654836,740.205942,-12287.418637,2987.772442
21795.655169,2960.823768,-5551.544565,1685.410096
21795.655502,1998.556043,-10066.800811,0.000000
21795.655836,3552.988522,-10288.862594,1762.019645
21795.656169,2516.700203,-8142.265362,-1532.190996
21795.656502,-1776.494261,-9548.656652,-4903.011187
21795.656836,592.164754,-8068.244768,-919.314598
21795.657169,-518.144159,-14211.954086,-2528.115143
21795.657502,-74.020594,-9844.739029,-3677.258390
21795.657836,1184.329507,-10955.047942,-689.485948
21795.658169,814.226536,-11547.212695,2604.724693
21795.658502,3182.885551,-8290.306550,5439.278036
21795.658835,1480.411884,-7994.224174,4749.792088
21795.659169,2960.823768,-4293.194464,4213.525239
21795.659502,296.082377,-5995.668130,1532.190996
21795.659835,2146.597232,-7550.100608,919.314598
21795.660169,-2738.761985,-8438.347739,-2374.896044
21795.660502,-2368.659014,-10732.986159,-3677.258390
21795.660835,-4145.153275,-12657.521608,-1149.143247
21795.661169,-1258.350101,-8882.471304,-5822.325785
21795.661502,-4737.318029,-9548.656652,-5822.325785
21795.661835,-1776.494261,-9400.615463,-995.924147
21795.662168,-2072.576638,-11917.315666,919.314598
21795.662502,2664.741391,-7994.224174,4136.915689
21795.662835,3182.885551,-9844.739029,5362.668486
21795.663168,3849.070898,-4959.379811,5132.839837
21795.663502,4959.379811,-9474.636058,6665.030833
21795.663835,148.041188,-5995.668130,1838.629195
21795.664168,2294.638420,-7179.997637,-1838.629195
21795.664502,-2368.659014,-9474.636058,-2528.115143
21795.664835,-444.123565,-11251.130318,-1915.238745
21795.665168,-2442.679609,-10066.800811,-5592.497135
21795.665502,-4959.379811,-13619.789333,-3753.867940
21795.665835,-3923.091493,-10066.800811,-2374.896044
21795.666168,-962.267725,-10362.883188,1762.019645
21795.666501,2442.679609,-7476.080014,2604.724693
21795.666835,6439.791695,-8068.244768,6971.469032
21795.667168,592.164754,-8364.327145,2451.505594
21795.667501,3849.070898,-7105.977043,5439.278036
21795.667835,1702.473667,-11547.212695,4443.353888
21795.668168,0.000000,-3627.009116,0.000000
21795.668501,962.267725,-10066.800811,-2528.115143
21795.668835,-2220.617826,-8142.265362,-3830.477490
21795.669168,-592.164754,-10140.821405,-3753.867940
21795.669501,-2368.659014,-8660.409521,-2145.067394
21795.669834,2294.638420,-9474.636058,-3140.991542
21795.670168,-2368.659014,-13101.645173,4060.306139
21795.670501,592.164754,-8364.327145,3064.381992
21795.670834,2886.803174,-7105.977043,1072.533697
21795.671168,0.000000,-9548.656652,3677.258390
21795.671501,4441.235652,-4589.276840,3064.381992
21795.671834,1036.288319,-9622.677246,5975.544884
21795.672168,5107.421000,-3256.906145,0.000000
21795.672501,-1924.535449,-12287.418637,-1532.190996
21795.672834,-2368.659014,-5995.668130,-7354.516781
21795.673167,-296.082377,-15100.201217,-1915.238745
21795.673501,-1850.514855,-8216.285956,-3600.648841
21795.673834,0.000000,-11029.068536,-2451.505594
21795.674167,1776.494261,-11325.150913,2374.896044
21795.674501,3256.906145,-9696.697840,3370.820191
21795.674834,4367.215058,-7031.956449,4519.963438
21795.675167,2738.761985,-9696.697840,5898.935335
21795.675501,666.185348,-6883.915261,1608.800546
21795.675834,0.000000,-6587.832884,0.000000
21795.676167,-222.061783,-9622.677246,689.485948
21795.676500,-3552.988522,-9104.533087,-1378.971896
21795.676834,-3182.885551,-6217.729913,-3294.210641
21795.677167,-2442.679609,-11251.130318,-1302.362347
21795.677500,-4219.173869,-6735.874072,-7277.907231
21795.677834,-4737.318029,-13693.809927,-2451.505594
21795.678167,-1406.391290,-7698.141797,-689.485948
21795.678500,518.144159,-11325.150913,2757.943793
21795.678834,4737.318029,-5107.421000,6128.763984
21795.679167,3997.112087,-9252.574275,5439.278036
21795.679500,1258.350101,-8882.471304,2374.896044
21795.679834,5995.668130,-7105.977043,4213.525239
21795.680167,-962.267725,-11251.130318,536.266849
21795.680500,-74.020594,-9030.512492,-3064.381992
21795.680833,-2442.679609,-10658.965565,-1915.238745
21795.681167,-6365.771101,-11843.295072,-4366.744339
21795.681500,-2442.679609,-5551.544565,-1532.190996
21795.681833,-3330.926739,-8290.306550,-76.609550
21795.682167,1184.329507,-5773.606348,1149.143247
21795.682500,370.102971,-10658.965565,3907.087040
21795.682833,3552.988522,-6291.750507,919.314598
21795.683167,0.000000,-12657.521608,4903.011187
21795.683500,1332.370696,-7179.997637,0.000000
21795.683833,3478.967927,-14211.954086,1149.143247
21795.684166,0.000000,-7179.997637,2451.505594
21795.684500,0.000000,-10436.903782,-153.219100
21795.684833,-1184.329507,-8512.368333,-1838.629195
21795.685166,666.185348,-9474.636058,-1302.362347
21795.685500,-2664.741391,-9474.636058,-76.609550
21795.685833,-1110.308913,-7698.141797,-459.657299
21795.686166,-1258.350101,-9326.594869,-689.485948
21795.686500,0.000000,-8364.327145,3600.648841
21795.686833,3478.967927,-5921.647536,1762.019645
21795.687166,592.164754,-7772.162391,4903.011187
21795.687499,8216.285956,-3849.070898,2374.896044
21795.687833,4515.256246,-11399.171507,459.657299
21795.688166,4663.297435,-10066.800811,-842.705048
21795.688499,-2146.597232,-14582.057057,-4366.744339
21795.688833,-1184.329507,-11917.315666,-4749.792088
21795.689166,0.000000,-11473.192101,-2681.334243
21795.689499,2294.638420,-13619.789333,-1302.362347
21795.689833,296.082377,-7179.997637,612.876398
21795.690166,592.164754,-6291.750507,3217.601092
21795.690499,8216.285956,-9474.636058,4060.306139
21795.690832,4071.132681,-7698.141797,7967.393179
21795.691166,4515.256246,-6513.812290,4519.963438
21795.691499,1702.473667,-6809.894666,1532.190996
21795.691832,1184.329507,-9548.656652,919.314598
21795.692166,-3552.988522,-5403.503377,-4903.011187
21795.692499,-2590.720797,-11251.130318,-3140.991542
21795.692832,-4885.359217,-11843.295072,-6052.154434
21795.693166,-5625.565159,-13545.768739,-3907.087040
21795.693499,-6365.771101,-12287.418637,-2987.772442
21795.693832,-4219.173869,-6513.812290,-3294.210641
21795.694166,-2368.659014,-10066.800811,3294.210641
21795.694499,3478.967927,-7105.977043,4826.401637
21795.694832,1776.494261,-5699.585753,9039.926876
21795.695165,5033.400406,-5181.441594,6741.640382
21795.695499,3182.885551,-7476.080014,3064.381992
21795.695832,2146.597232,-7698.141797,1608.800546
21795.696166,814.226536,-10955.047942,-459.657299
21795.696499,-2664.741391,-11103.089130,-4749.792088
21795.696832,-4737.318029,-12213.398043,-4903.011187
21795.697166,-5403.503377,-14211.954086,-4979.620737
21795.697499,-3404.947333,-10658.965565,-4979.620737
21795.697833,-3997.112087,-9548.656652,0.000000
21795.698166,518.144159,-9474.636058,2987.772442
21795.698499,0.000000,-5995.668130,4290.134789
21795.698833,0.000000,-7402.059420,5745.716235
21795.699166,4293.194464,-4219.173869,3217.601092
21795.699500,1924.535449,-9844.739029,5286.058936
21795.699833,5551.544565,-5329.482782,4213.525239
21795.700166,1110.308913,-9548.656652,0.000000
21795.700500,592.164754,-9548.656652,-3677.258390
21795.700833,-2812.782580,-15248.242405,-3753.867940
21795.701167,-5995.668130,-11917.315666,-7354.516781
21795.701500,-592.164754,-10140.821405,-1915.238745
21795.701833,-2368.659014,-12509.480420,-2145.067394
21795.702167,2812.782580,-8364.327145,3524.039291
21795.702500,444.123565,-8882.471304,3600.648841
21795.702834,5255.462188,-7994.224174,6665.030833
21795.703167,4663.297435,-7698.141797,3907.087040
21795.703500,2960.823768,-7179.997637,4903.011187
21795.703834,5033.400406,-5921.647536,5439.278036
21795.704167,1998.556043,-9474.636058,-689.485948
21795.704501,1406.391290,-12139.377449,-689.485948
21795.704834,-1628.453072,-10140.821405,-2604.724693
21795.705167,-444.123565,-12953.603985,-2911.162892
21795.705501,-222.061783,-9918.759623,-3217.601092
21795.705834,-3256.906145,-11029.068536,-4290.134789
21795.706168,-2442.679609,-7624.121203,-4903.011187
21795.706501,3552.988522,-10066.800811,4826.401637
21795.706834,4663.297435,-7402.059420,3907.087040
21795.707168,4737.318029,-7179.997637,8810.098227
21795.707501,4071.132681,-7698.141797,6665.030833
21795.707835,888.247130,-5403.503377,-229.828649
21795.708168,1332.370696,-8068.244768,-1072.533697
21795.708501,-74.020594,-11769.274478,-2681.334243
21795.708835,-4441.235652,-11917.315666,-3064.381992
21795.709168,-3627.009116,-11103.089130,-3524.039291
21795.709502,-2368.659014,-11029.068536,-4596.572988
21795.709835,-2294.638420,-12361.439231,-1149.143247
21795.710168,-740.205942,-8142.265362,153.219100
21795.710502,0.000000,-6587.832884,2145.067394
21795.710835,4071.132681,-9474.636058,4826.401637
21795.711169,0.000000,-6587.832884,5209.449386
21795.711502,1998.556043,-8882.471304,6665.030833
21795.711835,1110.308913,-9178.553681,3447.429741
21795.712169,-3552.988522,-8956.491898,1072.533697
21795.712502,-1924.535449,-9252.574275,-842.705048
21795.712836,-4663.297435,-9252.574275,-3140.991542
21795.713169,-666.185348,-7402.059420,-3370.820191
21795.713502,-2960.823768,-11473.192101,-1225.752797
21795.713836,-3034.844362,-6587.832884,-4903.011187
21795.714169,-5625.565159,-10732.986159,-3064.381992
21795.714502,888.247130,-7698.141797,-76.609550
21795.714836,2886.803174,-8290.306550,919.314598
21795.715169,3701.029710,-7105.977043,4519.963438
21795.715503,3108.864956,-7328.038826,3064.381992
21795.715836,3182.885551,-8808.450710,1608.800546
21795.716169,2590.720797,-10955.047942,2451.505594
21795.716503,2886.803174,-10658.965565,1149.143247
21795.716836,-4737.318029,-10732.986159,0.000000
21795.717170,-74.020594,-5921.647536,-2528.115143
21795.717503,-370.102971,-11843.295072,-5592.497135
21795.717836,0.000000,-9548.656652,0.000000
21795.718170,2886.803174,-7698.141797,-383.047749
21795.718503,814.226536,-9770.718434,1378.971896
21795.718837,3108.864956,-8142.265362,3753.867940
21795.719170,1036.288319,-8586.388927,0.000000
21795.719503,3627.009116,-5403.503377,1991.848295
21795.719837,1184.329507,-7772.162391,4519.963438
21795.720170,4071.132681,-10658.965565,1455.581446
21795.720504,1480.411884,-7179.997637,0.000000
21795.720837,-2368.659014,-12509.480420,-306.438199
21795.721170,-74.020594,-9474.636058,-3830.477490
21795.721504,-3997.112087,-11029.068536,-2757.943793
21795.721837,-3256.906145,-9104.533087,-3217.601092
21795.722171,222.061783,-7105.977043,1149.143247
21795.722504,1184.329507,-7550.100608,2834.553343
21795.722837,5477.523971,-4515.256246,6741.640382
21795.723171,3923.091493,-6661.853478,1608.800546
21795.723504,3923.091493,-8068.244768,3983.696590
21795.723838,4145.153275,-11251.130318,2221.676944
21795.724171,1702.473667,-12435.459826,-1302.362347
21795.724504,-1776.494261,-11029.068536,-2145.067394
21795.724838,-1184.329507,-14730.098246,-1608.800546
21795.725171,-1406.391290,-9548.656652,-2145.067394
21795.725505,-2368.659014,-8956.491898,0.000000
21795.725838,-370.102971,-9326.594869,229.828649
21795.726171,-1702.473667,-7476.080014,1149.143247
21795.726505,0.000000,-7550.100608,3064.381992
21795.726838,1110.308913,-5921.647536,4826.401637
21795.727172,1258.350101,-7698.141797,4826.401637
21795.727505,0.000000,-7179.997637,4596.572988
21795.727838,3478.967927,-7698.141797,-76.609550
21795.728172,2294.638420,-10955.047942,229.828649
21795.728505,518.144159,-9474.636058,-1915.238745
21795.728839,-5699.585753,-13101.645173,-4903.011187
21795.729172,-4811.338623,-12583.501014,-5822.325785
21795.729505,-1850.514855,-10362.883188,-2528.115143
21795.729839,-4737.318029,-9548.656652,0.000000
21795.730172,2886.803174,-8290.306550,1762.019645
21795.730506,0.000000,-9548.656652,6052.154434
21795.730839,2294.638420,-8882.471304,3983.696590
21795.731172,4145.153275,-3775.050304,7354.516781
21795.731506,2294.638420,-8068.244768,5439.278036
21795.731839,4441.235652,-5255.462188,2221.676944
21795.732173,-5921.647536,-14656.077652,-689.485948
21795.732506,148.041188,-6143.709319,-3600.648841
21795.732839,-296.082377,-10288.862594,919.314598
21795.733173,-74.020594,-9104.533087,-6128.763984
21795.733506,2886.803174,-10658.965565,-76.609550
21795.733840,-3627.009116,-13027.624579,-4979.620737
21795.734173,0.000000,-10732.986159,-1838.629195
21795.734506,-2812.782580,-11843.295072,2221.676944
21795.734840,4145.153275,-6513.812290,2681.334243
21795.735173,4219.173869,-6957.935855,6128.763984
21795.735507,3627.009116,-7846.182985,4366.744339
21795.735840,6735.874072,-6513.812290,3907.087040
21795.736173,1184.329507,-5995.668130,4903.011187
21795.736507,8808.450710,-8290.306550,0.000000
21795.736840,-1924.535449,-10732.986159,-3677.258390
21795.737174,-2072.576638,-9844.739029,-5209.449386
21795.737507,-4219.173869,-13915.871710,-5209.449386
21795.737840,-1406.391290,-12583.501014,-3064.381992
21795.738174,666.185348,-8290.306550,459.657299
21795.738507,-592.164754,-8290.306550,689.485948
21795.738841,4663.297435,-7550.100608,1149.143247
21795.739174,296.082377,-12361.439231,8503.660028
21795.739507,5329.482782,-4737.318029,3600.648841
21795.739841,3627.009116,-8512.368333,6052.154434
21795.740174,2516.700203,-6587.832884,3140.991542
21795.740508,4663.297435,-9474.636058,1149.143247
21795.740841,-2368.659014,-9548.656652,-1149.143247
21795.741174,2886.803174,-11843.295072,-2528.115143
21795.741508,-4885.359217,-10140.821405,-5822.325785
21795.741841,-2368.659014,-11621.233289,-3447.429741
21795.742175,-2442.679609,-12731.542202,-3140.991542
21795.742508,-2368.659014,-10436.903782,-383.047749
21795.742841,1480.411884,-8142.265362,3217.601092
21795.743175,814.226536,-8882.471304,5745.716235
21795.743508,1998.556043,-3923.091493,3677.258390
21795.743842,0.000000,-7179.997637,6435.202183
21795.744175,4071.132681,-3997.112087,995.924147
21795.744508,-222.061783,-9548.656652,1225.752797
21795.744842,-2886.803174,-9474.636058,-2528.115143
21795.745175,-2442.679609,-9474.636058,-7048.078582
21795.745509,-4219.173869,-12361.439231,-3447.429741
21795.745842,-592.164754,-8956.491898,-2528.115143
21795.746175,-4441.235652,-10214.842000,-2298.286494
21795.746509,0.000000,-7772.162391,0.000000
21795.746842,0.000000,-10732.986159,4826.401637
21795.747175,2294.638420,-7105.977043,4290.134789
21795.747509,0.000000,-7476.080014,3677.258390
21795.747842,2368.659014,-8290.306550,3600.648841
21795.748176,-1776.494261,-7772.162391,2451.505594
21795.748509,518.144159,-5921.647536,-1915.238745
21795.748842,-444.123565,-11843.295072,-995.924147
21795.749176,0.000000,-7920.203579,-1532.190996
21795.749509,1702.473667,-11547.212695,-1302.362347
21795.749843,-3849.070898,-12731.542202,-689.485948
21795.750176,-370.102971,-9178.553681,-5898.935335
21795.750509,-3552.988522,-11029.068536,-612.876398
21795.750843,7031.956449,-10658.965565,4519.963438
21795.751176,4219.173869,-7179.997637,6358.592633
21795.751510,2220.617826,-7476.080014,3140.991542
21795.751843,3552.988522,-9030.512492,3140.991542
21795.752176,962.267725,-9844.739029,1838.629195
21795.752510,2664.741391,-4219.173869,-689.485948
21795.752843,-74.020594,-11843.295072,-2911.162892
21795.753177,-1184.329507,-8364.327145,-4903.011187
21795.753510,-3552.988522,-11917.315666,-536.266849
21795.753843,-74.020594,-7698.141797,-2528.115143
21795.754177,3478.967927,-7105.977043,-383.047749
21795.754510,1480.411884,-10732.986159,0.000000
21795.754844,4219.173869,-8586.388927,2145.067394
21795.755177,2812.782580,-8882.471304,-76.609550
21795.755510,5329.482782,-8808.450710,1225.752797
21795.755844,4663.297435,-11917.315666,4596.572988
21795.756177,6661.853478,-7550.100608,5209.449386
21795.756511,1554.432478,-8068.244768,2374.896044
21795.756844,1924.535449,-8586.388927,-1608.800546
21795.757177,-2146.597232,-11251.130318,-2221.676944
21795.757511,-1258.350101,-11843.295072,-76.609550
21795.757844,-1850.514855,-8660.409521,-3064.381992
21795.758178,-3849.070898,-8956.491898,-1225.752797
21795.758511,-518.144159,-9918.759623,689.485948
21795.758844,-1628.453072,-4811.338623,1838.629195
21795.759178,1702.473667,-7846.182985,1762.019645
21795.759511,2590.720797,-7105.977043,2528.115143
21795.759845,1036.288319,-10510.924376,2374.896044
21795.760178,0.000000,-8364.327145,306.438199
21795.760511,-74.020594,-10066.800811,-1685.410096
21795.760845,-1480.411884,-9844.739029,0.000000
21795.761178,-370.102971,-13619.789333,-76.609550
21795.761512,-3034.844362,-9474.636058,-2528.115143
21795.761845,0.000000,-9252.574275,2068.457845
21795.762178,-1036.288319,-6143.709319,229.828649
21795.762512,74.020594,-9770.718434,2145.067394
21795.762845,-1776.494261,-6587.832884,1762.019645
21795.763179,-74.020594,-9474.636058,2987.772442
21795.763512,-74.020594,-6143.709319,766.095498
21795.763845,1332.370696,-5995.668130,2451.505594
21795.764179,2886.803174,-9474.636058,1149.143247
21795.764512,-2072.576638,-5995.668130,0.000000
21795.764846,-74.020594,-12435.459826,-1608.800546
21795.765179,-3627.009116,-11695.253884,-5362.668486
21795.765512,-2590.720797,-12953.603985,-1838.629195
21795.765846,-2590.720797,-8734.430116,-2834.553343
21795.766179,-3627.009116,-12731.542202,-76.609550
21795.766513,-2886.803174,-2442.679609,0.000000
21795.766846,-74.020594,-10362.883188,3907.087040
21795.767179,6735.874072,-2368.659014,4213.525239
21795.767513,3552.988522,-6587.832884,4903.011187
21795.767846,4071.132681,-8586.388927,2987.772442
21795.768180,2812.782580,-9030.512492,766.095498
21795.768513,0.000000,-11695.253884,-1915.238745
21795.768846,2294.638420,-12731.542202,-2374.896044
21795.769180,-1850.514855,-13619.789333,-4366.744339
21795.769513,-962.267725,-12435.459826,-1225.752797
21795.769847,-1036.288319,-8068.244768,-1838.629195
21795.770180,-888.247130,-12287.418637,995.924147
21795.770513,296.082377,-6291.750507,3677.258390
21795.770847,2294.638420,-8808.450710,4826.401637
21795.771180,5255.462188,-3849.070898,3140.991542
21795.771514,1110.308913,-5403.503377,1225.752797
21795.771847,2960.823768,-7105.977043,1762.019645
21795.772180,4145.153275,-7772.162391,0.000000
21795.772514,3330.926739,-11843.295072,2374.896044
21795.772847,3330.926739,-6439.791695,-1072.533697
21795.773181,-3330.926739,-13767.830521,-5592.497135
21795.773514,-74.020594,-13619.789333,-4979.620737
21795.773847,-2368.659014,-12435.459826,-4366.744339
21795.774181,-1628.453072,-11917.315666,0.000000
21795.774514,3256.906145,-6587.832884,1225.752797
21795.774848,2886.803174,-11843.295072,5439.278036
21795.775181,6143.709319,-4589.276840,7354.516781
21795.775514,2738.761985,-6365.771101,3830.477490
21795.775848,1184.329507,-9474.636058,2987.772442
21795.776181,3478.967927,-6365.771101,2068.457845
21795.776515,-1258.350101,-10066.800811,1225.752797
21795.776848,962.267725,-8290.306550,-2221.676944
21795.777181,-7105.977043,-13101.645173,-612.876398
21795.777515,-1184.329507,-10955.047942,-3140.991542
21795.777848,-5255.462188,-12435.459826,-3600.648841
21795.778182,-4367.215058,-11251.130318,-2221.676944
21795.778515,-6365.771101,-8956.491898,-2451.505594
21795.778848,-4219.173869,-8364.327145,-1072.533697
21795.779182,2590.720797,-6587.832884,6665.030833
21795.779515,2368.659014,-4811.338623,6128.763984
21795.779848,5847.626942,-6217.729913,6052.154434
21795.780182,3552.988522,-7328.038826,6128.763984
21795.780515,2072.576638,-11695.253884,-76.609550
21795.780849,-2220.617826,-9844.739029,-3064.381992
21795.781182,-2368.659014,-9548.656652,-4290.134789
21795.781515,-3552.988522,-14063.912898,-4366.744339
21795.781849,-4293.194464,-12361.439231,-2987.772442
21795.782182,-5625.565159,-10066.800811,-3907.087040
21795.782516,-4811.338623,-11251.130318,-1915.238745
21795.782849,-1628.453072,-5107.421000,3064.381992
21795.783182,1702.473667,-8290.306550,2987.772442
21795.783516,6587.832884,-3256.906145,6971.469032
21795.783849,2368.659014,-6883.915261,8273.831378
21795.784183,6513.812290,-6291.750507,4903.011187
21795.784516,2072.576638,-6957.935855,2911.162892
21795.784849,1776.494261,-11325.150913,-2681.334243
21795.785183,-518.144159,-12435.459826,-3370.820191
21795.785516,-3627.009116,-16580.613101,-4979.620737
21795.785850,-5773.606348,-10732.986159,-6741.640382
21795.786183,-2738.761985,-10732.986159,-3370.820191
21795.786516,814.226536,-9992.780217,-689.485948
21795.786850,1998.556043,-7105.977043,3907.087040
21795.787183,4071.132681,-6513.812290,6052.154434
21795.787517,3478.967927,-4737.318029,3677.258390
21795.787850,2368.659014,-5995.668130,5209.449386
21795.788183,5699.585753,-9474.636058,3600.648841
21795.788517,1480.411884,-8216.285956,1532.190996
21795.788850,3256.906145,-8068.244768,1149.143247
21795.789184,0.000000,-11621.233289,-3600.648841
21795.789517,-1332.370696,-11325.150913,-6588.421283
21795.789850,-2146.597232,-14582.057057,-3830.477490
21795.790184,-74.020594,-10658.965565,-3140.991542
21795.790517,444.123565,-9548.656652,-1838.629195
21795.790851,2516.700203,-10658.965565,4749.792088
21795.791184,4663.297435,-7698.141797,3600.648841
21795.791517,4515.256246,-4515.256246,3677.258390
21795.791851,4071.132681,-9474.636058,4060.306139
21795.792184,1850.514855,-7624.121203,3370.820191
21795.792518,666.185348,-7772.162391,1838.629195
21795.792851,1776.494261,-7328.038826,459.657299
21795.793184,-2368.659014,-11917.315666,-2451.505594
21795.793518,-7105.977043,-7772.162391,-3677.258390
21795.793851,-3923.091493,-13915.871710,-4979.620737
21795.794185,-3627.009116,-7698.141797,-5898.935335
21795.794518,-4737.318029,-12509.480420,-1225.752797
21795.794851,-2738.761985,-6143.709319,0.000000
21795.795185,518.144159,-7402.059420,2374.896044
21795.795518,814.226536,-6587.832884,4596.572988
21795.795852,3775.050304,-6513.812290,4979.620737
21795.796185,2368.659014,-7550.100608,5822.325785
21795.796518,2886.803174,-8290.306550,4213.525239
21795.796852,-74.020594,-10658.965565,-2221.676944
21795.797185,-3256.906145,-11917.315666,-383.047749
21795.797519,-4145.153275,-11843.295072,-383.047749
21795.797852,-2590.720797,-7179.997637,-6128.763984
21795.798185,-3182.885551,-12509.480420,-689.485948
21795.798519,-2516.700203,-6069.688724,-3983.696590
21795.798852,-1110.308913,-11251.130318,842.705048
21795.799185,2368.659014,-7105.977043,5209.449386
21795.799518,2960.823768,-8512.368333,5745.716235
21795.799852,3182.885551,-7698.141797,3600.648841
21795.800185,592.164754,-7476.080014,1838.629195
21795.800518,4071.132681,-10362.883188,3600.648841
21795.800851,1406.391290,-8956.491898,459.657299
21795.801185,-74.020594,-9178.553681,-4443.353888
21795.801518,-2738.761985,-13027.624579,-2298.286494
21795.801851,-2368.659014,-9326.594869,-4136.915689
21795.802184,-74.020594,-12287.418637,-689.485948
21795.802517,-2368.659014,-7179.997637,-612.876398
21795.802851,888.247130,-9178.553681,919.314598
21795.803184,2590.720797,-5847.626942,3907.087040
21795.803517,3923.091493,-7402.059420,3370.820191
21795.803850,3182.885551,-10066.800811,4290.134789
21795.804184,2960.823768,-5403.503377,0.000000
21795.804517,3849.070898,-10510.924376,4519.963438
21795.804850,3330.926739,-7179.997637,612.876398
21795.805183,0.000000,-9548.656652,-5515.887586
21795.805516,-74.020594,-13027.624579,-2834.553343
21795.805850,-1184.329507,-11621.233289,-3524.039291
21795.806183,-1184.329507,-11621.233289,-1915.238745
21795.806516,-1332.370696,-8734.430116,-1532.190996
21795.806849,-74.020594,-8290.306550,-1302.362347
21795.807183,1184.329507,-8660.409521,6052.154434
21795.807516,6735.874072,-7105.977043,4826.401637
21795.807849,2960.823768,-6291.750507,4903.011187
21795.808182,3552.988522,-6883.915261,4903.011187
21795.808515,3478.967927,-9770.718434,766.095498
21795.808849,-814.226536,-9252.574275,-459.657299
21795.809182,-592.164754,-12213.398043,-2298.286494
21795.809515,-2590.720797,-10066.800811,-3524.039291
21795.809848,-2960.823768,-11621.233289,-4290.134789
21795.810182,-4737.318029,-11991.336260,-689.485948
21795.810515,-1258.350101,-7402.059420,-919.314598
21795.810848,-1850.514855,-6735.874072,-1838.629195
21795.811181,3478.967927,-8290.306550,6665.030833
21795.811514,148.041188,-5107.421000,3677.258390
21795.811848,1406.391290,-7698.141797,3753.867940
21795.812181,3923.091493,-5995.668130,2451.505594
21795.812514,1480.411884,-12287.418637,2528.115143
21795.812847,296.082377,-8956.491898,1838.629195
21795.813181,-74.020594,-13027.624579,-1302.362347
21795.813514,-6143.709319,-12509.480420,-3677.258390
21795.813847,-3256.906145,-7179.997637,-6128.763984
21795.814180,-3923.091493,-14211.954086,-3140.991542
21795.814513,-1480.411884,-8660.409521,1225.752797
21795.814847,-2664.741391,-8438.347739,689.485948
21795.815180,2368.659014,-7179.997637,5669.106685
21795.815513,3404.947333,-4737.318029,5592.497135
21795.815846,3552.988522,-6735.874072,3677.258390
21795.816180,4959.379811,-8142.265362,4826.401637
21795.816513,222.061783,-9696.697840,306.438199
21795.816846,444.123565,-9696.697840,-2451.505594
21795.817179,-1258.350101,-11547.212695,-3753.867940
21795.817512,-2516.700203,-10732.986159,-4596.572988
21795.817846,-4737.318029,-10881.027347,-3753.867940
21795.818179,-1850.514855,-12731.542202,-3447.429741
21795.818512,-2072.576638,-6587.832884,-1838.629195
21795.818845,-74.020594,-11251.130318,2068.457845
21795.819179,2294.638420,-6143.709319,1991.848295
21795.819512,2886.803174,-7994.224174,5975.544884
21795.819845,5329.482782,-4367.215058,5822.325785
21795.820178,4737.318029,-6587.832884,5209.449386
21795.820511,4071.132681,-6809.894666,0.000000
21795.820845,5255.462188,-13027.624579,-1302.362347
21795.821178,1184.329507,-10732.986159,-2451.505594
21795.821511,-1628.453072,-14285.974681,-5515.887586
21795.821844,-3552.988522,-12509.480420,-2911.162892
21795.822178,-2368.659014,-10732.986159,-3677.258390
21795.822511,-1332.370696,-10732.986159,-919.314598
21795.822844,-962.267725,-7105.977043,1532.190996
21795.823177,3478.967927,-8734.430116,5439.278036
21795.823510,2368.659014,-1850.514855,6741.640382
21795.823844,4663.297435,-7105.977043,4826.401637
21795.824177,0.000000,-7476.080014,3064.381992
21795.824510,1036.288319,-9178.553681,2374.896044
21795.824843,-962.267725,-10510.924376,-3677.258390
21795.825177,-1184.329507,-11769.274478,-1455.581446
21795.825510,-592.164754,-11917.315666,-2757.943793
21795.825843,-2738.761985,-11251.130318,-2834.553343
21795.826176,222.061783,-8956.491898,-2757.943793
21795.826509,0.000000,-13101.645173,1762.019645
21795.826843,0.000000,-5699.585753,612.876398
21795.827176,-1776.494261,-8364.327145,1838.629195
21795.827509,3775.050304,-7105.977043,3294.210641
21795.827842,962.267725,-8512.368333,3447.429741
21795.828176,2146.597232,-8290.306550,2987.772442
21795.828509,2294.638420,-5773.606348,3983.696590
21795.828842,296.082377,-9474.636058,842.705048
21795.829175,-222.061783,-10066.800811,995.924147
21795.829508,-3330.926739,-10658.965565,-3753.867940
21795.829842,-4737.318029,-11917.315666,-4903.011187
21795.830175,-1702.473667,-11547.212695,2145.067394
21795.830508,2294.638420,-8290.306550,-1915.238745
21795.830841,-2146.597232,-8660.409521,-766.095498
21795.831175,962.267725,-8586.388927,-383.047749
21795.831508,962.267725,-9178.553681,1302.362347
21795.831841,518.144159,-8734.430116,3600.648841
21795.832174,1776.494261,-7846.182985,1302.362347
21795.832507,1554.432478,-10066.800811,1762.019645
21795.832841,3108.864956,-6291.750507,2145.067394
21795.833174,2220.617826,-9548.656652,1685.410096
21795.833507,1628.453072,-9474.636058,-1378.971896
21795.833840,-1184.329507,-9548.656652,-3677.258390
21795.834174,-74.020594,-12435.459826,-1915.238745
21795.834507,-2960.823768,-7179.997637,-5362.668486
21795.834840,-4737.318029,-11325.150913,-1532.190996
21795.835173,1998.556043,-8290.306550,383.047749
21795.835506,2886.803174,-6513.812290,2451.505594
21795.835840,2516.700203,-4959.379811,4213.525239
21795.836173,2738.761985,-6661.853478,-1762.019645
21795.836506,3182.885551,-11473.192101,3907.087040
21795.836839,3552.988522,-8364.327145,766.095498
21795.837173,4515.256246,-14211.954086,-76.609550
21795.837506,0.000000,-11917.315666,1225.752797
21795.837839,0.000000,-8956.491898,-612.876398
21795.838172,-74.020594,-12435.459826,842.705048
21795.838505,0.000000,-5995.668130,-1225.752797
21795.838839,0.000000,-6735.874072,-1838.629195
21795.839172,-888.247130,-8808.450710,306.438199
21795.839505,2072.576638,-7698.141797,2374.896044
21795.839838,-370.102971,-8882.471304,2374.896044
21795.840172,-74.020594,-11251.130318,-76.609550
21795.840505,-2368.659014,-7179.997637,3064.381992
21795.840838,1110.308913,-10066.800811,2987.772442
21795.841171,2886.803174,-9474.636058,1302.362347
21795.841504,-74.020594,-9178.553681,-76.609550
21795.841838,0.000000,-10436.903782,-2145.067394
21795.842171,-2886.803174,-12065.356855,842.705048
21795.842504,370.102971,-7105.977043,-2374.896044
21795.842837,-5329.482782,-10436.903782,-4136.915689
21795.843171,-74.020594,-8290.306550,-995.924147
21795.843504,-2960.823768,-8956.491898,1915.238745
21795.843837,3478.967927,-7105.977043,3140.991542
21795.844170,1184.329507,-7179.997637,2451.505594
21795.844503,814.226536,-8882.471304,3294.210641
21795.844837,296.082377,-8068.244768,4290.134789
21795.845170,666.185348,-6735.874072,-1072.533697
21795.845503,1036.288319,-12657.521608,383.047749
21795.845836,-2368.659014,-11029.068536,-459.657299
21795.846170,-5625.565159,-9548.656652,-4903.011187
21795.846503,-1258.350101,-10658.965565,-689.485948
21795.846836,-74.020594,-10362.883188,-2528.115143
21795.847169,-2368.659014,-7179.997637,0.000000
21795.847502,0.000000,-8142.265362,-76.609550
21795.847836,-444.123565,-9844.739029,2681.334243
21795.848169,5403.503377,-5921.647536,5056.230287
21795.848502,4367.215058,-7994.224174,6052.154434
21795.848835,4737.318029,-7031.956449,2757.943793
21795.849169,1184.329507,-8068.244768,383.047749
21795.849502,-1036.288319,-13101.645173,-995.924147
21795.849835,-1628.453072,-8068.244768,-3983.696590
21795.850168,-4367.215058,-13915.871710,-4673.182538
21795.850501,-2368.659014,-10584.944971,-2451.505594
21795.850835,-3034.844362,-7105.977043,-3294.210641
21795.851168,0.000000,-6291.750507,1072.533697
21795.851501,4663.297435,-7994.224174,1762.019645
21795.851834,4663.297435,-7105.977043,4826.401637
21795.852168,5921.647536,-7550.100608,5439.278036
21795.852501,3108.864956,-10362.883188,3064.381992
21795.852834,4367.215058,-9400.615463,995.924147
21795.853167,2368.659014,-10732.986159,153.219100
21795.853500,4663.297435,-12879.583391,-76.609550
21795.853834,-4145.153275,-11325.150913,-3064.381992
21795.854167,592.164754,-11325.150913,-842.705048
21795.854500,-1258.350101,-10658.965565,-2221.676944
21795.854833,-3552.988522,-7772.162391,0.000000
21795.855167,-666.185348,-8882.471304,536.266849
21795.855500,1480.411884,-6439.791695,4060.306139
21795.855833,3552.988522,-5477.523971,5669.106685
21795.856166,4293.194464,-6365.771101,4213.525239
21795.856499,1998.556043,-9030.512492,1149.143247
21795.856833,0.000000,-7179.997637,2681.334243
21795.857166,-74.020594,-12731.542202,-689.485948
21795.857499,-74.020594,-8364.327145,-6128.763984
21795.857832,-3108.864956,-14359.995275,-1991.848295
21795.858166,-1850.514855,-9104.533087,-4290.134789
21795.858499,-2368.659014,-11695.253884,383.047749
21795.858832,-2590.720797,-7994.224174,-1225.752797
21795.859165,-2664.741391,-9326.594869,612.876398
21795.859498,-2368.659014,-5995.668130,1838.629195
21795.859832,3849.070898,-7698.141797,7890.783629
21795.860165,1110.308913,-7031.956449,3677.258390
21795.860498,2368.659014,-7179.997637,7354.516781
21795.860831,2294.638420,-8882.471304,2068.457845
21795.861165,1110.308913,-9548.656652,306.438199
21795.861498,-1110.308913,-9178.553681,-4366.744339
21795.861831,-3330.926739,-12953.603985,-3983.696590
21795.862164,-3627.009116,-11843.295072,-4826.401637
21795.862497,-4589.276840,-13101.645173,-4596.572988
21795.862831,-1554.432478,-8438.347739,-842.705048
21795.863164,-4441.235652,-11769.274478,1302.362347
21795.863497,1258.350101,-4145.153275,2221.676944
21795.863830,-74.020594,-11843.295072,4826.401637
21795.864164,5255.462188,0.000000,1685.410096
21795.864497,1776.494261,-11325.150913,5745.716235
21795.864830,5847.626942,-8290.306550,2987.772442
21795.865163,0.000000,-10140.821405,0.000000
21795.865496,2294.638420,-11843.295072,-76.609550
21795.865830,3182.885551,-9696.697840,-2757.943793
21795.866163,-1332.370696,-12287.418637,-3294.210641
21795.866496,1036.288319,-11399.171507,-1455.581446
21795.866829,-3849.070898,-8068.244768,-3907.087040
21795.867163,1554.432478,-10881.027347,-1762.019645
21795.867496,0.000000,-9400.615463,3907.087040
21795.867829,3478.967927,-7994.224174,5745.716235
21795.868162,1110.308913,-3701.029710,2068.457845
21795.868495,1036.288319,-5625.565159,459.657299
21795.868829,2960.823768,-6587.832884,2451.505594
21795.869162,2220.617826,-9252.574275,2987.772442
21795.869495,4219.173869,-6513.812290,536.266849
21795.869828,1184.329507,-8956.491898,-2911.162892
21795.870162,-666.185348,-15396.283594,-7354.516781
21795.870495,2294.638420,-13619.789333,-2528.115143
21795.870828,-74.020594,-13471.748144,-4366.744339
21795.871161,0.000000,-9548.656652,-2145.067394
21795.871494,2664.741391,-10140.821405,2451.505594
21795.871828,3256.906145,-9326.594869,3600.648841
21795.872161,4811.338623,-7476.080014,7967.393179
21795.872494,4885.359217,-4811.338623,5286.058936
21795.872827,2886.803174,-10658.965565,6052.154434
21795.873161,-2368.659014,-3923.091493,2451.505594
21795.873494,-74.020594,-7994.224174,-2451.505594
21795.873827,-3923.091493,-7179.997637,-3064.381992
21795.874160,-3108.864956,-10658.965565,-4979.620737
21795.874493,-4811.338623,-13027.624579,-6205.373534
21795.874827,-1776.494261,-9844.739029,-2834.553343
21795.875160,-4737.318029,-11917.315666,-2681.334243
21795.875493,-1702.473667,-9252.574275,-1225.752797
21795.875826,-666.185348,-10214.842000,1991.848295
21795.876160,1258.350101,-9474.636058,6052.154434
21795.876493,2738.761985,-5995.668130,4903.011187
21795.876826,2220.617826,-10362.883188,7277.907231
21795.877159,4663.297435,-5921.647536,2068.457845
21795.877492,2886.803174,-8586.388927,3294.210641
21795.877826,2516.700203,-11843.295072,2068.457845
21795.878159,-3552.988522,-8068.244768,-2221.676944
21795.878492,-4737.318029,-12509.480420,-4749.792088
21795.878825,-3330.926739,-9326.594869,-4366.744339
21795.879159,-6217.729913,-12879.583391,-2528.115143
21795.879492,-2812.782580,-6587.832884,-306.438199
21795.879825,-370.102971,-6809.894666,383.047749
21795.880158,1702.473667,-10658.965565,3907.087040
21795.880491,518.144159,-6661.853478,306.438199
21795.880825,1628.453072,-9474.636058,4213.525239
21795.881158,2886.803174,-8290.306550,3294.210641
21795.881491,1776.494261,-6587.832884,2451.505594
21795.881824,2220.617826,-10955.047942,2987.772442
21795.882158,-666.185348,-7105.977043,-4979.620737
21795.882491,1480.411884,-11547.212695,-1455.581446
21795.882824,-1110.308913,-10362.883188,-2298.286494
21795.883157,-2072.576638,-10658.965565,-4136.915689
21795.883490,-1776.494261,-9548.656652,-1838.629195
21795.883824,888.247130,-9474.636058,-76.609550
21795.884157,1776.494261,-5403.503377,1532.190996
21795.884490,0.000000,-6587.832884,4903.011187
21795.884823,7031.956449,-7698.141797,5439.278036
21795.885157,3997.112087,-4811.338623,3677.258390
21795.885490,3997.112087,-11473.192101,536.266849
21795.885823,444.123565,-10288.862594,-1302.362347
21795.886156,-2368.659014,-11695.253884,-5822.325785
21795.886489,2886.803174,-11843.295072,-1608.800546
21795.886823,1110.308913,-15396.283594,-76.609550
21795.887156,-1258.350101,-7179.997637,-3677.258390
21795.887489,2960.823768,-6735.874072,0.000000
21795.887822,5033.400406,-10066.800811,2374.896044
21795.888156,5921.647536,-10881.027347,7507.735880
21795.888489,2220.617826,-7550.100608,5669.106685
21795.888822,3478.967927,-6217.729913,1762.019645
21795.889155,740.205942,-10584.944971,3217.601092
21795.889488,-814.226536,-7402.059420,-842.705048
21795.889822,-666.185348,-10955.047942,-2528.115143
21795.890155,-4737.318029,-5995.668130,-1838.629195
21795.890488,-4367.215058,-14211.954086,-2528.115143
21795.890821,-5255.462188,-10362.883188,-3140.991542
21795.891155,-5699.585753,-9474.636058,-3140.991542
21795.891488,-2812.782580,-7179.997637,-1149.143247
21795.891821,74.020594,-8438.347739,3830.477490
21795.892154,2664.741391,-6883.915261,5975.544884
21795.892487,0.000000,-7476.080014,4903.011187
21795.892821,148.041188,-5995.668130,1838.629195
21795.893154,1998.556043,-14063.912898,4826.401637
21795.893487,4071.132681,-7994.224174,-76.609550
21795.893820,-4737.318029,-16654.633695,0.000000
21795.894154,-3034.844362,-4737.318029,-6818.249932
21795.894487,-4367.215058,-16506.592507,-2834.553343
21795.894820,-2368.659014,-8438.347739,-459.657299
21795.895153,74.020594,-6217.729913,612.876398
21795.895486,-3552.988522,-7772.162391,1225.752797
21795.895820,888.247130,-6587.832884,4596.572988
21795.896153,-2516.700203,-6439.791695,1072.533697
21795.896486,3034.844362,-6809.894666,4213.525239
21795.896819,3034.844362,-5329.482782,2528.115143
21795.897153,3849.070898,-10140.821405,3140.991542
21795.897486,3034.844362,-4441.235652,0.000000
21795.897819,-2368.659014,-10140.821405,-1685.410096
21795.898152,-1850.514855,-11547.212695,-6205.373534
21795.898485,-1258.350101,-14211.954086,-3140.991542
21795.898819,-4145.153275,-12509.480420,-1149.143247
21795.899152,-666.185348,-7772.162391,-842.705048
21795.899485,-592.164754,-9992.780217,1302.362347
21795.899818,5255.462188,-6513.812290,3600.648841
21795.900152,7031.956449,-8216.285956,9499.584175
21795.900485,6069.688724,-3627.009116,5515.887586
21795.900818,4737.318029,-8364.327145,4596.572988
21795.901151,4663.297435,-8882.471304,-689.485948
21795.901484,1110.308913,-9548.656652,-3524.039291
21795.901818,1110.308913,-13027.624579,-3753.867940
21795.902151,0.000000,-9548.656652,-4596.572988
21795.902484,-2442.679609,-12731.542202,-4596.572988
21795.902817,1110.308913,-10807.006753,-1302.362347
21795.903150,-962.267725,-9474.636058,-1302.362347
21795.903484,0.000000,-7772.162391,1225.752797
21795.903817,1776.494261,-7179.997637,3064.381992
21795.904150,3923.091493,-10658.965565,7277.907231
21795.904483,2368.659014,-3034.844362,7354.516781
21795.904816,1184.329507,-4811.338623,3370.820191
21795.905150,592.164754,-8364.327145,0.000000
21795.905483,518.144159,-7476.080014,-1685.410096
21795.905816,-814.226536,-12879.583391,-2834.553343
21795.906149,-2368.659014,-11917.315666,-3677.258390
21795.906482,-1554.432478,-16580.613101,-1302.362347
21795.906816,-3775.050304,-9548.656652,-2451.505594
21795.907149,-2664.741391,-8068.244768,-3677.258390
21795.907482,-74.020594,-11843.295072,4213.525239
21795.907815,-3478.967927,-5551.544565,2451.505594
21795.908149,2368.659014,-4219.173869,3983.696590
21795.908482,222.061783,-9030.512492,5898.935335
21795.908815,0.000000,-4885.359217,4443.353888
21795.909148,-1184.329507,-11473.192101,1225.752797
21795.909481,-1406.391290,-6587.832884,229.828649
21795.909815,2294.638420,-11547.212695,-1302.362347
21795.910148,-1406.391290,-9178.553681,-1915.238745
21795.910481,-3034.844362,-11843.295072,-4060.306139
21795.910814,-1554.432478,-6291.750507,-4903.011187
21795.911147,-2664.741391,-15396.283594,1149.143247
21795.911481,-1850.514855,-8290.306550,-1608.800546
21795.911814,-1480.411884,-6291.750507,1225.752797
21795.912147,1702.473667,-8882.471304,4826.401637
21795.912480,4367.215058,-5995.668130,2604.724693
21795.912813,296.082377,-7846.182985,6052.154434
21795.913147,6513.812290,-5773.606348,3753.867940
21795.913480,1184.329507,-9548.656652,3064.381992
21795.913813,4663.297435,-9474.636058,536.266849
21795.914146,-74.020594,-12731.542202,-3140.991542
21795.914479,-2368.659014,-10732.986159,-5822.325785
21795.914813,-1480.411884,-9548.656652,-4903.011187
21795.915146,-2368.659014,-10140.821405,-1838.629195
21795.915479,814.226536,-9030.512492,-1149.143247
21795.915812,444.123565,-9474.636058,-536.266849
21795.916146,3775.050304,-7105.977043,3447.429741
21795.916479,3404.947333,-10066.800811,6511.811733
21795.916812,2516.700203,-6587.832884,2451.505594
21795.917145,5847.626942,-7105.977043,1149.143247
21795.917478,1184.329507,-10732.986159,3217.601092
21795.917812,6439.791695,-6513.812290,1762.019645
21795.918145,-74.020594,-12583.501014,-2145.067394
21795.918478,518.144159,-10066.800811,-3140.991542
21795.918811,-1406.391290,-11917.315666,-3907.087040
21795.919144,-2368.659014,-12287.418637,-3753.867940
21795.919478,-1406.391290,-9474.636058,-2068.457845
21795.919811,-2368.659014,-7772.162391,1072.533697
21795.920144,4071.132681,-6291.750507,3064.381992
21795.920477,0.000000,-4811.338623,5515.887586
21795.920810,5255.462188,-9474.636058,4826.401637
21795.921144,2886.803174,-5921.647536,3600.648841
21795.921477,2294.638420,-9474.636058,2374.896044
21795.921810,0.000000,-10214.842000,612.876398
21795.922143,-1702.473667,-8660.409521,-2298.286494
21795.922476,-2960.823768,-11473.192101,-3140.991542
21795.922810,-666.185348,-11251.130318,-2528.115143
21795.923143,-7105.977043,-9548.656652,-3370.820191
21795.923476,-3404.947333,-10362.883188,-459.657299
21795.923809,-370.102971,-10658.965565,-995.924147
21795.924143,-1998.556043,-8512.368333,2298.286494
21795.924476,2886.803174,-7105.977043,3600.648841
21795.924809,592.164754,-8142.265362,5132.839837
21795.925142,-1702.473667,-10214.842000,3064.381992
21795.925475,666.185348,-4367.215058,1762.019645
21795.925809,1702.473667,-12731.542202,1762.019645
21795.926142,1924.535449,-5255.462188,-842.705048
21795.926475,-2368.659014,-14508.036463,-383.047749
21795.926808,-4367.215058,-9030.512492,-5515.887586
21795.927141,-3849.070898,-9548.656652,-6052.154434
21795.927475,-4367.215058,-14211.954086,-1302.362347
21795.927808,2294.638420,-9474.636058,-76.609550
21795.928141,-2220.617826,-5995.668130,1225.752797
21795.928474,2368.659014,-8734.430116,5132.839837
21795.928807,5847.626942,-2664.741391,2068.457845
21795.929141,4737.318029,-12139.377449,7814.174080
21795.929474,4959.379811,-5921.647536,3294.210641
21795.929807,-592.164754,-10584.944971,-2068.457845
21795.930140,-2368.659014,-11917.315666,-4290.134789
21795.930474,-74.020594,-11251.130318,-4979.620737
21795.930807,-4737.318029,-10732.986159,-4290.134789
21795.931140,0.000000,-7772.162391,0.000000
21795.931473,-222.061783,-11843.295072,-995.924147
21795.931806,0.000000,-7179.997637,1225.752797
21795.932140,814.226536,-7179.997637,2451.505594
21795.932473,3849.070898,-7476.080014,2681.334243
21795.932806,5107.421000,-8882.471304,6128.763984
21795.933139,6439.791695,-7698.141797,4519.963438
21795.933472,5847.626942,-9474.636058,2374.896044
21795.933806,1184.329507,-7476.080014,1532.190996
21795.934139,2146.597232,-14211.954086,-689.485948
21795.934472,-74.020594,-10066.800811,-5286.058936
21795.934805,-1406.391290,-14063.912898,-2528.115143
21795.935138,-814.226536,-9548.656652,-2757.943793
21795.935472,-1184.329507,-11029.068536,2374.896044
21795.935805,1702.473667,-5773.606348,1762.019645
21795.936138,2960.823768,-4811.338623,1378.971896
21795.936471,3478.967927,-8290.306550,4366.744339
21795.936804,2368.659014,-5995.668130,7737.564530
21795.937138,-74.020594,-9474.636058,459.657299
21795.937471,2368.659014,-8660.409521,0.000000
21795.937804,-1628.453072,-8660.409521,-842.705048
21795.938137,0.000000,-10288.862594,-766.095498
21795.938471,-2294.638420,-9992.780217,-5898.935335
21795.938804,-3034.844362,-14211.954086,-3140.991542
21795.939137,-1554.432478,-10510.924376,-842.705048
21795.939470,-5921.647536,-9548.656652,-1225.752797
21795.939803,-1850.514855,-9400.615463,842.705048
21795.940137,-1258.350101,-6513.812290,0.000000
21795.940470,592.164754,-6365.771101,6052.154434
21795.940803,740.205942,-4811.338623,2834.553343
21795.941136,2664.741391,-6957.935855,4596.572988
21795.941469,2146.597232,-6957.935855,3524.039291
21795.941803,1480.411884,-11843.295072,1762.019645
21795.942136,-2442.679609,-12435.459826,-3140.991542
21795.942469,-4737.318029,-11473.192101,-4903.011187
21795.942802,-4441.235652,-13027.624579,-5362.668486
21795.943135,-1998.556043,-11251.130318,-1608.800546
21795.943469,-2368.659014,-8512.368333,-612.876398
21795.943802,-74.020594,-10362.883188,4213.525239
21795.944135,296.082377,-4219.173869,2757.943793
21795.944468,3552.988522,-8290.306550,7277.907231
21795.944801,2590.720797,-4811.338623,3064.381992
21795.945135,1776.494261,-7179.997637,1225.752797
21795.945468,1998.556043,-8438.347739,-3217.601092
21795.945801,2960.823768,-10658.965565,919.314598
21795.946134,-1406.391290,-11029.068536,-3907.087040
21795.946468,740.205942,-10881.027347,-2911.162892
21795.946801,-3182.885551,-9844.739029,-4596.572988
21795.947134,1258.350101,-11547.212695,-76.609550
21795.947467,-1258.350101,-9474.636058,-76.609550
21795.947800,-666.185348,-5995.668130,-1838.629195
21795.948134,2294.638420,-9030.512492,6052.154434
21795.948467,2146.597232,-5551.544565,3983.696590
21795.948800,3478.967927,-7105.977043,2834.553343
21795.949133,3330.926739,-7105.977043,1455.581446
21795.949466,4293.194464,-10066.800811,1685.410096
21795.949800,2960.823768,-9696.697840,2911.162892
21795.950133,3997.112087,-13915.871710,-76.609550
21795.950466,-1184.329507,-10140.821405,-4290.134789
21795.950799,-222.061783,-10881.027347,-3524.039291
21795.951132,-592.164754,-11325.150913,-689.485948
21795.951466,0.000000,-8956.491898,-76.609550
21795.951799,0.000000,-7772.162391,-1685.410096
21795.952132,2220.617826,-8290.306550,2374.896044
21795.952465,1924.535449,-5847.626942,2145.067394
21795.952799,3478.967927,-9474.636058,3600.648841
21795.953132,2146.597232,-8290.306550,-76.609550
21795.953465,0.000000,-9548.656652,4290.134789
21795.953798,3034.844362,-8882.471304,2374.896044
21795.954131,2294.638420,-10658.965565,-689.485948
21795.954465,-1184.329507,-8068.244768,-1455.581446
21795.954798,-3552.988522,-11251.130318,-2911.162892
21795.955131,-2886.803174,-10436.903782,-2374.896044
21795.955464,-5033.400406,-10732.986159,-2528.115143
21795.955797,-2442.679609,-8882.471304,-76.609550
21795.956131,-962.267725,-6883.915261,1838.629195
21795.956464,222.061783,-7105.977043,3677.258390
21795.956797,2590.720797,-4959.379811,3983.696590
21795.957130,0.000000,-7772.162391,2451.505594
21795.957463,592.164754,-7476.080014,2757.943793
21795.957797,1702.473667,-11251.130318,1762.019645
21795.958130,296.082377,-8364.327145,0.000000
21795.958463,-370.102971,-13027.624579,-1608.800546
21795.958796,-4293.194464,-10140.821405,-2451.505594
21795.959129,-2294.638420,-9844.739029,-3064.381992
21795.959463,-2146.597232,-9178.553681,-536.266849
21795.959796,-518.144159,-9474.636058,-536.266849
21795.960129,-888.247130,-7550.100608,2757.943793
21795.960462,-370.102971,-5995.668130,2681.334243
21795.960796,3478.967927,-4737.318029,1149.143247
21795.961129,1184.329507,-8956.491898,5439.278036
21795.961462,2960.823768,-9474.636058,4213.525239
21795.961795,592.164754,-9844.739029,1225.752797
21795.962128,1036.288319,-10807.006753,-76.609550
21795.962462,-2220.617826,-11991.336260,-3907.087040
21795.962795,-3108.864956,-11621.233289,-4290.134789
21795.963128,-1258.350101,-10658.965565,-2528.115143
21795.963461,-2368.659014,-7476.080014,1838.629195
21795.963794,-518.144159,-7105.977043,1762.019645
21795.964128,0.000000,-6291.750507,4903.011187
21795.964461,4663.297435,-3552.988522,3600.648841
21795.964794,4663.297435,-8290.306550,4213.525239
21795.965127,4811.338623,-9474.636058,3294.210641
21795.965460,1110.308913,-10362.883188,919.314598
21795.965794,-666.185348,-11399.171507,-2604.724693
21795.966127,1332.370696,-11177.109724,-4290.134789
21795.966460,-74.020594,-13915.871710,-1302.362347
21795.966793,-2368.659014,-10732.986159,-2451.505594
21795.967126,296.082377,-4811.338623,0.000000
21795.967460,1998.556043,-14211.954086,-76.609550
21795.967793,1924.535449,-3923.091493,0.000000
21795.968126,2294.638420,-10584.944971,2987.772442
21795.968459,4663.297435,-7105.977043,3524.039291
21795.968793,4293.194464,-7476.080014,3753.867940
21795.969126,74.020594,-9252.574275,-229.828649
21795.969459,4663.297435,-9178.553681,1762.019645
21795.969792,-1776.494261,-9548.656652,3600.648841
21795.970125,5847.626942,-7698.141797,1149.143247
21795.970459,-4811.338623,-11843.295072,-4903.011187
21795.970792,-2368.659014,-8364.327145,-2911.162892
21795.971125,-4219.173869,-8808.450710,-4596.572988
21795.971458,-1924.535449,-11547.212695,-1149.143247
21795.971791,-1184.329507,-7179.997637,0.000000
21795.972125,-1554.432478,-9696.697840,2681.334243
21795.972458,5847.626942,-3849.070898,2451.505594
21795.972791,1332.370696,-8882.471304,4443.353888
21795.973124,3182.885551,-7550.100608,1915.238745
21795.973457,1628.453072,-9252.574275,2911.162892
21795.973791,1184.329507,-11473.192101,2145.067394
21795.974124,1110.308913,-10362.883188,-383.047749
21795.974457,-3552.988522,-10732.986159,0.000000
21795.974790,-74.020594,-10658.965565,-1302.362347
21795.975124,-2442.679609,-11029.068536,-1532.190996
21795.975457,-5329.482782,-9548.656652,-1225.752797
21795.975790,-5255.462188,-10510.924376,-2068.457845
21795.976123,-2516.700203,-7476.080014,459.657299
21795.976456,1110.308913,-4811.338623,2145.067394
21795.976790,2294.638420,-7105.977043,4826.401637
21795.977123,3478.967927,-7105.977043,2374.896044
21795.977456,0.000000,-8956.491898,3064.381992
21795.977789,3478.967927,-14063.912898,4826.401637
21795.978122,-74.020594,-7994.224174,-2757.943793
21795.978456,-2960.823768,-14285.974681,-1915.238745
21795.978789,444.123565,-9548.656652,-3370.820191
21795.979122,-2146.597232,-11547.212695,-1762.019645
21795.979455,-2072.576638,-8660.409521,-919.314598
21795.979788,-2368.659014,-7254.018232,229.828649
21795.980122,-74.020594,-5995.668130,-3524.039291
21795.980455,2368.659014,-10732.986159,6052.154434
21795.980788,3182.885551,-9178.553681,6358.592633
21795.981121,1184.329507,-3034.844362,3370.820191
21795.981454,5255.462188,-9326.594869,4826.401637
21795.981788,2812.782580,-9104.533087,2834.553343
21795.982121,1110.308913,-9030.512492,-1685.410096
21795.982454,-2146.597232,-10362.883188,-3753.867940
21795.982787,-2368.659014,-12509.480420,-6741.640382
21795.983121,-4737.318029,-13101.645173,-4290.134789
21795.983454,-592.164754,-10214.842000,-76.609550
21795.983787,-74.020594,-7698.141797,-2834.553343
21795.984120,1184.329507,-7179.997637,612.876398
21795.984453,4737.318029,-4811.338623,3983.696590
21795.984787,5699.585753,-6661.853478,6205.373534
21795.985120,6365.771101,-4811.338623,3677.258390
21795.985453,3775.050304,-11843.295072,3753.867940
21795.985786,4663.297435,-9474.636058,4213.525239
21795.986119,2960.823768,-9696.697840,2987.772442
21795.986453,1110.308913,-9918.759623,-5745.716235
21795.986786,-666.185348,-11029.068536,-7354.516781
21795.987119,-3552.988522,-13101.645173,-4749.792088
21795.987452,592.164754,-12213.398043,-2451.505594
21795.987785,-1480.411884,-11621.233289,2681.334243
21795.988119,1998.556043,-7105.977043,2757.943793
21795.988452,-592.164754,-6217.729913,4673.182538
21795.988785,4663.297435,-4737.318029,4826.401637
21795.989118,1776.494261,-5403.503377,4826.401637
21795.989451,-666.185348,-8068.244768,1915.238745
21795.989785,-1776.494261,-7254.018232,-2145.067394
21795.990118,-3923.091493,-11473.192101,-2374.896044
21795.990451,-1258.350101,-12731.542202,-2528.115143
21795.990784,-6513.812290,-10732.986159,-4903.011187
21795.991118,-2960.823768,-13915.871710,-3140.991542
21795.991451,-962.267725,-9696.697840,-2528.115143
21795.991784,-4737.318029,-7179.997637,-1225.752797
21795.992117,3478.967927,-7105.977043,2987.772442
21795.992450,1332.370696,-9474.636058,6358.592633
21795.992784,5329.482782,-4737.318029,6052.154434
21795.993117,3478.967927,-8512.368333,6435.202183
21795.993450,1702.473667,-8142.265362,2681.334243
21795.993783,0.000000,-9548.656652,1455.581446
21795.994116,-1850.514855,-13915.871710,-1608.800546
21795.994450,-1258.350101,-9548.656652,-4290.134789
21795.994783,-5921.647536,-10732.986159,-3677.258390
21795.995116,-3627.009116,-9474.636058,-6128.763984
21795.995449,-3330.926739,-10510.924376,-1302.362347
21795.995782,-4145.153275,-9030.512492,306.438199
21795.996116,-814.226536,-5625.565159,2528.115143
21795.996449,296.082377,-4811.338623,3370.820191
21795.996782,5329.482782,-9474.636058,8503.660028
21795.997115,1554.432478,-6587.832884,3064.381992
21795.997449,0.000000,-7179.997637,1225.752797
21795.997782,-74.020594,-11843.295072,-2528.115143
21795.998115,-2368.659014,-11917.315666,-3064.381992
21795.998448,-1998.556043,-13249.686362,-2987.772442
21795.998781,-1924.535449,-10214.842000,-3447.429741
21795.999115,666.185348,-7772.162391,-2451.505594
21795.999448,3552.988522,-8660.409521,4060.306139
21795.999781,4663.297435,-9474.636058,3600.648841
21796.000114,1628.453072,-7179.997637,2757.943793
21796.000447,2072.576638,-8438.347739,4060.306139
21796.000781,5847.626942,-9474.636058,-76.609550
21796.001114,592.164754,-9548.656652,4903.011187
21796.001447,4367.215058,-7846.182985,1225.752797
21796.001780,4219.173869,-7994.224174,1378.971896
21796.002113,1776.494261,-8734.430116,-1838.629195
21796.002446,4589.276840,-9104.533087,-2987.772442
21796.002780,4663.297435,-13027.624579,-3753.867940
21796.003113,2368.659014,-12509.480420,612.876398
21796.003446,592.164754,-10732.986159,3064.381992
21796.003779,814.226536,-10658.965565,-689.485948
21796.004112,0.000000,-6587.832884,-2451.505594
21796.004446,592.164754,-5699.585753,1915.238745
21796.004779,4219.173869,-5625.565159,3064.381992
21796.005112,74.020594,-11769.274478,2374.896044
21796.005445,4663.297435,-4737.318029,4213.525239
21796.005778,-2738.761985,-11177.109724,-76.609550
21796.006112,1998.556043,-7328.038826,842.705048
21796.006445,-2886.803174,-10955.047942,-1608.800546
21796.006778,-2960.823768,-10881.027347,-3830.477490
21796.007111,2294.638420,-9474.636058,-76.609550
21796.007444,-5921.647536,-13693.809927,-76.609550
21796.007778,-666.185348,-7328.038826,-2604.724693
21796.008111,-4145.153275,-8364.327145,612.876398
21796.008444,1184.329507,-7772.162391,2757.943793
21796.008777,814.226536,-7624.121203,5669.106685
21796.009110,-370.102971,-8438.347739,1685.410096
21796.009444,888.247130,-6883.915261,1532.190996
21796.009777,222.061783,-10066.800811,2987.772442
21796.010110,1184.329507,-7179.997637,459.657299
21796.010443,-1850.514855,-12435.459826,-76.609550
21796.010776,-1258.350101,-7994.224174,-5592.497135
21796.011110,-9178.553681,-13693.809927,-4596.572988
21796.011443,-2738.761985,-9474.636058,-689.485948
21796.011776,-2960.823768,-7179.997637,-1838.629195
21796.012109,-1776.494261,-10732.986159,2298.286494
21796.012442,3330.926739,-5847.626942,6588.421283
21796.012776,296.082377,-5551.544565,5056.230287
21796.013109,1480.411884,-7179.997637,4903.011187
21796.013442,-74.020594,-8290.306550,-2374.896044
21796.013775,-1480.411884,-9548.656652,-2451.505594
21796.014108,-2072.576638,-11547.212695,2374.896044
21796.014442,-1850.514855,-8882.471304,-4519.963438
21796.014775,-2368.659014,-11251.130318,-2681.334243
21796.015108,-74.020594,-9178.553681,-766.095498
21796.015441,-1110.308913,-8512.368333,-1225.752797
21796.015774,148.041188,-8068.244768,-995.924147
21796.016108,1554.432478,-11103.089130,2221.676944
21796.016441,1702.473667,-5403.503377,612.876398
21796.016774,4737.318029,-9992.780217,6665.030833
21796.017107,7031.956449,-7105.977043,3600.648841
21796.017440,4811.338623,-7179.997637,1225.752797
21796.017773,8290.306550,-7105.977043,2374.896044
21796.018107,4071.132681,-13693.809927,766.095498
21796.018440,7846.182985,-5107.421000,-3217.601092
21796.018773,1110.308913,-19763.498651,-2604.724693
21796.019106,4071.132681,-12065.356855,-76.609550
21796.019439,888.247130,-11325.150913,-1455.581446
21796.019773,-962.267725,-9770.718434,-919.314598
21796.020106,2590.720797,-4589.276840,153.219100
21796.020439,-2368.659014,-7179.997637,0.000000
21796.020772,4737.318029,-6069.688724,6128.763984
21796.021105,4663.297435,-4737.318029,2681.334243
21796.021439,3182.885551,-7179.997637,612.876398
21796.021772,0.000000,-9474.636058,2374.896044
21796.022105,74.020594,-7698.141797,-2681.334243
21796.022438,888.247130,-11029.068536,-1838.629195
21796.022771,-3775.050304,-14211.954086,-3447.429741
21796.023105,-3849.070898,-9252.574275,-4749.792088
21796.023438,-4145.153275,-14730.098246,-306.438199
21796.023771,2960.823768,-7179.997637,4673.182538
21796.024104,-3034.844362,-11251.130318,2451.505594
21796.024437,-1184.329507,-6587.832884,3677.258390
21796.024771,1702.473667,-7105.977043,4826.401637
21796.025104,0.000000,-7772.162391,3983.696590
21796.025437,3478.967927,-7105.977043,4826.401637
21796.025770,-1184.329507,-6661.853478,766.095498
21796.026103,-1702.473667,-7994.224174,-459.657299
21796.026437,-3627.009116,-13027.624579,-2834.553343
21796.026770,-5921.647536,-11769.274478,-2528.115143
21796.027103,-7476.080014,-11917.315666,-6741.640382
21796.027436,-5921.647536,-10140.821405,-1378.971896
21796.027769,-74.020594,-9474.636058,2987.772442
21796.028103,-962.267725,-7994.224174,4826.401637
21796.028436,1628.453072,-4811.338623,3983.696590
21796.028769,-2368.659014,-6587.832884,3294.210641
21796.029102,-1036.288319,-8068.244768,1608.800546
21796.029435,-2960.823768,-8956.491898,919.314598
21796.029769,-74.020594,-11843.295072,-689.485948
21796.030102,0.000000,-8956.491898,0.000000
21796.030435,1850.514855,-11547.212695,-76.609550
21796.030768,-1110.308913,-8660.409521,-4290.134789
21796.031101,0.000000,-7179.997637,-1225.752797
21796.031435,962.267725,-10140.821405,-842.705048
21796.031768,0.000000,-10955.047942,-229.828649
21796.032101,-962.267725,-10955.047942,-919.314598
21796.032434,3552.988522,-10658.965565,4443.353888
21796.032767,5847.626942,-4811.338623,4903.011187
21796.033100,7994.224174,-7105.977043,7277.907231
21796.033434,6439.791695,-8290.306550,-76.609550
21796.033767,4737.318029,-7179.997637,1838.629195
21796.034100,7402.059420,-11473.192101,0.000000
21796.034433,6069.688724,-12879.583391,3064.381992
21796.034766,3478.967927,-11843.295072,-1149.143247
21796.035100,2960.823768,-9696.697840,-3217.601092
21796.035433,1184.329507,-10066.800811,-459.657299
21796.035766,-74.020594,-7920.203579,-5515.887586
21796.036099,1998.556043,-9252.574275,0.000000
21796.036432,-814.226536,-10658.965565,-229.828649
21796.036766,5699.585753,-6735.874072,3064.381992
21796.037099,592.164754,-8956.491898,6435.202183
21796.037432,2886.803174,-6365.771101,842.705048
21796.037765,592.164754,-3627.009116,3677.258390
21796.038098,4071.132681,-13027.624579,1762.019645
21796.038432,1258.350101,-6735.874072,-2834.553343
21796.038765,-4737.318029,-13101.645173,-2451.505594
21796.039098,-518.144159,-8438.347739,-4519.963438
21796.039431,-2516.700203,-13027.624579,-383.047749
21796.039764,-592.164754,-8808.450710,-76.609550
21796.040098,-2738.761985,-13027.624579,-76.609550
21796.040431,-2442.679609,-8512.368333,-1225.752797
21796.040764,-592.164754,-9030.512492,6052.154434
21796.041097,-74.020594,-6513.812290,2987.772442
21796.041430,0.000000,-4219.173869,3983.696590
21796.041764,-74.020594,-10658.965565,4213.525239
21796.042097,-5033.400406,-10955.047942,1838.629195
21796.042430,-6143.709319,-7254.018232,-1455.581446
21796.042763,-4219.173869,-8734.430116,-4519.963438
21796.043096,-4737.318029,-10807.006753,-2528.115143
21796.043430,-4811.338623,-7179.997637,0.000000
21796.043763,-4219.173869,-10658.965565,-3140.991542
21796.044096,-3034.844362,-11251.130318,-1302.362347
21796.044429,-4737.318029,-8660.409521,-1838.629195
21796.044762,-74.020594,-11547.212695,842.705048
21796.045096,444.123565,-7846.182985,5592.497135
21796.045429,518.144159,-7772.162391,4366.744339
21796.045762,3775.050304,-8290.306550,6588.421283
21796.046095,2368.659014,-5995.668130,5056.230287
21796.046428,0.000000,-9622.677246,2374.896044
21796.046762,1110.308913,-8142.265362,-1915.238745
21796.047095,-6735.874072,-12213.398043,-7354.516781
21796.047428,-6513.812290,-8956.491898,-2987.772442
21796.047761,-1258.350101,-9474.636058,-4290.134789
21796.048094,-148.041188,-9474.636058,-1915.238745
21796.048427,7698.141797,-3775.050304,3524.039291
21796.048761,2220.617826,-11399.171507,2374.896044
21796.049094,8290.306550,-4515.256246,2757.943793
21796.049427,4515.256246,-12139.377449,766.095498
21796.049760,7624.121203,-12361.439231,2451.505594
21796.050093,7179.997637,-10362.883188,4136.915689
21796.050427,7476.080014,-10658.965565,1762.019645
21796.050760,5403.503377,-8290.306550,-76.609550
21796.051093,1184.329507,-8660.409521,306.438199
21796.051426,4071.132681,-10658.965565,-4366.744339
21796.051759,3478.967927,-10658.965565,-1532.190996
21796.052093,2294.638420,-11843.295072,1149.143247
21796.052426,1776.494261,-8142.265362,536.266849
21796.052759,1332.370696,-11399.171507,4519.963438
21796.053092,2368.659014,-1554.432478,689.485948
21796.053425,2146.597232,-8216.285956,1838.629195
21796.053759,1702.473667,-9400.615463,1762.019645
21796.054092,-2368.659014,-9548.656652,-306.438199
21796.054425,-666.185348,-10658.965565,-1915.238745
21796.054758,-2738.761985,-11251.130318,-4366.744339
21796.055091,-3849.070898,-8364.327145,-2911.162892
21796.055425,-1554.432478,-11843.295072,-1608.800546
21796.055758,0.000000,-8586.388927,-842.705048
21796.056091,-1258.350101,-9696.697840,536.266849
21796.056424,-4145.153275,-10881.027347,-306.438199
21796.056757,2590.720797,-5625.565159,2374.896044
21796.057091,3182.885551,-11251.130318,7277.907231
21796.057424,5255.462188,-7698.141797,5439.278036
21796.057757,-2220.617826,-8956.491898,3370.820191
21796.058090,-296.082377,-7402.059420,76.609550
21796.058423,-2886.803174,-8660.409521,-1225.752797
21796.058757,-6735.874072,-12065.356855,-3600.648841
21796.059090,-5329.482782,-10807.006753,-4136.915689
21796.059423,-7402.059420,-9548.656652,-3064.381992
21796.059756,-6217.729913,-8364.327145,0.000000
21796.060089,-5995.668130,-8290.306550,-1302.362347
21796.060423,-2960.823768,-5921.647536,842.705048
21796.060756,-4145.153275,-7476.080014,4596.572988
21796.061089,4663.297435,-8882.471304,7890.783629
21796.061422,888.247130,-9104.533087,4749.792088
21796.061755,2812.782580,-8808.450710,842.705048
21796.062089,2368.659014,-10140.821405,-459.657299
21796.062422,1184.329507,-12287.418637,-229.828649
21796.062755,2368.659014,-11621.233289,-76.609550
21796.063088,-74.020594,-10658.965565,-5592.497135
21796.063421,-2368.659014,-11917.315666,-2451.505594
21796.063754,-4737.318029,-8660.409521,919.314598
21796.064088,2294.638420,-8290.306550,2374.896044
21796.064421,0.000000,-6069.688724,3217.601092
21796.064754,2886.803174,-6143.709319,2834.553343
21796.065087,1776.494261,-6291.750507,2911.162892
21796.065420,3182.885551,-6809.894666,1608.800546
21796.065754,1480.411884,-10288.862594,919.314598
21796.066087,2664.741391,-9844.739029,0.000000
21796.066420,2072.576638,-11473.192101,0.000000
21796.066753,3256.906145,-10881.027347,-2757.943793
21796.067086,2590.720797,-7402.059420,-4290.134789
21796.067420,2960.823768,-12065.356855,-76.609550
21796.067753,4367.215058,-10658.965565,-1302.362347
21796.068086,0.000000,-9548.656652,0.000000
21796.068419,3478.967927,-10066.800811,-76.609550
21796.068752,4663.297435,-9474.636058,3600.648841
21796.069086,5773.606348,-7846.182985,5592.497135
21796.069419,5477.523971,-9326.594869,3140.991542
21796.069752,4737.318029,-7772.162391,3983.696590
21796.070085,2960.823768,-5995.668130,2451.505594
21796.070418,-3552.988522,-7179.997637,0.000000
21796.070752,-74.020594,-10658.965565,-3753.867940
21796.071085,-6735.874072,-11325.150913,-6741.640382
21796.071418,-3552.988522,-6735.874072,-3064.381992
21796.071751,-5255.462188,-9548.656652,-2451.505594
21796.072084,-6217.729913,-8882.471304,-1915.238745
21796.072418,-2960.823768,-7476.080014,-1838.629195
21796.072751,-592.164754,-11029.068536,5056.230287
21796.073084,1702.473667,-8882.471304,3907.087040
21796.073417,1184.329507,-7179.997637,6665.030833
21796.073750,-74.020594,-8364.327145,612.876398
21796.074084,3552.988522,-7476.080014,4673.182538
21796.074417,3478.967927,-10658.965565,3294.210641
21796.074750,2146.597232,-9992.780217,-306.438199
21796.075083,-1184.329507,-11547.212695,-1915.238745
21796.075416,-4737.318029,-9178.553681,-3907.087040
21796.075750,-4219.173869,-13619.789333,-3140.991542
21796.076083,-3775.050304,-7105.977043,-2374.896044
21796.076416,-1554.432478,-11843.295072,-76.609550
21796.076749,-2960.823768,-5699.585753,1762.019645
21796.077082,-3552.988522,-4811.338623,3830.477490
21796.077416,1702.473667,-8142.265362,4826.401637
21796.077749,2590.720797,-7698.141797,2681.334243
21796.078082,0.000000,-8364.327145,3217.601092
21796.078415,0.000000,-9252.574275,3370.820191
21796.078748,1628.453072,-6143.709319,-612.876398
21796.079081,0.000000,-9548.656652,0.000000
21796.079415,-1258.350101,-10066.800811,-4826.401637
21796.079748,-1776.494261,-9696.697840,-1302.362347
21796.080081,-3552.988522,-9844.739029,-1302.362347
21796.080414,-1258.350101,-12139.377449,-2528.115143
21796.080747,-814.226536,-7994.224174,0.000000
21796.081081,1702.473667,-9770.718434,1302.362347
21796.081414,4737.318029,-7772.162391,3677.258390
21796.081747,4737.318029,-8068.244768,4903.011187
21796.082080,3552.988522,-7772.162391,4903.011187
21796.082413,5847.626942,-6957.935855,2528.115143
21796.082747,3775.050304,-10066.800811,536.266849
21796.083080,1184.329507,-9918.759623,-2834.553343
21796.083413,-1776.494261,-11473.192101,-4826.401637
21796.083746,-3256.906145,-9548.656652,-4903.011187
21796.084079,-74.020594,-10658.965565,-3447.429741
21796.084413,-666.185348,-7772.162391,-3677.258390
21796.084746,2516.700203,-10510.924376,1302.362347
21796.085079,6439.791695,-9474.636058,5745.716235
21796.085412,2960.823768,-7179.997637,7354.516781
21796.085745,5551.544565,-6735.874072,4290.134789
21796.086079,2146.597232,-9622.677246,4366.744339
21796.086412,2368.659014,-7031.956449,1072.533697
21796.086745,1850.514855,-9992.780217,2221.676944
21796.087078,-1850.514855,-9474.636058,-5592.497135
21796.087411,-2960.823768,-10732.986159,-2451.505594
21796.087745,-2960.823768,-10066.800811,-1915.238745
21796.088078,-1850.514855,-10881.027347,-2298.286494
21796.088411,-5329.482782,-10436.903782,-383.047749
21796.088744,-1406.391290,-9400.615463,0.000000
21796.089077,1998.556043,-7402.059420,4519.963438
21796.089411,1332.370696,-8290.306550,5362.668486
21796.089744,4071.132681,-5921.647536,3600.648841
21796.090077,3182.885551,-7402.059420,1532.190996
21796.090410,5033.400406,-9104.533087,4213.525239
21796.090743,-74.020594,-13027.624579,-76.609550
21796.091077,-4959.379811,-9548.656652,-5515.887586
21796.091410,-3182.885551,-11843.295072,-4979.620737
21796.091743,-4145.153275,-12213.398043,-3370.820191
21796.092076,-740.205942,-9770.718434,-842.705048
21796.092409,-3552.988522,-8142.265362,-76.609550
21796.092743,-1036.288319,-5995.668130,0.000000
21796.093076,2368.659014,-8364.327145,3677.258390
21796.093409,3182.885551,-12435.459826,6052.154434
21796.093742,0.000000,-6587.832884,4903.011187
21796.094075,592.164754,-5995.668130,5515.887586
21796.094408,3478.967927,-8290.306550,-76.609550
21796.094742,740.205942,-10510.924376,-229.828649
21796.095075,-1036.288319,-9770.718434,-2987.772442
21796.095408,-4293.194464,-10732.986159,-6205.373534
21796.095741,-4737.318029,-11029.068536,-6128.763984
21796.096074,-5255.462188,-13249.686362,-3447.429741
21796.096408,-1998.556043,-9548.656652,-1532.190996
21796.096741,1184.329507,-8068.244768,2451.505594
21796.097074,6439.791695,-8586.388927,9422.974625
21796.097407,7031.956449,-7105.977043,8503.660028
21796.097740,5699.585753,-4811.338623,3677.258390
21796.098074,5699.585753,-8290.306550,5822.325785
21796.098407,2886.803174,-13619.789333,-76.609550
21796.098740,740.205942,-8068.244768,-1532.190996
21796.099073,-4145.153275,-13545.768739,-5286.058936
21796.099406,-1480.411884,-9696.697840,-3983.696590
21796.099740,-2886.803174,-8734.430116,-2757.943793
21796.100073,592.164754,-7624.121203,-2911.162892
21796.100406,2368.659014,-8068.244768,459.657299
21796.100739,1480.411884,-9844.739029,0.000000
21796.101072,4145.153275,-11547.212695,9729.412825
21796.101406,4071.132681,-9474.636058,3600.648841
21796.101739,5181.441594,-8956.491898,3600.648841
21796.102072,4663.297435,-9178.553681,2374.896044
21796.102405,4441.235652,-5995.668130,1149.143247
21796.102738,-1036.288319,-10214.842000,-612.876398
21796.103071,-888.247130,-8438.347739,-3600.648841
21796.103405,-2442.679609,-11843.295072,-2681.334243
21796.103738,-4367.215058,-9548.656652,-3064.381992
21796.104071,-3849.070898,-8660.409521,-3677.258390
21796.104404,-2368.659014,-9992.780217,2374.896044
21796.104737,1850.514855,-7476.080014,2145.067394
21796.105070,-1480.411884,-5107.421000,4903.011187
21796.105404,1776.494261,-7031.956449,3600.648841
21796.105737,1702.473667,-6883.915261,1225.752797
21796.106070,2442.679609,-10288.862594,2145.067394
21796.106403,0.000000,-10881.027347,0.000000
21796.106736,2294.638420,-10658.965565,-1915.238745
21796.107069,-3552.988522,-7772.162391,-6435.202183
21796.107403,-1776.494261,-9548.656652,-1762.019645
21796.107736,-2442.679609,-11843.295072,-2681.334243
21796.108069,-888.247130,-6809.894666,-383.047749
21796.108402,-2738.761985,-12287.418637,-842.705048
21796.108735,-370.102971,-8882.471304,1302.362347
21796.109068,-2146.597232,-9326.594869,2451.505594
21796.109401,3775.050304,-8586.388927,5439.278036
21796.109735,3478.967927,-5847.626942,2451.505594
21796.110068,0.000000,-7476.080014,1762.019645
21796.110401,2294.638420,-13027.624579,2374.896044
21796.110734,-666.185348,-7105.977043,-3140.991542
21796.111067,-1184.329507,-11843.295072,-1302.362347
21796.111400,-1036.288319,-8660.409521,-1149.143247
21796.111734,-1184.329507,-12287.418637,0.000000
21796.112067,0.000000,-7402.059420,-995.924147
21796.112400,-444.123565,-10436.903782,2374.896044
21796.112733,-1110.308913,-9252.574275,919.314598
21796.113066,1036.288319,-8512.368333,2451.505594
21796.113399,1554.432478,-7772.162391,3830.477490
21796.113733,1332.370696,-7772.162391,1838.629195
21796.114066,592.164754,-7772.162391,1225.752797
21796.114399,4663.297435,-8290.306550,1149.143247
21796.114732,1998.556043,-7179.997637,0.000000
21796.115065,2516.700203,-9918.759623,842.705048
21796.115398,-1554.432478,-9474.636058,-3140.991542
21796.115732,-2590.720797,-12139.377449,-536.266849
21796.116065,2072.576638,-6957.935855,-1149.143247
21796.116398,-74.020594,-10510.924376,-1762.019645
21796.116731,2368.659014,-11621.233289,0.000000
21796.117064,1184.329507,-10732.986159,4519.963438
21796.117397,4663.297435,-6883.915261,2757.943793
21796.117730,3256.906145,-8364.327145,3677.258390
21796.118064,3478.967927,-10658.965565,2374.896044
21796.118397,888.247130,-5995.668130,0.000000
21796.118730,3404.947333,-7698.141797,612.876398
21796.119063,-296.082377,-8734.430116,-1608.800546
21796.119396,-3404.947333,-10362.883188,-3830.477490
21796.119729,-2442.679609,-10658.965565,-3753.867940
21796.120063,-4145.153275,-13693.809927,-1915.238745
21796.120396,-1258.350101,-8956.491898,-2145.067394
21796.120729,-1776.494261,-6587.832884,612.876398
21796.121062,-74.020594,-11843.295072,4826.401637
21796.121395,3478.967927,-7105.977043,4826.401637
21796.121728,2146.597232,-8734.430116,4673.182538
21796.122062,4441.235652,-8660.409521,6281.983084
21796.122395,4589.276840,-6735.874072,3830.477490
21796.122728,-1776.494261,-8364.327145,0.000000
21796.123061,2294.638420,-9474.636058,-1915.238745
21796.123394,-4737.318029,-10140.821405,-6128.763984
21796.123727,-1628.453072,-12287.418637,-1915.238745
21796.124061,-3034.844362,-10955.047942,-3753.867940
21796.124394,-5403.503377,-8956.491898,-4136.915689
21796.124727,-3552.988522,-7920.203579,153.219100
21796.125060,-1332.370696,-7476.080014,3600.648841
21796.125393,962.267725,-3997.112087,4903.011187
21796.125726,2664.741391,-6735.874072,3064.381992
21796.126059,4663.297435,-7772.162391,612.876398
21796.126393,2368.659014,-10436.903782,7277.907231
21796.126726,1998.556043,-5921.647536,536.266849
21796.127059,-2368.659014,-11325.150913,-919.314598
21796.127392,-1776.494261,-10140.821405,-2757.943793
21796.127725,-2294.638420,-10436.903782,-4290.134789
21796.128058,-2664.741391,-10362.883188,-3447.429741
21796.128392,-2368.659014,-9696.697840,-3907.087040
21796.128725,-2072.576638,-10288.862594,0.000000
21796.129058,2442.679609,-10214.842000,4903.011187
21796.129391,2886.803174,-6513.812290,3830.477490
21796.129724,2886.803174,-7402.059420,3447.429741
21796.130057,3997.112087,-7994.224174,3600.648841
21796.130391,2960.823768,-7772.162391,3064.381992
21796.130724,0.000000,-7772.162391,2451.505594
21796.131057,4071.132681,-9474.636058,-1608.800546
21796.131390,0.000000,-7772.162391,-4290.134789
21796.131723,-2960.823768,-11325.150913,-2298.286494
21796.132056,-1776.494261,-8956.491898,-4136.915689
21796.132390,-2072.576638,-12509.480420,-4596.572988
21796.132723,1258.350101,-11029.068536,383.047749
21796.133056,3034.844362,-8956.491898,4136.915689
21796.133389,4367.215058,-9474.636058,6971.469032
21796.133722,3182.885551,-3627.009116,2757.943793
21796.134055,3552.988522,-10362.883188,6052.154434
21796.134388,4663.297435,-8290.306550,2068.457845
21796.134722,-2220.617826,-9548.656652,-1225.752797
21796.135055,740.205942,-10658.965565,-1915.238745
21796.135388,-2960.823768,-10807.006753,-2604.724693
21796.135721,-2294.638420,-9030.512492,-2451.505594
21796.136054,-2146.597232,-7772.162391,-3064.381992
21796.136387,-2146.597232,-7624.121203,-3447.429741
21796.136721,-4737.318029,-9548.656652,0.000000
21796.137054,-962.267725,-9474.636058,3294.210641
21796.137387,2294.638420,-9474.636058,2987.772442
21796.137720,5847.626942,-4219.173869,5515.887586
21796.138053,3478.967927,-9918.759623,4443.353888
21796.138386,4219.173869,-5625.565159,3064.381992
21796.138720,-222.061783,-10066.800811,-229.828649
21796.139053,518.144159,-8808.450710,-4443.353888
21796.139386,-2960.823768,-14285.974681,-2451.505594
21796.139719,-3256.906145,-11843.295072,-1608.800546
21796.140052,-1850.514855,-13027.624579,-3140.991542
21796.140385,-2294.638420,-7476.080014,0.000000
21796.140719,-2960.823768,-6587.832884,3294.210641
21796.141052,1110.308913,-5329.482782,1685.410096
21796.141385,3775.050304,-6809.894666,3907.087040
21796.141718,1924.535449,-10362.883188,5132.839837
21796.142051,2072.576638,-8586.388927,4060.306139
21796.142384,296.082377,-8660.409521,766.095498
21796.142718,518.144159,-11547.212695,-76.609550
21796.143051,-592.164754,-9992.780217,-689.485948
21796.143384,-1110.308913,-8734.430116,-2911.162892
21796.143717,-1628.453072,-11843.295072,-4366.744339
21796.144050,0.000000,-8290.306550,-2528.115143
21796.144383,0.000000,-10140.821405,4290.134789
21796.144716,2294.638420,-7105.977043,4213.525239
21796.145050,1406.391290,-10066.800811,1149.143247
21796.145383,2294.638420,-8882.471304,2374.896044
21796.145716,3923.091493,-9178.553681,2374.896044
21796.146049,814.226536,-8068.244768,383.047749
21796.146382,1924.535449,-9104.533087,612.876398
21796.146715,1406.391290,-7920.203579,0.000000
21796.147049,2294.638420,-12287.418637,2374.896044
21796.147382,-4737.318029,-8364.327145,-76.609550
21796.147715,-666.185348,-9474.636058,-4443.353888
21796.148048,-1480.411884,-5403.503377,-4290.134789
21796.148381,1184.329507,-10436.903782,919.314598
21796.148714,1702.473667,-8512.368333,919.314598
21796.149048,3997.112087,-7031.956449,3447.429741
21796.149381,4737.318029,-9844.739029,3600.648841
21796.149714,4589.276840,-10732.986159,2757.943793
21796.150047,1998.556043,-11843.295072,2068.457845
21796.150380,5107.421000,-9474.636058,2068.457845
21796.150713,1702.473667,-8364.327145,0.000000
21796.151047,2146.597232,-8882.471304,1149.143247
21796.151380,-2960.823768,-8660.409521,-4596.572988
21796.151713,-2368.659014,-8956.491898,-2145.067394
21796.152046,-1850.514855,-10955.047942,-3447.429741
21796.152379,-4811.338623,-12065.356855,-2068.457845
21796.152712,-3849.070898,-9474.636058,-536.266849
21796.153045,-3552.988522,-4811.338623,-2451.505594
21796.153379,4663.297435,-9474.636058,3294.210641
21796.153712,1480.411884,-4811.338623,4443.353888
21796.154045,1184.329507,-5403.503377,3370.820191
21796.154378,3478.967927,-9474.636058,2374.896044
21796.154711,296.082377,-11917.315666,1455.581446
21796.155044,-148.041188,-11103.089130,306.438199
21796.155378,-1406.391290,-11547.212695,-1915.238745
21796.155711,-740.205942,-9696.697840,-3064.381992
21796.156044,-1184.329507,-12065.356855,-76.609550
21796.156377,-74.020594,-6809.894666,-3983.696590
21796.156710,-3256.906145,-7476.080014,0.000000
21796.157043,2294.638420,-11251.130318,3600.648841
21796.157377,1110.308913,-7402.059420,2374.896044
21796.157710,296.082377,-9178.553681,4673.182538
21796.158043,1332.370696,-7105.977043,1991.848295
21796.158376,1628.453072,-7624.121203,1838.629195
21796.158709,888.247130,-8068.244768,1762.019645
21796.159042,-592.164754,-8956.491898,536.266849
21796.159376,-2294.638420,-9844.739029,-5209.449386
21796.159709,-2146.597232,-15174.221811,-4290.134789
21796.160042,-2072.576638,-11473.192101,-306.438199
21796.160375,-3034.844362,-8956.491898,-1685.410096
21796.160708,-2368.659014,-6883.915261,3524.039291
21796.161041,1702.473667,-7994.224174,3907.087040
21796.161374,1406.391290,-1850.514855,3064.381992
21796.161708,2368.659014,-6809.894666,5745.716235
21796.162041,4071.132681,-8290.306550,2221.676944
21796.162374,2220.617826,-9326.594869,2834.553343
21796.162707,-1850.514855,-10881.027347,-2451.505594
21796.163040,0.000000,-9548.656652,-4596.572988
21796.163373,-3256.906145,-13101.645173,-6128.763984
21796.163707,1184.329507,-13101.645173,-1608.800546
21796.164040,-74.020594,-8142.265362,-3983.696590
21796.164373,0.000000,-9548.656652,-2451.505594
21796.164706,3108.864956,-7105.977043,2374.896044
21796.165039,2960.823768,-7772.162391,1991.848295
21796.165372,4589.276840,-9474.636058,5745.716235
21796.165706,4145.153275,-6587.832884,4596.572988
21796.166039,3627.009116,-7179.997637,2451.505594
21796.166372,3182.885551,-9474.636058,1149.143247
21796.166705,0.000000,-11103.089130,-76.609550
21796.167038,4071.132681,-6291.750507,-4290.134789
21796.167371,-1184.329507,-15470.304188,-76.609550
21796.167705,3478.967927,-9474.636058,-2528.115143
21796.168038,-4811.338623,-14285.974681,-1838.629195
21796.168371,148.041188,-7105.977043,-2757.943793
21796.168704,-2072.576638,-11103.089130,1455.581446
21796.169037,1110.308913,-6365.771101,2987.772442
21796.169370,740.205942,-3627.009116,3677.258390
21796.169703,2738.761985,-7105.977043,6052.154434
21796.170037,2368.659014,-7179.997637,2451.505594
21796.170370,-148.041188,-11843.295072,2374.896044
21796.170703,0.000000,-8364.327145,0.000000
21796.171036,-2368.659014,-9030.512492,-1072.533697
21796.171369,-3034.844362,-11917.315666,-2911.162892
21796.171702,-1628.453072,-8142.265362,-2834.553343
21796.172036,-1776.494261,-10658.965565,-459.657299
21796.172369,-2368.659014,-8660.409521,-1685.410096
21796.172702,-74.020594,-8290.306550,-1072.533697
21796.173035,-2960.823768,-11843.295072,2834.553343
21796.173368,3478.967927,-9474.636058,4826.401637
21796.173701,148.041188,-7179.997637,3677.258390
21796.174035,296.082377,-7994.224174,3294.210641
21796.174368,0.000000,-8364.327145,766.095498
21796.174701,-1036.288319,-7994.224174,-842.705048
21796.175034,444.123565,-10362.883188,-612.876398
21796.175367,-3552.988522,-10732.986159,-2145.067394
21796.175700,-1850.514855,-10140.821405,-4443.353888
21796.176034,-1258.350101,-10658.965565,-2604.724693
21796.176367,-666.185348,-9326.594869,459.657299
21796.176700,-1110.308913,-7846.182985,1225.752797
21796.177033,0.000000,-4811.338623,3064.381992
21796.177366,2294.638420,-7105.977043,-536.266849
21796.177699,1924.535449,-8364.327145,3677.258390
21796.178032,1332.370696,-10658.965565,2374.896044
21796.178366,1702.473667,-9030.512492,-689.485948
21796.178699,0.000000,-10732.986159,612.876398
21796.179032,1036.288319,-9400.615463,-612.876398
21796.179365,-148.041188,-11843.295072,-1608.800546
21796.179698,-1628.453072,-9252.574275,-3983.696590
21796.180031,1554.432478,-10955.047942,995.924147
21796.180365,-74.020594,-7846.182985,0.000000
21796.180698,1924.535449,-5403.503377,612.876398
21796.181031,1110.308913,-9474.636058,2374.896044
21796.181364,3256.906145,-6291.750507,3217.601092
21796.181697,3849.070898,-8586.388927,4213.525239
21796.182030,2368.659014,-8956.491898,1225.752797
21796.182364,1036.288319,-10510.924376,-76.609550
21796.182697,444.123565,-10436.903782,-766.095498
21796.183030,2294.638420,-10955.047942,-76.609550
21796.183363,-74.020594,-5107.421000,-3677.258390
21796.183696,1110.308913,-11843.295072,-2528.115143
21796.184029,814.226536,-9474.636058,-2068.457845
21796.184363,0.000000,-8956.491898,-1225.752797
21796.184696,3478.967927,-11843.295072,-689.485948
21796.185029,0.000000,-9844.739029,2757.943793
21796.185362,2812.782580,-6587.832884,2451.505594
21796.185695,1332.370696,-8660.409521,4060.306139
21796.186028,296.082377,-5995.668130,2145.067394
21796.186361,1184.329507,-9252.574275,4903.011187
21796.186695,2294.638420,-9474.636058,1762.019645
21796.187028,-2368.659014,-7179.997637,0.000000
21796.187361,-4737.318029,-9548.656652,-919.314598
21796.187694,-74.020594,-9178.553681,-2221.676944
21796.188027,-3404.947333,-11621.233289,-1378.971896
21796.188360,-4367.215058,-9252.574275,-2604.724693
21796.188694,-4515.256246,-11769.274478,-1608.800546
21796.189027,-3552.988522,-7179.997637,0.000000
21796.189360,3552.988522,-7994.224174,4903.011187
21796.189693,2886.803174,-8290.306550,6052.154434
21796.190026,2368.659014,-3923.091493,2145.067394
21796.190359,2886.803174,-11695.253884,2987.772442
21796.190693,814.226536,-13915.871710,-76.609550
21796.191026,-1258.350101,-7772.162391,0.000000
21796.191359,-370.102971,-13027.624579,-1302.362347
21796.191692,-1554.432478,-8068.244768,-3370.820191
21796.192025,-3552.988522,-10881.027347,-1532.190996
21796.192358,-1776.494261,-8660.409521,-1072.533697
21796.192692,-2146.597232,-7031.956449,0.000000
21796.193025,-888.247130,-10658.965565,2068.457845
21796.193358,2886.803174,-8438.347739,6358.592633
21796.193691,0.000000,-7179.997637,5822.325785
21796.194024,0.000000,-4811.338623,4290.134789
21796.194357,4071.132681,-7994.224174,842.705048
21796.194690,1184.329507,-8290.306550,0.000000
21796.195024,1110.308913,-9474.636058,-689.485948
21796.195357,-74.020594,-10658.965565,-3907.087040
21796.195690,-2516.700203,-11843.295072,-4979.620737
21796.196023,-1480.411884,-9696.697840,-3600.648841
21796.196356,148.041188,-11399.171507,-612.876398
21796.196689,3478.967927,-9474.636058,2374.896044
21796.197023,1036.288319,-9474.636058,3064.381992
21796.197356,2294.638420,-11251.130318,842.705048
21796.197689,3552.988522,-5995.668130,3983.696590
21796.198022,4145.153275,-7179.997637,5209.449386
21796.198355,2886.803174,-7772.162391,3677.258390
21796.198688,444.123565,-8586.388927,842.705048
21796.199022,0.000000,-8660.409521,306.438199
21796.199355,592.164754,-5699.585753,-1838.629195
21796.199688,-1480.411884,-8660.409521,-4366.744339
21796.200021,814.226536,-13619.789333,-1915.238745
21796.200354,-1258.350101,-12731.542202,-1608.800546
21796.200687,0.000000,-8364.327145,612.876398
21796.201021,-74.020594,-14211.954086,2374.896044
21796.201354,296.082377,-9548.656652,1838.629195
21796.201687,1702.473667,-6365.771101,2987.772442
21796.202020,4663.297435,-7476.080014,4290.134789
21796.202353,3478.967927,-6587.832884,4979.620737
21796.202686,592.164754,-7846.182985,1225.752797
21796.203019,4071.132681,-9474.636058,1149.143247
21796.203352,-2368.659014,-8956.491898,-1225.752797
21796.203685,-4515.256246,-11325.150913,-6205.373534
21796.204018,-4145.153275,-11621.233289,-2298.286494
21796.204351,-2886.803174,-9474.636058,-4979.620737
21796.204685,-2368.659014,-10732.986159,1762.019645
21796.205018,-666.185348,-10362.883188,2374.896044
21796.205351,2294.638420,-8290.306550,1762.019645
21796.205684,296.082377,-7476.080014,7967.393179
21796.206017,2812.782580,-8068.244768,4749.792088
21796.206350,222.061783,-7698.141797,3907.087040
21796.206683,0.000000,-8660.409521,1302.362347
21796.207016,1554.432478,-9252.574275,229.828649
21796.207349,0.000000,-9548.656652,2604.724693
21796.207682,-1258.350101,-8882.471304,-4443.353888
21796.208015,-6809.894666,-7179.997637,-3677.258390
21796.208348,-1258.350101,-8808.450710,-3830.477490
21796.208682,-1258.350101,-13027.624579,-3140.991542
21796.209015,-1184.329507,-10436.903782,306.438199
21796.209348,-444.123565,-11251.130318,-2068.457845
21796.209681,2442.679609,-10658.965565,4519.963438
21796.210014,1776.494261,-9252.574275,6128.763984
21796.210347,2368.659014,-7179.997637,6281.983084
21796.210680,4071.132681,-4293.194464,2451.505594
21796.211013,1480.411884,-8956.491898,3983.696590
21796.211346,2294.638420,-7698.141797,-1608.800546
21796.211679,-4737.318029,-9548.656652,-4903.011187
21796.212012,-1776.494261,-10140.821405,-2834.553343
21796.212345,-1332.370696,-9474.636058,-2221.676944
21796.212679,-592.164754,-9474.636058,-1915.238745
21796.213012,-74.020594,-10658.965565,-689.485948
21796.213345,1184.329507,-7772.162391,1762.019645
21796.213678,4071.132681,-11843.295072,2068.457845
21796.214011,3256.906145,-9178.553681,4213.525239
21796.214344,4663.297435,-11251.130318,6052.154434
21796.214677,4663.297435,-8290.306550,3294.210641
21796.215010,4589.276840,-7179.997637,3370.820191
21796.215343,1184.329507,-10955.047942,459.657299
21796.215676,1998.556043,-7254.018232,-2221.676944
21796.216009,-2072.576638,-10732.986159,-4290.134789
21796.216342,-74.020594,-14211.954086,-3140.991542
21796.216675,-1776.494261,-9548.656652,-3677.258390
21796.217009,-1924.535449,-13027.624579,1149.143247
21796.217342,1554.432478,-5995.668130,306.438199
21796.217675,-2368.659014,-7772.162391,2145.067394
21796.218008,1184.329507,-5699.585753,4060.306139
21796.218341,962.267725,-5255.462188,2068.457845
21796.218674,1776.494261,-11547.212695,3907.087040
21796.219007,2368.659014,-9474.636058,5362.668486
21796.219340,-2442.679609,-7179.997637,-2451.505594
21796.219673,-2664.741391,-10658.965565,-2528.115143
21796.220006,-1258.350101,-13619.789333,-1915.238745
21796.220339,-2738.761985,-10140.821405,-2451.505594
21796.220672,148.041188,-4367.215058,-2145.067394
21796.221006,148.041188,-9696.697840,766.095498
21796.221339,2442.679609,-10066.800811,1762.019645
21796.221672,2368.659014,-8438.347739,4213.525239
21796.222005,2294.638420,-10658.965565,3294.210641
21796.222338,2294.638420,-8364.327145,306.438199
21796.222671,518.144159,-11473.192101,1149.143247
21796.223004,-1776.494261,-10732.986159,919.314598
21796.223337,592.164754,-5699.585753,-689.485948
21796.223670,-2368.659014,-10362.883188,76.609550
21796.224003,-74.020594,-5181.441594,-4060.306139
21796.224336,-7105.977043,-11325.150913,612.876398
21796.224669,1554.432478,-9474.636058,-1915.238745
21796.225002,-2738.761985,-10362.883188,229.828649
21796.225336,296.082377,-8956.491898,5209.449386
21796.225669,5625.565159,-6143.709319,5515.887586
21796.226002,1776.494261,-8068.244768,4290.134789
21796.226335,2960.823768,-6587.832884,459.657299
21796.226668,-222.061783,-12435.459826,-76.609550
21796.227001,-814.226536,-9696.697840,-4596.572988
21796.227334,1110.308913,-11843.295072,-76.609550
21796.227667,-74.020594,-11843.295072,-3140.991542
21796.228000,-2664.741391,-7476.080014,-3677.258390
21796.228333,-1850.514855,-9474.636058,-2528.115143
21796.228666,1480.411884,-6883.915261,-459.657299
21796.228999,74.020594,-9844.739029,1838.629195
21796.229333,1776.494261,-7550.100608,1072.533697
21796.229666,1554.432478,-10510.924376,2681.334243
21796.229999,3775.050304,-4811.338623,3677.258390
21796.230332,6439.791695,-8882.471304,5745.716235
21796.230665,1776.494261,-4811.338623,-1838.629195
21796.230998,1184.329507,-9548.656652,-1378.971896
21796.231331,1702.473667,-11103.089130,-5515.887586
21796.231664,2220.617826,-15248.242405,-3140.991542
21796.231997,-2368.659014,-13323.706956,612.876398
21796.232330,0.000000,-7031.956449,-1302.362347
21796.232663,-1628.453072,-8068.244768,612.876398
21796.232996,0.000000,-6513.812290,2451.505594
21796.233330,1702.473667,-9474.636058,2374.896044
21796.233663,2294.638420,-3923.091493,4903.011187
21796.233996,0.000000,-7179.997637,4826.401637
21796.234329,-74.020594,-9474.636058,229.828649
21796.234662,0.000000,-9474.636058,-1149.143247
21796.234995,-1850.514855,-12139.377449,-612.876398
21796.235328,-962.267725,-10955.047942,-3524.039291
21796.235661,-2072.576638,-11621.233289,-3064.381992
21796.235994,-3256.906145,-10214.842000,-2528.115143
21796.236327,74.020594,-7031.956449,-76.609550
21796.236660,1406.391290,-7772.162391,3907.087040
21796.236993,-74.020594,-7105.977043,2987.772442
21796.237326,1184.329507,-7698.141797,3600.648841
21796.237660,0.000000,-8364.327145,4903.011187
21796.237993,3182.885551,-10066.800811,4673.182538
21796.238326,-2072.576638,-4811.338623,1225.752797
21796.238659,1702.473667,-10362.883188,-1302.362347
21796.238992,1554.432478,-10362.883188,842.705048
21796.239325,-3404.947333,-9548.656652,-1762.019645
21796.239658,-1924.535449,-10140.821405,-4826.401637
21796.239991,-3034.844362,-11103.089130,-3447.429741
21796.240324,-74.020594,-10955.047942,-1685.410096
21796.240657,0.000000,-7179.997637,3830.477490
21796.240990,-370.102971,-7698.141797,-1072.533697
21796.241323,370.102971,-8882.471304,-842.705048
21796.241657,0.000000,-8364.327145,3983.696590
21796.241990,2886.803174,-9474.636058,1915.238745
21796.242323,814.226536,-11251.130318,2221.676944
21796.242656,1998.556043,-9326.594869,2221.676944
21796.242989,4663.297435,-9992.780217,2911.162892
21796.243322,3182.885551,-3552.988522,2681.334243
21796.243655,1406.391290,-10658.965565,-76.609550
21796.243988,1110.308913,-6513.812290,-5592.497135
21796.244321,-2960.823768,-11029.068536,-4290.134789
21796.244654,-1332.370696,-13323.706956,-842.705048
21796.244987,-2442.679609,-11251.130318,-2528.115143
21796.245320,-2812.782580,-9548.656652,-1072.533697
21796.245653,2294.638420,-8142.265362,3140.991542
21796.245987,222.061783,-6587.832884,3370.820191
21796.246320,4737.318029,-6735.874072,4903.011187
21796.246653,4071.132681,-7402.059420,842.705048
21796.246986,4737.318029,-9548.656652,612.876398
21796.247319,2960.823768,-11843.295072,4826.401637
21796.247652,3775.050304,-8290.306550,-995.924147
21796.247985,2516.700203,-9474.636058,-1608.800546
21796.248318,-814.226536,-10288.862594,-2374.896044
21796.248651,1258.350101,-8290.306550,-4749.792088
21796.248984,740.205942,-10955.047942,-2298.286494
21796.249317,3478.967927,-14211.954086,-76.609550
21796.249650,-666.185348,-8364.327145,2451.505594
21796.249984,0.000000,-7846.182985,4213.525239
21796.250317,1110.308913,-9474.636058,3600.648841
21796.250650,0.000000,-5403.503377,2451.505594
21796.250983,2590.720797,-7105.977043,2681.334243
21796.251316,-2442.679609,-7772.162391,76.609550
21796.251649,1036.288319,-6587.832884,-1991.848295
21796.251982,-3330.926739,-11843.295072,-1225.752797
21796.252315,-1258.350101,-9474.636058,-3140.991542
21796.252648,-4145.153275,-9696.697840,-3830.477490
21796.252981,-2738.761985,-10955.047942,-2528.115143
21796.253314,0.000000,-9844.739029,0.000000
21796.253647,-3552.988522,-9548.656652,1838.629195
21796.253981,5107.421000,-9178.553681,4826.401637
21796.254314,3775.050304,-7772.162391,4903.011187
21796.254647,0.000000,-8364.327145,7967.393179
21796.254980,2294.638420,-6809.894666,2068.457845
21796.255313,-1480.411884,-8956.491898,0.000000
21796.255646,2072.576638,-7624.121203,-1072.533697
21796.255979,-1110.308913,-11103.089130,-383.047749
21796.256312,-2738.761985,-8734.430116,-4136.915689
21796.256645,-2294.638420,-9474.636058,-3753.867940
21796.256978,-3552.988522,-12805.562797,-76.609550
21796.257311,-3923.091493,-7772.162391,-3370.820191
21796.257644,-5625.565159,-10436.903782,0.000000
21796.257977,2294.638420,-9474.636058,2374.896044
21796.258311,2368.659014,-8068.244768,3064.381992
21796.258644,5551.544565,-9770.718434,7967.393179
21796.258977,3552.988522,-7031.956449,4903.011187
21796.259310,2664.741391,-6291.750507,1685.410096
21796.259643,2146.597232,-10658.965565,-1302.362347
21796.259976,-888.247130,-13249.686362,-1608.800546
21796.260309,-1406.391290,-9548.656652,-4903.011187
21796.260642,1480.411884,-9548.656652,383.047749
21796.260975,3701.029710,-10881.027347,2374.896044
21796.261308,-74.020594,-8290.306550,2374.896044
21796.261641,-1924.535449,-8586.388927,-1378.971896
21796.261974,3478.967927,-6587.832884,689.485948
21796.262308,-1036.288319,-12583.501014,1991.848295
21796.262641,-2368.659014,-8364.327145,612.876398
21796.262974,-74.020594,-8882.471304,1149.143247
21796.263307,0.000000,-8364.327145,2451.505594
21796.263640,4071.132681,-7105.977043,2987.772442
21796.263973,1406.391290,-3923.091493,-2451.505594
21796.264306,-2368.659014,-8364.327145,-4136.915689
21796.264639,0.000000,-9696.697840,-3677.258390
21796.264972,2220.617826,-13027.624579,-1762.019645
21796.265305,444.123565,-11325.150913,0.000000
21796.265638,6587.832884,-12435.459826,4826.401637
21796.265971,3478.967927,-7179.997637,2451.505594
21796.266304,7105.977043,-8586.388927,4213.525239
21796.266638,4663.297435,-13027.624579,-76.609550
21796.266971,0.000000,-11325.150913,5515.887586
21796.267304,1776.494261,-7179.997637,1302.362347
21796.267637,-2960.823768,-9770.718434,2221.676944
21796.267970,-2294.638420,-6587.832884,-919.314598
21796.268303,-4959.379811,-8586.388927,-2604.724693
21796.268636,-1332.370696,-5921.647536,-76.609550
21796.268969,-4219.173869,-7476.080014,-3677.258390
21796.269302,-3997.112087,-8586.388927,-2528.115143
21796.269635,-814.226536,-7920.203579,536.266849
21796.269968,-3256.906145,-13693.809927,1455.581446
21796.270301,3552.988522,-7328.038826,3983.696590
21796.270635,-1850.514855,-13027.624579,-1225.752797
21796.270968,2368.659014,-8956.491898,5822.325785
21796.271301,3478.967927,-8290.306550,919.314598
21796.271634,1776.494261,-9474.636058,2757.943793
21796.271967,2664.741391,-5995.668130,1685.410096
21796.272300,-1406.391290,-12287.418637,766.095498
21796.272633,-666.185348,-8438.347739,-612.876398
21796.272966,-5773.606348,-6957.935855,-4596.572988
21796.273299,-4811.338623,-12435.459826,-2528.115143
21796.273632,-2442.679609,-6439.791695,-3064.381992
21796.273965,1332.370696,-12287.418637,3294.210641
21796.274298,2738.761985,-7698.141797,3600.648841
21796.274632,-1332.370696,-7476.080014,0.000000
21796.274965,4515.256246,-9474.636058,3294.210641
21796.275298,0.000000,-8660.409521,0.000000
21796.275631,2294.638420,-11843.295072,76.609550
21796.275964,0.000000,-10584.944971,2451.505594
21796.276297,296.082377,-6217.729913,-2374.896044
21796.276630,0.000000,-4811.338623,1225.752797
21796.276963,-74.020594,-8882.471304,-76.609550
21796.277296,3478.967927,-9474.636058,-76.609550
21796.277629,-666.185348,-9252.574275,-1149.143247
21796.277962,1110.308913,-10362.883188,-1149.143247
21796.278295,-370.102971,-10362.883188,1455.581446
21796.278628,3108.864956,-9252.574275,3064.381992
21796.278962,4885.359217,-6439.791695,3370.820191
21796.279295,1924.535449,-6587.832884,1225.752797
21796.279628,2960.823768,-8512.368333,-76.609550
21796.279961,-74.020594,-9548.656652,-6128.763984
21796.280294,0.000000,-12509.480420,-2068.457845
21796.280627,-74.020594,-11843.295072,-76.609550
21796.280960,814.226536,-9696.697840,-2374.896044
21796.281293,3627.009116,-7105.977043,1762.019645
21796.281626,296.082377,-8956.491898,2681.334243
21796.281959,6661.853478,-6143.709319,2604.724693
21796.282292,3849.070898,-11917.315666,3983.696590
21796.282625,4737.318029,-10658.965565,5362.668486
21796.282959,1628.453072,-8512.368333,2298.286494
21796.283292,-1184.329507,-10732.986159,1149.143247
21796.283625,2294.638420,-8290.306550,-76.609550
21796.283958,-3256.906145,-10658.965565,-3753.867940
21796.284291,-4737.318029,-7772.162391,-2451.505594
21796.284624,-3627.009116,-9474.636058,-5592.497135
21796.284957,-2442.679609,-8660.409521,-2298.286494
21796.285290,-370.102971,-8290.306550,2374.896044
21796.285623,-2442.679609,-9474.636058,842.705048
21796.285956,-518.144159,-8586.388927,1762.019645
21796.286289,1702.473667,-9104.533087,3677.258390
21796.286622,2812.782580,-8808.450710,5209.449386
21796.286955,4071.132681,-9474.636058,4213.525239
21796.287289,0.000000,-8364.327145,3064.381992
21796.287622,2146.597232,-11843.295072,-76.609550
21796.287955,0.000000,-8364.327145,-3064.381992
21796.288288,-5921.647536,-9548.656652,-5056.230287
21796.288621,-2738.761985,-9992.780217,-6128.763984
21796.288954,-2442.679609,-11251.130318,-995.924147
21796.289287,-3034.844362,-9474.636058,612.876398
21796.289620,-2590.720797,-5625.565159,1225.752797
21796.289953,-1554.432478,-6513.812290,2221.676944
21796.290286,5551.544565,-8290.306550,7890.783629
21796.290619,-74.020594,-8364.327145,2451.505594
21796.290952,0.000000,-10140.821405,3907.087040
21796.291286,148.041188,-10658.965565,2451.505594
21796.291619,592.164754,-5995.668130,2451.505594
21796.291952,222.061783,-7550.100608,-2068.457845
21796.292285,-4737.318029,-11843.295072,-4366.744339
21796.292618,-3997.112087,-7476.080014,-8120.612279
21796.292951,-6513.812290,-11917.315666,-6741.640382
21796.293284,-666.185348,-11843.295072,-3447.429741
21796.293617,-1258.350101,-7105.977043,-1302.362347
21796.293950,1776.494261,-9844.739029,7967.393179
21796.294283,8216.285956,-4737.318029,7277.907231
21796.294616,2516.700203,-8734.430116,6971.469032
21796.294949,6883.915261,-6883.915261,4979.620737
21796.295283,5181.441594,-8586.388927,2604.724693
21796.295616,3182.885551,-11843.295072,1072.533697
21796.295949,2664.741391,-9770.718434,-459.657299
21796.296282,-1850.514855,-10066.800811,-7890.783629
21796.296615,0.000000,-9548.656652,-2604.724693
21796.296948,-1184.329507,-11325.150913,-76.609550
21796.297281,-74.020594,-8882.471304,-2528.115143
21796.297614,3552.988522,-8364.327145,1302.362347
21796.297947,2146.597232,-12139.377449,4060.306139
21796.298280,4663.297435,-5625.565159,5132.839837
21796.298613,888.247130,-9918.759623,3907.087040
21796.298946,5329.482782,-9548.656652,4826.401637
21796.299279,3923.091493,-10436.903782,3907.087040
21796.299613,1406.391290,-8512.368333,0.000000
21796.299946,3256.906145,-5699.585753,-2911.162892
21796.300279,-1406.391290,-9548.656652,-4903.011187
21796.300612,296.082377,-10140.821405,0.000000
21796.300945,-74.020594,-7994.224174,-2528.115143
21796.301278,-1850.514855,-10362.883188,-4903.011187
21796.301611,-2368.659014,-10584.944971,153.219100
21796.301944,-666.185348,-13027.624579,2987.772442
21796.302277,1184.329507,-5625.565159,4826.401637
21796.302610,962.267725,-7624.121203,3140.991542
21796.302943,2738.761985,-7846.182985,5822.325785
21796.303276,888.247130,-9548.656652,4290.134789
21796.303609,0.000000,-5403.503377,2451.505594
21796.303942,-4737.318029,-8956.491898,-3524.039291
21796.304275,-2442.679609,-11843.295072,-3140.991542
21796.304608,-4589.276840,-7179.997637,-3064.381992
21796.304941,-4145.153275,-7772.162391,-1915.238745
21796.305274,-74.020594,-9474.636058,-3753.867940
21796.305607,-2368.659014,-8364.327145,0.000000
21796.305940,-370.102971,-10658.965565,1762.019645
21796.306273,1406.391290,-9474.636058,3447.429741
21796.306607,0.000000,-11917.315666,6588.421283
21796.306940,1702.473667,-10362.883188,1455.581446
21796.307273,0.000000,-8364.327145,7507.735880
21796.307606,2294.638420,-9178.553681,2987.772442
21796.307939,-222.061783,-8364.327145,612.876398
21796.308272,-2738.761985,-7550.100608,-1762.019645
21796.308605,-4959.379811,-9030.512492,-4366.744339
21796.308938,-4071.132681,-7179.997637,-3600.648841
21796.309271,-5699.585753,-12287.418637,-5209.449386
21796.309604,-1036.288319,-9474.636058,-76.609550
21796.309937,-3552.988522,-7772.162391,0.000000
21796.310270,1184.329507,-7772.162391,1762.019645
21796.310603,4663.297435,-9474.636058,4213.525239
21796.310936,2886.803174,-9770.718434,1608.800546
21796.311269,4811.338623,-9622.677246,3217.601092
21796.311602,1332.370696,-9548.656652,2298.286494
21796.311935,5995.668130,-7550.100608,842.705048
21796.312268,0.000000,-8364.327145,306.438199
21796.312601,4071.132681,-8290.306550,-3447.429741
21796.312934,0.000000,-7179.997637,-76.609550
21796.313267,5329.482782,-7179.997637,2068.457845
21796.313600,2294.638420,-8956.491898,-3677.258390
21796.313933,740.205942,-11177.109724,-1302.362347
21796.314266,3182.885551,-12287.418637,-1225.752797
21796.314599,5181.441594,-12287.418637,2987.772442
21796.314932,6143.709319,-12435.459826,3064.381992
21796.315265,3108.864956,-8660.409521,4903.011187
21796.315598,4663.297435,-7254.018232,153.219100
21796.315931,2368.659014,-10436.903782,3140.991542
21796.316264,0.000000,-5107.421000,-1072.533697
21796.316597,-2368.659014,-7328.038826,-3677.258390
21796.316930,-2960.823768,-6587.832884,0.000000
21796.317263,-1332.370696,-9474.636058,-3140.991542
21796.317597,-3552.988522,-7179.997637,0.000000
21796.317930,-666.185348,-10362.883188,-1302.362347
21796.318263,3478.967927,-8586.388927,1455.581446
21796.318596,0.000000,-12213.398043,4903.011187
21796.318929,1628.453072,-9548.656652,1685.410096
21796.319262,-74.020594,-10214.842000,842.705048
21796.319595,1554.432478,-8438.347739,383.047749
21796.319928,3775.050304,-8512.368333,4749.792088
21796.320261,-1850.514855,-11843.295072,-76.609550
21796.320594,0.000000,-7476.080014,0.000000
21796.320927,-4811.338623,-12435.459826,-1302.362347
21796.321260,-2812.782580,-8660.409521,-2451.505594
21796.321593,-5921.647536,-8364.327145,842.705048
21796.321926,-2664.741391,-9474.636058,612.876398
21796.322259,-592.164754,-7550.100608,2298.286494
21796.322592,-1850.514855,-9918.759623,1915.238745
21796.322925,1998.556043,-10658.965565,4213.525239
21796.323258,-74.020594,-7698.141797,0.000000
21796.323591,2368.659014,-9770.718434,3907.087040
21796.323924,-1850.514855,-13027.624579,-76.609550
21796.324257,-4293.194464,-5403.503377,-4903.011187
21796.324590,-4811.338623,-14804.118840,-3753.867940
21796.324923,-5181.441594,-8660.409521,-3524.039291
21796.325256,-3923.091493,-9030.512492,-1149.143247
21796.325589,-3478.967927,-6883.915261,-995.924147
21796.325922,0.000000,-4811.338623,1225.752797
21796.326255,0.000000,-7179.997637,2451.505594
21796.326588,8216.285956,-9474.636058,5439.278036
21796.326921,74.020594,-8364.327145,612.876398
21796.327254,1184.329507,-12509.480420,2451.505594
21796.327587,3478.967927,-9474.636058,-383.047749
21796.327920,2664.741391,-11325.150913,1149.143247
21796.328254,4219.173869,-8290.306550,-229.828649
21796.328587,2368.659014,-8290.306550,-842.705048
21796.328920,0.000000,-8364.327145,-2298.286494
21796.329253,666.185348,-5625.565159,-3753.867940
21796.329586,370.102971,-11769.274478,-2834.553343
21796.329919,4367.215058,-8808.450710,459.657299
21796.330252,7105.977043,-11251.130318,5975.544884
21796.330585,8808.450710,-11251.130318,6052.154434
21796.330918,8808.450710,-6957.935855,3753.867940
21796.331251,7698.141797,-10288.862594,5362.668486
21796.331584,8216.285956,-10658.965565,2681.334243
21796.331917,1184.329507,-8068.244768,-2145.067394
21796.332250,-148.041188,-13619.789333,-4979.620737
21796.332583,-666.185348,-9326.594869,-4060.306139
21796.332916,-2886.803174,-10732.986159,-4596.572988
21796.333249,-2590.720797,-10658.965565,-3753.867940
21796.333582,0.000000,-6587.832884,1532.190996
