#time,accel_x,accel_y,accel_z
19390.419297,11177.109724,-11251.130318,4826.401637
19390.419630,8512.368333,-8364.327145,1838.629195
19390.419964,7698.141797,-8364.327145,1225.752797
19390.420298,6957.935855,-8512.368333,-1838.629195
19390.420632,6291.750507,-10584.944971,-3064.381992
19390.420965,4959.379811,-9770.718434,-3217.601092
19390.421299,5255.462188,-10510.924376,-3140.991542
19390.421633,3404.947333,-8364.327145,-3753.867940
19390.421966,5329.482782,-10214.842000,2068.457845
19390.422300,9104.533087,-11251.130318,6052.154434
19390.422634,6291.750507,-5995.668130,4903.011187
19390.422967,9400.615463,-9474.636058,6588.421283
19390.423301,5921.647536,-8956.491898,4290.134789
19390.423635,4811.338623,-9030.512492,2528.115143
19390.423968,3478.967927,-8882.471304,229.828649
19390.424302,296.082377,-10436.903782,-2528.115143
19390.424636,-3256.906145,-9844.739029,-4290.134789
19390.424969,-2664.741391,-12435.459826,-2834.553343
19390.425303,-4515.256246,-9548.656652,-4903.011187
19390.425637,-6291.750507,-8956.491898,-4903.011187
19390.425971,-4145.153275,-10214.842000,612.876398
19390.426304,-2368.659014,-8512.368333,4290.134789
19390.426638,1406.391290,-6365.771101,6358.592633
19390.426972,3627.009116,-6439.791695,7277.907231
19390.427305,3627.009116,-6217.729913,7354.516781
19390.427639,2664.741391,-5403.503377,4290.134789
19390.427973,4071.132681,-7328.038826,689.485948
19390.428306,1776.494261,-9474.636058,-2681.334243
19390.428640,444.123565,-10436.903782,-5286.058936
19390.428974,-74.020594,-11843.295072,-5592.497135
19390.429307,1702.473667,-10807.006753,-6511.811733
19390.429641,592.164754,-12731.542202,-4290.134789
19390.429975,2072.576638,-12879.583391,-383.047749
19390.430308,1850.514855,-11029.068536,766.095498
19390.430642,4737.318029,-8956.491898,7507.735880
19390.430976,4737.318029,-6735.874072,6741.640382
19390.431310,5699.585753,-7105.977043,7277.907231
19390.431643,5181.441594,-6143.709319,6665.030833
19390.431977,2664.741391,-5329.482782,3140.991542
19390.432311,3182.885551,-5403.503377,-2451.505594
19390.432644,2072.576638,-9474.636058,-1915.238745
19390.432978,-74.020594,-11547.212695,-4366.744339
19390.433312,222.061783,-8586.388927,-7048.078582
19390.433645,518.144159,-11843.295072,-5592.497135
19390.433979,1776.494261,-12139.377449,-3830.477490
19390.434313,1702.473667,-13101.645173,-1532.190996
19390.434646,2220.617826,-12435.459826,229.828649
19390.434980,0.000000,-11917.315666,1225.752797
19390.435314,814.226536,-9548.656652,0.000000
19390.435647,4071.132681,-9474.636058,4826.401637
19390.435981,2294.638420,-4367.215058,4903.011187
19390.436315,0.000000,-4811.338623,6128.763984
19390.436649,1258.350101,-4811.338623,2987.772442
19390.436982,2072.576638,-6809.894666,2374.896044
19390.437316,3701.029710,-5699.585753,689.485948
19390.437650,3404.947333,-6883.915261,-1762.019645
19390.437983,4737.318029,-8956.491898,-3677.258390
19390.438317,3775.050304,-9844.739029,-4596.572988
19390.438651,3182.885551,-10732.986159,-5515.887586
19390.438984,3256.906145,-14656.077652,-2528.115143
19390.439318,2886.803174,-15988.448347,-3140.991542
19390.439652,0.000000,-13397.727550,-2451.505594
19390.439985,-74.020594,-11251.130318,-612.876398
19390.440319,-370.102971,-8734.430116,2681.334243
19390.440653,1702.473667,-5625.565159,5056.230287
19390.440986,4071.132681,-3849.070898,6665.030833
19390.441320,2960.823768,-4589.276840,8503.660028
19390.441654,3478.967927,-4441.235652,3447.429741
19390.441988,1406.391290,-7328.038826,0.000000
19390.442321,0.000000,-9548.656652,153.219100
19390.442655,-3552.988522,-11917.315666,-3677.258390
19390.442989,-4885.359217,-14359.995275,-6205.373534
19390.443322,-5995.668130,-14211.954086,-5056.230287
19390.443656,-8586.388927,-13693.809927,-2834.553343
19390.443990,-7179.997637,-12435.459826,-383.047749
19390.444323,-7105.977043,-10362.883188,2834.553343
19390.444657,-3627.009116,-5107.421000,4903.011187
19390.444991,0.000000,-2664.741391,7584.345430
19390.445324,3256.906145,-1258.350101,7354.516781
19390.445658,4071.132681,-3552.988522,4826.401637
19390.445992,1184.329507,-3627.009116,-2451.505594
19390.446325,1776.494261,-8364.327145,-1378.971896
19390.446659,-74.020594,-11251.130318,-6205.373534
19390.446993,-3552.988522,-13101.645173,-7967.393179
19390.447327,-666.185348,-15988.448347,-7431.126331
19390.447660,-3330.926739,-15766.386565,-4060.306139
19390.447994,-888.247130,-12435.459826,-612.876398
19390.448328,666.185348,-9474.636058,3294.210641
19390.448661,3478.967927,-6513.812290,3600.648841
19390.448995,3552.988522,-4811.338623,8810.098227
19390.449329,5921.647536,-5403.503377,7277.907231
19390.449662,2886.803174,-4885.359217,153.219100
19390.449996,592.164754,-7476.080014,0.000000
19390.450330,1110.308913,-9178.553681,-2911.162892
19390.450663,-1702.473667,-10510.924376,-3140.991542
19390.450997,-3404.947333,-12509.480420,-3677.258390
19390.451331,-3108.864956,-12361.439231,-2374.896044
19390.451664,-3108.864956,-9844.739029,0.000000
19390.451998,592.164754,-10732.986159,5898.935335
19390.452332,3478.967927,-8290.306550,3907.087040
19390.452666,3182.885551,-5107.421000,1225.752797
19390.452999,3478.967927,-9474.636058,4213.525239
19390.453333,1480.411884,-5995.668130,0.000000
19390.453667,1480.411884,-7994.224174,-1072.533697
19390.454000,2072.576638,-8290.306550,-2451.505594
19390.454334,1702.473667,-10140.821405,-1838.629195
19390.454668,888.247130,-9548.656652,0.000000
19390.455001,3478.967927,-12287.418637,2374.896044
19390.455335,2294.638420,-9178.553681,0.000000
19390.455669,2368.659014,-7179.997637,306.438199
19390.456002,6957.935855,-11103.089130,6665.030833
19390.456336,4663.297435,-7772.162391,2757.943793
19390.456670,2368.659014,-9474.636058,612.876398
19390.457003,-1110.308913,-11325.150913,-2374.896044
19390.457337,-2146.597232,-10584.944971,-4290.134789
19390.457671,-4589.276840,-9696.697840,-5515.887586
19390.458005,-3330.926739,-9770.718434,-4136.915689
19390.458338,-3330.926739,-9770.718434,-612.876398
19390.458672,-2368.659014,-8290.306550,1685.410096
19390.459006,-74.020594,-7105.977043,3907.087040
19390.459339,2294.638420,-5403.503377,4903.011187
19390.459673,3552.988522,-6291.750507,8044.002729
19390.460007,4367.215058,-8290.306550,3600.648841
19390.460340,296.082377,-8068.244768,1225.752797
19390.460674,-74.020594,-11843.295072,-2528.115143
19390.461008,-3627.009116,-11621.233289,-6665.030833
19390.461341,-3627.009116,-12509.480420,-7048.078582
19390.461675,-5329.482782,-12953.603985,-6281.983084
19390.462009,-6809.894666,-9548.656652,-4903.011187
19390.462342,-3034.844362,-10214.842000,-1915.238745
19390.462676,0.000000,-6883.915261,6971.469032
19390.463010,4663.297435,-4145.153275,7890.783629
19390.463344,7031.956449,-3849.070898,9193.145976
19390.463677,5625.565159,-2664.741391,9729.412825
19390.464011,4293.194464,-6143.709319,4979.620737
19390.464345,1406.391290,-9178.553681,-2374.896044
19390.464678,-3849.070898,-11769.274478,-7890.783629
19390.465012,-7698.141797,-14137.933492,-9806.022374
19390.465346,-7179.997637,-13471.748144,-12257.527968
19390.465679,-6365.771101,-15396.283594,-5592.497135
19390.466013,-5403.503377,-12435.459826,-3753.867940
19390.466347,-3552.988522,-7476.080014,1378.971896
19390.466680,3552.988522,-5403.503377,9806.022374
19390.467014,7846.182985,-3256.906145,13636.499864
19390.467348,9622.677246,-2960.823768,12334.137518
19390.467681,9474.636058,-3775.050304,9039.926876
19390.468015,7624.121203,-7698.141797,3600.648841
19390.468348,2960.823768,-8364.327145,-4290.134789
19390.468682,1998.556043,-13027.624579,-8656.879127
19390.469015,-2442.679609,-14952.160028,-13253.452115
19390.469349,-5921.647536,-15174.221811,-11338.213370
19390.469682,-3627.009116,-16580.613101,-7431.126331
19390.470015,-2664.741391,-13841.851115,-2681.334243
19390.470349,2368.659014,-9992.780217,4826.401637
19390.470682,6809.894666,-5033.400406,11338.213370
19390.471016,9474.636058,-3182.885551,13713.109414
19390.471349,11251.130318,-4663.297435,14555.814462
19390.471683,6809.894666,-2442.679609,7967.393179
19390.472016,4663.297435,-8290.306550,1762.019645
19390.472350,-1776.494261,-8364.327145,-3677.258390
19390.472683,-5107.421000,-11843.295072,-9882.631924
19390.473017,-7328.038826,-13619.789333,-12027.699319
19390.473350,-9548.656652,-12879.583391,-9806.022374
19390.473684,-8438.347739,-12583.501014,-5362.668486
19390.474017,-5847.626942,-10436.903782,-612.876398
19390.474351,-74.020594,-9474.636058,6358.592633
19390.474684,4145.153275,-5181.441594,10035.851024
19390.475018,6217.729913,-4737.318029,10035.851024
19390.475351,5773.606348,-5625.565159,7048.078582
19390.475685,3552.988522,-5699.585753,2757.943793
19390.476018,1184.329507,-8660.409521,459.657299
19390.476352,1110.308913,-9918.759623,-5592.497135
19390.476685,-5255.462188,-9548.656652,-9806.022374
19390.477019,-6217.729913,-14804.118840,-7737.564530
19390.477352,-6143.709319,-11177.109724,-6205.373534
19390.477686,-3034.844362,-10658.965565,-2068.457845
19390.478019,0.000000,-9104.533087,2834.553343
19390.478353,4145.153275,-8364.327145,7354.516781
19390.478686,7402.059420,-7105.977043,11031.775171
19390.479020,4737.318029,-7179.997637,9729.412825
19390.479353,2294.638420,-7328.038826,919.314598
19390.479687,0.000000,-8660.409521,0.000000
19390.480020,-1258.350101,-11547.212695,-2528.115143
19390.480354,-4737.318029,-10436.903782,-4903.011187
19390.480687,-8068.244768,-10214.842000,-6818.249932
19390.481021,-9104.533087,-10881.027347,-3677.258390
19390.481354,-4811.338623,-7402.059420,-1762.019645
19390.481688,-1850.514855,-6809.894666,1455.581446
19390.482021,2960.823768,-6809.894666,8197.221829
19390.482354,4367.215058,-4811.338623,6128.763984
19390.482688,7402.059420,-7846.182985,7584.345430
19390.483021,5255.462188,-8290.306550,1455.581446
19390.483355,4515.256246,-10510.924376,-1455.581446
19390.483688,3701.029710,-10955.047942,-3140.991542
19390.484022,444.123565,-12805.562797,-4903.011187
19390.484355,-962.267725,-12731.542202,-6205.373534
19390.484689,-4737.318029,-11917.315666,-4290.134789
19390.485022,-666.185348,-9474.636058,-1915.238745
19390.485356,1036.288319,-5403.503377,612.876398
19390.485689,4737.318029,-6587.832884,7584.345430
19390.486023,6439.791695,-5181.441594,5515.887586
19390.486356,4737.318029,-8364.327145,9039.926876
19390.486690,5181.441594,-8438.347739,3983.696590
19390.487023,1628.453072,-8956.491898,-919.314598
19390.487357,148.041188,-11621.233289,-3447.429741
19390.487690,-1332.370696,-12731.542202,-4060.306139
19390.488024,-3034.844362,-13027.624579,-4979.620737
19390.488357,-6809.894666,-9548.656652,-4903.011187
19390.488691,-4589.276840,-10658.965565,-1225.752797
19390.489024,-74.020594,-9474.636058,1149.143247
19390.489358,0.000000,-3701.029710,3064.381992
19390.489691,4071.132681,-5921.647536,5439.278036
19390.490025,3034.844362,-6587.832884,4826.401637
19390.490358,2960.823768,-9104.533087,3217.601092
19390.490692,3182.885551,-8808.450710,1149.143247
19390.491025,2294.638420,-10362.883188,-1608.800546
19390.491359,370.102971,-11769.274478,-4290.134789
19390.491692,-1924.535449,-11843.295072,-4290.134789
19390.492026,-4071.132681,-11621.233289,-3983.696590
19390.492359,-3256.906145,-9844.739029,0.000000
19390.492693,-1258.350101,-8290.306550,842.705048
19390.493026,0.000000,-4811.338623,1685.410096
19390.493360,1184.329507,-7328.038826,7277.907231
19390.493693,1702.473667,-7105.977043,2987.772442
19390.494026,-666.185348,-6143.709319,0.000000
19390.494360,-740.205942,-10658.965565,-76.609550
19390.494693,-1628.453072,-8956.491898,-2298.286494
19390.495027,-3034.844362,-11547.212695,-1915.238745
19390.495360,-2442.679609,-14211.954086,-1302.362347
19390.495694,-3034.844362,-11843.295072,-2528.115143
19390.496027,-4737.318029,-9844.739029,1991.848295
19390.496361,-222.061783,-8586.388927,2987.772442
19390.496694,2886.803174,-7105.977043,4213.525239
19390.497028,3182.885551,-5625.565159,4903.011187
19390.497361,3775.050304,-6217.729913,2528.115143
19390.497695,2886.803174,-8290.306550,229.828649
19390.498028,2294.638420,-8808.450710,-3140.991542
19390.498362,0.000000,-10140.821405,-3677.258390
19390.498695,1702.473667,-9548.656652,-7354.516781
19390.499029,1702.473667,-14211.954086,-2528.115143
19390.499362,740.205942,-12287.418637,-2374.896044
19390.499696,1110.308913,-8956.491898,0.000000
19390.500029,2812.782580,-8290.306550,3600.648841
19390.500363,5477.523971,-6735.874072,5822.325785
19390.500696,4737.318029,-5699.585753,5515.887586
19390.501030,4737.318029,-6291.750507,4060.306139
19390.501363,3108.864956,-8068.244768,612.876398
19390.501697,-1850.514855,-8364.327145,-3677.258390
19390.502030,-148.041188,-11251.130318,-3753.867940
19390.502364,-2442.679609,-11029.068536,-6052.154434
19390.502697,-3552.988522,-12213.398043,-4290.134789
19390.503031,-3997.112087,-10732.986159,-2298.286494
19390.503364,-1406.391290,-10955.047942,2374.896044
19390.503698,592.164754,-7920.203579,5592.497135
19390.504031,3849.070898,-4959.379811,7584.345430
19390.504365,6439.791695,-6513.812290,8503.660028
19390.504698,2368.659014,-6587.832884,6052.154434
19390.505032,1110.308913,-6957.935855,-1378.971896
19390.505365,222.061783,-7179.997637,-4903.011187
19390.505698,-2368.659014,-12731.542202,-4979.620737
19390.506032,-2664.741391,-11917.315666,-8273.831378
19390.506365,-2664.741391,-13619.789333,-5132.839837
19390.506699,-1702.473667,-12287.418637,-2528.115143
19390.507032,0.000000,-9844.739029,1685.410096
19390.507366,4071.132681,-9474.636058,7277.907231
19390.507699,5329.482782,-6809.894666,9422.974625
19390.508033,5477.523971,-5033.400406,8656.879127
19390.508366,4441.235652,-5699.585753,5362.668486
19390.508700,1036.288319,-7698.141797,229.828649
19390.509033,-666.185348,-9474.636058,-2834.553343
19390.509367,-5921.647536,-9548.656652,-8886.707777
19390.509700,-8290.306550,-13397.727550,-6205.373534
19390.510034,-7920.203579,-11843.295072,-8656.879127
19390.510367,-8882.471304,-10732.986159,-4290.134789
19390.510701,-2812.782580,-10955.047942,1762.019645
19390.511034,-888.247130,-7031.956449,7201.297681
19390.511368,2960.823768,-5699.585753,9959.241474
19390.511701,5773.606348,-4219.173869,11031.775171
19390.512035,6735.874072,-4737.318029,7890.783629
19390.512368,3552.988522,-5403.503377,5209.449386
19390.512702,3478.967927,-9474.636058,-76.609550
19390.513035,-370.102971,-8660.409521,-8273.831378
19390.513369,-2368.659014,-11917.315666,-8273.831378
19390.513702,-3034.844362,-12805.562797,-10418.898773
19390.514036,-4293.194464,-13841.851115,-7737.564530
19390.514369,-2664.741391,-13989.892304,-2528.115143
19390.514703,1702.473667,-9252.574275,2987.772442
19390.515036,4737.318029,-5699.585753,7354.516781
19390.515370,7105.977043,-6291.750507,14019.547613
19390.515703,9400.615463,-4589.276840,10342.289223
19390.516037,5847.626942,-3627.009116,4903.011187
19390.516370,4663.297435,-7846.182985,2374.896044
19390.516704,-2368.659014,-8068.244768,-4136.915689
19390.517037,-5033.400406,-11251.130318,-8656.879127
19390.517370,-7476.080014,-11991.336260,-10112.460574
19390.517704,-7476.080014,-12879.583391,-8350.440928
19390.518037,-7698.141797,-11917.315666,-4903.011187
19390.518371,-666.185348,-13619.789333,3294.210641
19390.518704,2294.638420,-7994.224174,6205.373534
19390.519038,5625.565159,-5107.421000,9806.022374
19390.519371,9400.615463,-8142.265362,13100.233016
19390.519705,7031.956449,-4219.173869,6281.983084
19390.520038,4959.379811,-6587.832884,2068.457845
19390.520372,4367.215058,-9178.553681,-2681.334243
19390.520705,-1036.288319,-11695.253884,-5898.935335
19390.521039,-4737.318029,-12213.398043,-9806.022374
19390.521372,-5995.668130,-12509.480420,-9039.926876
19390.521706,-5847.626942,-12953.603985,-5669.106685
19390.522039,-3182.885551,-10436.903782,-1302.362347
19390.522373,814.226536,-8882.471304,4826.401637
19390.522706,6439.791695,-4441.235652,8273.831378
19390.523040,7105.977043,-4515.256246,12180.918418
19390.523373,7994.224174,-7105.977043,9729.412825
19390.523707,4071.132681,-6957.935855,3294.210641
19390.524040,-74.020594,-9474.636058,-995.924147
19390.524374,-3923.091493,-10214.842000,-6741.640382
19390.524707,-7846.182985,-12879.583391,-9576.193725
19390.525041,-9770.718434,-12213.398043,-9729.412825
19390.525374,-11547.212695,-10140.821405,-7354.516781
19390.525708,-5403.503377,-10510.924376,-3677.258390
19390.526041,-2368.659014,-10214.842000,5745.716235
19390.526375,2960.823768,-4589.276840,8427.050478
19390.526708,7031.956449,-2442.679609,9806.022374
19390.527042,6513.812290,-3627.009116,9193.145976
19390.527375,6143.709319,-6439.791695,3677.258390
19390.527709,5107.421000,-8586.388927,383.047749
19390.528042,2738.761985,-10658.965565,-3447.429741
19390.528376,1110.308913,-13027.624579,-5286.058936
19390.528709,-4811.338623,-11621.233289,-11644.651570
19390.529042,-3627.009116,-17172.777854,-8044.002729
19390.529376,-4367.215058,-10807.006753,-5515.887586
19390.529709,0.000000,-9548.656652,306.438199
19390.530043,3404.947333,-7846.182985,6435.202183
19390.530376,6217.729913,-4515.256246,8810.098227
19390.530710,7550.100608,-5847.626942,11184.994271
19390.531043,6365.771101,-5847.626942,7507.735880
19390.531377,4663.297435,-8290.306550,2374.896044
19390.531710,0.000000,-8660.409521,0.000000
19390.532044,-666.185348,-11251.130318,-5898.935335
19390.532377,-4811.338623,-9548.656652,-9193.145976
19390.532711,-8290.306550,-13101.645173,-6588.421283
19390.533044,-5403.503377,-12731.542202,-4979.620737
19390.533378,-3627.009116,-10288.862594,-689.485948
19390.533711,74.020594,-7698.141797,3600.648841
19390.534045,2368.659014,-6809.894666,5975.544884
19390.534378,5995.668130,-6069.688724,7277.907231
19390.534712,6735.874072,-9474.636058,9116.536426
19390.535045,4959.379811,-6143.709319,1838.629195
19390.535379,3552.988522,-9696.697840,1225.752797
19390.535712,3478.967927,-11843.295072,-3753.867940
19390.536046,-1554.432478,-11843.295072,-5209.449386
19390.536379,-3552.988522,-11547.212695,-5592.497135
19390.536713,-4071.132681,-11473.192101,-3907.087040
19390.537046,-1406.391290,-9474.636058,-229.828649
19390.537380,1258.350101,-7105.977043,3447.429741
19390.537713,4219.173869,-7105.977043,6052.154434
19390.538047,4071.132681,-7105.977043,5669.106685
19390.538380,3552.988522,-7179.997637,3677.258390
19390.538714,2146.597232,-8512.368333,1532.190996
19390.539047,-666.185348,-8660.409521,-3370.820191
19390.539381,-2220.617826,-11843.295072,-3140.991542
19390.539714,-3034.844362,-14211.954086,-3753.867940
19390.540048,-8290.306550,-10140.821405,-2451.505594
19390.540381,-4293.194464,-10214.842000,-1455.581446
19390.540714,-1554.432478,-9178.553681,842.705048
19390.541048,0.000000,-6587.832884,3830.477490
19390.541381,1998.556043,-5403.503377,5439.278036
19390.541715,3627.009116,-5625.565159,4903.011187
19390.542048,1480.411884,-7179.997637,2757.943793
19390.542382,3552.988522,-10955.047942,2987.772442
19390.542715,2886.803174,-8660.409521,-2451.505594
19390.543049,0.000000,-11917.315666,-383.047749
19390.543382,666.185348,-13619.789333,-4213.525239
19390.543716,-1554.432478,-11029.068536,-4596.572988
19390.544049,-1554.432478,-11399.171507,-1608.800546
19390.544383,-74.020594,-9474.636058,76.609550
19390.544716,1406.391290,-7920.203579,3907.087040
19390.545050,3849.070898,-6513.812290,7048.078582
19390.545383,5921.647536,-8142.265362,9116.536426
19390.545717,1406.391290,-4811.338623,3677.258390
19390.546050,1924.535449,-8734.430116,3600.648841
19390.546384,962.267725,-10510.924376,-2528.115143
19390.546717,-2368.659014,-8660.409521,-2451.505594
19390.547051,-2072.576638,-11769.274478,-3983.696590
19390.547384,-3404.947333,-13545.768739,-2911.162892
19390.547718,-2812.782580,-11695.253884,-919.314598
19390.548051,-1258.350101,-10066.800811,2068.457845
19390.548385,3182.885551,-8882.471304,3600.648841
19390.548718,444.123565,-4811.338623,3677.258390
19390.549052,2960.823768,-7105.977043,4826.401637
19390.549385,2886.803174,-7105.977043,1149.143247
19390.549719,2294.638420,-9326.594869,-76.609550
19390.550052,592.164754,-9252.574275,-2757.943793
19390.550386,444.123565,-11843.295072,-3600.648841
19390.550719,518.144159,-12361.439231,-3140.991542
19390.551053,-2072.576638,-10140.821405,-3600.648841
19390.551386,-666.185348,-10140.821405,-3064.381992
19390.551720,2368.659014,-9548.656652,612.876398
19390.552053,3552.988522,-8512.368333,7890.783629
19390.552386,5255.462188,-5255.462188,5515.887586
19390.552720,4663.297435,-7476.080014,6665.030833
19390.553053,1406.391290,-7179.997637,1685.410096
19390.553387,-1036.288319,-7328.038826,-1838.629195
19390.553720,-3108.864956,-9548.656652,-5132.839837
19390.554054,-6513.812290,-9548.656652,-7354.516781
19390.554387,-5995.668130,-12287.418637,-6741.640382
19390.554721,-5921.647536,-11547.212695,-3447.429741
19390.555054,-4515.256246,-11251.130318,459.657299
19390.555388,-1776.494261,-9400.615463,4213.525239
19390.555721,888.247130,-4959.379811,7584.345430
19390.556055,6735.874072,-7105.977043,12180.918418
19390.556388,6439.791695,-3923.091493,7048.078582
19390.556722,4441.235652,-7328.038826,3677.258390
19390.557055,2886.803174,-8882.471304,-766.095498
19390.557389,-1628.453072,-9844.739029,-4903.011187
19390.557722,-1850.514855,-11991.336260,-8886.707777
19390.558056,-3478.967927,-14211.954086,-8656.879127
19390.558389,-4441.235652,-13693.809927,-7354.516781
19390.558723,-2960.823768,-12509.480420,-2451.505594
19390.559056,1110.308913,-8438.347739,1838.629195
19390.559390,3330.926739,-5403.503377,6128.763984
19390.559723,8216.285956,-6513.812290,11874.480219
19390.560057,8216.285956,-4737.318029,9729.412825
19390.560390,5921.647536,-5995.668130,7890.783629
19390.560724,1184.329507,-6883.915261,1225.752797
19390.561057,-1924.535449,-9474.636058,-4673.182538
19390.561391,-5033.400406,-10955.047942,-7354.516781
19390.561724,-5255.462188,-13027.624579,-7431.126331
19390.562058,-7179.997637,-11251.130318,-9806.022374
19390.562391,-6439.791695,-11917.315666,-4903.011187
19390.562725,-1628.453072,-12731.542202,3600.648841
19390.563058,0.000000,-5995.668130,5209.449386
19390.563392,5847.626942,-6513.812290,9269.755526
19390.563725,6809.894666,-5255.462188,10035.851024
19390.564058,5477.523971,-5773.606348,7431.126331
19390.564392,4663.297435,-6735.874072,2528.115143
19390.564725,1998.556043,-9474.636058,-2834.553343
19390.565059,-3108.864956,-9548.656652,-7048.078582
19390.565392,-2590.720797,-13619.789333,-8044.002729
19390.565726,-4811.338623,-10955.047942,-10495.508323
19390.566059,-7105.977043,-10732.986159,-7354.516781
19390.566393,-370.102971,-11843.295072,-1915.238745
19390.566726,1776.494261,-8808.450710,5286.058936
19390.567060,6143.709319,-6217.729913,8810.098227
19390.567393,8660.409521,-5477.523971,9422.974625
19390.567727,8216.285956,-7698.141797,9729.412825
19390.568060,4441.235652,-7846.182985,4826.401637
19390.568394,888.247130,-7624.121203,-1149.143247
19390.568727,-3404.947333,-10807.006753,-6281.983084
19390.569061,-7105.977043,-12065.356855,-8580.269578
19390.569394,-8290.306550,-13323.706956,-7431.126331
19390.569728,-7476.080014,-11843.295072,-7814.174080
19390.570061,-7328.038826,-9548.656652,-3677.258390
19390.570395,-2220.617826,-9178.553681,3600.648841
19390.570728,1998.556043,-5995.668130,7354.516781
19390.571062,6735.874072,-4811.338623,11874.480219
19390.571395,7920.203579,-4737.318029,10189.070123
19390.571729,7031.956449,-5477.523971,3064.381992
19390.572062,6957.935855,-9474.636058,3294.210641
19390.572395,2886.803174,-11547.212695,-2528.115143
19390.572729,-2368.659014,-10732.986159,-8580.269578
19390.573062,-4737.318029,-13915.871710,-8656.879127
19390.573396,-5551.544565,-15988.448347,-8656.879127
19390.573729,-4145.153275,-12213.398043,-4290.134789
19390.574063,-2220.617826,-9474.636058,689.485948
19390.574396,2812.782580,-7031.956449,5975.544884
19390.574730,6365.771101,-5625.565159,10648.727422
19390.575063,9104.533087,-4737.318029,11568.042020
19390.575397,7179.997637,-7105.977043,9116.536426
19390.575730,2442.679609,-6291.750507,1838.629195
19390.576064,1480.411884,-10510.924376,-383.047749
19390.576397,-3256.906145,-11251.130318,-5898.935335
19390.576731,-5107.421000,-12287.418637,-8656.879127
19390.577064,-8216.285956,-11769.274478,-9346.365076
19390.577398,-7994.224174,-13323.706956,-5209.449386
19390.577731,-4737.318029,-10140.821405,-1225.752797
19390.578065,-2960.823768,-8364.327145,2451.505594
19390.578398,4663.297435,-7105.977043,5439.278036
19390.578732,5921.647536,-7179.997637,9806.022374
19390.579065,8290.306550,-7698.141797,9729.412825
19390.579399,5847.626942,-5995.668130,2757.943793
19390.579732,3552.988522,-8660.409521,612.876398
19390.580065,3256.906145,-9844.739029,-1608.800546
19390.580399,-296.082377,-11843.295072,-4749.792088
19390.580732,-3330.926739,-11843.295072,-8044.002729
19390.581066,-3923.091493,-14211.954086,-4366.744339
19390.581399,-4219.173869,-8364.327145,-4290.134789
19390.581733,962.267725,-9474.636058,2374.896044
19390.582066,2294.638420,-8290.306550,4519.963438
19390.582400,2368.659014,-5403.503377,7967.393179
19390.582733,3849.070898,-7179.997637,6511.811733
19390.583067,3404.947333,-6587.832884,3753.867940
19390.583400,1850.514855,-8438.347739,-229.828649
19390.583734,-1110.308913,-11103.089130,-2298.286494
19390.584067,-2442.679609,-13619.789333,-2528.115143
19390.584401,-6957.935855,-11029.068536,-5822.325785
19390.584734,-6809.894666,-11843.295072,-5132.839837
19390.585068,-5329.482782,-10658.965565,-383.047749
19390.585401,-2960.823768,-7920.203579,2987.772442
19390.585735,1184.329507,-6587.832884,6741.640382
19390.586068,2886.803174,-5625.565159,4443.353888
19390.586402,2960.823768,-4811.338623,4903.011187
19390.586735,5847.626942,-9474.636058,3600.648841
19390.587068,3330.926739,-7920.203579,0.000000
19390.587402,2368.659014,-10140.821405,-995.924147
19390.587735,1184.329507,-11695.253884,-3983.696590
19390.588069,-1332.370696,-11843.295072,-5362.668486
19390.588402,-2442.679609,-11991.336260,-4903.011187
19390.588736,-2294.638420,-11843.295072,-1915.238745
19390.589069,-666.185348,-7772.162391,0.000000
19390.589403,1184.329507,-7031.956449,3064.381992
19390.589736,4293.194464,-7698.141797,6052.154434
19390.590070,2886.803174,-6069.688724,4290.134789
19390.590403,3849.070898,-8808.450710,4213.525239
19390.590737,962.267725,-8956.491898,919.314598
19390.591070,0.000000,-9104.533087,-1532.190996
19390.591404,-1924.535449,-10732.986159,-3677.258390
19390.591737,-3182.885551,-11843.295072,-3753.867940
19390.592071,-5107.421000,-8364.327145,-4290.134789
19390.592404,-2368.659014,-11547.212695,-76.609550
19390.592738,-74.020594,-11251.130318,2374.896044
19390.593071,444.123565,-5995.668130,3064.381992
19390.593405,2886.803174,-6513.812290,3830.477490
19390.593738,2664.741391,-6069.688724,2145.067394
19390.594071,1702.473667,-8734.430116,459.657299
19390.594405,2294.638420,-9030.512492,-1149.143247
19390.594738,296.082377,-9844.739029,-2757.943793
19390.595072,296.082377,-11769.274478,-1838.629195
19390.595405,1702.473667,-13619.789333,-3753.867940
19390.595739,-740.205942,-9696.697840,-2451.505594
19390.596072,-2072.576638,-8364.327145,2757.943793
19390.596406,3478.967927,-8290.306550,2374.896044
19390.596739,3256.906145,-6957.935855,5286.058936
19390.597073,3775.050304,-6809.894666,4213.525239
19390.597406,1850.514855,-6957.935855,2374.896044
19390.597740,0.000000,-7772.162391,-1225.752797
19390.598073,-2812.782580,-9992.780217,-3983.696590
19390.598407,-3108.864956,-10658.965565,-5898.935335
19390.598740,-3627.009116,-11917.315666,-4366.744339
19390.599074,-3034.844362,-14211.954086,-1915.238745
19390.599407,-4811.338623,-12731.542202,-1608.800546
19390.599741,-4145.153275,-7772.162391,3677.258390
19390.600074,296.082377,-8512.368333,7354.516781
19390.600408,4959.379811,-6513.812290,8503.660028
19390.600741,4663.297435,-5329.482782,7660.954980
19390.601074,4293.194464,-6661.853478,4826.401637
19390.601408,1406.391290,-7105.977043,-76.609550
19390.601741,1628.453072,-9252.574275,-3753.867940
19390.602075,-296.082377,-11769.274478,-6358.592633
19390.602408,-1776.494261,-12583.501014,-6435.202183
19390.602742,-4737.318029,-12509.480420,-4596.572988
19390.603075,-962.267725,-14211.954086,-3753.867940
19390.603409,-74.020594,-13027.624579,-76.609550
19390.603742,2886.803174,-8142.265362,6052.154434
19390.604076,6365.771101,-7105.977043,9269.755526
19390.604409,6587.832884,-4885.359217,10265.679673
19390.604743,5403.503377,-5255.462188,6358.592633
19390.605076,2368.659014,-6661.853478,2374.896044
19390.605410,-74.020594,-9474.636058,-1915.238745
19390.605743,-3552.988522,-11029.068536,-4903.011187
19390.606077,-4811.338623,-13619.789333,-9882.631924
19390.606410,-7328.038826,-12213.398043,-8886.707777
19390.606744,-6513.812290,-11325.150913,-3983.696590
19390.607077,-3330.926739,-10807.006753,0.000000
19390.607411,296.082377,-9474.636058,4979.620737
19390.607744,4367.215058,-6365.771101,8350.440928
19390.608078,6587.832884,-5921.647536,9729.412825
19390.608411,5995.668130,-3330.926739,5822.325785
19390.608744,4145.153275,-7698.141797,4060.306139
19390.609078,1406.391290,-9474.636058,-2528.115143
19390.609411,-3552.988522,-10140.821405,-3907.087040
19390.609745,-666.185348,-13619.789333,-6894.859482
19390.610078,-6217.729913,-12509.480420,-8273.831378
19390.610412,-4663.297435,-12805.562797,-6588.421283
19390.610745,-2220.617826,-12287.418637,-612.876398
19390.611079,2146.597232,-8068.244768,4749.792088
19390.611412,3849.070898,-5995.668130,7967.393179
19390.611746,9400.615463,-7105.977043,9729.412825
19390.612079,4737.318029,-4811.338623,8580.269578
19390.612413,4737.318029,-7179.997637,7277.907231
19390.612746,2738.761985,-9178.553681,-689.485948
19390.613080,-4737.318029,-9548.656652,-6128.763984
19390.613413,-7328.038826,-11843.295072,-9499.584175
19390.613747,-7994.224174,-12435.459826,-9729.412825
19390.614080,-8734.430116,-12953.603985,-6818.249932
19390.614414,-8290.306550,-10140.821405,-2451.505594
19390.614747,-1850.514855,-10436.903782,3907.087040
19390.615081,2812.782580,-5995.668130,9193.145976
19390.615414,6957.935855,-4441.235652,11951.089769
19390.615747,9400.615463,-5921.647536,11874.480219
19390.616081,6883.915261,-4219.173869,6128.763984
19390.616414,5033.400406,-8290.306550,3600.648841
19390.616748,3478.967927,-8882.471304,-6128.763984
19390.617081,-2368.659014,-12213.398043,-8656.879127
19390.617415,-3849.070898,-14285.974681,-9882.631924
19390.617748,-5477.523971,-13101.645173,-9806.022374
19390.618082,-4737.318029,-13767.830521,-5745.716235
19390.618415,-1924.535449,-11103.089130,0.000000
19390.618749,1184.329507,-6365.771101,4749.792088
19390.619082,5699.585753,-2738.761985,11031.775171
19390.619416,9400.615463,-5921.647536,13713.109414
19390.619749,9400.615463,-7105.977043,9422.974625
19390.620083,4589.276840,-4811.338623,3677.258390
19390.620416,814.226536,-9474.636058,-76.609550
19390.620750,-2960.823768,-9696.697840,-6588.421283
19390.621083,-7624.121203,-12065.356855,-10418.898773
19390.621417,-8956.491898,-13101.645173,-11261.603821
19390.621750,-8882.471304,-13101.645173,-6741.640382
19390.622084,-5403.503377,-9844.739029,-3677.258390
19390.622417,-74.020594,-11251.130318,3294.210641
19390.622750,3627.009116,-5699.585753,7660.954980
19390.623084,6513.812290,-4811.338623,12257.527968
19390.623417,6809.894666,-4071.132681,9116.536426
19390.623751,5699.585753,-7402.059420,4826.401637
19390.624084,4145.153275,-7624.121203,229.828649
19390.624418,1110.308913,-10658.965565,-3294.210641
19390.624751,-74.020594,-11843.295072,-6205.373534
19390.625085,-7105.977043,-11325.150913,-8273.831378
19390.625418,-5403.503377,-15396.283594,-7431.126331
19390.625752,-3923.091493,-9548.656652,-4290.134789
19390.626085,-1184.329507,-8956.491898,306.438199
19390.626419,3256.906145,-7105.977043,6435.202183
19390.626752,5625.565159,-6439.791695,8580.269578
19390.627086,7031.956449,-5699.585753,9422.974625
19390.627419,4811.338623,-6957.935855,4903.011187
19390.627753,1998.556043,-8290.306550,-1149.143247
19390.628086,962.267725,-11843.295072,-1302.362347
19390.628420,-5033.400406,-11621.233289,-5515.887586
19390.628753,-9474.636058,-10732.986159,-7048.078582
19390.629087,-6587.832884,-13027.624579,-7431.126331
19390.629420,-5477.523971,-10881.027347,-3677.258390
19390.629754,-1850.514855,-8438.347739,2068.457845
19390.630087,740.205942,-6143.709319,5515.887586
19390.630420,4367.215058,-5625.565159,7507.735880
19390.630754,6143.709319,-6365.771101,8350.440928
19390.631087,7476.080014,-7328.038826,6818.249932
19390.631421,5033.400406,-7624.121203,1685.410096
19390.631754,3997.112087,-9622.677246,-1532.190996
19390.632088,1776.494261,-11473.192101,-4213.525239
19390.632421,-666.185348,-12731.542202,-6511.811733
19390.632755,-4441.235652,-13545.768739,-6128.763984
19390.633088,-4071.132681,-14211.954086,-4979.620737
19390.633422,-3330.926739,-9548.656652,-2451.505594
19390.633755,0.000000,-5995.668130,2451.505594
19390.634089,4071.132681,-5921.647536,5132.839837
19390.634422,4737.318029,-4959.379811,7660.954980
19390.634756,5107.421000,-7698.141797,7890.783629
19390.635089,2960.823768,-6587.832884,3677.258390
19390.635423,666.185348,-7179.997637,-1149.143247
19390.635756,-1184.329507,-12879.583391,-1302.362347
19390.636090,-2738.761985,-13027.624579,-4979.620737
19390.636423,-7105.977043,-10140.821405,-6128.763984
19390.636757,-4589.276840,-12509.480420,-1915.238745
19390.637090,-4663.297435,-9548.656652,-1532.190996
19390.637423,-1628.453072,-8068.244768,2451.505594
19390.637757,1850.514855,-6217.729913,4290.134789
19390.638090,3256.906145,-6513.812290,5209.449386
19390.638424,2368.659014,-5995.668130,3677.258390
19390.638757,4441.235652,-11251.130318,4826.401637
19390.639091,2812.782580,-7476.080014,0.000000
19390.639424,0.000000,-8364.327145,-1838.629195
19390.639758,814.226536,-13915.871710,-2528.115143
19390.640091,-2368.659014,-11029.068536,-3983.696590
19390.640425,-2072.576638,-11103.089130,-2911.162892
19390.640758,-592.164754,-10807.006753,-76.609550
19390.641092,370.102971,-7698.141797,2374.896044
19390.641425,2886.803174,-7920.203579,6052.154434
19390.641759,4071.132681,-8290.306550,2987.772442
19390.642092,0.000000,-6291.750507,2451.505594
19390.642426,1702.473667,-9474.636058,-76.609550
19390.642759,-74.020594,-10658.965565,-2528.115143
19390.643093,-2368.659014,-9548.656652,-1838.629195
19390.643426,-2442.679609,-11621.233289,-2757.943793
19390.643760,-3775.050304,-12509.480420,-1378.971896
19390.644093,-3182.885551,-10436.903782,689.485948
19390.644426,-74.020594,-8882.471304,4596.572988
19390.644760,1628.453072,-6513.812290,4903.011187
19390.645093,2960.823768,-5477.523971,5822.325785
19390.645427,2886.803174,-5403.503377,4060.306139
19390.645760,2590.720797,-4219.173869,0.000000
19390.646094,0.000000,-7772.162391,-612.876398
19390.646427,2886.803174,-11251.130318,-4979.620737
19390.646761,0.000000,-9548.656652,-7354.516781
19390.647094,0.000000,-13175.665768,-3830.477490
19390.647428,-962.267725,-13027.624579,-4673.182538
19390.647761,-1184.329507,-11473.192101,0.000000
19390.648095,1406.391290,-9622.677246,2987.772442
19390.648428,3701.029710,-6735.874072,6358.592633
19390.648762,4737.318029,-5699.585753,8120.612279
19390.649095,5255.462188,-5033.400406,3677.258390
19390.649429,4367.215058,-8882.471304,3600.648841
19390.649762,0.000000,-6587.832884,-1225.752797
19390.650096,-4737.318029,-9548.656652,-3370.820191
19390.650429,-4589.276840,-9548.656652,-6128.763984
19390.650763,-4589.276840,-12953.603985,-4366.744339
19390.651096,-4515.256246,-11843.295072,-3830.477490
19390.651429,-3330.926739,-11473.192101,-995.924147
19390.651763,-74.020594,-11547.212695,4826.401637
19390.652096,0.000000,-6291.750507,6128.763984
19390.652430,4663.297435,-5921.647536,6052.154434
19390.652763,2738.761985,-4811.338623,6128.763984
19390.653097,3330.926739,-7105.977043,3677.258390
19390.653430,1998.556043,-7994.224174,-306.438199
19390.653764,0.000000,-9474.636058,-2834.553343
19390.654097,-2146.597232,-11103.089130,-5592.497135
19390.654431,-3034.844362,-12361.439231,-6588.421283
19390.654764,-2960.823768,-13175.665768,-4903.011187
19390.655098,-3552.988522,-10732.986159,-153.219100
19390.655431,1702.473667,-8734.430116,1225.752797
19390.655765,4663.297435,-6809.894666,4903.011187
19390.656098,6513.812290,-7031.956449,9729.412825
19390.656432,7031.956449,-5625.565159,7277.907231
19390.656765,5107.421000,-7550.100608,4366.744339
19390.657099,0.000000,-7624.121203,-1455.581446
19390.657432,-2812.782580,-10288.862594,-5132.839837
19390.657766,-4367.215058,-10881.027347,-7660.954980
19390.658099,-5403.503377,-14211.954086,-7431.126331
19390.658433,-8290.306550,-10732.986159,-7048.078582
19390.658766,-5033.400406,-12509.480420,0.000000
19390.659099,-74.020594,-11695.253884,4519.963438
19390.659433,2294.638420,-6513.812290,6665.030833
19390.659766,6735.874072,-6217.729913,10648.727422
19390.660100,7254.018232,-4515.256246,9882.631924
19390.660433,6809.894666,-5181.441594,7354.516781
19390.660767,5255.462188,-6587.832884,1455.581446
19390.661100,3404.947333,-10066.800811,-4060.306139
19390.661434,-1184.329507,-11325.150913,-8580.269578
19390.661767,-2960.823768,-12805.562797,-10418.898773
19390.662101,-4367.215058,-13915.871710,-9729.412825
19390.662434,-5773.606348,-11917.315666,-7967.393179
19390.662768,-592.164754,-12953.603985,1149.143247
19390.663101,5551.544565,-10658.965565,8197.221829
19390.663435,6439.791695,-4219.173869,9806.022374
19390.663768,7698.141797,-4811.338623,11951.089769
19390.664102,8808.450710,-5329.482782,8197.221829
19390.664435,3701.029710,-6661.853478,4826.401637
19390.664769,0.000000,-7846.182985,-1455.581446
19390.665102,-4293.194464,-10214.842000,-6665.030833
19390.665436,-7994.224174,-11621.233289,-9806.022374
19390.665769,-8290.306550,-13767.830521,-6818.249932
19390.666102,-7772.162391,-11695.253884,-7814.174080
19390.666436,-6587.832884,-10732.986159,-4903.011187
19390.666769,-2960.823768,-9844.739029,3677.258390
19390.667103,2220.617826,-5995.668130,7660.954980
19390.667436,6217.729913,-5403.503377,10572.117872
19390.667770,6513.812290,-5107.421000,9039.926876
19390.668103,6143.709319,-6217.729913,6511.811733
19390.668437,4367.215058,-8142.265362,3294.210641
19390.668770,3478.967927,-13027.624579,-689.485948
19390.669104,-3923.091493,-9844.739029,-8273.831378
19390.669437,-5921.647536,-11917.315666,-9806.022374
19390.669771,-6809.894666,-13841.851115,-6818.249932
19390.670104,-4737.318029,-11029.068536,-2528.115143
19390.670438,-2368.659014,-9548.656652,1225.752797
19390.670771,2368.659014,-7179.997637,5898.935335
19390.671104,6883.915261,-5847.626942,10495.508323
19390.671438,5995.668130,-4737.318029,8963.317327
19390.671771,6439.791695,-5255.462188,3294.210641
19390.672104,2368.659014,-8364.327145,3600.648841
19390.672438,-814.226536,-9104.533087,-3140.991542
19390.672771,-3627.009116,-9548.656652,-9193.145976
19390.673105,-8734.430116,-11103.089130,-8810.098227
19390.673438,-7179.997637,-15396.283594,-8044.002729
19390.673771,-7031.956449,-11177.109724,-4290.134789
19390.674105,-3108.864956,-9030.512492,919.314598
19390.674438,1332.370696,-8290.306550,7507.735880
19390.674771,2960.823768,-4811.338623,9806.022374
19390.675105,9400.615463,-4737.318029,12180.918418
19390.675438,8216.285956,-4737.318029,5286.058936
19390.675771,5921.647536,-7476.080014,3677.258390
19390.676105,5181.441594,-8586.388927,-1302.362347
19390.676438,2146.597232,-11325.150913,-5056.230287
19390.676771,-888.247130,-13027.624579,-8656.879127
19390.677105,-5699.585753,-13693.809927,-10878.556072
19390.677438,-4145.153275,-14804.118840,-5975.544884
19390.677771,-3552.988522,-9548.656652,-1532.190996
19390.678105,592.164754,-8216.285956,3064.381992
19390.678438,3256.906145,-6439.791695,6971.469032
19390.678772,6957.935855,-5329.482782,9959.241474
19390.679105,7105.977043,-5107.421000,9806.022374
19390.679438,3849.070898,-4811.338623,1225.752797
19390.679772,4663.297435,-9474.636058,-76.609550
19390.680105,-2220.617826,-8660.409521,-2451.505594
19390.680438,-3034.844362,-13027.624579,-4366.744339
19390.680772,-5403.503377,-11843.295072,-6511.811733
19390.681105,-8734.430116,-12509.480420,-6281.983084
19390.681438,-5699.585753,-10955.047942,-2911.162892
19390.681772,-3701.029710,-8364.327145,1225.752797
19390.682105,1110.308913,-8290.306550,4826.401637
19390.682438,0.000000,-4811.338623,6128.763984
19390.682772,2368.659014,-7179.997637,8197.221829
19390.683105,5255.462188,-6513.812290,4136.915689
19390.683438,296.082377,-5995.668130,612.876398
19390.683772,3182.885551,-9474.636058,-1302.362347
19390.684105,0.000000,-10658.965565,-2451.505594
19390.684439,-3182.885551,-11029.068536,-4443.353888
19390.684772,-3256.906145,-10510.924376,-4903.011187
19390.685105,-2442.679609,-10658.965565,-2528.115143
19390.685439,-2960.823768,-7476.080014,1225.752797
19390.685772,2812.782580,-7105.977043,5056.230287
19390.686105,7031.956449,-7105.977043,3600.648841
19390.686439,2960.823768,-7772.162391,5515.887586
19390.686772,2886.803174,-8808.450710,842.705048
19390.687105,1332.370696,-9104.533087,-459.657299
19390.687439,-370.102971,-10214.842000,-2834.553343
19390.687772,-2294.638420,-11991.336260,-2451.505594
19390.688105,-4219.173869,-10140.821405,-3677.258390
19390.688439,-4737.318029,-11029.068536,2221.676944
19390.688772,-1850.514855,-8290.306550,-766.095498
19390.689105,-1184.329507,-5995.668130,1225.752797
19390.689439,2368.659014,-6143.709319,7201.297681
19390.689772,4663.297435,-3627.009116,3217.601092
19390.690106,4293.194464,-6957.935855,3447.429741
19390.690439,3552.988522,-8364.327145,0.000000
19390.690772,3182.885551,-10140.821405,-2068.457845
19390.691106,1776.494261,-10140.821405,-5056.230287
19390.691439,2072.576638,-12287.418637,-5056.230287
19390.691772,518.144159,-13989.892304,-4366.744339
19390.692106,-814.226536,-12879.583391,-2374.896044
19390.692439,2294.638420,-11547.212695,2374.896044
19390.692772,4071.132681,-9474.636058,2987.772442
19390.693106,2960.823768,-5107.421000,6128.763984
19390.693439,1184.329507,-4811.338623,7967.393179
19390.693772,4959.379811,-5921.647536,4519.963438
19390.694106,1184.329507,-7994.224174,0.000000
19390.694439,-74.020594,-8512.368333,-3064.381992
19390.694772,-2368.659014,-10955.047942,-2834.553343
19390.695106,-3478.967927,-11991.336260,-4136.915689
19390.695439,-4219.173869,-12287.418637,-4979.620737
19390.695773,-3923.091493,-14211.954086,-1302.362347
19390.696106,-5921.647536,-9548.656652,1838.629195
19390.696439,-518.144159,-9474.636058,6511.811733
19390.696773,2294.638420,-7105.977043,4826.401637
19390.697106,1406.391290,-5255.462188,6052.154434
19390.697439,444.123565,-4885.359217,3140.991542
19390.697773,1110.308913,-6217.729913,842.705048
19390.698106,-1776.494261,-8438.347739,-1838.629195
19390.698439,-4145.153275,-7772.162391,-4749.792088
19390.698773,-1258.350101,-13027.624579,-4979.620737
19390.699106,-3552.988522,-12509.480420,-689.485948
19390.699439,-1258.350101,-11843.295072,-2834.553343
19390.699773,-962.267725,-9548.656652,0.000000
19390.700106,1184.329507,-7920.203579,4749.792088
19390.700439,4145.153275,-6661.853478,7507.735880
19390.700773,5995.668130,-6291.750507,7737.564530
19390.701106,3108.864956,-6809.894666,3907.087040
19390.701440,592.164754,-8290.306550,919.314598
19390.701773,-1406.391290,-7031.956449,-6741.640382
19390.702106,-3627.009116,-10658.965565,-6511.811733
19390.702440,-5995.668130,-9548.656652,-9193.145976
19390.702773,-6513.812290,-14137.933492,-3140.991542
19390.703106,-3552.988522,-11843.295072,-612.876398
19390.703440,-1184.329507,-9770.718434,3753.867940
19390.703773,2368.659014,-8512.368333,7201.297681
19390.704106,6217.729913,-5625.565159,9193.145976
19390.704440,8216.285956,-4737.318029,9729.412825
19390.704773,4737.318029,-4811.338623,7967.393179
19390.705106,6439.791695,-7105.977043,-536.266849
19390.705440,1776.494261,-7179.997637,-5745.716235
19390.705773,0.000000,-10732.986159,-6128.763984
19390.706106,-1184.329507,-13767.830521,-8350.440928
19390.706440,-3034.844362,-14211.954086,-9116.536426
19390.706773,-2738.761985,-14211.954086,-5898.935335
19390.707107,0.000000,-11843.295072,536.266849
19390.707440,2960.823768,-8290.306550,4826.401637
19390.707773,5625.565159,-5995.668130,10265.679673
19390.708107,8734.430116,-4145.153275,11721.261119
19390.708440,8068.244768,-4515.256246,9806.022374
19390.708773,5847.626942,-5773.606348,5209.449386
19390.709107,1998.556043,-8882.471304,-383.047749
19390.709440,-4737.318029,-9844.739029,-6588.421283
19390.709773,-3923.091493,-14211.954086,-7431.126331
19390.710107,-7624.121203,-11473.192101,-11031.775171
19390.710440,-7698.141797,-13619.789333,-6511.811733
19390.710773,-5181.441594,-14211.954086,-1302.362347
19390.711107,-1702.473667,-10584.944971,4826.401637
19390.711440,1924.535449,-7105.977043,8656.879127
19390.711774,5329.482782,-5033.400406,11184.994271
19390.712107,7031.956449,-3552.988522,9729.412825
19390.712440,3034.844362,-3627.009116,6741.640382
19390.712774,4071.132681,-7105.977043,1762.019645
19390.713107,-666.185348,-8586.388927,-5669.106685
19390.713440,-4737.318029,-11325.150913,-7967.393179
19390.713774,-4811.338623,-13027.624579,-10189.070123
19390.714107,-7105.977043,-13545.768739,-8733.488677
19390.714440,-6513.812290,-13027.624579,-4979.620737
19390.714774,-2664.741391,-10658.965565,1072.533697
19390.715107,2368.659014,-6291.750507,7354.516781
19390.715440,2368.659014,-3627.009116,12257.527968
19390.715774,9104.533087,-5921.647536,10342.289223
19390.716107,4737.318029,-3627.009116,4903.011187
19390.716440,1776.494261,-6587.832884,2145.067394
19390.716774,-74.020594,-7328.038826,-4903.011187
19390.717107,-5329.482782,-11843.295072,-8197.221829
19390.717441,-7772.162391,-13471.748144,-9576.193725
19390.717774,-8956.491898,-12805.562797,-8733.488677
19390.718107,-7402.059420,-13323.706956,-3677.258390
19390.718441,-4219.173869,-11695.253884,-76.609550
19390.718774,1702.473667,-8142.265362,4749.792088
19390.719107,4737.318029,-4219.173869,12257.527968
19390.719441,7402.059420,-4515.256246,14172.766713
19390.719774,7920.203579,-2738.761985,6435.202183
19390.720107,6513.812290,-7031.956449,4366.744339
19390.720441,3849.070898,-8290.306550,-842.705048
19390.720774,2368.659014,-9696.697840,-5362.668486
19390.721107,-1776.494261,-12953.603985,-9806.022374
19390.721441,-3627.009116,-13915.871710,-11414.822920
19390.721774,-4737.318029,-13989.892304,-7660.954980
19390.722107,-2220.617826,-11843.295072,-3524.039291
19390.722441,1110.308913,-9474.636058,842.705048
19390.722774,4737.318029,-4811.338623,6358.592633
19390.723108,8290.306550,-5107.421000,13789.718964
19390.723441,12213.398043,-5773.606348,13406.671215
19390.723774,9400.615463,-6957.935855,6971.469032
19390.724108,4663.297435,-6513.812290,1762.019645
19390.724441,2294.638420,-10658.965565,-2834.553343
19390.724774,-2146.597232,-11769.274478,-6281.983084
19390.725108,-6661.853478,-13101.645173,-9116.536426
19390.725441,-7994.224174,-13175.665768,-8886.707777
19390.725774,-5551.544565,-14211.954086,-3294.210641
19390.726108,-5921.647536,-9548.656652,2451.505594
19390.726441,-74.020594,-8290.306550,4826.401637
19390.726774,3034.844362,-2442.679609,6435.202183
19390.727108,5625.565159,-4811.338623,10418.898773
19390.727441,4663.297435,-4811.338623,5669.106685
19390.727774,4367.215058,-6661.853478,2221.676944
19390.728108,1480.411884,-8956.491898,-612.876398
19390.728441,-740.205942,-11251.130318,-4213.525239
19390.728775,-3627.009116,-10362.883188,-8044.002729
19390.729108,-5403.503377,-14804.118840,-8044.002729
19390.729441,-4811.338623,-13323.706956,-5592.497135
19390.729775,-5329.482782,-8956.491898,0.000000
19390.730108,1628.453072,-9326.594869,5439.278036
19390.730441,1184.329507,-5995.668130,7354.516781
19390.730775,5255.462188,-5625.565159,7584.345430
19390.731108,4663.297435,-7105.977043,6818.249932
19390.731441,888.247130,-7254.018232,1532.190996
19390.731775,-1776.494261,-8364.327145,-3677.258390
19390.732108,-1258.350101,-11843.295072,-4979.620737
19390.732441,-7105.977043,-10732.986159,-7124.688131
19390.732775,-9474.636058,-10732.986159,-5362.668486
19390.733108,-7179.997637,-13027.624579,-2528.115143
19390.733441,-4441.235652,-9770.718434,1608.800546
19390.733775,-1036.288319,-5699.585753,5132.839837
19390.734108,2738.761985,-4811.338623,6588.421283
19390.734442,3923.091493,-5403.503377,6971.469032
19390.734775,6069.688724,-8364.327145,6358.592633
19390.735108,7031.956449,-7698.141797,536.266849
19390.735442,2960.823768,-9548.656652,-76.609550
19390.735775,4663.297435,-14211.954086,-2528.115143
19390.736108,2294.638420,-13027.624579,-4979.620737
19390.736442,-2072.576638,-13767.830521,-3753.867940
19390.736775,-2072.576638,-11325.150913,-4290.134789
19390.737108,-814.226536,-11029.068536,-383.047749
19390.737442,2294.638420,-7772.162391,3447.429741
19390.737775,4737.318029,-5107.421000,7967.393179
19390.738108,5181.441594,-4811.338623,6588.421283
19390.738442,4885.359217,-6439.791695,5439.278036
19390.738775,3256.906145,-8364.327145,2298.286494
19390.739108,1702.473667,-7994.224174,-995.924147
19390.739442,-2368.659014,-9548.656652,-2451.505594
19390.739775,-1258.350101,-13619.789333,-4060.306139
19390.740109,-3330.926739,-10732.986159,-6128.763984
19390.740442,-3256.906145,-11843.295072,-1302.362347
19390.740775,-74.020594,-11843.295072,-76.609550
19390.741109,0.000000,-8660.409521,3753.867940
19390.741442,1924.535449,-6883.915261,4519.963438
19390.741775,2516.700203,-5477.523971,4213.525239
19390.742109,1776.494261,-5995.668130,1225.752797
19390.742442,0.000000,-7179.997637,2145.067394
19390.742775,1702.473667,-9474.636058,-2451.505594
19390.743109,1184.329507,-10140.821405,-2451.505594
19390.743442,444.123565,-12435.459826,-1302.362347
19390.743775,-2442.679609,-11917.315666,-3907.087040
19390.744109,-740.205942,-11843.295072,-383.047749
19390.744442,-370.102971,-9844.739029,1915.238745
19390.744775,1998.556043,-7550.100608,3600.648841
19390.745109,3775.050304,-7105.977043,5745.716235
19390.745442,592.164754,-6587.832884,6052.154434
19390.745776,2294.638420,-5181.441594,0.000000
19390.746109,-1184.329507,-8364.327145,0.000000
19390.746442,-74.020594,-11547.212695,-2528.115143
19390.746776,-3552.988522,-10732.986159,-4903.011187
19390.747109,-3330.926739,-11843.295072,-3294.210641
19390.747442,-4737.318029,-11251.130318,-2757.943793
19390.747776,-4293.194464,-11473.192101,0.000000
19390.748109,-74.020594,-8882.471304,4213.525239
19390.748442,2368.659014,-8734.430116,9729.412825
19390.748776,4071.132681,-4441.235652,7277.907231
19390.749109,2664.741391,-3923.091493,6128.763984
19390.749442,4071.132681,-7105.977043,2374.896044
19390.749776,3478.967927,-7105.977043,-1302.362347
19390.750109,-518.144159,-10807.006753,-5745.716235
19390.750442,-1554.432478,-11769.274478,-7967.393179
19390.750776,-3404.947333,-14359.995275,-7890.783629
19390.751109,-4145.153275,-12509.480420,-4903.011187
19390.751443,-74.020594,-13027.624579,-1915.238745
19390.751776,0.000000,-10140.821405,5362.668486
19390.752109,4737.318029,-7920.203579,10955.165621
19390.752443,7031.956449,-3775.050304,8580.269578
19390.752776,7031.956449,-4441.235652,9729.412825
19390.753109,4071.132681,-5921.647536,4596.572988
19390.753443,962.267725,-7550.100608,-459.657299
19390.753776,-3256.906145,-9326.594869,-5515.887586
19390.754109,-6513.812290,-9548.656652,-8427.050478
19390.754443,-4811.338623,-12435.459826,-9729.412825
19390.754776,-5255.462188,-13915.871710,-5439.278036
19390.755109,-3404.947333,-12139.377449,-1838.629195
19390.755443,-962.267725,-10436.903782,1991.848295
19390.755776,1332.370696,-7179.997637,5515.887586
19390.756110,7920.203579,-7105.977043,11568.042020
19390.756443,8216.285956,-4589.276840,8197.221829
19390.756776,4737.318029,-5403.503377,6435.202183
19390.757110,4145.153275,-8734.430116,2374.896044
19390.757443,370.102971,-8068.244768,-4903.011187
19390.757776,-666.185348,-11251.130318,-6052.154434
19390.758110,-3627.009116,-12953.603985,-8427.050478
19390.758443,-5477.523971,-12805.562797,-7967.393179
19390.758776,-4737.318029,-12509.480420,-4290.134789
19390.759110,2294.638420,-11843.295072,1455.581446
19390.759443,2368.659014,-6069.688724,6358.592633
19390.759776,4737.318029,-5995.668130,11338.213370
19390.760110,8808.450710,-5921.647536,9729.412825
19390.760443,4737.318029,-4811.338623,7354.516781
19390.760776,2442.679609,-6513.812290,995.924147
19390.761110,-2220.617826,-9474.636058,-3830.477490
19390.761443,-5329.482782,-10732.986159,-7660.954980
19390.761777,-5995.668130,-13323.706956,-7507.735880
19390.762110,-5403.503377,-14211.954086,-8656.879127
19390.762443,-8882.471304,-12805.562797,-3217.601092
19390.762777,-7105.977043,-10732.986159,2298.286494
19390.763110,3182.885551,-9474.636058,6665.030833
19390.763443,5625.565159,-6217.729913,12180.918418
19390.763777,7624.121203,-3775.050304,11491.432470
19390.764110,8882.471304,-5107.421000,9499.584175
19390.764443,7031.956449,-6809.894666,4213.525239
19390.764777,5255.462188,-8290.306550,-1302.362347
19390.765110,296.082377,-8956.491898,-8350.440928
19390.765443,-2368.659014,-13767.830521,-8656.879127
19390.765777,-4367.215058,-14063.912898,-11414.822920
19390.766110,-4811.338623,-13101.645173,-11644.651570
19390.766443,-2960.823768,-14063.912898,-1915.238745
19390.766777,296.082377,-10214.842000,3294.210641
19390.767110,5551.544565,-7105.977043,9193.145976
19390.767444,8956.491898,-4515.256246,13406.671215
19390.767777,9400.615463,-4145.153275,11568.042020
19390.768110,7031.956449,-5255.462188,7507.735880
19390.768444,3923.091493,-6883.915261,1685.410096
19390.768777,-888.247130,-8956.491898,-3064.381992
19390.769110,-6513.812290,-11325.150913,-9499.584175
19390.769444,-9474.636058,-13101.645173,-9882.631924
19390.769777,-9548.656652,-14211.954086,-11108.384721
19390.770110,-8882.471304,-11917.315666,-6741.640382
19390.770444,-5329.482782,-11177.109724,1149.143247
19390.770777,0.000000,-6587.832884,5209.449386
19390.771110,4737.318029,-5995.668130,11797.870669
19390.771443,7328.038826,-4367.215058,11568.042020
19390.771776,5921.647536,-5329.482782,7584.345430
19390.772110,5181.441594,-8882.471304,4673.182538
19390.772443,1554.432478,-7179.997637,-383.047749
19390.772776,-1480.411884,-9548.656652,-4903.011187
19390.773109,-3923.091493,-11177.109724,-9806.022374
19390.773442,-9178.553681,-11325.150913,-9193.145976
19390.773776,-7105.977043,-13101.645173,-4903.011187
19390.774109,-2442.679609,-13027.624579,-1302.362347
19390.774442,-370.102971,-8586.388927,2451.505594
19390.774775,4367.215058,-6513.812290,7737.564530
19390.775108,6735.874072,-7994.224174,10955.165621
19390.775441,3552.988522,-4811.338623,8580.269578
19390.775775,2886.803174,-7105.977043,2374.896044
19390.776108,0.000000,-7179.997637,0.000000
19390.776441,-1258.350101,-10955.047942,-3140.991542
19390.776774,-4811.338623,-11843.295072,-5592.497135
19390.777107,-7698.141797,-12879.583391,-7124.688131
19390.777441,-7920.203579,-11917.315666,-4673.182538
19390.777774,-5329.482782,-10214.842000,-689.485948
19390.778107,-962.267725,-7994.224174,3217.601092
19390.778440,2368.659014,-7179.997637,8656.879127
19390.778773,4737.318029,-3627.009116,6741.640382
19390.779107,4737.318029,-4811.338623,7354.516781
19390.779440,7920.203579,-7105.977043,2068.457845
19390.779773,5107.421000,-7105.977043,-1685.410096
19390.780106,4959.379811,-10955.047942,-2221.676944
19390.780439,888.247130,-11917.315666,-5132.839837
19390.780772,-1924.535449,-11991.336260,-8120.612279
19390.781106,-3701.029710,-13545.768739,-6052.154434
19390.781439,-1258.350101,-11843.295072,-2528.115143
19390.781772,0.000000,-7772.162391,3983.696590
19390.782105,5255.462188,-7550.100608,7277.907231
19390.782438,7031.956449,-6513.812290,6052.154434
19390.782772,5921.647536,-3627.009116,5669.106685
19390.783105,6143.709319,-7994.224174,4826.401637
19390.783438,2886.803174,-7402.059420,0.000000
19390.783771,1332.370696,-9770.718434,-3140.991542
19390.784104,-592.164754,-12361.439231,-3140.991542
19390.784437,-3404.947333,-12361.439231,-3370.820191
19390.784771,-5329.482782,-11029.068536,-4596.572988
19390.785104,-5255.462188,-11473.192101,-2834.553343
19390.785437,-2368.659014,-10658.965565,2374.896044
19390.785770,-1776.494261,-5995.668130,4903.011187
19390.786103,2886.803174,-6513.812290,4673.182538
19390.786437,592.164754,-4811.338623,2757.943793
19390.786770,592.164754,-6587.832884,4596.572988
19390.787103,3923.091493,-8290.306550,2374.896044
19390.787436,0.000000,-7179.997637,0.000000
19390.787769,-74.020594,-11473.192101,-3294.210641
19390.788102,-2220.617826,-12213.398043,-3370.820191
19390.788436,-3849.070898,-12139.377449,-3294.210641
19390.788769,-1258.350101,-12435.459826,-76.609550
19390.789102,-74.020594,-10658.965565,842.705048
19390.789435,0.000000,-5995.668130,3677.258390
19390.789768,0.000000,-5403.503377,6741.640382
19390.790102,3478.967927,-7105.977043,2987.772442
19390.790435,0.000000,-7476.080014,2145.067394
19390.790768,-2368.659014,-8808.450710,-2145.067394
19390.791101,-2220.617826,-8586.388927,-2681.334243
19390.791434,-3404.947333,-12065.356855,-2068.457845
19390.791768,-4737.318029,-11103.089130,-3064.381992
19390.792101,-2738.761985,-10510.924376,-3140.991542
19390.792434,-1998.556043,-12435.459826,2987.772442
19390.792767,1036.288319,-8882.471304,4673.182538
19390.793100,1110.308913,-5995.668130,3983.696590
19390.793433,3330.926739,-5921.647536,4826.401637
19390.793767,3256.906145,-6143.709319,3370.820191
19390.794100,3108.864956,-7476.080014,612.876398
19390.794433,1332.370696,-8364.327145,-3064.381992
19390.794766,1480.411884,-11991.336260,-3830.477490
19390.795099,1036.288319,-10436.903782,-4903.011187
19390.795433,1702.473667,-15396.283594,-1608.800546
19390.795766,-74.020594,-12509.480420,-3064.381992
19390.796099,740.205942,-9548.656652,0.000000
19390.796432,3849.070898,-9548.656652,7277.907231
19390.796765,7476.080014,-6513.812290,6665.030833
19390.797098,6291.750507,-5625.565159,7584.345430
19390.797432,5477.523971,-6291.750507,4979.620737
19390.797765,2738.761985,-6513.812290,0.000000
19390.798098,888.247130,-11251.130318,-2528.115143
19390.798431,-2442.679609,-8956.491898,-7354.516781
19390.798764,-4145.153275,-10732.986159,-6741.640382
19390.799098,-1924.535449,-14211.954086,-2528.115143
19390.799431,-1702.473667,-12361.439231,-1838.629195
19390.799764,-1628.453072,-11695.253884,1762.019645
19390.800097,1258.350101,-8956.491898,5362.668486
19390.800430,3923.091493,-6439.791695,8044.002729
19390.800763,6143.709319,-4737.318029,7277.907231
19390.801097,5551.544565,-6735.874072,6052.154434
19390.801430,2368.659014,-7031.956449,1149.143247
19390.801763,444.123565,-8512.368333,-2911.162892
19390.802096,-2368.659014,-11325.150913,-5898.935335
19390.802429,-2442.679609,-13027.624579,-7431.126331
19390.802763,-4737.318029,-13989.892304,-4596.572988
19390.803096,-1258.350101,-12435.459826,-4673.182538
19390.803429,-2960.823768,-10140.821405,2451.505594
19390.803762,0.000000,-8364.327145,5209.449386
19390.804095,5847.626942,-5921.647536,8503.660028
19390.804429,5403.503377,-5255.462188,9729.412825
19390.804762,5403.503377,-5107.421000,6435.202183
19390.805095,1036.288319,-6809.894666,995.924147
19390.805428,-3034.844362,-6587.832884,-4903.011187
19390.805761,-5033.400406,-11843.295072,-5592.497135
19390.806094,-6735.874072,-13027.624579,-9882.631924
19390.806428,-10658.965565,-12065.356855,-7967.393179
19390.806761,-6587.832884,-15248.242405,-3140.991542
19390.807094,-5477.523971,-10288.862594,0.000000
19390.807427,-1258.350101,-8882.471304,5439.278036
19390.807760,2812.782580,-6809.894666,9269.755526
19390.808094,6735.874072,-3997.112087,11491.432470
19390.808427,4737.318029,-3775.050304,9806.022374
19390.808760,7031.956449,-7698.141797,4826.401637
19390.809093,1258.350101,-6291.750507,-2145.067394
19390.809426,-3256.906145,-9548.656652,-5822.325785
19390.809759,-2442.679609,-13619.789333,-8963.317327
19390.810093,-5329.482782,-13101.645173,-9806.022374
19390.810426,-5255.462188,-14211.954086,-8886.707777
19390.810759,-3034.844362,-13175.665768,-4519.963438
19390.811092,1406.391290,-11029.068536,3294.210641
19390.811425,7031.956449,-7994.224174,11568.042020
19390.811759,9992.780217,-7105.977043,10955.165621
19390.812092,8290.306550,-3034.844362,11644.651570
19390.812425,8586.388927,-5921.647536,9729.412825
19390.812758,5847.626942,-7105.977043,1149.143247
19390.813091,0.000000,-8364.327145,-3677.258390
19390.813425,-4367.215058,-11473.192101,-9499.584175
19390.813758,-7105.977043,-13323.706956,-9806.022374
19390.814091,-7105.977043,-13101.645173,-8810.098227
19390.814424,-5107.421000,-14211.954086,-3370.820191
19390.814757,-2812.782580,-10140.821405,0.000000
19390.815090,1850.514855,-9400.615463,7431.126331
19390.815424,6513.812290,-5921.647536,11874.480219
19390.815757,7550.100608,-2442.679609,10035.851024
19390.816090,4737.318029,-4811.338623,8580.269578
19390.816423,5921.647536,-7920.203579,4213.525239
19390.816756,2886.803174,-9474.636058,-2528.115143
19390.817090,-1480.411884,-10732.986159,-5822.325785
19390.817423,-3034.844362,-13027.624579,-9269.755526
19390.817756,-6957.935855,-12879.583391,-9806.022374
19390.818089,-5107.421000,-13323.706956,-6665.030833
19390.818422,-3849.070898,-11621.233289,-1225.752797
19390.818755,0.000000,-8660.409521,3677.258390
19390.819089,5255.462188,-6957.935855,7967.393179
19390.819422,6513.812290,-5403.503377,12793.794817
19390.819755,6735.874072,-4737.318029,7660.954980
19390.820088,1850.514855,-5403.503377,3677.258390
19390.820421,592.164754,-8068.244768,-919.314598
19390.820755,-3404.947333,-9918.759623,-5056.230287
19390.821088,-6957.935855,-12805.562797,-8044.002729
19390.821421,-9474.636058,-12805.562797,-8963.317327
19390.821754,-9696.697840,-13915.871710,-6818.249932
19390.822087,-8290.306550,-9844.739029,-1838.629195
19390.822420,-2442.679609,-8882.471304,536.266849
19390.822754,3182.885551,-5181.441594,7507.735880
19390.823087,7031.956449,-6809.894666,13023.623466
19390.823420,9400.615463,-4737.318029,9116.536426
19390.823753,7105.977043,-6365.771101,5439.278036
19390.824086,5329.482782,-8068.244768,1072.533697
19390.824420,2886.803174,-9252.574275,-2604.724693
19390.824753,222.061783,-11991.336260,-7201.297681
19390.825086,-2442.679609,-14211.954086,-8656.879127
19390.825419,-6143.709319,-13767.830521,-8810.098227
19390.825752,-7105.977043,-12509.480420,-2451.505594
19390.826086,-74.020594,-10658.965565,-76.609550
19390.826419,888.247130,-5995.668130,4903.011187
19390.826752,5625.565159,-5255.462188,10801.946522
19390.827085,7254.018232,-4885.359217,11031.775171
19390.827418,6883.915261,-5625.565159,8503.660028
19390.827751,3627.009116,-6439.791695,2451.505594
19390.828085,2294.638420,-10658.965565,-76.609550
19390.828418,-1258.350101,-8364.327145,-6741.640382
19390.828751,-4441.235652,-12731.542202,-5056.230287
19390.829084,-4811.338623,-15396.283594,-7431.126331
19390.829417,-6291.750507,-11843.295072,-7354.516781
19390.829751,-3108.864956,-11843.295072,-76.609550
19390.830084,0.000000,-8734.430116,2681.334243
19390.830417,2442.679609,-7254.018232,5745.716235
19390.830750,5551.544565,-6217.729913,7431.126331
19390.831083,7031.956449,-7698.141797,8503.660028
19390.831416,4959.379811,-7031.956449,3983.696590
19390.831750,4145.153275,-8290.306550,689.485948
19390.832083,1850.514855,-10658.965565,-1762.019645
19390.832416,-2812.782580,-10140.821405,-5515.887586
19390.832749,-4145.153275,-11177.109724,-4979.620737
19390.833082,-2738.761985,-12435.459826,-5132.839837
19390.833416,-1258.350101,-9178.553681,-2757.943793
19390.833749,0.000000,-8956.491898,3140.991542
19390.834082,2738.761985,-7105.977043,3600.648841
19390.834415,2368.659014,-8290.306550,4826.401637
19390.834748,2516.700203,-7105.977043,2681.334243
19390.835081,518.144159,-9474.636058,1455.581446
19390.835415,-888.247130,-9696.697840,-612.876398
19390.835748,-2368.659014,-9548.656652,-76.609550
19390.836081,-3627.009116,-11029.068536,-3677.258390
19390.836414,-5921.647536,-10436.903782,-2451.505594
19390.836747,-5329.482782,-9548.656652,-612.876398
19390.837081,-3849.070898,-8660.409521,689.485948
19390.837414,-74.020594,-6957.935855,3830.477490
19390.837747,1184.329507,-5773.606348,5362.668486
19390.838080,3330.926739,-5699.585753,3983.696590
19390.838413,4071.132681,-8290.306550,4519.963438
19390.838747,2368.659014,-9104.533087,1762.019645
19390.839080,1702.473667,-7179.997637,-3677.258390
19390.839413,3182.885551,-13027.624579,-3753.867940
19390.839746,-666.185348,-13619.789333,-6205.373534
19390.840079,-148.041188,-12509.480420,-3370.820191
19390.840412,-666.185348,-11621.233289,-1838.629195
19390.840746,1554.432478,-9918.759623,2145.067394
19390.841079,3330.926739,-7698.141797,5132.839837
19390.841412,3627.009116,-4219.173869,5056.230287
19390.841745,6735.874072,-6809.894666,6665.030833
19390.842078,2368.659014,-5403.503377,1225.752797
19390.842412,592.164754,-8364.327145,1455.581446
19390.842745,-666.185348,-9326.594869,-4290.134789
19390.843078,-962.267725,-8660.409521,-4903.011187
19390.843411,-1776.494261,-11917.315666,-3370.820191
19390.843744,-2516.700203,-13101.645173,-2528.115143
19390.844077,-1776.494261,-11325.150913,-306.438199
19390.844411,0.000000,-10732.986159,3064.381992
19390.844744,4367.215058,-7698.141797,2221.676944
19390.845077,1776.494261,-7179.997637,6511.811733
19390.845410,3552.988522,-6883.915261,6665.030833
19390.845743,2294.638420,-5625.565159,0.000000
19390.846077,1184.329507,-7698.141797,-689.485948
19390.846410,0.000000,-8660.409521,-2987.772442
19390.846743,-444.123565,-11325.150913,-3370.820191
19390.847076,-74.020594,-11325.150913,-3600.648841
19390.847409,-2960.823768,-11917.315666,-2451.505594
19390.847743,-1258.350101,-11621.233289,-2221.676944
19390.848076,444.123565,-10288.862594,2451.505594
19390.848409,1776.494261,-8956.491898,5975.544884
19390.848742,3997.112087,-7031.956449,6741.640382
19390.849075,0.000000,-5107.421000,3983.696590
19390.849408,1702.473667,-7698.141797,2374.896044
19390.849742,-2886.803174,-5699.585753,-3677.258390
19390.850075,-3701.029710,-10066.800811,-4366.744339
19390.850408,-5403.503377,-11843.295072,-6205.373534
19390.850741,-7402.059420,-10732.986159,-5822.325785
19390.851074,-4589.276840,-11621.233289,-2604.724693
19390.851408,-3256.906145,-11029.068536,612.876398
19390.851741,0.000000,-9844.739029,4519.963438
19390.852074,3701.029710,-8660.409521,9652.803275
19390.852407,7031.956449,-5921.647536,8197.221829
19390.852740,5921.647536,-4811.338623,4903.011187
19390.853073,4737.318029,-7254.018232,4673.182538
19390.853407,3108.864956,-8290.306550,-2298.286494
19390.853740,0.000000,-10288.862594,-2834.553343
19390.854073,666.185348,-10955.047942,-7048.078582
19390.854406,-2960.823768,-13027.624579,-7507.735880
19390.854739,-2368.659014,-11917.315666,-6894.859482
19390.855073,-74.020594,-13027.624579,-995.924147
19390.855406,2886.803174,-9474.636058,536.266849
19390.855739,3552.988522,-7772.162391,7967.393179
19390.856072,5921.647536,-5995.668130,11951.089769
19390.856405,8216.285956,-5329.482782,8503.660028
19390.856738,7179.997637,-6217.729913,6052.154434
19390.857072,1924.535449,-8438.347739,306.438199
19390.857405,-1628.453072,-9844.739029,-4596.572988
19390.857738,-4811.338623,-11177.109724,-7967.393179
19390.858071,-6143.709319,-11177.109724,-8656.879127
19390.858404,-8290.306550,-11917.315666,-9806.022374
19390.858738,-5921.647536,-13323.706956,-2681.334243
19390.859071,-2442.679609,-11251.130318,842.705048
19390.859404,222.061783,-5995.668130,4903.011187
19390.859737,5551.544565,-7105.977043,9729.412825
19390.860070,5329.482782,-5107.421000,11261.603821
19390.860404,6439.791695,-4219.173869,7967.393179
19390.860737,4071.132681,-6069.688724,2987.772442
19390.861070,740.205942,-7698.141797,-1762.019645
19390.861403,-2960.823768,-11399.171507,-5898.935335
19390.861736,-5921.647536,-11917.315666,-10342.289223
19390.862069,-5699.585753,-13323.706956,-9499.584175
19390.862403,-7105.977043,-14434.015869,-6435.202183
19390.862736,-2960.823768,-12583.501014,-689.485948
19390.863069,-74.020594,-9474.636058,2221.676944
19390.863402,4737.318029,-5995.668130,7354.516781
19390.863735,7105.977043,-5181.441594,12640.575717
19390.864069,6217.729913,-4811.338623,9806.022374
19390.864402,4441.235652,-6439.791695,5439.278036
19390.864735,1258.350101,-6957.935855,-383.047749
19390.865068,-1924.535449,-10436.903782,-4673.182538
19390.865401,-5995.668130,-13027.624579,-7431.126331
19390.865734,-10066.800811,-11325.150913,-8580.269578
19390.866068,-7772.162391,-12435.459826,-9039.926876
19390.866401,-7994.224174,-12065.356855,-1838.629195
19390.866734,-4145.153275,-8956.491898,3064.381992
19390.867067,4071.132681,-7994.224174,9729.412825
19390.867400,7179.997637,-4737.318029,12180.918418
19390.867734,8808.450710,-4293.194464,10418.898773
19390.868067,7624.121203,-5921.647536,6358.592633
19390.868400,5921.647536,-6291.750507,1532.190996
19390.868733,4737.318029,-9178.553681,-689.485948
19390.869066,0.000000,-10732.986159,-9499.584175
19390.869399,-3552.988522,-12805.562797,-9346.365076
19390.869733,-4219.173869,-14804.118840,-10189.070123
19390.870066,-4071.132681,-12805.562797,-6741.640382
19390.870399,-666.185348,-11325.150913,-1378.971896
19390.870732,3256.906145,-8808.450710,5132.839837
19390.871066,7994.224174,-6217.729913,10801.946522
19390.871399,9918.759623,-4663.297435,12257.527968
19390.871732,9400.615463,-6513.812290,9116.536426
19390.872065,4737.318029,-7179.997637,5209.449386
19390.872399,5255.462188,-9178.553681,-76.609550
19390.872732,-1258.350101,-9548.656652,-6128.763984
19390.873065,-5699.585753,-11917.315666,-9193.145976
19390.873398,-9474.636058,-13101.645173,-7431.126331
19390.873732,-7179.997637,-14804.118840,-4979.620737
19390.874065,-4293.194464,-10732.986159,-2298.286494
19390.874398,-2368.659014,-10140.821405,3294.210641
19390.874732,740.205942,-5403.503377,4903.011187
19390.875065,6735.874072,-8290.306550,10955.165621
19390.875398,5625.565159,-4219.173869,7354.516781
19390.875731,2368.659014,-5995.668130,6741.640382
19390.876065,3849.070898,-10658.965565,2298.286494
19390.876398,0.000000,-7772.162391,-2451.505594
19390.876731,-2442.679609,-11103.089130,-5822.325785
19390.877064,-5551.544565,-12065.356855,-8350.440928
19390.877398,-6735.874072,-13619.789333,-6435.202183
19390.877731,-6587.832884,-10288.862594,-3677.258390
19390.878064,-1702.473667,-8882.471304,612.876398
19390.878397,740.205942,-7550.100608,5592.497135
19390.878731,4293.194464,-5255.462188,7431.126331
19390.879064,5847.626942,-8290.306550,9729.412825
19390.879397,2886.803174,-4811.338623,3677.258390
19390.879730,592.164754,-7179.997637,0.000000
19390.880064,-74.020594,-11843.295072,-1302.362347
19390.880397,-4515.256246,-11029.068536,-5515.887586
19390.880730,-8290.306550,-11029.068536,-4290.134789
19390.881064,-8216.285956,-11399.171507,-7048.078582
19390.881397,-5847.626942,-11029.068536,-1762.019645
19390.881730,-3108.864956,-8216.285956,1991.848295
19390.882063,1406.391290,-6513.812290,4519.963438
19390.882397,3182.885551,-4071.132681,4290.134789
19390.882730,5699.585753,-7105.977043,6511.811733
19390.883063,5255.462188,-9474.636058,3600.648841
19390.883396,3627.009116,-6291.750507,306.438199
19390.883730,5551.544565,-11103.089130,-1608.800546
19390.884063,2072.576638,-11621.233289,-3294.210641
19390.884396,-74.020594,-13323.706956,-5439.278036
19390.884729,-2220.617826,-13101.645173,-5286.058936
19390.885063,-2960.823768,-11917.315666,-3677.258390
19390.885396,518.144159,-8660.409521,0.000000
19390.885729,2368.659014,-7920.203579,6052.154434
19390.886063,6439.791695,-5921.647536,5439.278036
19390.886396,4959.379811,-4811.338623,4903.011187
19390.886729,4737.318029,-4959.379811,3600.648841
19390.887062,2960.823768,-8438.347739,2451.505594
19390.887396,1110.308913,-8512.368333,-1532.190996
19390.887729,-444.123565,-11251.130318,-3753.867940
19390.888062,-1332.370696,-13027.624579,-2757.943793
19390.888395,-5773.606348,-11325.150913,-3524.039291
19390.888729,-74.020594,-13027.624579,-76.609550
19390.889062,-74.020594,-10362.883188,766.095498
19390.889395,1480.411884,-7846.182985,3677.258390
19390.889728,2664.741391,-7031.956449,4903.011187
19390.890062,3997.112087,-5699.585753,2757.943793
19390.890395,2368.659014,-7920.203579,1302.362347
19390.890728,2072.576638,-8438.347739,-689.485948
19390.891062,1702.473667,-10066.800811,-1302.362347
19390.891395,0.000000,-11843.295072,-995.924147
19390.891728,-2146.597232,-11103.089130,-4903.011187
19390.892061,-1850.514855,-9844.739029,-3677.258390
19390.892395,-1036.288319,-11843.295072,1762.019645
19390.892728,1110.308913,-9918.759623,1838.629195
19390.893061,1998.556043,-7402.059420,4519.963438
19390.893394,2368.659014,-6291.750507,4826.401637
19390.893728,1258.350101,-6809.894666,3600.648841
19390.894061,-74.020594,-7698.141797,-1302.362347
19390.894394,-3256.906145,-10362.883188,-2528.115143
19390.894727,-4737.318029,-9696.697840,-5439.278036
19390.895061,-4663.297435,-11251.130318,-3753.867940
19390.895394,-6291.750507,-11621.233289,-3524.039291
19390.895727,-3627.009116,-13027.624579,-76.609550
19390.896061,-4145.153275,-8364.327145,1225.752797
19390.896394,296.082377,-9474.636058,7277.907231
19390.896727,2294.638420,-5403.503377,6128.763984
19390.897060,296.082377,-3627.009116,6128.763984
19390.897394,3775.050304,-6809.894666,3600.648841
19390.897727,1702.473667,-6957.935855,383.047749
19390.898060,888.247130,-8438.347739,-3370.820191
19390.898393,-1036.288319,-10955.047942,-5286.058936
19390.898727,-962.267725,-10510.924376,-7584.345430
19390.899060,-1184.329507,-14211.954086,-4060.306139
19390.899393,-666.185348,-14211.954086,-4979.620737
19390.899726,-518.144159,-10732.986159,0.000000
19390.900060,5329.482782,-11547.212695,7737.564530
19390.900393,5403.503377,-4811.338623,7354.516781
19390.900726,8216.285956,-5255.462188,9116.536426
19390.901059,7031.956449,-5921.647536,7048.078582
19390.901393,4367.215058,-7105.977043,2681.334243
19390.901726,0.000000,-7179.997637,-2451.505594
19390.902059,-2072.576638,-11843.295072,-3753.867940
19390.902393,-5403.503377,-10436.903782,-9806.022374
19390.902726,-5403.503377,-11473.192101,-9806.022374
19390.903059,-3404.947333,-13619.789333,-2528.115143
19390.903392,-2368.659014,-10732.986159,1608.800546
19390.903726,1332.370696,-9696.697840,5286.058936
19390.904059,4737.318029,-6883.915261,8963.317327
19390.904392,5847.626942,-5329.482782,9422.974625
19390.904725,7254.018232,-5551.544565,8580.269578
19390.905059,4663.297435,-8290.306550,-76.609550
19390.905392,0.000000,-7179.997637,-2451.505594
19390.905725,-74.020594,-11843.295072,-4979.620737
19390.906058,-1258.350101,-11843.295072,-7431.126331
19390.906392,-5625.565159,-12213.398043,-7354.516781
19390.906725,-3997.112087,-12213.398043,-5592.497135
19390.907058,-1776.494261,-11769.274478,-612.876398
19390.907392,1480.411884,-9622.677246,4673.182538
19390.907725,4737.318029,-7328.038826,8580.269578
19390.908058,7031.956449,-5033.400406,9806.022374
19390.908391,6735.874072,-5921.647536,9039.926876
19390.908725,4663.297435,-6735.874072,4749.792088
19390.909058,-222.061783,-6809.894666,-3753.867940
19390.909391,-5255.462188,-8068.244768,-7354.516781
19390.909724,-6661.853478,-13619.789333,-8044.002729
19390.910058,-9030.512492,-10140.821405,-11261.603821
19390.910391,-9474.636058,-13693.809927,-6052.154434
19390.910724,-7179.997637,-13027.624579,-3753.867940
19390.911057,-3627.009116,-9548.656652,3677.258390
19390.911391,2294.638420,-6143.709319,9576.193725
19390.911724,6069.688724,-4293.194464,11951.089769
19390.912057,5921.647536,-3034.844362,9806.022374
19390.912391,7624.121203,-4441.235652,4903.011187
19390.912724,5995.668130,-8290.306550,2987.772442
19390.913057,1332.370696,-7476.080014,-4903.011187
19390.913390,-3552.988522,-11917.315666,-8580.269578
19390.913724,-5033.400406,-13397.727550,-11951.089769
19390.914057,-5329.482782,-14285.974681,-9882.631924
19390.914390,-5033.400406,-14508.036463,-5898.935335
19390.914723,-2812.782580,-11103.089130,-612.876398
19390.915057,3923.091493,-10658.965565,8963.317327
19390.915390,7328.038826,-3034.844362,11031.775171
19390.915723,9400.615463,-5921.647536,13100.233016
19390.916056,6809.894666,-3627.009116,8886.707777
19390.916390,6143.709319,-6513.812290,6052.154434
19390.916723,1406.391290,-7698.141797,-919.314598
19390.917056,-1554.432478,-10362.883188,-6205.373534
19390.917390,-6587.832884,-12435.459826,-9882.631924
19390.917723,-8216.285956,-13915.871710,-10572.117872
19390.918056,-7179.997637,-14211.954086,-7431.126331
19390.918389,-7105.977043,-11917.315666,-919.314598
19390.918723,-1258.350101,-9178.553681,1225.752797
19390.919056,2812.782580,-5995.668130,7967.393179
19390.919389,8290.306550,-5847.626942,13406.671215
19390.919722,9400.615463,-4737.318029,9729.412825
19390.920056,7031.956449,-7105.977043,5745.716235
19390.920389,5107.421000,-7179.997637,1455.581446
19390.920722,1702.473667,-9030.512492,-2834.553343
19390.921055,-2368.659014,-11917.315666,-7967.393179
19390.921389,-4293.194464,-13915.871710,-8656.879127
19390.921722,-7476.080014,-13101.645173,-9806.022374
19390.922055,-3849.070898,-12509.480420,-1838.629195
19390.922389,-74.020594,-10658.965565,-76.609550
19390.922722,3478.967927,-7105.977043,4826.401637
19390.923055,6439.791695,-7105.977043,9729.412825
19390.923388,6143.709319,-5403.503377,9193.145976
19390.923722,4367.215058,-6439.791695,5056.230287
19390.924055,592.164754,-8364.327145,612.876398
19390.924388,-74.020594,-10658.965565,-1608.800546
19390.924721,-4737.318029,-11843.295072,-4519.963438
19390.925055,-7476.080014,-11917.315666,-7431.126331
19390.925388,-8808.450710,-12657.521608,-6818.249932
19390.925721,-8216.285956,-10732.986159,-4290.134789
19390.926054,-3552.988522,-9696.697840,2374.896044
19390.926388,-74.020594,-9474.636058,6971.469032
19390.926721,4367.215058,-3627.009116,6281.983084
19390.927054,5625.565159,-6291.750507,10572.117872
19390.927387,7031.956449,-5625.565159,4749.792088
19390.927721,5625.565159,-7105.977043,1608.800546
19390.928054,3775.050304,-9918.759623,-842.705048
19390.928387,1480.411884,-10881.027347,-4673.182538
19390.928721,-3552.988522,-12509.480420,-7354.516781
19390.929054,-4737.318029,-14137.933492,-6205.373534
19390.929387,-4737.318029,-11325.150913,-6128.763984
19390.929720,-4145.153275,-9548.656652,612.876398
19390.930054,2812.782580,-8586.388927,4519.963438
19390.930387,2368.659014,-4219.173869,5515.887586
19390.930720,6439.791695,-4589.276840,7660.954980
19390.931053,5255.462188,-7105.977043,7737.564530
19390.931387,3330.926739,-6661.853478,2911.162892
19390.931720,3478.967927,-8142.265362,-76.609550
19390.932053,1702.473667,-14211.954086,-76.609550
19390.932386,-3182.885551,-9844.739029,-5515.887586
19390.932720,-4737.318029,-11917.315666,-6128.763984
19390.933053,-4441.235652,-14211.954086,-4979.620737
19390.933386,-3552.988522,-11029.068536,-153.219100
19390.933720,-1406.391290,-9400.615463,1685.410096
19390.934053,2220.617826,-7105.977043,4596.572988
19390.934386,2442.679609,-7179.997637,5439.278036
19390.934719,5255.462188,-6365.771101,4213.525239
19390.935053,5847.626942,-8882.471304,4213.525239
19390.935386,4663.297435,-6587.832884,0.000000
19390.935719,2664.741391,-9326.594869,-229.828649
19390.936052,2294.638420,-12731.542202,-689.485948
19390.936386,-666.185348,-12731.542202,-3140.991542
19390.936719,-2368.659014,-11695.253884,-2528.115143
19390.937052,-1480.411884,-11325.150913,-995.924147
19390.937385,444.123565,-8586.388927,1225.752797
19390.937719,592.164754,-5995.668130,3064.381992
19390.938052,2294.638420,-4959.379811,1532.190996
19390.938385,888.247130,-8068.244768,2451.505594
19390.938719,2294.638420,-9178.553681,-76.609550
19390.939052,-1776.494261,-7772.162391,-919.314598
19390.939385,-1258.350101,-10362.883188,-689.485948
19390.939718,-2960.823768,-11177.109724,-2757.943793
19390.940052,-3923.091493,-12213.398043,-2068.457845
19390.940385,-4737.318029,-10807.006753,-1532.190996
19390.940718,-2368.659014,-8364.327145,919.314598
19390.941051,962.267725,-7698.141797,3677.258390
19390.941385,3775.050304,-6439.791695,5898.935335
19390.941718,3923.091493,-6217.729913,4903.011187
19390.942051,3849.070898,-6883.915261,2068.457845
19390.942384,592.164754,-7328.038826,-1072.533697
19390.942718,2294.638420,-11843.295072,-4366.744339
19390.943051,0.000000,-9548.656652,-3064.381992
19390.943384,1998.556043,-12435.459826,-3140.991542
19390.943718,2072.576638,-11843.295072,-2451.505594
19390.944051,296.082377,-11325.150913,306.438199
19390.944384,2294.638420,-10658.965565,2987.772442
19390.944717,4145.153275,-8142.265362,4596.572988
19390.945051,4367.215058,-6513.812290,5056.230287
19390.945384,3552.988522,-5403.503377,3677.258390
19390.945717,2886.803174,-4959.379811,0.000000
19390.946050,-1776.494261,-7179.997637,0.000000
19390.946384,-1554.432478,-10362.883188,-4979.620737
19390.946717,-3034.844362,-10066.800811,-6205.373534
19390.947050,-3552.988522,-12509.480420,-2528.115143
19390.947383,-4293.194464,-12213.398043,-2528.115143
19390.947717,-3627.009116,-11769.274478,-766.095498
19390.948050,74.020594,-9474.636058,4519.963438
19390.948383,3182.885551,-9326.594869,9422.974625
19390.948716,4367.215058,-3923.091493,6128.763984
19390.949050,3552.988522,-6735.874072,6128.763984
19390.949383,2886.803174,-8290.306550,-76.609550
19390.949716,-4737.318029,-7179.997637,-3677.258390
19390.950050,-1998.556043,-10658.965565,-5898.935335
19390.950383,-5329.482782,-11473.192101,-6511.811733
19390.950716,-5107.421000,-11473.192101,-7048.078582
19390.951049,-3775.050304,-12361.439231,-3217.601092
19390.951383,-3034.844362,-11251.130318,-689.485948
19390.951716,-1258.350101,-7476.080014,2451.505594
19390.952049,3552.988522,-7624.121203,9422.974625
19390.952382,5255.462188,-5921.647536,7890.783629
19390.952716,3552.988522,-3034.844362,7354.516781
19390.953049,4663.297435,-7105.977043,2987.772442
19390.953382,-444.123565,-8068.244768,-1762.019645
19390.953715,-3997.112087,-10066.800811,-6281.983084
19390.954049,-5477.523971,-11843.295072,-8656.879127
19390.954382,-7179.997637,-14211.954086,-8656.879127
19390.954715,-6809.894666,-13323.706956,-6205.373534
19390.955049,-4737.318029,-12879.583391,-229.828649
19390.955382,-1554.432478,-9474.636058,4519.963438
19390.955715,0.000000,-7179.997637,8580.269578
19390.956048,7031.956449,-5921.647536,11568.042020
19390.956382,6291.750507,-2442.679609,9806.022374
19390.956715,3701.029710,-2442.679609,6128.763984
19390.957048,4663.297435,-7105.977043,995.924147
19390.957381,1332.370696,-7328.038826,-6205.373534
19390.957715,0.000000,-12139.377449,-7431.126331
19390.958048,-1924.535449,-13027.624579,-9882.631924
19390.958381,-3849.070898,-14952.160028,-9576.193725
19390.958714,-2442.679609,-16136.489536,-4979.620737
19390.959048,-74.020594,-15840.407159,-76.609550
19390.959381,1480.411884,-7476.080014,6128.763984
19390.959714,7698.141797,-7105.977043,12257.527968
19390.960048,10584.944971,-4737.318029,11261.603821
19390.960381,9474.636058,-3923.091493,11031.775171
19390.960714,6735.874072,-4885.359217,5286.058936
19390.961047,2516.700203,-6735.874072,-536.266849
19390.961381,-2072.576638,-9548.656652,-6588.421283
19390.961714,-5403.503377,-11843.295072,-9882.631924
19390.962047,-6217.729913,-13619.789333,-9269.755526
19390.962380,-8660.409521,-11917.315666,-8580.269578
19390.962714,-4737.318029,-14211.954086,-2528.115143
19390.963047,-666.185348,-11251.130318,1455.581446
19390.963380,3478.967927,-7105.977043,9422.974625
19390.963713,5921.647536,-4367.215058,11031.775171
19390.964047,7031.956449,-4367.215058,10035.851024
19390.964380,4885.359217,-5107.421000,5898.935335
19390.964713,1776.494261,-4811.338623,0.000000
19390.965047,1702.473667,-9474.636058,-4366.744339
19390.965380,-4737.318029,-10732.986159,-9806.022374
19390.965713,-7105.977043,-13545.768739,-8963.317327
19390.966046,-6587.832884,-13175.665768,-10189.070123
19390.966380,-7105.977043,-11917.315666,-4903.011187
19390.966713,-2960.823768,-11177.109724,2068.457845
19390.967046,1998.556043,-8068.244768,7354.516781
19390.967379,5995.668130,-5699.585753,12180.918418
19390.967713,9030.512492,-5625.565159,13406.671215
19390.968046,4663.297435,-3627.009116,5515.887586
19390.968379,3627.009116,-7402.059420,2374.896044
19390.968712,-1258.350101,-7994.224174,-4979.620737
19390.969046,-6513.812290,-11325.150913,-6435.202183
19390.969379,-10362.883188,-12509.480420,-10035.851024
19390.969712,-11399.171507,-12657.521608,-9193.145976
19390.970045,-8512.368333,-13101.645173,-4366.744339
19390.970379,-4811.338623,-10510.924376,842.705048
19390.970712,1036.288319,-8512.368333,8733.488677
19390.971045,4367.215058,-4811.338623,10418.898773
19390.971378,8734.430116,-3182.885551,12104.308868
19390.971712,7105.977043,-5181.441594,8120.612279
19390.972045,6735.874072,-6883.915261,2681.334243
19390.972378,4145.153275,-8068.244768,-1225.752797
19390.972711,2738.761985,-10436.903782,-7584.345430
19390.973045,-2812.782580,-11325.150913,-11031.775171
19390.973378,-4071.132681,-15988.448347,-10189.070123
19390.973711,-4441.235652,-15914.427753,-6894.859482
19390.974044,-2738.761985,-9844.739029,-3064.381992
19390.974377,3478.967927,-9474.636058,2068.457845
19390.974711,5329.482782,-6883.915261,8503.660028
19390.975044,9104.533087,-4737.318029,11108.384721
19390.975377,11251.130318,-5699.585753,12793.794817
19390.975710,8216.285956,-7105.977043,6052.154434
19390.976043,1184.329507,-7179.997637,1225.752797
19390.976377,0.000000,-9548.656652,-1991.848295
19390.976710,-2442.679609,-12879.583391,-6205.373534
19390.977043,-7105.977043,-11325.150913,-8580.269578
19390.977376,-7179.997637,-12953.603985,-7890.783629
19390.977710,-5181.441594,-12731.542202,-2528.115143
19390.978043,-1702.473667,-9474.636058,1225.752797
19390.978376,2590.720797,-7105.977043,4826.401637
19390.978709,6735.874072,-7105.977043,7277.907231
19390.979042,3552.988522,-5403.503377,9193.145976
19390.979376,6439.791695,-6513.812290,6665.030833
19390.979709,4663.297435,-7105.977043,229.828649
19390.980042,3182.885551,-11103.089130,-76.609550
19390.980375,-222.061783,-11103.089130,-3907.087040
19390.980709,-3627.009116,-12213.398043,-6205.373534
19390.981042,-3997.112087,-12657.521608,-6511.811733
19390.981375,-4737.318029,-11029.068536,-3677.258390
19390.981708,-666.185348,-9326.594869,0.000000
19390.982041,0.000000,-6587.832884,4903.011187
19390.982375,4071.132681,-7994.224174,5439.278036
19390.982708,2368.659014,-3627.009116,3677.258390
19390.983041,1258.350101,-7105.977043,4060.306139
19390.983374,296.082377,-7698.141797,0.000000
19390.983707,-1332.370696,-8956.491898,-2681.334243
19390.984041,-3775.050304,-11991.336260,-2757.943793
19390.984374,-5551.544565,-11991.336260,-3217.601092
19390.984707,-8882.471304,-9548.656652,-4290.134789
19390.985040,-4219.173869,-12435.459826,-459.657299
19390.985374,-1258.350101,-9474.636058,1762.019645
19390.985707,-1776.494261,-6587.832884,5822.325785
19390.986040,2738.761985,-5625.565159,5439.278036
19390.986373,2368.659014,-6439.791695,4826.401637
19390.986706,3552.988522,-6735.874072,1991.848295
19390.987040,2590.720797,-8364.327145,153.219100
19390.987373,2072.576638,-9104.533087,-2451.505594
19390.987706,592.164754,-11029.068536,-4213.525239
19390.988039,-296.082377,-12657.521608,-4673.182538
19390.988373,-1554.432478,-13323.706956,-3830.477490
19390.988706,-740.205942,-11843.295072,-1378.971896
19390.989039,0.000000,-9844.739029,1225.752797
19390.989372,2886.803174,-7105.977043,2374.896044
19390.989705,2368.659014,-4811.338623,5209.449386
19390.990039,5551.544565,-6809.894666,5209.449386
19390.990372,3478.967927,-8290.306550,2987.772442
19390.990705,296.082377,-7846.182985,689.485948
19390.991038,0.000000,-8142.265362,-2451.505594
19390.991372,-1628.453072,-10658.965565,-3524.039291
19390.991705,-2146.597232,-13027.624579,-4290.134789
19390.992038,-666.185348,-13027.624579,-76.609550
19390.992371,-2960.823768,-9844.739029,0.000000
19390.992704,0.000000,-8364.327145,3064.381992
19390.993038,3478.967927,-9474.636058,5745.716235
19390.993371,1850.514855,-3923.091493,2451.505594
19390.993704,3627.009116,-6957.935855,3600.648841
19390.994037,2072.576638,-6735.874072,153.219100
19390.994370,666.185348,-8808.450710,-2068.457845
19390.994704,0.000000,-9252.574275,-3524.039291
19390.995037,1110.308913,-11251.130318,-3140.991542
19390.995370,-4589.276840,-9548.656652,-2451.505594
19390.995703,-74.020594,-11843.295072,-1915.238745
19390.996037,1998.556043,-9474.636058,0.000000
19390.996370,0.000000,-9548.656652,4903.011187
19390.996703,5255.462188,-6957.935855,5898.935335
19390.997036,4663.297435,-6661.853478,5669.106685
19390.997369,3034.844362,-7031.956449,3600.648841
19390.997703,-370.102971,-7550.100608,-536.266849
19390.998036,-2960.823768,-7179.997637,-6435.202183
19390.998369,-7105.977043,-10140.821405,-5132.839837
19390.998702,-4811.338623,-11695.253884,-8350.440928
19390.999036,-7105.977043,-10732.986159,-6128.763984
19390.999369,-4737.318029,-11917.315666,919.314598
19390.999702,-2442.679609,-9548.656652,919.314598
19391.000035,592.164754,-8290.306550,6741.640382
19391.000368,3478.967927,-5921.647536,9269.755526
19391.000702,6143.709319,-4367.215058,9039.926876
19391.001035,4737.318029,-3627.009116,4979.620737
19391.001368,3108.864956,-6809.894666,612.876398
19391.001701,962.267725,-9178.553681,-4213.525239
19391.002034,-592.164754,-10436.903782,-7354.516781
19391.002368,-740.205942,-14211.954086,-7431.126331
19391.002701,-1554.432478,-13915.871710,-8197.221829
19391.003034,-4441.235652,-13101.645173,-4903.011187
19391.003367,-3552.988522,-10732.986159,612.876398
19391.003701,3330.926739,-10658.965565,4826.401637
19391.004034,4737.318029,-6143.709319,7967.393179
19391.004367,7920.203579,-4737.318029,10955.165621
19391.004700,6735.874072,-3849.070898,8886.707777
19391.005033,4071.132681,-5921.647536,4060.306139
19391.005367,-74.020594,-7994.224174,-3140.991542
19391.005700,-4293.194464,-10658.965565,-7431.126331
19391.006033,-7105.977043,-11029.068536,-7814.174080
19391.006366,-6587.832884,-13027.624579,-9882.631924
19391.006700,-5995.668130,-12731.542202,-7967.393179
19391.007033,-2442.679609,-14211.954086,-76.609550
19391.007366,-148.041188,-9548.656652,3677.258390
19391.007699,3256.906145,-8068.244768,8963.317327
19391.008032,6291.750507,-5995.668130,10418.898773
19391.008366,5033.400406,-4811.338623,9806.022374
19391.008699,7031.956449,-6513.812290,4826.401637
19391.009032,3552.988522,-9252.574275,2374.896044
19391.009365,-666.185348,-8734.430116,-6741.640382
19391.009699,-4737.318029,-10732.986159,-9499.584175
19391.010032,-4589.276840,-11473.192101,-9116.536426
19391.010365,-5699.585753,-13471.748144,-7277.907231
19391.010698,-4071.132681,-12805.562797,-4136.915689
19391.011031,-666.185348,-10881.027347,2757.943793
19391.011365,3256.906145,-7476.080014,9193.145976
19391.011698,6735.874072,-4589.276840,7967.393179
19391.012031,8216.285956,-7105.977043,11568.042020
19391.012364,7031.956449,-6809.894666,6052.154434
19391.012697,592.164754,-7179.997637,2374.896044
19391.013031,-1480.411884,-9326.594869,-4136.915689
19391.013364,-5995.668130,-11325.150913,-8350.440928
19391.013697,-8142.265362,-12065.356855,-9116.536426
19391.014030,-7846.182985,-11917.315666,-7354.516781
19391.014364,-7179.997637,-13027.624579,-3140.991542
19391.014697,-5921.647536,-9548.656652,1225.752797
19391.015030,1702.473667,-9178.553681,5745.716235
19391.015363,5255.462188,-3552.988522,8810.098227
19391.015696,5921.647536,-3627.009116,12870.404366
19391.016030,7402.059420,-6143.709319,8427.050478
19391.016363,6735.874072,-5477.523971,2834.553343
19391.016696,4589.276840,-7772.162391,-1532.190996
19391.017029,2960.823768,-10436.903782,-6128.763984
19391.017363,-1554.432478,-13619.789333,-9882.631924
19391.017696,-5329.482782,-13841.851115,-10418.898773
19391.018029,-4219.173869,-14434.015869,-8427.050478
19391.018362,-2220.617826,-12953.603985,-2604.724693
19391.018695,1406.391290,-10362.883188,2528.115143
19391.019029,7031.956449,-8290.306550,9729.412825
19391.019362,9104.533087,-3330.926739,11951.089769
19391.019695,8290.306550,-4219.173869,13406.671215
19391.020028,7624.121203,-6217.729913,5132.839837
19391.020362,3552.988522,-5107.421000,612.876398
19391.020695,0.000000,-10807.006753,-1915.238745
19391.021028,-2294.638420,-10807.006753,-7431.126331
19391.021361,-6365.771101,-12435.459826,-9882.631924
19391.021694,-7254.018232,-13915.871710,-8886.707777
19391.022028,-5699.585753,-13323.706956,-4979.620737
19391.022361,-3849.070898,-9548.656652,0.000000
19391.022694,1998.556043,-9474.636058,5515.887586
19391.023027,5033.400406,-8882.471304,10955.165621
19391.023360,6439.791695,-3627.009116,8580.269578
19391.023694,5551.544565,-6809.894666,6052.154434
19391.024027,4145.153275,-6217.729913,2528.115143
19391.024360,2738.761985,-7476.080014,0.000000
19391.024693,0.000000,-9918.759623,-3447.429741
19391.025027,-4737.318029,-9844.739029,-8580.269578
19391.025360,-9474.636058,-10732.986159,-7354.516781
19391.025693,-3627.009116,-13619.789333,-5592.497135
19391.026026,-3478.967927,-9474.636058,-2528.115143
19391.026359,0.000000,-8364.327145,3524.039291
19391.026693,1702.473667,-6365.771101,4290.134789
19391.027026,4959.379811,-6883.915261,7737.564530
19391.027359,3404.947333,-6365.771101,6588.421283
19391.027692,2294.638420,-6513.812290,2374.896044
19391.028026,592.164754,-8364.327145,0.000000
19391.028359,-666.185348,-10362.883188,-76.609550
19391.028692,-3627.009116,-10658.965565,-5822.325785
19391.029025,-8290.306550,-11325.150913,-5822.325785
19391.029358,-7105.977043,-12065.356855,-2528.115143
19391.029692,-4219.173869,-8956.491898,-2451.505594
19391.030025,1258.350101,-7994.224174,3217.601092
19391.030358,3775.050304,-6291.750507,6128.763984
19391.030691,5773.606348,-6143.709319,5822.325785
19391.031024,6513.812290,-8290.306550,5209.449386
19391.031358,5773.606348,-8512.368333,2451.505594
19391.031691,6069.688724,-7772.162391,-766.095498
19391.032024,4219.173869,-10584.944971,-2451.505594
19391.032357,2294.638420,-12435.459826,-5132.839837
19391.032691,-2072.576638,-11843.295072,-5898.935335
19391.033024,-3552.988522,-12213.398043,-3217.601092
19391.033357,1110.308913,-10658.965565,-1455.581446
19391.033690,1702.473667,-7772.162391,919.314598
19391.034023,5551.544565,-7994.224174,6052.154434
19391.034357,3923.091493,-7105.977043,4136.915689
19391.034690,4367.215058,-7105.977043,3294.210641
19391.035023,2812.782580,-7994.224174,3370.820191
19391.035356,1332.370696,-7772.162391,842.705048
19391.035690,1998.556043,-9474.636058,-229.828649
19391.036023,-4737.318029,-10732.986159,-306.438199
19391.036356,-2442.679609,-11547.212695,-4673.182538
19391.036689,-4737.318029,-9548.656652,-4596.572988
19391.037022,-3552.988522,-10140.821405,-919.314598
19391.037356,-666.185348,-8882.471304,1302.362347
19391.037689,-814.226536,-7624.121203,3217.601092
19391.038022,888.247130,-6587.832884,3064.381992
19391.038355,-592.164754,-7624.121203,1532.190996
19391.038689,518.144159,-7105.977043,-76.609550
19391.039022,1110.308913,-10658.965565,-76.609550
19391.039355,-666.185348,-8290.306550,-3447.429741
19391.039688,-3256.906145,-9844.739029,-2451.505594
19391.040021,-2368.659014,-12435.459826,-1072.533697
19391.040355,-3923.091493,-9696.697840,-1072.533697
19391.040688,-1110.308913,-9918.759623,1608.800546
19391.041021,222.061783,-8586.388927,2987.772442
19391.041354,1406.391290,-6957.935855,3524.039291
19391.041687,0.000000,-5403.503377,612.876398
19391.042021,2886.803174,-9474.636058,-76.609550
19391.042354,-2960.823768,-7476.080014,-3907.087040
19391.042687,-3552.988522,-9844.739029,-2528.115143
19391.043020,-1850.514855,-11843.295072,-2528.115143
19391.043354,-5625.565159,-11473.192101,-1991.848295
19391.043687,-5329.482782,-11325.150913,-1225.752797
19391.044020,-3701.029710,-10510.924376,1455.581446
19391.044353,-1554.432478,-8364.327145,4366.744339
19391.044686,1184.329507,-6587.832884,8273.831378
19391.045020,4663.297435,-4737.318029,5286.058936
19391.045353,2664.741391,-4219.173869,5209.449386
19391.045686,3552.988522,-8068.244768,4213.525239
19391.046019,3478.967927,-8290.306550,-3140.991542
19391.046353,0.000000,-10140.821405,-4519.963438
19391.046686,74.020594,-10732.986159,-7354.516781
19391.047019,666.185348,-13323.706956,-6205.373534
19391.047352,-222.061783,-13101.645173,-4903.011187
19391.047685,0.000000,-11917.315666,-1532.190996
19391.048019,3552.988522,-10510.924376,3907.087040
19391.048352,6143.709319,-8586.388927,7201.297681
19391.048685,7254.018232,-4885.359217,8503.660028
19391.049018,7920.203579,-4737.318029,7277.907231
19391.049351,4145.153275,-5107.421000,3983.696590
19391.049685,2664.741391,-7994.224174,2374.896044
19391.050018,1998.556043,-8882.471304,-6205.373534
19391.050351,-3108.864956,-9918.759623,-7660.954980
19391.050684,-1850.514855,-14211.954086,-6205.373534
19391.051018,-3330.926739,-13101.645173,-4443.353888
19391.051351,-2442.679609,-12583.501014,-1915.238745
19391.051684,0.000000,-11177.109724,2145.067394
19391.052017,1776.494261,-7772.162391,5515.887586
19391.052350,2960.823768,-5995.668130,9959.241474
19391.052684,7624.121203,-5625.565159,7277.907231
19391.053017,2812.782580,-3627.009116,1838.629195
19391.053350,740.205942,-6661.853478,536.266849
19391.053683,-1258.350101,-8586.388927,-4060.306139
19391.054017,-2664.741391,-10510.924376,-6205.373534
19391.054350,-5995.668130,-12287.418637,-8427.050478
19391.054683,-5699.585753,-12139.377449,-7507.735880
19391.055016,-3775.050304,-13175.665768,-2145.067394
19391.055349,-2368.659014,-9548.656652,3677.258390
19391.055683,4367.215058,-8882.471304,5745.716235
19391.056016,4515.256246,-5107.421000,9193.145976
19391.056349,4737.318029,-4219.173869,10418.898773
19391.056682,4515.256246,-5403.503377,5209.449386
19391.057016,1554.432478,-7698.141797,-76.609550
19391.057349,-3552.988522,-8660.409521,-5362.668486
19391.057682,-7031.956449,-12287.418637,-9116.536426
19391.058015,-6587.832884,-12731.542202,-9882.631924
19391.058348,-10362.883188,-13989.892304,-5975.544884
19391.058682,-8364.327145,-12731.542202,-4366.744339
19391.059015,-4663.297435,-9548.656652,2451.505594
19391.059348,1776.494261,-7476.080014,7967.393179
19391.059681,7031.956449,-5625.565159,13406.671215
19391.060014,6365.771101,-4515.256246,11644.651570
19391.060348,7328.038826,-4293.194464,8197.221829
19391.060681,4441.235652,-6069.688724,2987.772442
19391.061014,1480.411884,-6587.832884,-3370.820191
19391.061347,1702.473667,-12435.459826,-7431.126331
19391.061681,-4737.318029,-13101.645173,-9806.022374
19391.062014,-5921.647536,-13101.645173,-9652.803275
19391.062347,-3034.844362,-15988.448347,-7737.564530
19391.062680,-1554.432478,-13027.624579,-2681.334243
19391.063013,666.185348,-8364.327145,3830.477490
19391.063347,7031.956449,-5921.647536,10342.289223
19391.063680,9474.636058,-3627.009116,13483.280765
19391.064013,8290.306550,-2442.679609,9806.022374
19391.064346,8216.285956,-5033.400406,6358.592633
19391.064680,3701.029710,-7031.956449,995.924147
19391.065013,370.102971,-9474.636058,-5592.497135
19391.065346,-4293.194464,-11917.315666,-9729.412825
19391.065679,-7179.997637,-12879.583391,-12257.527968
19391.066012,-6069.688724,-15100.201217,-6818.249932
19391.066346,-3627.009116,-13619.789333,-5286.058936
19391.066679,-3552.988522,-11325.150913,2911.162892
19391.067012,3256.906145,-9474.636058,8044.002729
19391.067345,7328.038826,-3849.070898,10418.898773
19391.067678,8438.347739,-4145.153275,10955.165621
19391.068012,6661.853478,-5847.626942,6818.249932
19391.068345,5921.647536,-6143.709319,3064.381992
19391.068678,1480.411884,-7476.080014,-1838.629195
19391.069011,1702.473667,-12435.459826,-6818.249932
19391.069345,-6365.771101,-10732.986159,-12257.527968
19391.069678,-7698.141797,-14582.057057,-8120.612279
19391.070011,-4811.338623,-15396.283594,-4979.620737
19391.070344,-4737.318029,-9548.656652,0.000000
19391.070677,74.020594,-8808.450710,4596.572988
19391.071011,4071.132681,-6439.791695,8963.317327
19391.071344,7179.997637,-4737.318029,11108.384721
19391.071677,5329.482782,-5107.421000,8733.488677
19391.072010,4663.297435,-8290.306550,2374.896044
19391.072343,-1776.494261,-6735.874072,-919.314598
19391.072677,-4737.318029,-11325.150913,-2221.676944
19391.073010,-6587.832884,-11843.295072,-9116.536426
19391.073343,-10362.883188,-12805.562797,-7507.735880
19391.073676,-9178.553681,-13767.830521,-5439.278036
19391.074009,-6217.729913,-10214.842000,-1532.190996
19391.074343,-4145.153275,-7772.162391,4290.134789
19391.074676,3478.967927,-6513.812290,8197.221829
19391.075009,5847.626942,-3404.947333,6741.640382
19391.075342,7698.141797,-6809.894666,9729.412825
19391.075675,5847.626942,-7105.977043,3600.648841
19391.076008,2368.659014,-7179.997637,0.000000
19391.076342,3552.988522,-10658.965565,-1915.238745
19391.076675,-740.205942,-12435.459826,-6511.811733
19391.077008,-3478.967927,-12509.480420,-9499.584175
19391.077341,-4811.338623,-14063.912898,-7354.516781
19391.077674,-3034.844362,-13323.706956,-2528.115143
19391.078008,370.102971,-9326.594869,1532.190996
19391.078341,2960.823768,-6957.935855,5209.449386
19391.078674,6217.729913,-5255.462188,8503.660028
19391.079007,5329.482782,-4811.338623,7354.516781
19391.079340,4737.318029,-4811.338623,7354.516781
19391.079674,4071.132681,-7105.977043,-76.609550
19391.080007,0.000000,-7476.080014,-4903.011187
19391.080340,-296.082377,-13619.789333,-3140.991542
19391.080673,-5921.647536,-11917.315666,-6128.763984
19391.081006,-5625.565159,-12213.398043,-6358.592633
19391.081340,-3034.844362,-12139.377449,-4366.744339
19391.081673,-2368.659014,-10510.924376,842.705048
19391.082006,2886.803174,-9474.636058,4826.401637
19391.082339,666.185348,-4811.338623,5745.716235
19391.082672,4663.297435,-4293.194464,2451.505594
19391.083005,3552.988522,-7772.162391,5745.716235
19391.083339,5847.626942,-8734.430116,3600.648841
19391.083672,4071.132681,-8586.388927,-76.609550
19391.084005,1554.432478,-12435.459826,-1915.238745
19391.084338,-74.020594,-13027.624579,-2834.553343
19391.084671,-3034.844362,-12139.377449,-3753.867940
19391.085005,-2294.638420,-11843.295072,-2298.286494
19391.085338,-888.247130,-10066.800811,2068.457845
19391.085671,0.000000,-5403.503377,0.000000
19391.086004,2368.659014,-6587.832884,5515.887586
19391.086337,2886.803174,-6809.894666,2757.943793
19391.086671,740.205942,-6291.750507,612.876398
19391.087004,-888.247130,-9178.553681,-76.609550
19391.087337,-2220.617826,-8364.327145,-3064.381992
19391.087670,-3849.070898,-10881.027347,-3600.648841
19391.088003,-4959.379811,-12213.398043,-2681.334243
19391.088337,-4811.338623,-10362.883188,-2528.115143
19391.088670,-3552.988522,-11251.130318,2987.772442
19391.089003,-74.020594,-10658.965565,5439.278036
19391.089336,2886.803174,-6513.812290,4673.182538
19391.089669,2368.659014,-5403.503377,6741.640382
19391.090002,3775.050304,-5773.606348,2911.162892
19391.090336,3478.967927,-7994.224174,0.000000
19391.090669,1924.535449,-8882.471304,-2451.505594
19391.091002,962.267725,-10658.965565,-3294.210641
19391.091335,0.000000,-10288.862594,-4903.011187
19391.091668,1110.308913,-14211.954086,-3753.867940
19391.092002,-370.102971,-11843.295072,-3140.991542
19391.092335,-2812.782580,-9548.656652,0.000000
19391.092668,4293.194464,-9474.636058,6052.154434
19391.093001,3849.070898,-5995.668130,6741.640382
19391.093334,4885.359217,-6069.688724,6971.469032
19391.093668,3627.009116,-6217.729913,4596.572988
19391.094001,1850.514855,-6883.915261,-229.828649
19391.094334,-3034.844362,-8216.285956,-5362.668486
19391.094667,-2368.659014,-9770.718434,-6205.373534
19391.095000,-2738.761985,-11843.295072,-5056.230287
19391.095334,-4293.194464,-12213.398043,-4596.572988
19391.095667,-1850.514855,-13619.789333,-1608.800546
19391.096000,-1924.535449,-8956.491898,2451.505594
19391.096333,2294.638420,-9474.636058,8273.831378
19391.096666,6439.791695,-8290.306550,7890.783629
19391.097000,2590.720797,-4811.338623,6128.763984
19391.097333,3997.112087,-7105.977043,4213.525239
19391.097666,0.000000,-7772.162391,-612.876398
19391.097999,444.123565,-8734.430116,-4749.792088
19391.098332,-3182.885551,-10955.047942,-5898.935335
19391.098665,-4145.153275,-8660.409521,-8580.269578
19391.098999,-3330.926739,-10140.821405,-6128.763984
19391.099332,-666.185348,-13619.789333,-1302.362347
19391.099665,1406.391290,-11843.295072,1149.143247
19391.099998,2368.659014,-7920.203579,6128.763984
19391.100331,4959.379811,-7105.977043,9116.536426
19391.100665,5181.441594,-5477.523971,8427.050478
19391.100998,4367.215058,-6661.853478,4903.011187
19391.101331,370.102971,-7550.100608,-229.828649
19391.101664,-4441.235652,-9252.574275,-4136.915689
19391.101997,-6513.812290,-9548.656652,-7354.516781
19391.102331,-5995.668130,-12731.542202,-9269.755526
19391.102664,-7920.203579,-10881.027347,-7354.516781
19391.102997,-6735.874072,-11029.068536,-2451.505594
19391.103330,-4145.153275,-9844.739029,1532.190996
19391.103663,518.144159,-7698.141797,6665.030833
19391.103997,4293.194464,-6439.791695,10495.508323
19391.104330,6587.832884,-4441.235652,10955.165621
19391.104663,7624.121203,-5921.647536,8503.660028
19391.104996,4145.153275,-5995.668130,3294.210641
19391.105329,1702.473667,-9474.636058,-4366.744339
19391.105662,-1628.453072,-9548.656652,-7354.516781
19391.105996,-74.020594,-13027.624579,-8273.831378
19391.106329,-1850.514855,-15396.283594,-8120.612279
19391.106662,-3034.844362,-13619.789333,-8427.050478
19391.106995,-222.061783,-14211.954086,-1608.800546
19391.107328,3108.864956,-9252.574275,4366.744339
19391.107662,5625.565159,-5255.462188,8733.488677
19391.107995,9992.780217,-7105.977043,11568.042020
19391.108328,7254.018232,-2442.679609,9806.022374
19391.108661,3552.988522,-4811.338623,8273.831378
19391.108994,4367.215058,-7105.977043,-76.609550
19391.109328,-1258.350101,-8734.430116,-4749.792088
19391.109661,-4811.338623,-11325.150913,-9193.145976
19391.109994,-5773.606348,-12139.377449,-9269.755526
19391.110327,-6069.688724,-13619.789333,-7737.564530
19391.110660,-5699.585753,-11991.336260,-4903.011187
19391.110994,-814.226536,-13027.624579,1762.019645
19391.111327,2072.576638,-8512.368333,7354.516781
19391.111660,5033.400406,-5255.462188,9959.241474
19391.111993,6587.832884,-5773.606348,9729.412825
19391.112326,5847.626942,-4737.318029,6205.373534
19391.112659,4145.153275,-7105.977043,4826.401637
19391.112993,4663.297435,-8290.306550,-2528.115143
19391.113326,-2368.659014,-9548.656652,-5515.887586
19391.113659,-3552.988522,-11917.315666,-7967.393179
19391.113992,-3923.091493,-12583.501014,-9652.803275
19391.114325,-4515.256246,-14063.912898,-5592.497135
19391.114659,-3478.967927,-11769.274478,-1685.410096
19391.114992,0.000000,-9844.739029,4596.572988
19391.115325,3552.988522,-5403.503377,7354.516781
19391.115658,7624.121203,-7105.977043,11568.042020
19391.115991,5847.626942,-7105.977043,7890.783629
19391.116325,1184.329507,-4219.173869,4290.134789
19391.116658,2294.638420,-9474.636058,-76.609550
19391.116991,-3775.050304,-8364.327145,-6128.763984
19391.117324,-7179.997637,-12287.418637,-8503.660028
19391.117657,-10436.903782,-13249.686362,-9422.974625
19391.117991,-10288.862594,-13989.892304,-6205.373534
19391.118324,-7550.100608,-10732.986159,-1378.971896
19391.118657,-74.020594,-11843.295072,6052.154434
19391.118990,3701.029710,-4811.338623,9806.022374
19391.119323,6513.812290,-2442.679609,13483.280765
19391.119656,7105.977043,-4737.318029,10035.851024
19391.119990,4885.359217,-4811.338623,3753.867940
19391.120323,5107.421000,-7031.956449,-1225.752797
19391.120656,3997.112087,-8734.430116,-4519.963438
19391.120989,962.267725,-12509.480420,-8120.612279
19391.121322,-3034.844362,-13323.706956,-11108.384721
19391.121656,-4219.173869,-14211.954086,-10495.508323
19391.121989,-4737.318029,-13397.727550,-3370.820191
19391.122322,962.267725,-12213.398043,4903.011187
19391.122655,4663.297435,-7402.059420,4213.525239
19391.122988,7105.977043,-5699.585753,12027.699319
19391.123322,8808.450710,-3701.029710,10955.165621
19391.123655,7105.977043,-5329.482782,7890.783629
19391.123988,4145.153275,-5995.668130,2451.505594
19391.124321,2294.638420,-8882.471304,-689.485948
19391.124654,-2812.782580,-10955.047942,-4979.620737
19391.124988,-5995.668130,-11917.315666,-8886.707777
19391.125321,-8290.306550,-12805.562797,-9806.022374
19391.125654,-9474.636058,-13101.645173,-6741.640382
19391.125987,-5921.647536,-11621.233289,1072.533697
19391.126320,-74.020594,-10658.965565,3600.648841
19391.126653,1998.556043,-7105.977043,5439.278036
19391.126987,2664.741391,-4811.338623,8273.831378
19391.127320,3552.988522,-4811.338623,7660.954980
19391.127653,3923.091493,-5847.626942,3907.087040
19391.127986,2516.700203,-7920.203579,1685.410096
19391.128319,1332.370696,-8364.327145,-1608.800546
19391.128653,-1258.350101,-13619.789333,-3447.429741
19391.128986,-5625.565159,-10436.903782,-7354.516781
19391.129319,-4811.338623,-11325.150913,-7967.393179
19391.129652,-4145.153275,-11917.315666,-842.705048
19391.129985,592.164754,-9918.759623,3600.648841
19391.130319,2294.638420,-8586.388927,5362.668486
19391.130652,2368.659014,-7031.956449,6665.030833
19391.130985,1924.535449,-7254.018232,6052.154434
19391.131318,1258.350101,-5995.668130,2757.943793
19391.131651,-1110.308913,-7031.956449,-306.438199
19391.131985,-4145.153275,-9548.656652,-459.657299
19391.132318,-5921.647536,-9548.656652,-4596.572988
19391.132651,-8290.306550,-11029.068536,-2528.115143
19391.132984,-4811.338623,-11251.130318,-3753.867940
19391.133317,-4811.338623,-10362.883188,-842.705048
19391.133650,-444.123565,-8882.471304,2528.115143
19391.133984,2072.576638,-6809.894666,4903.011187
19391.134317,2738.761985,-6587.832884,4596.572988
19391.134650,4071.132681,-6291.750507,3140.991542
19391.134983,5255.462188,-10658.965565,3600.648841
19391.135316,2960.823768,-7772.162391,612.876398
19391.135650,2368.659014,-9548.656652,-1225.752797
19391.135983,4071.132681,-12731.542202,-4366.744339
19391.136316,-1776.494261,-10732.986159,-4749.792088
19391.136649,-74.020594,-11325.150913,-3217.601092
19391.136982,1850.514855,-11029.068536,0.000000
19391.137316,3775.050304,-8364.327145,3140.991542
19391.137649,4959.379811,-6513.812290,5132.839837
19391.137982,6291.750507,-4885.359217,3294.210641
19391.138315,3552.988522,-6735.874072,5515.887586
19391.138648,4367.215058,-6809.894666,-76.609550
19391.138982,1702.473667,-7550.100608,-3677.258390
19391.139315,0.000000,-7179.997637,-3677.258390
19391.139648,-370.102971,-10732.986159,-4903.011187
19391.139981,-1850.514855,-13249.686362,-2604.724693
19391.140314,-2072.576638,-11843.295072,-1991.848295
19391.140647,-1406.391290,-11103.089130,995.924147
19391.140981,1702.473667,-9474.636058,1225.752797
19391.141314,1850.514855,-7698.141797,4366.744339
19391.141647,1554.432478,-6365.771101,3524.039291
19391.141980,2442.679609,-5847.626942,2068.457845
19391.142313,0.000000,-7772.162391,2451.505594
19391.142647,1702.473667,-7698.141797,-2528.115143
19391.142980,-2368.659014,-9548.656652,-4903.011187
19391.143313,-1036.288319,-11843.295072,-1302.362347
19391.143646,-3627.009116,-10732.986159,-4596.572988
19391.143979,-3849.070898,-10732.986159,0.000000
19391.144313,-962.267725,-10066.800811,1762.019645
19391.144646,1036.288319,-8512.368333,4519.963438
19391.144979,3182.885551,-7031.956449,5975.544884
19391.145312,3478.967927,-7105.977043,4826.401637
19391.145645,2294.638420,-8290.306550,1149.143247
19391.145979,-3552.988522,-7179.997637,-1532.190996
19391.146312,-4737.318029,-10140.821405,-3140.991542
19391.146645,-4959.379811,-9326.594869,-7431.126331
19391.146978,-6513.812290,-11473.192101,-2451.505594
19391.147311,-5403.503377,-10881.027347,-2451.505594
19391.147645,-3849.070898,-10510.924376,995.924147
19391.147978,-740.205942,-8660.409521,5439.278036
19391.148311,1702.473667,-6513.812290,6818.249932
19391.148644,5847.626942,-4145.153275,6665.030833
19391.148977,4737.318029,-5699.585753,8733.488677
19391.149310,4367.215058,-7105.977043,2374.896044
19391.149644,222.061783,-6587.832884,-3677.258390
19391.149977,-74.020594,-11251.130318,-5286.058936
19391.150310,-2368.659014,-11769.274478,-7737.564530
19391.150643,-3108.864956,-12805.562797,-8197.221829
19391.150976,-2442.679609,-13619.789333,-5439.278036
19391.151310,-2368.659014,-11029.068536,-1685.410096
19391.151643,2146.597232,-8068.244768,1838.629195
19391.151976,4737.318029,-7920.203579,10342.289223
19391.152309,9400.615463,-4737.318029,9729.412825
19391.152642,7698.141797,-1850.514855,7814.174080
19391.152976,6217.729913,-4811.338623,4979.620737
19391.153309,3108.864956,-7402.059420,-153.219100
19391.153642,-2220.617826,-9548.656652,-5822.325785
19391.153975,-3404.947333,-10807.006753,-9193.145976
19391.154308,-3627.009116,-14211.954086,-7737.564530
19391.154642,-7105.977043,-12509.480420,-7354.516781
19391.154975,-2442.679609,-14211.954086,-1915.238745
19391.155308,-74.020594,-11547.212695,2374.896044
19391.155641,2368.659014,-7772.162391,9193.145976
19391.155974,5995.668130,-5403.503377,10342.289223
19391.156307,7698.141797,-4367.215058,10955.165621
19391.156641,6883.915261,-3997.112087,7124.688131
19391.156974,4367.215058,-6513.812290,1378.971896
19391.157307,2294.638420,-9474.636058,-2528.115143
19391.157640,-2960.823768,-10732.986159,-7354.516781
19391.157973,-3701.029710,-12805.562797,-9806.022374
19391.158307,-6365.771101,-14211.954086,-9729.412825
19391.158640,-5773.606348,-13693.809927,-6665.030833
19391.158973,-2072.576638,-13323.706956,1532.190996
19391.159306,740.205942,-5995.668130,3677.258390
19391.159639,5477.523971,-7105.977043,12793.794817
19391.159973,6735.874072,-4145.153275,10648.727422
19391.160306,5255.462188,-3256.906145,8656.879127
19391.160639,3330.926739,-6217.729913,4826.401637
19391.160972,-1110.308913,-7031.956449,-2298.286494
19391.161305,-6069.688724,-10658.965565,-7431.126331
19391.161639,-9400.615463,-11917.315666,-10265.679673
19391.161972,-8660.409521,-14211.954086,-8656.879127
19391.162305,-10955.047942,-13101.645173,-5515.887586
19391.162638,-5921.647536,-13323.706956,-76.609550
19391.162971,-2664.741391,-9770.718434,4749.792088
19391.163304,592.164754,-3627.009116,9806.022374
19391.163638,7031.956449,-3552.988522,12180.918418
19391.163971,7254.018232,-4663.297435,9729.412825
19391.164304,5403.503377,-4515.256246,4979.620737
19391.164637,3552.988522,-6439.791695,459.657299
19391.164970,2294.638420,-8438.347739,-5132.839837
19391.165304,-4737.318029,-11917.315666,-7967.393179
19391.165637,-4219.173869,-14211.954086,-10495.508323
19391.165970,-5107.421000,-14211.954086,-11644.651570
19391.166303,-3108.864956,-14582.057057,-3294.210641
19391.166636,-1110.308913,-10140.821405,306.438199
19391.166970,4367.215058,-7550.100608,7354.516781
19391.167303,8808.450710,-4737.318029,12257.527968
19391.167636,9918.759623,-3182.885551,12257.527968
19391.167969,7254.018232,-3627.009116,7354.516781
19391.168302,6513.812290,-7031.956449,6052.154434
19391.168636,1110.308913,-7328.038826,-3983.696590
19391.168969,-1184.329507,-12213.398043,-5822.325785
19391.169302,-4885.359217,-14804.118840,-7431.126331
19391.169635,-7476.080014,-12213.398043,-9806.022374
19391.169968,-5773.606348,-13915.871710,-5209.449386
19391.170301,-2886.803174,-11473.192101,0.000000
19391.170632,-592.164754,-9622.677246,5286.058936
19391.170965,3552.988522,-4811.338623,6741.640382
19391.171298,8512.368333,-4737.318029,10955.165621
19391.171632,7105.977043,-4811.338623,8503.660028
19391.171965,6439.791695,-5329.482782,3294.210641
19391.172298,5847.626942,-8290.306550,1149.143247
19391.172631,2294.638420,-10362.883188,-4903.011187
19391.172964,-2368.659014,-11473.192101,-7048.078582
19391.173298,-5921.647536,-14359.995275,-8044.002729
19391.173631,-5403.503377,-14804.118840,-7890.783629
19391.173964,-3627.009116,-12879.583391,-1838.629195
19391.174297,-370.102971,-9474.636058,1685.410096
19391.174631,1776.494261,-7179.997637,7048.078582
19391.174964,5181.441594,-5329.482782,9806.022374
19391.175297,7031.956449,-3552.988522,8503.660028
19391.175630,2368.659014,-4811.338623,3217.601092
19391.175963,0.000000,-6735.874072,1072.533697
19391.176297,-1258.350101,-8882.471304,-3140.991542
19391.176630,-6291.750507,-9844.739029,-7354.516781
19391.176963,-7179.997637,-11843.295072,-8963.317327
19391.177296,-9252.574275,-13767.830521,-6818.249932
19391.177629,-7105.977043,-12435.459826,-2757.943793
19391.177963,-3701.029710,-9252.574275,1915.238745
19391.178296,0.000000,-6587.832884,6128.763984
19391.178629,3478.967927,-4293.194464,6818.249932
19391.178962,6513.812290,-7105.977043,10955.165621
19391.179295,5847.626942,-4219.173869,3677.258390
19391.179629,5181.441594,-7105.977043,2757.943793
19391.179962,2960.823768,-8364.327145,-2451.505594
19391.180295,888.247130,-11325.150913,-3983.696590
19391.180628,-2664.741391,-12879.583391,-6894.859482
19391.180961,-3478.967927,-13027.624579,-7124.688131
19391.181295,-2442.679609,-15396.283594,-3140.991542
19391.181628,-2368.659014,-8660.409521,0.000000
19391.181961,4071.132681,-7698.141797,4826.401637
19391.182294,5255.462188,-5921.647536,5286.058936
19391.182627,4737.318029,-4811.338623,8503.660028
19391.182961,5847.626942,-8290.306550,6665.030833
19391.183294,2664.741391,-5921.647536,2987.772442
19391.183627,666.185348,-7402.059420,-1685.410096
19391.183960,-1554.432478,-10881.027347,-3370.820191
19391.184294,-2146.597232,-11843.295072,-4060.306139
19391.184627,-4737.318029,-11917.315666,-995.924147
19391.184960,-1258.350101,-11251.130318,-3753.867940
19391.185293,-2368.659014,-10732.986159,0.000000
19391.185626,2220.617826,-10658.965565,3600.648841
19391.185960,4367.215058,-7994.224174,5132.839837
19391.186293,3034.844362,-7624.121203,4213.525239
19391.186626,3034.844362,-6661.853478,2451.505594
19391.186959,1628.453072,-8512.368333,459.657299
19391.187292,3182.885551,-7846.182985,-383.047749
19391.187626,592.164754,-9104.533087,-383.047749
19391.187959,0.000000,-12213.398043,-1838.629195
19391.188292,-1184.329507,-11325.150913,-2068.457845
19391.188625,-370.102971,-11695.253884,-229.828649
19391.188958,2294.638420,-10658.965565,2374.896044
19391.189292,0.000000,-7772.162391,3983.696590
19391.189625,1184.329507,-7772.162391,5898.935335
19391.189958,2886.803174,-7105.977043,1915.238745
19391.190291,-1036.288319,-7179.997637,0.000000
19391.190624,-814.226536,-8882.471304,-2834.553343
19391.190958,-3701.029710,-9252.574275,-3370.820191
19391.191291,-4367.215058,-9696.697840,-3677.258390
19391.191624,-5033.400406,-11251.130318,-2451.505594
19391.191957,-6217.729913,-10881.027347,-2451.505594
19391.192291,-4737.318029,-9548.656652,3370.820191
19391.192624,-74.020594,-7698.141797,4213.525239
19391.192957,3478.967927,-6513.812290,5669.106685
19391.193290,2368.659014,-5699.585753,7354.516781
19391.193623,4071.132681,-5921.647536,1915.238745
19391.193957,2368.659014,-7624.121203,-76.609550
19391.194290,0.000000,-9104.533087,-3677.258390
19391.194623,666.185348,-9474.636058,-5745.716235
19391.194956,0.000000,-12213.398043,-5515.887586
19391.195289,-3552.988522,-11325.150913,-2298.286494
19391.195623,-74.020594,-12435.459826,-3447.429741
19391.195956,0.000000,-9548.656652,0.000000
19391.196289,2368.659014,-9548.656652,6588.421283
19391.196622,3701.029710,-4811.338623,7660.954980
19391.196955,6587.832884,-4737.318029,7584.345430
19391.197289,4441.235652,-5255.462188,4903.011187
19391.197622,1776.494261,-6291.750507,1532.190996
19391.197955,-74.020594,-8734.430116,-2528.115143
19391.198288,-3849.070898,-10807.006753,-4979.620737
19391.198621,-3627.009116,-9178.553681,-9806.022374
19391.198955,-4737.318029,-13249.686362,-4136.915689
19391.199288,-1480.411884,-13101.645173,-76.609550
19391.199621,-888.247130,-10732.986159,2374.896044
19391.199954,1628.453072,-9622.677246,6128.763984
19391.200287,4811.338623,-7402.059420,8273.831378
19391.200621,7105.977043,-5699.585753,9729.412825
19391.200954,5403.503377,-5181.441594,5362.668486
19391.201287,4071.132681,-7105.977043,76.609550
19391.201620,0.000000,-6587.832884,-6128.763984
19391.201954,0.000000,-10436.903782,-4060.306139
19391.202287,-2442.679609,-11251.130318,-7354.516781
19391.202620,-3552.988522,-11325.150913,-5975.544884
19391.202953,-2590.720797,-12731.542202,-4060.306139
19391.203286,-666.185348,-11399.171507,229.828649
19391.203620,2812.782580,-8882.471304,4826.401637
