#time,accel_x,accel_y,accel_z
22169.313670,7105.977043,-9252.574275,1991.848295
22169.314003,8808.450710,-9030.512492,3370.820191
22169.314337,9844.739029,-9474.636058,4213.525239
22169.314670,10066.800811,-7698.141797,2987.772442
22169.315004,11769.274478,-8882.471304,2374.896044
22169.315338,9474.636058,-8956.491898,3600.648841
22169.315671,9104.533087,-9474.636058,-995.924147
22169.316005,7031.956449,-8068.244768,-4903.011187
22169.316339,7920.203579,-10658.965565,-1915.238745
22169.316672,7105.977043,-9844.739029,-2911.162892
22169.317006,7254.018232,-9844.739029,-2068.457845
22169.317339,8512.368333,-10510.924376,0.000000
22169.317673,8586.388927,-10140.821405,3064.381992
22169.318007,7031.956449,-9548.656652,1532.190996
22169.318340,4737.318029,-11917.315666,6052.154434
22169.318674,5847.626942,-7994.224174,1532.190996
22169.319007,5625.565159,-9104.533087,4903.011187
22169.319341,6365.771101,-5107.421000,2911.162892
22169.319675,5773.606348,-7624.121203,2374.896044
22169.320008,5625.565159,-7105.977043,1149.143247
22169.320342,6291.750507,-6809.894666,-153.219100
22169.320676,9400.615463,-8290.306550,-1608.800546
22169.321009,6217.729913,-8364.327145,-766.095498
22169.321343,8808.450710,-10658.965565,-3140.991542
22169.321676,9400.615463,-9992.780217,-4903.011187
22169.322010,8290.306550,-12213.398043,-229.828649
22169.322344,10436.903782,-11917.315666,-689.485948
22169.322677,9548.656652,-11547.212695,2068.457845
22169.323011,9178.553681,-10732.986159,2451.505594
22169.323344,9548.656652,-8956.491898,3217.601092
22169.323678,11473.192101,-8882.471304,4826.401637
22169.324012,9622.677246,-5995.668130,4596.572988
22169.324345,10140.821405,-5255.462188,3140.991542
22169.324679,8438.347739,-7402.059420,536.266849
22169.325013,7624.121203,-8216.285956,-689.485948
22169.325346,6587.832884,-12435.459826,-919.314598
22169.325680,3923.091493,-7179.997637,-4903.011187
22169.326013,3552.988522,-10881.027347,-919.314598
22169.326347,6735.874072,-10658.965565,-995.924147
22169.326681,9104.533087,-6809.894666,1915.238745
22169.327014,11769.274478,-9474.636058,4826.401637
22169.327348,11843.295072,-6735.874072,2528.115143
22169.327681,9696.697840,-7994.224174,306.438199
22169.328015,10066.800811,-8364.327145,-919.314598
22169.328349,10584.944971,-7994.224174,-2528.115143
22169.328682,6217.729913,-8364.327145,-2451.505594
22169.329016,7105.977043,-11769.274478,-2528.115143
22169.329350,7624.121203,-13027.624579,-3140.991542
22169.329683,8290.306550,-10732.986159,2451.505594
22169.330017,13545.768739,-9474.636058,4903.011187
22169.330350,16210.510130,-7328.038826,7124.688131
22169.330684,17320.819043,-6069.688724,6741.640382
22169.331018,16580.613101,-5329.482782,5132.839837
22169.331351,14211.954086,-5403.503377,0.000000
22169.331685,10658.965565,-11917.315666,-1302.362347
22169.332018,7031.956449,-11473.192101,-8810.098227
22169.332352,3182.885551,-12509.480420,-9806.022374
22169.332686,6365.771101,-13619.789333,-4979.620737
22169.333019,6587.832884,-9696.697840,-2298.286494
22169.333353,12213.398043,-6809.894666,2681.334243
22169.333687,15100.201217,-6143.709319,7354.516781
22169.334020,14508.036463,-6661.853478,8197.221829
22169.334354,11399.171507,-9548.656652,5515.887586
22169.334687,12139.377449,-9030.512492,6052.154434
22169.335021,15322.262999,-6809.894666,842.705048
22169.335355,11843.295072,-5995.668130,0.000000
22169.335688,12657.521608,-9474.636058,-1915.238745
22169.336022,5921.647536,-9548.656652,-7201.297681
22169.336355,5329.482782,-13249.686362,-6205.373534
22169.336689,3552.988522,-12657.521608,-4903.011187
22169.337023,5255.462188,-10807.006753,-2757.943793
22169.337356,9474.636058,-9252.574275,612.876398
22169.337690,14359.995275,-7698.141797,7431.126331
22169.338024,16654.633695,-4811.338623,9882.631924
22169.338357,15100.201217,-8290.306550,10265.679673
22169.338691,13545.768739,-8882.471304,4826.401637
22169.339024,12953.603985,-7105.977043,1608.800546
22169.339358,9474.636058,-5995.668130,-919.314598
22169.339692,9474.636058,-8364.327145,-2911.162892
22169.340025,4663.297435,-10658.965565,-9116.536426
22169.340359,2294.638420,-13397.727550,-7431.126331
22169.340692,5255.462188,-11991.336260,-4136.915689
22169.341026,8512.368333,-8734.430116,-995.924147
22169.341360,11991.336260,-9548.656652,3217.601092
22169.341693,9474.636058,-6291.750507,3064.381992
22169.342027,13249.686362,-8586.388927,3907.087040
22169.342361,10658.965565,-10436.903782,9116.536426
22169.342694,15322.262999,-5625.565159,4213.525239
22169.343028,13545.768739,-7476.080014,3677.258390
22169.343361,11843.295072,-5995.668130,-766.095498
22169.343695,6513.812290,-12805.562797,-4673.182538
22169.344029,3552.988522,-12139.377449,-4979.620737
22169.344362,8068.244768,-8068.244768,-4366.744339
22169.344696,10584.944971,-9178.553681,3600.648841
22169.345029,9400.615463,-4293.194464,-2451.505594
22169.345363,7846.182985,-14211.954086,-76.609550
22169.345697,9400.615463,-9474.636058,-689.485948
22169.346030,11251.130318,-9548.656652,1225.752797
22169.346364,14211.954086,-6439.791695,6281.983084
22169.346698,11399.171507,-10510.924376,4826.401637
22169.347031,10955.047942,-7476.080014,3064.381992
22169.347365,8438.347739,-11177.109724,612.876398
22169.347698,10066.800811,-5921.647536,-1608.800546
22169.348032,7105.977043,-7179.997637,0.000000
22169.348366,9104.533087,-10658.965565,-2528.115143
22169.348699,10584.944971,-8882.471304,-1302.362347
22169.349033,3552.988522,-9548.656652,-1685.410096
22169.349366,10584.944971,-8290.306550,-3140.991542
22169.349700,7846.182985,-10362.883188,-1762.019645
22169.350034,10140.821405,-10436.903782,1838.629195
22169.350367,8660.409521,-10807.006753,2757.943793
22169.350701,10510.924376,-10362.883188,5439.278036
22169.351035,8660.409521,-13027.624579,6052.154434
22169.351368,8216.285956,-9548.656652,612.876398
22169.351702,7402.059420,-6883.915261,5822.325785
22169.352035,6439.791695,-5921.647536,-689.485948
22169.352369,7031.956449,-8290.306550,-689.485948
22169.352703,3108.864956,-8290.306550,-689.485948
22169.353036,1036.288319,-10214.842000,-3677.258390
22169.353370,1628.453072,-8512.368333,-3064.381992
22169.353703,-666.185348,-12805.562797,-2987.772442
22169.354037,1184.329507,-12731.542202,-76.609550
22169.354371,2294.638420,-5921.647536,229.828649
22169.354704,3330.926739,-11473.192101,2451.505594
22169.355038,8364.327145,-4589.276840,6894.859482
22169.355371,4811.338623,-8660.409521,4903.011187
22169.355705,7994.224174,-5699.585753,5822.325785
22169.356039,4737.318029,-9474.636058,2987.772442
22169.356372,2886.803174,-10955.047942,-3140.991542
22169.356706,2812.782580,-6883.915261,0.000000
22169.357040,-1258.350101,-10362.883188,-5362.668486
22169.357373,4663.297435,-7698.141797,-5132.839837
22169.357707,2812.782580,-12287.418637,-612.876398
22169.358040,7550.100608,-9548.656652,1838.629195
22169.358374,4145.153275,-10436.903782,3677.258390
22169.358708,3552.988522,-9104.533087,4213.525239
22169.359041,4663.297435,-9178.553681,306.438199
22169.359375,1184.329507,-7476.080014,5515.887586
22169.359708,8808.450710,-7698.141797,3600.648841
22169.360042,-1184.329507,-9548.656652,0.000000
22169.360376,2294.638420,-9400.615463,0.000000
22169.360709,-3182.885551,-8808.450710,-2834.553343
22169.361043,-1554.432478,-9178.553681,-3217.601092
22169.361377,1702.473667,-5181.441594,-1302.362347
22169.361710,2960.823768,-13471.748144,2374.896044
22169.362044,7624.121203,-3034.844362,612.876398
22169.362377,1184.329507,-11917.315666,0.000000
22169.362711,5403.503377,-10362.883188,3294.210641
22169.363045,2960.823768,-9548.656652,3370.820191
22169.363378,2664.741391,-11621.233289,-1991.848295
22169.363712,5699.585753,-10510.924376,1225.752797
22169.364045,370.102971,-8364.327145,-3600.648841
22169.364379,518.144159,-13619.789333,-919.314598
22169.364713,2294.638420,-8290.306550,2068.457845
22169.365046,2146.597232,-7772.162391,1225.752797
22169.365380,1776.494261,-9252.574275,6052.154434
22169.365714,1702.473667,-8290.306550,-1302.362347
22169.366047,2294.638420,-7698.141797,1762.019645
22169.366381,1184.329507,-6439.791695,2451.505594
22169.366714,1184.329507,-10066.800811,0.000000
22169.367048,888.247130,-9326.594869,1378.971896
22169.367382,592.164754,-11917.315666,1225.752797
22169.367715,-1554.432478,-7772.162391,-3677.258390
22169.368049,-1776.494261,-10140.821405,-1225.752797
22169.368382,-2442.679609,-11843.295072,-3140.991542
22169.368716,-2146.597232,-7179.997637,-1838.629195
22169.369050,-666.185348,-11251.130318,3600.648841
22169.369383,-5107.421000,-10140.821405,1532.190996
22169.369717,-592.164754,-4959.379811,1072.533697
22169.370051,518.144159,-9844.739029,2374.896044
22169.370384,3256.906145,-7179.997637,4903.011187
22169.370718,2368.659014,-8142.265362,4596.572988
22169.371051,148.041188,-9326.594869,995.924147
22169.371385,-666.185348,-11325.150913,919.314598
22169.371719,-2442.679609,-7994.224174,-3140.991542
22169.372052,-2368.659014,-11029.068536,-1225.752797
22169.372386,-1406.391290,-9474.636058,-3140.991542
22169.372719,-5033.400406,-9548.656652,-1532.190996
22169.373053,-3478.967927,-11399.171507,-76.609550
22169.373387,2294.638420,-7105.977043,1762.019645
22169.373720,296.082377,-8364.327145,3447.429741
22169.374054,2442.679609,-7328.038826,3907.087040
22169.374388,0.000000,-6069.688724,-76.609550
22169.374721,-1850.514855,-10436.903782,-1608.800546
22169.375055,4589.276840,-8882.471304,3370.820191
22169.375388,-74.020594,-6587.832884,-2145.067394
22169.375722,0.000000,-10732.986159,1532.190996
22169.376056,-74.020594,-8882.471304,-3753.867940
22169.376389,-1332.370696,-10881.027347,-2451.505594
22169.376723,1924.535449,-8734.430116,-76.609550
22169.377056,2294.638420,-13027.624579,2145.067394
22169.377390,1776.494261,-9104.533087,-76.609550
22169.377724,592.164754,-9252.574275,2451.505594
22169.378057,4367.215058,-8290.306550,4213.525239
22169.378391,2738.761985,-5995.668130,1532.190996
22169.378725,2368.659014,-10362.883188,2757.943793
22169.379058,-74.020594,-11843.295072,-1608.800546
22169.379392,0.000000,-5403.503377,0.000000
22169.379725,1110.308913,-9030.512492,842.705048
22169.380059,2368.659014,-8364.327145,919.314598
22169.380393,-740.205942,-10214.842000,306.438199
22169.380726,-3034.844362,-7994.224174,-4596.572988
22169.381060,-1924.535449,-9548.656652,-4596.572988
22169.381393,-4145.153275,-7772.162391,0.000000
22169.381727,2294.638420,-9474.636058,1149.143247
22169.382061,666.185348,-5403.503377,0.000000
22169.382394,2368.659014,-11029.068536,4903.011187
22169.382728,3552.988522,-4219.173869,-459.657299
22169.383062,5181.441594,-13397.727550,5362.668486
22169.383395,5847.626942,-7105.977043,5286.058936
22169.383729,3108.864956,-8956.491898,2451.505594
22169.384062,0.000000,-6513.812290,-3140.991542
22169.384396,-1480.411884,-12879.583391,-1915.238745
22169.384730,-1554.432478,-7254.018232,-4290.134789
22169.385063,-4515.256246,-13915.871710,-842.705048
22169.385397,-1776.494261,-9474.636058,-2528.115143
22169.385730,-4811.338623,-11251.130318,-1608.800546
22169.386064,-3256.906145,-6883.915261,3677.258390
22169.386398,3404.947333,-9474.636058,6665.030833
22169.386731,1554.432478,-3182.885551,3370.820191
22169.387065,1776.494261,-10140.821405,3677.258390
22169.387399,3478.967927,-4737.318029,3294.210641
22169.387732,148.041188,-8956.491898,2604.724693
22169.388066,0.000000,-8512.368333,-5132.839837
22169.388399,-1554.432478,-13323.706956,-4673.182538
22169.388733,-4737.318029,-11251.130318,-7431.126331
22169.389067,-2960.823768,-16580.613101,-1302.362347
22169.389400,-3923.091493,-12731.542202,-76.609550
22169.389734,-222.061783,-7624.121203,-1685.410096
22169.390067,1702.473667,-8290.306550,7277.907231
22169.390401,5255.462188,-4219.173869,8273.831378
22169.390735,2368.659014,-5551.544565,3677.258390
22169.391068,2664.741391,-7179.997637,6818.249932
22169.391402,592.164754,-5995.668130,3064.381992
22169.391735,2146.597232,-7994.224174,383.047749
22169.392069,0.000000,-9548.656652,2221.676944
22169.392402,-1850.514855,-7105.977043,-9116.536426
22169.392736,-4145.153275,-11917.315666,-7967.393179
22169.393069,-5921.647536,-11621.233289,-7967.393179
22169.393403,-5551.544565,-14063.912898,-5286.058936
22169.393737,-4811.338623,-11251.130318,-4979.620737
22169.394070,148.041188,-10362.883188,3294.210641
22169.394404,4367.215058,-7846.182985,8503.660028
22169.394737,5847.626942,-1554.432478,8580.269578
22169.395071,6883.915261,-6809.894666,7277.907231
22169.395404,7031.956449,-9474.636058,5439.278036
22169.395738,4737.318029,-7476.080014,6052.154434
22169.396071,4663.297435,-9474.636058,1685.410096
22169.396405,296.082377,-9400.615463,-4366.744339
22169.396738,-2960.823768,-11547.212695,-7660.954980
22169.397072,-2442.679609,-13619.789333,-6894.859482
22169.397406,-2516.700203,-14804.118840,-4519.963438
22169.397739,-3552.988522,-14285.974681,919.314598
22169.398073,1702.473667,-7698.141797,2911.162892
22169.398406,888.247130,-7772.162391,4903.011187
22169.398740,5403.503377,-7105.977043,8503.660028
22169.399073,2294.638420,-5921.647536,3600.648841
22169.399407,4441.235652,-6143.709319,7277.907231
22169.399740,2664.741391,-4885.359217,4290.134789
22169.400074,-666.185348,-5699.585753,0.000000
22169.400408,-2220.617826,-7624.121203,-6818.249932
22169.400741,-2664.741391,-12435.459826,-6205.373534
22169.401075,-3775.050304,-12805.562797,-6818.249932
22169.401408,-1776.494261,-14952.160028,-4826.401637
22169.401742,-2368.659014,-14137.933492,-612.876398
22169.402075,-1702.473667,-8660.409521,-2451.505594
22169.402409,2960.823768,-11029.068536,6588.421283
22169.402742,8216.285956,-9474.636058,8503.660028
22169.403076,4885.359217,-4811.338623,5515.887586
22169.403410,2072.576638,-6513.812290,5439.278036
22169.403743,-74.020594,-9030.512492,1225.752797
22169.404077,-740.205942,-4367.215058,-1225.752797
22169.404410,370.102971,-9844.739029,-3217.601092
22169.404744,-3108.864956,-11029.068536,-1302.362347
22169.405077,-3552.988522,-8364.327145,-3677.258390
22169.405411,-3701.029710,-14804.118840,-3140.991542
22169.405744,-4367.215058,-9844.739029,-3064.381992
22169.406078,-5403.503377,-10140.821405,-3064.381992
22169.406412,2738.761985,-8956.491898,5286.058936
22169.406745,-1554.432478,-11843.295072,4213.525239
22169.407079,592.164754,-4737.318029,3677.258390
22169.407412,888.247130,-7105.977043,2451.505594
22169.407746,2368.659014,-8364.327145,2528.115143
22169.408079,3182.885551,-7994.224174,2374.896044
22169.408413,-666.185348,-13619.789333,-76.609550
22169.408746,-3849.070898,-5995.668130,-1225.752797
22169.409080,-4663.297435,-7772.162391,-3677.258390
22169.409413,1702.473667,-12731.542202,-383.047749
22169.409747,1480.411884,-10436.903782,-76.609550
22169.410081,2812.782580,-11917.315666,2298.286494
22169.410414,-592.164754,-11325.150913,3753.867940
22169.410748,3552.988522,-8808.450710,3064.381992
22169.411081,1258.350101,-7179.997637,2451.505594
22169.411415,-74.020594,-8290.306550,0.000000
22169.411748,1184.329507,-7179.997637,4826.401637
22169.412082,-3627.009116,-8290.306550,-2221.676944
22169.412415,0.000000,-5995.668130,-3064.381992
22169.412749,-3552.988522,-6809.894666,-2528.115143
22169.413083,-1480.411884,-9696.697840,-3294.210641
22169.413416,296.082377,-9326.594869,-2221.676944
22169.413750,444.123565,-10807.006753,153.219100
22169.414083,3404.947333,-11843.295072,1455.581446
22169.414417,2960.823768,-8364.327145,4903.011187
22169.414750,4663.297435,-9474.636058,1762.019645
22169.415084,4367.215058,-8068.244768,0.000000
22169.415417,7031.956449,-11251.130318,2987.772442
22169.415751,2368.659014,-9548.656652,0.000000
22169.416085,1110.308913,-9770.718434,1072.533697
22169.416418,-1776.494261,-9548.656652,-766.095498
22169.416752,-518.144159,-8956.491898,-766.095498
22169.417085,-4219.173869,-9474.636058,-383.047749
22169.417419,-2368.659014,-4811.338623,-3064.381992
22169.417752,-5329.482782,-11769.274478,-2911.162892
22169.418086,2664.741391,-6365.771101,1149.143247
22169.418419,2146.597232,-8882.471304,5898.935335
22169.418753,4663.297435,-6217.729913,3600.648841
22169.419086,3849.070898,-7772.162391,1225.752797
22169.419420,-74.020594,-13027.624579,-1302.362347
22169.419754,5033.400406,-7772.162391,1225.752797
22169.420087,-5847.626942,-11917.315666,-995.924147
22169.420421,-74.020594,-11251.130318,-4979.620737
22169.420754,-4441.235652,-11769.274478,-3217.601092
22169.421088,-4441.235652,-12213.398043,-1685.410096
22169.421421,888.247130,-5551.544565,-1225.752797
22169.421755,-2442.679609,-8882.471304,2987.772442
22169.422088,592.164754,-4811.338623,4826.401637
22169.422422,-74.020594,-7994.224174,4826.401637
22169.422756,5847.626942,-2442.679609,2451.505594
22169.423089,2960.823768,-14285.974681,6741.640382
22169.423423,7031.956449,-4219.173869,2451.505594
22169.423756,370.102971,-12435.459826,459.657299
22169.424090,-1554.432478,-9548.656652,-1532.190996
22169.424423,-2590.720797,-9918.759623,-6588.421283
22169.424757,-5625.565159,-13693.809927,-3064.381992
22169.425090,-2960.823768,-11251.130318,-76.609550
22169.425424,-4811.338623,-5625.565159,-4366.744339
22169.425758,-5625.565159,-4811.338623,-3370.820191
22169.426091,-1554.432478,-10658.965565,-1302.362347
22169.426425,-2368.659014,-7179.997637,2451.505594
22169.426758,2886.803174,-4737.318029,5439.278036
22169.427092,5329.482782,-8956.491898,5898.935335
22169.427425,7698.141797,-4515.256246,5592.497135
22169.427759,5033.400406,-11769.274478,7277.907231
22169.428092,7031.956449,-9474.636058,-76.609550
22169.428426,0.000000,-12213.398043,0.000000
22169.428760,-2368.659014,-13693.809927,-6741.640382
22169.429093,-222.061783,-14211.954086,-2528.115143
22169.429427,-7698.141797,-12213.398043,-7201.297681
22169.429760,-1258.350101,-10214.842000,-3140.991542
22169.430094,-2368.659014,-7476.080014,1149.143247
22169.430427,2812.782580,-8586.388927,4213.525239
22169.430761,3478.967927,-4737.318029,7967.393179
22169.431094,1480.411884,-4811.338623,3753.867940
22169.431428,2812.782580,-6661.853478,4826.401637
22169.431761,1702.473667,-4811.338623,2757.943793
22169.432095,1258.350101,-8290.306550,-1225.752797
22169.432429,0.000000,-9548.656652,0.000000
22169.432762,-74.020594,-15100.201217,-3447.429741
22169.433096,-3404.947333,-9548.656652,-7354.516781
22169.433429,-3256.906145,-11621.233289,-3753.867940
22169.433763,-2738.761985,-12879.583391,-4366.744339
22169.434096,-4515.256246,-9696.697840,-1455.581446
22169.434430,-1406.391290,-6587.832884,1838.629195
22169.434763,4219.173869,-4145.153275,5362.668486
22169.435097,4737.318029,-5995.668130,7354.516781
22169.435431,7920.203579,-5921.647536,2451.505594
22169.435764,4071.132681,-14211.954086,6052.154434
22169.436098,2368.659014,-2442.679609,0.000000
22169.436431,-2368.659014,-15174.221811,1072.533697
22169.436765,-1036.288319,-4811.338623,-4903.011187
22169.437098,-2960.823768,-15914.427753,-3140.991542
22169.437432,-3108.864956,-9178.553681,-2911.162892
22169.437765,-3182.885551,-12287.418637,-4903.011187
22169.438099,-2738.761985,-14211.954086,-76.609550
22169.438433,296.082377,-5995.668130,1838.629195
22169.438766,2294.638420,-8290.306550,6665.030833
22169.439100,2294.638420,-1850.514855,6128.763984
22169.439433,4737.318029,-5699.585753,1225.752797
22169.439767,4663.297435,-11843.295072,6052.154434
22169.440100,4367.215058,-6513.812290,1149.143247
22169.440434,148.041188,-12953.603985,0.000000
22169.440767,-2072.576638,-10288.862594,-2451.505594
22169.441101,-74.020594,-9548.656652,-4903.011187
22169.441434,-3552.988522,-12509.480420,-76.609550
22169.441768,1110.308913,-8512.368333,-4903.011187
22169.442102,-3108.864956,-9548.656652,0.000000
22169.442435,4293.194464,-9474.636058,4060.306139
22169.442769,518.144159,-6217.729913,995.924147
22169.443102,2738.761985,-7402.059420,4826.401637
22169.443436,1332.370696,-8364.327145,-459.657299
22169.443769,-1480.411884,-11177.109724,3370.820191
22169.444103,3923.091493,-2664.741391,995.924147
22169.444436,518.144159,-11547.212695,1762.019645
22169.444770,-3552.988522,-7179.997637,1838.629195
22169.445104,-666.185348,-7846.182985,-4366.744339
22169.445437,-4811.338623,-12065.356855,-6128.763984
22169.445771,-2368.659014,-8364.327145,-4290.134789
22169.446104,-5403.503377,-11843.295072,-3217.601092
22169.446438,-2886.803174,-9104.533087,0.000000
22169.446771,2220.617826,-4441.235652,1915.238745
22169.447105,592.164754,-8364.327145,2681.334243
22169.447438,8216.285956,-8290.306550,3753.867940
22169.447772,4145.153275,-9030.512492,4826.401637
22169.448106,1110.308913,-10288.862594,919.314598
22169.448439,518.144159,-9252.574275,-459.657299
22169.448773,-2072.576638,-10436.903782,-1838.629195
22169.449106,2294.638420,-10658.965565,-2221.676944
22169.449440,0.000000,-10732.986159,0.000000
22169.449773,0.000000,-10066.800811,-76.609550
22169.450107,-1554.432478,-9178.553681,-1532.190996
22169.450440,-2368.659014,-6587.832884,1225.752797
22169.450774,962.267725,-7105.977043,0.000000
22169.451108,1702.473667,-7402.059420,4366.744339
22169.451441,74.020594,-7698.141797,76.609550
22169.451775,4071.132681,-9178.553681,3600.648841
22169.452108,2294.638420,-7105.977043,536.266849
22169.452442,1776.494261,-8956.491898,-229.828649
22169.452775,-2442.679609,-15396.283594,-2528.115143
22169.453109,-3034.844362,-10066.800811,-6435.202183
22169.453442,-74.020594,-13101.645173,-76.609550
22169.453776,888.247130,-9252.574275,1225.752797
22169.454109,1184.329507,-6735.874072,0.000000
22169.454443,0.000000,-10658.965565,3294.210641
22169.454777,5921.647536,-4219.173869,4060.306139
22169.455110,4663.297435,-7179.997637,2145.067394
22169.455444,7105.977043,-6365.771101,6052.154434
22169.455777,2886.803174,-7994.224174,229.828649
22169.456111,-2368.659014,-9548.656652,-1225.752797
22169.456444,518.144159,-11843.295072,-2528.115143
22169.456778,-4367.215058,-13249.686362,-4979.620737
22169.457111,-2960.823768,-12065.356855,-5515.887586
22169.457445,-6587.832884,-13027.624579,-4136.915689
22169.457779,-1184.329507,-9696.697840,1225.752797
22169.458112,222.061783,-2738.761985,612.876398
22169.458446,4663.297435,-10658.965565,7277.907231
22169.458779,2886.803174,-1850.514855,4903.011187
22169.459113,3478.967927,-7994.224174,7354.516781
22169.459446,1850.514855,-7476.080014,2451.505594
22169.459780,-666.185348,-9474.636058,-842.705048
22169.460113,518.144159,-9178.553681,-5209.449386
22169.460447,-1554.432478,-13767.830521,-3447.429741
22169.460781,2294.638420,-10362.883188,-4366.744339
22169.461114,-4737.318029,-14878.139434,-1302.362347
22169.461448,-1850.514855,-11029.068536,-2834.553343
22169.461781,-666.185348,-8068.244768,-3677.258390
22169.462115,1702.473667,-11843.295072,2374.896044
22169.462448,3849.070898,-7772.162391,2451.505594
22169.462782,2146.597232,-6735.874072,7431.126331
22169.463115,4293.194464,-2960.823768,5132.839837
22169.463449,2442.679609,-7772.162391,6435.202183
22169.463782,4663.297435,-5329.482782,2068.457845
22169.464116,1480.411884,-10066.800811,76.609550
22169.464450,-2664.741391,-10955.047942,-2451.505594
22169.464783,-2220.617826,-9548.656652,-6128.763984
22169.465117,-5551.544565,-15840.407159,-2681.334243
22169.465450,-74.020594,-8882.471304,-1915.238745
22169.465784,-2960.823768,-9548.656652,-4903.011187
22169.466117,-2812.782580,-12361.439231,2068.457845
22169.466451,-1258.350101,-6217.729913,-3447.429741
22169.466784,0.000000,-10140.821405,4903.011187
22169.467118,7624.121203,-3997.112087,7277.907231
22169.467452,5181.441594,-7698.141797,7814.174080
22169.467785,5625.565159,-6809.894666,7277.907231
22169.468119,6217.729913,-5329.482782,2528.115143
22169.468452,3182.885551,-8512.368333,-689.485948
22169.468786,1480.411884,-12361.439231,-76.609550
22169.469119,-2442.679609,-15396.283594,-5592.497135
22169.469453,-4663.297435,-11029.068536,-7354.516781
22169.469786,-4441.235652,-14285.974681,-2757.943793
22169.470120,-2442.679609,-9030.512492,-4903.011187
22169.470454,-4219.173869,-10955.047942,-1302.362347
22169.470787,-370.102971,-6513.812290,4366.744339
22169.471121,3923.091493,-3034.844362,5439.278036
22169.471454,0.000000,-5995.668130,7967.393179
22169.471788,4441.235652,-6513.812290,6052.154434
22169.472121,1110.308913,-6809.894666,3983.696590
22169.472455,0.000000,-6587.832884,1225.752797
22169.472788,1406.391290,-8882.471304,-2834.553343
22169.473122,-5921.647536,-11917.315666,-7354.516781
22169.473456,-2738.761985,-15396.283594,-6665.030833
22169.473789,-3256.906145,-12361.439231,-4136.915689
22169.474123,222.061783,-12435.459826,-1302.362347
22169.474456,-74.020594,-10881.027347,2374.896044
22169.474790,2294.638420,-9474.636058,1762.019645
22169.475123,1258.350101,-7179.997637,5515.887586
22169.475457,4737.318029,-5921.647536,9116.536426
22169.475790,7031.956449,-5921.647536,6052.154434
22169.476124,2368.659014,-6587.832884,5362.668486
22169.476457,3478.967927,-7550.100608,689.485948
22169.476791,-1036.288319,-13027.624579,536.266849
22169.477125,-444.123565,-9696.697840,-3983.696590
22169.477458,-1406.391290,-13545.768739,-2221.676944
22169.477792,-2368.659014,-8808.450710,-3830.477490
22169.478125,-3775.050304,-11769.274478,-3753.867940
22169.478459,-3034.844362,-8808.450710,-2298.286494
22169.478792,0.000000,-5995.668130,0.000000
22169.479126,0.000000,-7476.080014,6894.859482
22169.479459,6735.874072,-4737.318029,3600.648841
22169.479793,592.164754,-8364.327145,1532.190996
22169.480127,3849.070898,-6513.812290,3524.039291
22169.480460,1998.556043,-8290.306550,1608.800546
22169.480794,2368.659014,-9696.697840,1762.019645
22169.481127,4737.318029,-7624.121203,229.828649
22169.481461,-2516.700203,-14211.954086,-1302.362347
22169.481794,1184.329507,-9252.574275,-1838.629195
22169.482128,-3034.844362,-12435.459826,-3064.381992
22169.482461,1110.308913,-14211.954086,-1302.362347
22169.482795,-2146.597232,-8660.409521,0.000000
22169.483129,-3552.988522,-7179.997637,1838.629195
22169.483462,1480.411884,-7920.203579,3524.039291
22169.483796,2072.576638,-6661.853478,5592.497135
22169.484129,5329.482782,-4219.173869,4366.744339
22169.484463,-370.102971,-10658.965565,3370.820191
22169.484796,-370.102971,-8290.306550,-2528.115143
22169.485130,-8142.265362,-12509.480420,-3370.820191
22169.485463,-1850.514855,-8290.306550,-3753.867940
22169.485797,-3256.906145,-7772.162391,-1225.752797
22169.486131,-370.102971,-11251.130318,-1302.362347
22169.486464,1110.308913,-13027.624579,-689.485948
22169.486798,-1554.432478,-10881.027347,842.705048
22169.487131,3923.091493,-8956.491898,3140.991542
22169.487465,1184.329507,-8660.409521,4596.572988
22169.487798,4071.132681,-9326.594869,4596.572988
22169.488132,5773.606348,-5699.585753,7124.688131
22169.488465,296.082377,-8364.327145,2757.943793
22169.488799,0.000000,-6587.832884,612.876398
22169.489132,-74.020594,-13619.789333,-3140.991542
22169.489466,-4219.173869,-10214.842000,-2451.505594
22169.489800,-3627.009116,-8290.306550,-3907.087040
22169.490133,-5847.626942,-11769.274478,-4060.306139
22169.490457,-3849.070898,-8882.471304,-76.609550
22169.490791,-1850.514855,-5403.503377,-842.705048
22169.491124,2590.720797,-7698.141797,5745.716235
22169.491458,2368.659014,-3627.009116,7201.297681
22169.491791,2886.803174,-7105.977043,-689.485948
22169.492124,1406.391290,-10140.821405,2451.505594
22169.492458,2368.659014,-4811.338623,-1532.190996
22169.492791,1110.308913,-14063.912898,-2834.553343
22169.493125,1258.350101,-10066.800811,-2528.115143
22169.493458,-222.061783,-14285.974681,-3677.258390
22169.493792,-1258.350101,-10140.821405,-1838.629195
22169.494125,3182.885551,-8586.388927,-1915.238745
22169.494459,0.000000,-9474.636058,-153.219100
22169.494792,3478.967927,-7105.977043,3370.820191
22169.495126,370.102971,-7328.038826,3600.648841
22169.495459,2960.823768,-6291.750507,4903.011187
22169.495792,4663.297435,-8882.471304,2374.896044
22169.496126,2368.659014,-5403.503377,2451.505594
22169.496459,1184.329507,-7179.997637,2528.115143
22169.496793,1110.308913,-11547.212695,-3753.867940
22169.497126,-4515.256246,-11029.068536,-7354.516781
22169.497460,-3627.009116,-12731.542202,-7201.297681
22169.497793,-1850.514855,-13027.624579,-842.705048
22169.498127,-3182.885551,-8364.327145,-689.485948
22169.498460,-74.020594,-9178.553681,1149.143247
22169.498794,2294.638420,-8290.306550,1149.143247
22169.499127,3552.988522,-5699.585753,4290.134789
22169.499460,5921.647536,-9104.533087,10955.165621
22169.499794,3775.050304,-6439.791695,2757.943793
22169.500127,2960.823768,-7179.997637,5898.935335
22169.500461,666.185348,-9622.677246,-919.314598
22169.500794,2368.659014,-9844.739029,-459.657299
22169.501128,-2220.617826,-11769.274478,-5209.449386
22169.501461,-3182.885551,-13323.706956,-4903.011187
22169.501795,-2442.679609,-10584.944971,-4519.963438
22169.502128,-7105.977043,-11917.315666,-76.609550
22169.502461,-518.144159,-7105.977043,1762.019645
22169.502795,-4219.173869,-8882.471304,-1225.752797
22169.503128,2886.803174,-4737.318029,4519.963438
22169.503462,-2146.597232,-7328.038826,4903.011187
22169.503795,2294.638420,-4663.297435,2451.505594
22169.504129,296.082377,-9252.574275,3983.696590
22169.504462,592.164754,-7772.162391,1532.190996
22169.504796,3478.967927,-6957.935855,0.000000
22169.505129,-4737.318029,-14878.139434,-2298.286494
22169.505463,-74.020594,-10362.883188,-6818.249932
22169.505796,-5329.482782,-12435.459826,-5362.668486
22169.506129,1184.329507,-8660.409521,-3677.258390
22169.506463,814.226536,-9474.636058,2451.505594
22169.506796,0.000000,-7772.162391,2374.896044
22169.507130,2294.638420,-3997.112087,842.705048
22169.507463,-74.020594,-11251.130318,3600.648841
22169.507797,4737.318029,-3627.009116,5209.449386
22169.508130,2294.638420,-10955.047942,4290.134789
22169.508464,4293.194464,-3627.009116,2451.505594
22169.508797,-370.102971,-15396.283594,-689.485948
22169.509130,2368.659014,-7772.162391,-3370.820191
22169.509464,0.000000,-10510.924376,-3294.210641
22169.509797,0.000000,-12953.603985,-2528.115143
22169.510131,592.164754,-9400.615463,-1838.629195
22169.510464,-4811.338623,-13027.624579,-3140.991542
22169.510798,0.000000,-11547.212695,842.705048
22169.511131,-1480.411884,-7328.038826,1225.752797
22169.511465,5699.585753,-6883.915261,4290.134789
22169.511798,3182.885551,-4811.338623,5209.449386
22169.512132,4367.215058,-9178.553681,6052.154434
22169.512465,-1036.288319,-7772.162391,3677.258390
22169.512798,3330.926739,-9474.636058,2374.896044
22169.513132,0.000000,-7179.997637,0.000000
22169.513465,0.000000,-7179.997637,-3677.258390
22169.513799,2146.597232,-14211.954086,-1915.238745
22169.514132,-1332.370696,-12213.398043,-3753.867940
22169.514466,-2368.659014,-13027.624579,-2374.896044
22169.514799,148.041188,-8364.327145,-1225.752797
22169.515133,-74.020594,-11547.212695,-383.047749
22169.515466,1184.329507,-7179.997637,5898.935335
22169.515799,-74.020594,-9474.636058,2374.896044
22169.516133,888.247130,-5403.503377,4903.011187
22169.516466,2960.823768,-5107.421000,7967.393179
22169.516800,2294.638420,-7550.100608,2451.505594
22169.517133,1258.350101,-5033.400406,995.924147
22169.517467,-5995.668130,-11251.130318,-5439.278036
22169.517800,-3404.947333,-10066.800811,-4749.792088
22169.518134,-1776.494261,-8956.491898,-3064.381992
22169.518467,0.000000,-12731.542202,-76.609550
22169.518801,-74.020594,-8290.306550,-1915.238745
22169.519134,-4441.235652,-9548.656652,0.000000
22169.519467,3478.967927,-10658.965565,-1302.362347
22169.519801,0.000000,-11917.315666,1838.629195
22169.520134,4367.215058,-7846.182985,2681.334243
22169.520468,0.000000,-11917.315666,4903.011187
22169.520801,7031.956449,-3478.967927,4443.353888
22169.521135,666.185348,-11325.150913,4903.011187
22169.521468,5847.626942,-7105.977043,4826.401637
22169.521802,888.247130,-6587.832884,0.000000
22169.522135,-592.164754,-9252.574275,-2451.505594
22169.522469,-1554.432478,-11843.295072,-3140.991542
22169.522802,-5921.647536,-9548.656652,-4290.134789
22169.523135,-666.185348,-11769.274478,-1915.238745
22169.523469,-1110.308913,-10807.006753,-1532.190996
22169.523802,1702.473667,-10584.944971,229.828649
22169.524136,888.247130,-8586.388927,2451.505594
22169.524469,2516.700203,-10066.800811,3447.429741
22169.524803,2516.700203,-6143.709319,4673.182538
22169.525136,-666.185348,-11177.109724,4673.182538
22169.525470,1554.432478,-2812.782580,-536.266849
22169.525803,-3552.988522,-8364.327145,612.876398
22169.526136,4663.297435,-5921.647536,-2221.676944
22169.526470,0.000000,-10140.821405,-4136.915689
22169.526803,-1776.494261,-12213.398043,536.266849
22169.527137,1702.473667,-8882.471304,-1302.362347
22169.527470,-2368.659014,-13101.645173,0.000000
22169.527804,1924.535449,-9548.656652,0.000000
22169.528137,0.000000,-9844.739029,2374.896044
22169.528471,1776.494261,-8660.409521,5515.887586
22169.528804,2294.638420,-7105.977043,2451.505594
22169.529138,2886.803174,-11547.212695,4826.401637
22169.529471,-2368.659014,-5403.503377,0.000000
22169.529804,-2368.659014,-7772.162391,-2145.067394
22169.530138,-2368.659014,-5107.421000,-2451.505594
22169.530471,-4441.235652,-11325.150913,-2604.724693
22169.530805,-2368.659014,-5921.647536,-2374.896044
22169.531138,-2738.761985,-10288.862594,-842.705048
22169.531472,1110.308913,-9474.636058,1762.019645
22169.531805,740.205942,-4811.338623,-2451.505594
22169.532139,-74.020594,-15396.283594,-689.485948
22169.532472,2368.659014,-7772.162391,3983.696590
22169.532805,-74.020594,-12139.377449,-76.609550
22169.533139,7031.956449,-12139.377449,5439.278036
22169.533472,-1480.411884,-12435.459826,1149.143247
22169.533806,2368.659014,-6957.935855,1072.533697
22169.534139,-1702.473667,-7846.182985,-1532.190996
22169.534473,296.082377,-8808.450710,-2911.162892
22169.534806,-2368.659014,-8660.409521,2834.553343
22169.535140,-2442.679609,-7179.997637,0.000000
22169.535473,1998.556043,-4811.338623,0.000000
22169.535807,-74.020594,-11251.130318,3600.648841
22169.536140,1406.391290,-7105.977043,-1149.143247
22169.536473,2738.761985,-9474.636058,2987.772442
22169.536807,0.000000,-12361.439231,1149.143247
22169.537140,3330.926739,-7254.018232,-2374.896044
22169.537474,-4515.256246,-15396.283594,-1685.410096
22169.537807,-666.185348,-8290.306550,-4979.620737
22169.538141,-5921.647536,-9844.739029,-1225.752797
22169.538474,2294.638420,-7105.977043,-76.609550
22169.538808,4663.297435,-9474.636058,2681.334243
22169.539141,1480.411884,-5107.421000,3064.381992
22169.539475,5255.462188,-9178.553681,2374.896044
22169.539808,2738.761985,-10436.903782,3907.087040
22169.540141,5403.503377,-8882.471304,3294.210641
22169.540475,3478.967927,-11029.068536,4060.306139
22169.540808,4663.297435,-9474.636058,2374.896044
22169.541142,-1184.329507,-10140.821405,-995.924147
22169.541475,222.061783,-9844.739029,-2757.943793
22169.541809,-3627.009116,-10584.944971,-2834.553343
22169.542142,-2960.823768,-8364.327145,-3370.820191
22169.542476,-3627.009116,-9474.636058,-2528.115143
22169.542809,-6513.812290,-5995.668130,-4903.011187
22169.543142,-2368.659014,-8068.244768,1149.143247
22169.543476,1702.473667,-5921.647536,5592.497135
22169.543809,2442.679609,-5107.421000,3983.696590
22169.544143,3775.050304,-3701.029710,1685.410096
22169.544476,1036.288319,-12065.356855,1685.410096
22169.544810,2664.741391,-9030.512492,306.438199
22169.545143,3552.988522,-13175.665768,1455.581446
22169.545477,4663.297435,-15396.283594,-76.609550
22169.545810,-3552.988522,-12509.480420,-4749.792088
22169.546144,-4737.318029,-13989.892304,-1072.533697
22169.546477,-74.020594,-9326.594869,-2987.772442
22169.546810,-3552.988522,-8364.327145,612.876398
22169.547144,1110.308913,-6661.853478,3447.429741
22169.547477,-814.226536,-5403.503377,2757.943793
22169.547811,-3627.009116,-9104.533087,3294.210641
22169.548144,2886.803174,-1184.329507,842.705048
22169.548478,3182.885551,-11843.295072,6665.030833
22169.548811,2368.659014,-5403.503377,6741.640382
22169.549145,3775.050304,-9474.636058,3294.210641
22169.549478,-3627.009116,-13915.871710,-6511.811733
22169.549811,-1850.514855,-11251.130318,-7124.688131
22169.550145,-5255.462188,-16136.489536,-5209.449386
22169.550478,-370.102971,-9474.636058,-3524.039291
22169.550812,-3478.967927,-11325.150913,-1838.629195
22169.551145,-4441.235652,-8364.327145,-1532.190996
22169.551479,5847.626942,-4811.338623,1838.629195
22169.551812,2368.659014,-9548.656652,11108.384721
22169.552146,10584.944971,-2368.659014,7277.907231
22169.552479,1776.494261,-5403.503377,3830.477490
22169.552813,2368.659014,-4811.338623,-689.485948
22169.553146,3701.029710,-11695.253884,2068.457845
22169.553479,-370.102971,-12657.521608,229.828649
22169.553813,2368.659014,-8956.491898,-3677.258390
22169.554146,-3034.844362,-15248.242405,-2068.457845
22169.554480,-2960.823768,-7179.997637,-4903.011187
22169.554813,-4219.173869,-13027.624579,-3140.991542
22169.555147,-370.102971,-6513.812290,-3140.991542
22169.555480,2368.659014,-7179.997637,2834.553343
22169.555814,2368.659014,-8660.409521,7431.126331
22169.556147,2442.679609,-2664.741391,3753.867940
22169.556480,0.000000,-7105.977043,-229.828649
22169.556814,296.082377,-10214.842000,1762.019645
22169.557147,5477.523971,-9326.594869,3907.087040
22169.557481,0.000000,-11473.192101,-536.266849
22169.557814,-2442.679609,-11843.295072,-4213.525239
22169.558148,-3034.844362,-11029.068536,-3753.867940
22169.558481,2294.638420,-11325.150913,1378.971896
22169.558815,6217.729913,-7105.977043,3370.820191
22169.559148,-1480.411884,-9548.656652,0.000000
22169.559482,1184.329507,-5329.482782,2374.896044
22169.559815,-74.020594,-9178.553681,-76.609550
22169.560148,-1184.329507,-8142.265362,-1225.752797
22169.560482,2590.720797,-11547.212695,1762.019645
22169.560815,-3775.050304,-9030.512492,2911.162892
22169.561149,3330.926739,-3034.844362,153.219100
22169.561482,-2812.782580,-13693.809927,2145.067394
22169.561816,-74.020594,-7105.977043,-76.609550
22169.562149,-5921.647536,-8364.327145,-1225.752797
22169.562483,-3256.906145,-11917.315666,-76.609550
22169.562816,-74.020594,-7105.977043,-2068.457845
22169.563150,-4737.318029,-9548.656652,0.000000
22169.563483,-74.020594,-5921.647536,-76.609550
22169.563816,370.102971,-8512.368333,-1838.629195
22169.564150,2146.597232,-12731.542202,1915.238745
22169.564483,4737.318029,-9474.636058,6741.640382
22169.564817,-1628.453072,-6587.832884,0.000000
22169.565150,2368.659014,-8956.491898,5362.668486
22169.565484,-222.061783,-10362.883188,1149.143247
22169.565817,2738.761985,-4811.338623,1225.752797
22169.566151,-222.061783,-11843.295072,2374.896044
22169.566484,-1184.329507,-7179.997637,-4903.011187
22169.566817,-1332.370696,-11843.295072,-2987.772442
22169.567151,-1184.329507,-9622.677246,1532.190996
22169.567484,1998.556043,-7031.956449,-306.438199
22169.567818,296.082377,-8068.244768,1838.629195
22169.568151,2294.638420,-13027.624579,-76.609550
22169.568485,0.000000,-5995.668130,306.438199
22169.568818,-222.061783,-7846.182985,2221.676944
22169.569152,4071.132681,-13619.789333,-1302.362347
22169.569485,0.000000,-10732.986159,2451.505594
22169.569819,1110.308913,-8290.306550,-1915.238745
22169.570152,1850.514855,-11251.130318,1762.019645
22169.570485,0.000000,-7179.997637,0.000000
22169.570819,4145.153275,-10140.821405,0.000000
22169.571152,888.247130,-7402.059420,2834.553343
22169.571486,1998.556043,-9918.759623,-153.219100
22169.571819,2960.823768,-7550.100608,1915.238745
22169.572153,1110.308913,-8882.471304,536.266849
22169.572486,1332.370696,-8364.327145,0.000000
22169.572820,1480.411884,-10066.800811,2374.896044
22169.573153,-1924.535449,-10436.903782,-2834.553343
22169.573486,-2368.659014,-10140.821405,1225.752797
22169.573820,-1258.350101,-9178.553681,-1302.362347
22169.574153,-3627.009116,-10436.903782,-1991.848295
22169.574487,-1998.556043,-6809.894666,-842.705048
22169.574820,0.000000,-6883.915261,-76.609550
22169.575154,-5625.565159,-9548.656652,-2451.505594
22169.575487,2294.638420,-6513.812290,612.876398
22169.575821,4663.297435,-8882.471304,4826.401637
22169.576154,3849.070898,-6143.709319,4903.011187
22169.576488,2368.659014,-10140.821405,6052.154434
22169.576821,0.000000,-9696.697840,-1838.629195
22169.577154,-1702.473667,-12139.377449,1072.533697
22169.577488,-3552.988522,-8364.327145,-2068.457845
22169.577821,-1628.453072,-12065.356855,-4060.306139
22169.578155,-3330.926739,-13027.624579,-76.609550
22169.578488,-1850.514855,-5403.503377,-3370.820191
22169.578822,-3627.009116,-13027.624579,-383.047749
22169.579155,2886.803174,-4737.318029,1915.238745
22169.579489,-3552.988522,-8512.368333,3064.381992
22169.579822,5403.503377,-6513.812290,4290.134789
22169.580155,2812.782580,-9474.636058,3447.429741
22169.580489,1036.288319,-10955.047942,1991.848295
22169.580822,7031.956449,-7772.162391,3447.429741
22169.581156,888.247130,-9918.759623,842.705048
22169.581489,0.000000,-10732.986159,1532.190996
22169.581823,-2442.679609,-10584.944971,-4136.915689
22169.582156,222.061783,-7179.997637,-7354.516781
22169.582490,-4441.235652,-14434.015869,-2681.334243
22169.582823,-370.102971,-8290.306550,-2528.115143
22169.583157,-814.226536,-6809.894666,-1532.190996
22169.583490,-1258.350101,-10807.006753,1915.238745
22169.583823,5551.544565,-2738.761985,3983.696590
22169.584157,3330.926739,-9252.574275,7431.126331
22169.584490,9400.615463,-4737.318029,4213.525239
22169.584824,1332.370696,-9548.656652,2757.943793
22169.585157,4441.235652,-10066.800811,3600.648841
22169.585491,5551.544565,-10658.965565,-1915.238745
22169.585824,-1110.308913,-14211.954086,-4366.744339
22169.586158,-666.185348,-14211.954086,-5286.058936
22169.586491,-4293.194464,-11473.192101,-4290.134789
22169.586825,148.041188,-9622.677246,-2834.553343
22169.587158,-1850.514855,-9770.718434,-689.485948
22169.587491,2886.803174,-11251.130318,2374.896044
22169.587825,1776.494261,-2960.823768,6971.469032
22169.588158,4885.359217,-4811.338623,8044.002729
22169.588492,2146.597232,-6809.894666,4213.525239
22169.588825,2368.659014,-4811.338623,2451.505594
22169.589159,-1258.350101,-11399.171507,-76.609550
22169.589492,-74.020594,-9770.718434,-2221.676944
22169.589826,-6513.812290,-10436.903782,-4903.011187
22169.590159,-3923.091493,-13767.830521,-4979.620737
22169.590492,-5107.421000,-9400.615463,-8886.707777
22169.590826,-1924.535449,-12583.501014,-3294.210641
22169.591159,740.205942,-10658.965565,2068.457845
22169.591493,592.164754,-8290.306550,3370.820191
22169.591826,2960.823768,-7476.080014,6281.983084
22169.592159,4515.256246,-7698.141797,4826.401637
22169.592493,2960.823768,-7179.997637,5209.449386
22169.592826,1184.329507,-7179.997637,7967.393179
22169.593159,3478.967927,-8882.471304,536.266849
22169.593493,0.000000,-7179.997637,1532.190996
22169.593826,-6883.915261,-14359.995275,-4060.306139
22169.594160,-444.123565,-7772.162391,-6128.763984
22169.594493,-7698.141797,-14434.015869,-2604.724693
22169.594826,-666.185348,-6217.729913,-5898.935335
22169.595160,-2072.576638,-12953.603985,-76.609550
22169.595493,-666.185348,-7550.100608,2987.772442
22169.595827,2886.803174,-7105.977043,2374.896044
22169.596160,296.082377,-3330.926739,1991.848295
22169.596493,4663.297435,-11843.295072,4213.525239
22169.596827,-5403.503377,-9104.533087,-3064.381992
22169.597160,2738.761985,-6809.894666,-689.485948
22169.597493,0.000000,-12731.542202,153.219100
22169.597827,8586.388927,-6587.832884,3983.696590
22169.598160,-74.020594,-10658.965565,1302.362347
22169.598494,3256.906145,-9474.636058,-76.609550
22169.598827,-74.020594,-13027.624579,-2528.115143
22169.599160,-5255.462188,-12213.398043,-4903.011187
22169.599494,2368.659014,-5403.503377,0.000000
22169.599827,-3108.864956,-14656.077652,842.705048
22169.600161,6143.709319,-4589.276840,4366.744339
22169.600494,4071.132681,-5699.585753,4749.792088
22169.600827,5255.462188,-9474.636058,4826.401637
22169.601161,0.000000,-3627.009116,2451.505594
22169.601494,-74.020594,-10658.965565,-2528.115143
22169.601827,-2738.761985,-11843.295072,-842.705048
22169.602161,-5921.647536,-7179.997637,-2757.943793
22169.602494,-1184.329507,-9548.656652,-2068.457845
22169.602828,-3997.112087,-9030.512492,-2604.724693
22169.603161,1776.494261,-9178.553681,-2681.334243
22169.603494,1184.329507,-11473.192101,2911.162892
22169.603828,1998.556043,-11547.212695,3600.648841
22169.604161,2664.741391,-4811.338623,1838.629195
22169.604495,2294.638420,-11695.253884,2451.505594
22169.604828,6883.915261,-9696.697840,4213.525239
22169.605161,3330.926739,-7328.038826,3447.429741
22169.605495,2294.638420,-11695.253884,842.705048
22169.605828,-1702.473667,-13101.645173,0.000000
22169.606161,-1480.411884,-9696.697840,2987.772442
22169.606495,-1258.350101,-8216.285956,-3370.820191
22169.606828,-3552.988522,-6587.832884,153.219100
22169.607162,-4441.235652,-9474.636058,-689.485948
22169.607495,-2738.761985,-7179.997637,76.609550
22169.607828,-222.061783,-6661.853478,2834.553343
22169.608162,-1184.329507,-6809.894666,2298.286494
22169.608495,3182.885551,-5329.482782,-689.485948
22169.608828,-2368.659014,-11325.150913,0.000000
22169.609162,2886.803174,-10658.965565,-689.485948
22169.609495,-370.102971,-13027.624579,-995.924147
22169.609829,296.082377,-10732.986159,0.000000
22169.610162,1110.308913,-9474.636058,-1608.800546
22169.610495,-2072.576638,-13101.645173,766.095498
22169.610829,1628.453072,-7698.141797,0.000000
22169.611162,-962.267725,-7402.059420,2451.505594
22169.611496,1480.411884,-7179.997637,1532.190996
22169.611829,0.000000,-4811.338623,6128.763984
22169.612162,4071.132681,-6513.812290,2987.772442
22169.612496,1998.556043,-3034.844362,-2221.676944
22169.612829,-1184.329507,-11917.315666,-1991.848295
22169.613162,-2442.679609,-11917.315666,-3064.381992
22169.613496,-2960.823768,-10955.047942,-995.924147
22169.613829,-2590.720797,-12139.377449,-2681.334243
22169.614163,-1924.535449,-10288.862594,-383.047749
22169.614496,-4441.235652,-9474.636058,-1225.752797
22169.614829,1480.411884,-7031.956449,5439.278036
22169.615163,-1258.350101,-8290.306550,2221.676944
22169.615496,592.164754,-4811.338623,3524.039291
22169.615830,2886.803174,-7402.059420,5439.278036
22169.616163,592.164754,-6587.832884,1532.190996
22169.616496,5551.544565,-8364.327145,1225.752797
22169.616830,3404.947333,-9622.677246,536.266849
22169.617163,4293.194464,-11251.130318,-1532.190996
22169.617496,518.144159,-11621.233289,-2528.115143
22169.617830,3478.967927,-16284.530724,-2528.115143
22169.618163,-2368.659014,-10732.986159,-2374.896044
22169.618497,0.000000,-8660.409521,612.876398
22169.618830,2294.638420,-8882.471304,2374.896044
22169.619163,0.000000,-5995.668130,2451.505594
22169.619497,3404.947333,-4959.379811,0.000000
22169.619830,-666.185348,-14211.954086,7277.907231
22169.620164,5699.585753,-444.123565,6818.249932
22169.620497,-962.267725,-7698.141797,2528.115143
22169.620830,3034.844362,-6217.729913,1762.019645
22169.621164,-2516.700203,-10362.883188,-2221.676944
22169.621497,888.247130,-8956.491898,-4673.182538
22169.621830,-518.144159,-15544.324782,-2068.457845
22169.622164,-1850.514855,-13027.624579,-5592.497135
22169.622497,-1184.329507,-14656.077652,-76.609550
22169.622831,-1258.350101,-9474.636058,-2145.067394
22169.623164,-1184.329507,-10140.821405,0.000000
22169.623497,-740.205942,-7179.997637,2757.943793
22169.623831,3478.967927,-3627.009116,3983.696590
22169.624164,3775.050304,-3330.926739,5592.497135
22169.624498,3256.906145,-8068.244768,6511.811733
22169.624831,3182.885551,-6217.729913,3600.648841
22169.625164,0.000000,-7476.080014,0.000000
22169.625498,2294.638420,-11843.295072,-2528.115143
22169.625831,-2146.597232,-13101.645173,-5439.278036
22169.626164,-7105.977043,-12657.521608,-4213.525239
22169.626498,-1258.350101,-13619.789333,-2528.115143
22169.626831,-5921.647536,-9844.739029,-2911.162892
22169.627165,-3701.029710,-9548.656652,0.000000
22169.627498,-4367.215058,-7254.018232,1608.800546
22169.627831,-3923.091493,-5995.668130,2604.724693
22169.628165,592.164754,-2146.597232,6128.763984
22169.628498,4071.132681,-4145.153275,4290.134789
22169.628832,2664.741391,-5403.503377,2451.505594
22169.629165,4441.235652,-9474.636058,4213.525239
22169.629498,-74.020594,-12139.377449,-3447.429741
22169.629832,2812.782580,-11843.295072,-1302.362347
22169.630165,-1998.556043,-12953.603985,-5439.278036
22169.630498,-1776.494261,-16062.468941,-4903.011187
22169.630832,-888.247130,-11917.315666,-1455.581446
22169.631165,-666.185348,-11843.295072,-3140.991542
22169.631499,2294.638420,-6587.832884,612.876398
22169.631832,1184.329507,-5699.585753,5439.278036
22169.632165,7031.956449,-7105.977043,4826.401637
22169.632499,4663.297435,-3627.009116,4903.011187
22169.632832,1702.473667,-9474.636058,4060.306139
22169.633165,3923.091493,-6661.853478,2528.115143
22169.633499,1184.329507,-9844.739029,1762.019645
22169.633832,2886.803174,-7031.956449,-383.047749
22169.634166,-1850.514855,-11695.253884,-1608.800546
22169.634499,-1110.308913,-9622.677246,-7890.783629
22169.634832,-2368.659014,-15618.345376,-5209.449386
22169.635166,-370.102971,-11177.109724,-5056.230287
22169.635499,-2072.576638,-11029.068536,0.000000
22169.635833,0.000000,-9844.739029,2834.553343
22169.636166,5847.626942,-5477.523971,1149.143247
22169.636499,2886.803174,-7179.997637,7354.516781
22169.636833,8956.491898,-5329.482782,6052.154434
22169.637166,4737.318029,-4811.338623,3600.648841
22169.637499,1924.535449,-10510.924376,2987.772442
22169.637833,1184.329507,-7476.080014,-612.876398
22169.638166,0.000000,-11251.130318,-2221.676944
22169.638500,-1924.535449,-14582.057057,-2681.334243
22169.638833,-2442.679609,-11399.171507,-1915.238745
22169.639166,-5995.668130,-11399.171507,-8503.660028
22169.639500,-6513.812290,-10140.821405,-4290.134789
22169.639833,-2960.823768,-8512.368333,1072.533697
22169.640167,2368.659014,-8660.409521,5515.887586
22169.640500,1776.494261,-6365.771101,7277.907231
22169.640833,1184.329507,-4367.215058,3830.477490
22169.641167,3775.050304,-6883.915261,5975.544884
22169.641500,-666.185348,-8586.388927,1455.581446
22169.641833,3552.988522,-9030.512492,1762.019645
22169.642167,-9178.553681,-13101.645173,-4290.134789
22169.642500,-3256.906145,-11177.109724,-2528.115143
22169.642834,-3997.112087,-10881.027347,-4979.620737
22169.643167,-370.102971,-11251.130318,-3140.991542
22169.643500,-2294.638420,-11473.192101,459.657299
22169.643834,-2590.720797,-9030.512492,0.000000
22169.644167,1924.535449,-7179.997637,3217.601092
22169.644501,-3552.988522,-10732.986159,2451.505594
22169.644834,6439.791695,-3552.988522,2374.896044
22169.645167,2664.741391,-9252.574275,7354.516781
22169.645501,5847.626942,-8290.306550,-76.609550
22169.645834,-2368.659014,-11029.068536,612.876398
22169.646167,-5329.482782,-8660.409521,-2451.505594
22169.646501,-2368.659014,-9770.718434,-2987.772442
22169.646834,-3552.988522,-12065.356855,842.705048
22169.647168,1184.329507,-4219.173869,153.219100
22169.647501,-1850.514855,-11843.295072,-1302.362347
22169.647834,222.061783,-4811.338623,-2451.505594
22169.648168,-962.267725,-12731.542202,-76.609550
22169.648501,4071.132681,-5033.400406,842.705048
22169.648835,3552.988522,-9844.739029,5439.278036
22169.649168,3849.070898,-9548.656652,1838.629195
22169.649501,3849.070898,-7476.080014,612.876398
22169.649835,3923.091493,-11843.295072,383.047749
22169.650168,6883.915261,-8734.430116,-459.657299
22169.650501,2294.638420,-13323.706956,1762.019645
22169.650835,74.020594,-7476.080014,-1225.752797
22169.651168,-1554.432478,-9178.553681,-4596.572988
22169.651502,-2368.659014,-13471.748144,-536.266849
22169.651835,888.247130,-5403.503377,0.000000
22169.652168,6661.853478,-7846.182985,6052.154434
22169.652502,4367.215058,-6883.915261,6741.640382
22169.652835,3552.988522,-4811.338623,7354.516781
22169.653169,3478.967927,-9474.636058,536.266849
22169.653502,2368.659014,-10732.986159,0.000000
22169.653835,-3256.906145,-13175.665768,-2528.115143
22169.654169,-2664.741391,-11399.171507,-5362.668486
22169.654502,-4145.153275,-11251.130318,-3600.648841
22169.654835,-8882.471304,-10732.986159,-2757.943793
22169.655169,-74.020594,-7698.141797,-1915.238745
22169.655502,-3478.967927,-6291.750507,0.000000
22169.655836,-74.020594,-11251.130318,5439.278036
22169.656169,4663.297435,-4737.318029,5439.278036
22169.656502,1776.494261,-5107.421000,4903.011187
22169.656836,3923.091493,-9474.636058,2987.772442
22169.657169,4145.153275,-7772.162391,4519.963438
22169.657502,2220.617826,-10362.883188,-229.828649
22169.657836,1702.473667,-10881.027347,-2757.943793
22169.658169,-6217.729913,-14285.974681,-7967.393179
22169.658503,-6957.935855,-10732.986159,-3677.258390
22169.658836,-5995.668130,-12435.459826,-3753.867940
22169.659169,-370.102971,-11843.295072,-76.609550
22169.659503,-3034.844362,-6735.874072,1838.629195
22169.659836,-2146.597232,-962.267725,2451.505594
22169.660170,1110.308913,-2516.700203,4213.525239
22169.660503,740.205942,-5551.544565,6511.811733
22169.660836,1480.411884,-5107.421000,3753.867940
22169.661170,1184.329507,-9474.636058,2451.505594
22169.661503,3775.050304,-11547.212695,-76.609550
22169.661836,-74.020594,-11843.295072,-6511.811733
22169.662170,0.000000,-12213.398043,-3983.696590
22169.662503,-5329.482782,-13397.727550,-5898.935335
22169.662837,-962.267725,-12953.603985,-3677.258390
22169.663170,-518.144159,-10510.924376,459.657299
22169.663503,2072.576638,-8808.450710,3064.381992
22169.663837,1776.494261,-7105.977043,4903.011187
22169.664170,4145.153275,-4515.256246,8580.269578
22169.664504,4663.297435,-3404.947333,7277.907231
22169.664837,3923.091493,-3034.844362,6052.154434
22169.665170,1850.514855,-8438.347739,689.485948
22169.665504,1554.432478,-8882.471304,-2528.115143
22169.665837,-3256.906145,-11917.315666,-7660.954980
22169.666170,0.000000,-12509.480420,-7354.516781
22169.666504,-1850.514855,-16580.613101,-2528.115143
22169.666837,2294.638420,-8882.471304,-3447.429741
22169.667171,1110.308913,-11251.130318,1455.581446
22169.667504,2146.597232,-7402.059420,-459.657299
22169.667837,2812.782580,-7402.059420,3140.991542
22169.668171,74.020594,-5995.668130,5056.230287
22169.668504,2960.823768,-5773.606348,2298.286494
22169.668838,1702.473667,-10362.883188,4826.401637
22169.669171,2368.659014,-8068.244768,7277.907231
22169.669504,-370.102971,-6809.894666,-2451.505594
22169.669838,-1184.329507,-10732.986159,0.000000
22169.670171,-1480.411884,-11325.150913,-1762.019645
22169.670504,518.144159,-7920.203579,-4290.134789
22169.670838,-518.144159,-14730.098246,-1608.800546
22169.671171,2738.761985,-11695.253884,919.314598
22169.671505,-3256.906145,-9548.656652,0.000000
22169.671838,-1110.308913,-6587.832884,-1762.019645
22169.672171,-74.020594,-11843.295072,3294.210641
22169.672505,-74.020594,-7698.141797,-76.609550
22169.672838,148.041188,-4219.173869,3830.477490
22169.673172,-1850.514855,-10214.842000,3294.210641
22169.673505,3256.906145,-5551.544565,4903.011187
22169.673838,-1406.391290,-6735.874072,3983.696590
22169.674172,3478.967927,-8438.347739,2298.286494
22169.674505,-2516.700203,-6587.832884,-1149.143247
22169.674838,148.041188,-7772.162391,-4903.011187
22169.675172,-74.020594,-10658.965565,-4979.620737
22169.675505,-2368.659014,-9844.739029,-7048.078582
22169.675839,0.000000,-11029.068536,-1532.190996
22169.676172,-1850.514855,-15100.201217,-1608.800546
22169.676505,2960.823768,-7179.997637,-76.609550
22169.676839,-518.144159,-10881.027347,3830.477490
22169.677172,5033.400406,-7920.203579,5362.668486
22169.677506,6439.791695,-5625.565159,8963.317327
22169.677839,5847.626942,-8882.471304,8503.660028
22169.678172,6439.791695,-2590.720797,0.000000
22169.678506,-3552.988522,-12583.501014,1762.019645
22169.678839,4071.132681,-9474.636058,-76.609550
22169.679172,-4219.173869,-11547.212695,-4673.182538
22169.679506,-1036.288319,-10066.800811,-2834.553343
22169.679839,-6513.812290,-10510.924376,-7737.564530
22169.680173,-3849.070898,-11621.233289,-2987.772442
22169.680506,-814.226536,-9030.512492,-1762.019645
22169.680839,1036.288319,-11325.150913,2987.772442
22169.681173,2664.741391,-9548.656652,5975.544884
22169.681506,518.144159,-6957.935855,2604.724693
22169.681840,5255.462188,-7698.141797,4519.963438
22169.682173,2368.659014,-5995.668130,3064.381992
22169.682506,0.000000,-10881.027347,5439.278036
22169.682840,2294.638420,-3256.906145,-2681.334243
22169.683173,-666.185348,-14434.015869,-6741.640382
22169.683506,592.164754,-12509.480420,-153.219100
22169.683840,-1406.391290,-8586.388927,-1302.362347
22169.684173,-4145.153275,-13323.706956,-1302.362347
22169.684507,1258.350101,-5181.441594,-76.609550
22169.684840,-4737.318029,-14804.118840,-76.609550
22169.685173,7105.977043,-5625.565159,7048.078582
22169.685507,-1184.329507,-9844.739029,9729.412825
22169.685840,1110.308913,-4441.235652,0.000000
22169.686173,1184.329507,-5995.668130,3677.258390
22169.686507,-5477.523971,-10288.862594,-76.609550
22169.686840,592.164754,-6217.729913,-3677.258390
22169.687174,-3775.050304,-9770.718434,-536.266849
22169.687507,2442.679609,-6883.915261,-4673.182538
22169.687840,-1036.288319,-11769.274478,-842.705048
22169.688174,1702.473667,-11251.130318,-1915.238745
22169.688507,3108.864956,-11399.171507,1762.019645
22169.688841,3330.926739,-10140.821405,2451.505594
22169.689174,5921.647536,-11251.130318,4826.401637
22169.689507,3478.967927,-11843.295072,4826.401637
22169.689841,7031.956449,-5329.482782,4519.963438
22169.690174,2590.720797,-7476.080014,0.000000
22169.690507,-222.061783,-11251.130318,1149.143247
22169.690841,-1184.329507,-6513.812290,-3677.258390
22169.691174,-8290.306550,-10732.986159,-3370.820191
22169.691508,-666.185348,-9474.636058,-2528.115143
22169.691841,-2368.659014,-6291.750507,-2451.505594
22169.692174,0.000000,-7772.162391,3524.039291
22169.692508,1702.473667,-8290.306550,2987.772442
22169.692841,-1776.494261,-4811.338623,0.000000
22169.693175,1332.370696,-9548.656652,995.924147
22169.693508,1110.308913,-11843.295072,689.485948
22169.693841,1480.411884,-10881.027347,153.219100
22169.694174,2294.638420,-11843.295072,1762.019645
22169.694507,-370.102971,-8364.327145,-3677.258390
22169.694840,-148.041188,-13619.789333,-76.609550
22169.695173,1110.308913,-9178.553681,-76.609550
22169.695507,-1110.308913,-8364.327145,-2451.505594
22169.695840,-1184.329507,-10732.986159,1838.629195
22169.696173,1776.494261,-9918.759623,2374.896044
22169.696506,2294.638420,-7698.141797,3600.648841
22169.696839,3256.906145,-7624.121203,1608.800546
22169.697172,1924.535449,-13027.624579,5056.230287
22169.697505,4071.132681,-6587.832884,1378.971896
22169.697838,1332.370696,-9326.594869,1225.752797
22169.698171,-2590.720797,-7698.141797,-3907.087040
22169.698505,-3923.091493,-11769.274478,-3907.087040
22169.698838,-3701.029710,-11843.295072,-689.485948
22169.699171,-4959.379811,-9622.677246,-3830.477490
22169.699504,-4145.153275,-7179.997637,0.000000
22169.699837,1406.391290,-4145.153275,-76.609550
22169.700170,-74.020594,-7105.977043,306.438199
22169.700503,0.000000,-7179.997637,3677.258390
22169.700836,1702.473667,-9918.759623,4136.915689
22169.701169,1924.535449,-10510.924376,2528.115143
22169.701503,4441.235652,-10658.965565,3830.477490
22169.701836,3034.844362,-11177.109724,2681.334243
22169.702169,4071.132681,-5403.503377,0.000000
22169.702502,3108.864956,-10955.047942,-76.609550
22169.702835,-74.020594,-15396.283594,-1608.800546
22169.703168,-1554.432478,-8364.327145,-3370.820191
22169.703501,-962.267725,-9178.553681,-2068.457845
22169.703834,-4293.194464,-7624.121203,-2374.896044
22169.704167,-740.205942,-8068.244768,-1685.410096
22169.704500,0.000000,-10584.944971,3600.648841
22169.704834,2368.659014,-5773.606348,5515.887586
22169.705167,222.061783,-7476.080014,3524.039291
22169.705500,3478.967927,-4589.276840,0.000000
22169.705833,-1702.473667,-8364.327145,-1225.752797
22169.706166,-2368.659014,-10881.027347,459.657299
22169.706499,814.226536,-11251.130318,-1608.800546
22169.706832,-3552.988522,-11029.068536,-4213.525239
22169.707165,-1332.370696,-11547.212695,-2757.943793
22169.707498,-2368.659014,-10140.821405,-2757.943793
22169.707832,0.000000,-11029.068536,-2451.505594
22169.708165,3478.967927,-9474.636058,689.485948
22169.708498,4219.173869,-11251.130318,7277.907231
22169.708831,6439.791695,-7698.141797,5439.278036
22169.709164,2812.782580,-5995.668130,5209.449386
22169.709497,1184.329507,-9548.656652,3677.258390
22169.709830,1258.350101,-9178.553681,1991.848295
22169.710163,1184.329507,-8512.368333,-536.266849
22169.710496,370.102971,-11843.295072,-2834.553343
22169.710830,-666.185348,-11547.212695,-3140.991542
22169.711163,-4737.318029,-10732.986159,-2451.505594
22169.711496,-74.020594,-9474.636058,-1302.362347
22169.711829,-3034.844362,-8290.306550,-2528.115143
22169.712162,-3552.988522,-5995.668130,1225.752797
22169.712495,1184.329507,-5255.462188,2068.457845
22169.712828,-592.164754,-9992.780217,1532.190996
22169.713161,592.164754,-7920.203579,1685.410096
22169.713494,592.164754,-9548.656652,3677.258390
22169.713827,-74.020594,-9474.636058,842.705048
22169.714161,1776.494261,-6883.915261,2145.067394
22169.714494,814.226536,-12657.521608,536.266849
22169.714827,2072.576638,-8586.388927,-383.047749
22169.715160,0.000000,-12065.356855,689.485948
22169.715493,2294.638420,-6513.812290,-1302.362347
22169.715826,0.000000,-8956.491898,1991.848295
22169.716159,0.000000,-10510.924376,-76.609550
22169.716492,2886.803174,-11843.295072,-76.609550
22169.716825,-2368.659014,-10732.986159,-1838.629195
22169.717159,2294.638420,-7994.224174,383.047749
22169.717492,-148.041188,-7550.100608,1149.143247
22169.717825,1036.288319,-9474.636058,4213.525239
22169.718158,-444.123565,-5773.606348,919.314598
22169.718491,-2960.823768,-9548.656652,0.000000
22169.718824,-2368.659014,-8660.409521,-76.609550
22169.719157,-2738.761985,-7920.203579,-4213.525239
22169.719490,-1406.391290,-5403.503377,-1838.629195
22169.719823,-1258.350101,-11547.212695,-76.609550
22169.720157,814.226536,-6883.915261,-3370.820191
22169.720490,2220.617826,-12139.377449,1685.410096
22169.720823,1850.514855,-9178.553681,-153.219100
22169.721156,1258.350101,-12287.418637,1455.581446
22169.721489,1480.411884,-11251.130318,3677.258390
22169.721822,3108.864956,-11103.089130,4826.401637
22169.722155,-2368.659014,-7179.997637,3064.381992
22169.722488,5551.544565,-6809.894666,2374.896044
22169.722821,2294.638420,-11843.295072,2221.676944
22169.723155,0.000000,-5995.668130,2757.943793
22169.723488,-518.144159,-8216.285956,-2604.724693
22169.723821,-3256.906145,-10881.027347,-1378.971896
22169.724154,-2516.700203,-6661.853478,-4366.744339
22169.724487,-1258.350101,-11103.089130,-383.047749
22169.724820,1998.556043,-8290.306550,842.705048
22169.725153,-222.061783,-3923.091493,-4290.134789
22169.725486,-1184.329507,-11325.150913,1455.581446
22169.725819,2294.638420,-10658.965565,-76.609550
22169.726152,-74.020594,-11251.130318,2068.457845
22169.726486,888.247130,-9992.780217,1378.971896
22169.726819,1998.556043,-10140.821405,1915.238745
22169.727152,444.123565,-6069.688724,536.266849
22169.727485,1184.329507,-7772.162391,612.876398
22169.727818,4663.297435,-5699.585753,2451.505594
22169.728151,592.164754,-9400.615463,1838.629195
22169.728484,4737.318029,-8734.430116,2987.772442
22169.728817,518.144159,-11547.212695,0.000000
22169.729150,1110.308913,-10066.800811,-1915.238745
22169.729484,0.000000,-10732.986159,-1149.143247
22169.729817,0.000000,-8586.388927,-612.876398
22169.730150,-592.164754,-9474.636058,-689.485948
22169.730483,-2960.823768,-9548.656652,0.000000
22169.730816,-814.226536,-9548.656652,-1532.190996
22169.731149,-2368.659014,-8068.244768,-1302.362347
22169.731482,222.061783,-8290.306550,766.095498
22169.731815,518.144159,-7698.141797,4060.306139
22169.732148,0.000000,-5995.668130,1378.971896
22169.732482,3478.967927,-7105.977043,1762.019645
22169.732815,0.000000,-10436.903782,3524.039291
22169.733148,-74.020594,-7772.162391,-2987.772442
22169.733481,1702.473667,-12065.356855,766.095498
22169.733814,-1184.329507,-9548.656652,-766.095498
22169.734147,-1554.432478,-11917.315666,1225.752797
22169.734480,-74.020594,-7698.141797,-536.266849
22169.734813,-1110.308913,-9178.553681,-3907.087040
22169.735146,-296.082377,-13767.830521,2451.505594
22169.735479,-1554.432478,-4811.338623,0.000000
22169.735813,-3256.906145,-7179.997637,612.876398
22169.736146,-74.020594,-9326.594869,-76.609550
22169.736479,-518.144159,-4071.132681,-1685.410096
22169.736812,3182.885551,-11251.130318,5439.278036
22169.737145,3997.112087,-4811.338623,1532.190996
22169.737478,3330.926739,-13249.686362,842.705048
22169.737811,1554.432478,-10658.965565,4290.134789
22169.738144,3182.885551,-8882.471304,-1302.362347
22169.738477,-3552.988522,-11325.150913,1225.752797
22169.738811,1998.556043,-4737.318029,-76.609550
22169.739144,-2442.679609,-11843.295072,-3753.867940
22169.739477,-2368.659014,-7179.997637,0.000000
22169.739810,-4811.338623,-11843.295072,-3830.477490
22169.740143,-3182.885551,-7994.224174,-919.314598
22169.740476,2294.638420,-6809.894666,2757.943793
22169.740809,2072.576638,-8142.265362,4290.134789
22169.741142,3182.885551,-4811.338623,1838.629195
22169.741475,-3552.988522,-9548.656652,3677.258390
22169.741809,4663.297435,-11843.295072,1149.143247
22169.742142,2590.720797,-5921.647536,-689.485948
22169.742475,1184.329507,-10732.986159,2451.505594
22169.742808,-666.185348,-12435.459826,-3140.991542
22169.743141,-4145.153275,-11917.315666,-3907.087040
22169.743474,-666.185348,-8364.327145,-4903.011187
22169.743807,-74.020594,-10955.047942,-1225.752797
22169.744140,1776.494261,-5921.647536,3600.648841
22169.744473,1776.494261,-5403.503377,6665.030833
22169.744806,222.061783,-6587.832884,4749.792088
22169.745140,2812.782580,-5995.668130,2987.772442
22169.745473,1998.556043,-9178.553681,3600.648841
22169.745806,3478.967927,-7994.224174,0.000000
22169.746139,-2368.659014,-11029.068536,-76.609550
22169.746472,-1258.350101,-14211.954086,-1915.238745
22169.746805,-3034.844362,-8660.409521,-4290.134789
22169.747138,0.000000,-9104.533087,-2757.943793
22169.747471,-1850.514855,-15322.262999,-2451.505594
22169.747804,-1406.391290,-10658.965565,-1608.800546
22169.748138,0.000000,-5403.503377,-1532.190996
22169.748471,814.226536,-9622.677246,3064.381992
22169.748804,8956.491898,-3478.967927,3830.477490
22169.749137,4145.153275,-9030.512492,9116.536426
22169.749470,4071.132681,-7031.956449,1225.752797
22169.749803,1628.453072,-7179.997637,306.438199
22169.750136,-814.226536,-10955.047942,1608.800546
22169.750469,1924.535449,-6143.709319,0.000000
22169.750802,-3404.947333,-11769.274478,-2834.553343
22169.751136,-3701.029710,-12953.603985,-3140.991542
22169.751469,-6217.729913,-7772.162391,-2451.505594
22169.751802,-1850.514855,-5477.523971,-5898.935335
22169.752135,-2442.679609,-13027.624579,-76.609550
22169.752468,-1258.350101,-7328.038826,0.000000
22169.752801,1480.411884,-7772.162391,3677.258390
22169.753134,2664.741391,-10436.903782,4903.011187
22169.753467,2072.576638,-8586.388927,3447.429741
22169.753800,3108.864956,-9252.574275,2757.943793
22169.754134,3552.988522,-7402.059420,1685.410096
22169.754467,2886.803174,-12435.459826,1762.019645
22169.754800,0.000000,-9548.656652,0.000000
22169.755133,-74.020594,-11843.295072,-3294.210641
22169.755466,-1258.350101,-8438.347739,-4596.572988
22169.755799,-2368.659014,-10732.986159,153.219100
22169.756132,1998.556043,-8882.471304,-76.609550
22169.756465,1332.370696,-8142.265362,-383.047749
22169.756798,814.226536,-10881.027347,4213.525239
22169.757131,3478.967927,-4737.318029,4366.744339
22169.757465,1258.350101,-7698.141797,1685.410096
22169.757798,2516.700203,-10436.903782,4826.401637
22169.758131,-2442.679609,-9548.656652,-2451.505594
22169.758464,-1184.329507,-9474.636058,919.314598
22169.758797,-1258.350101,-8882.471304,-4060.306139
22169.759130,-74.020594,-9474.636058,-689.485948
22169.759463,-148.041188,-11695.253884,-76.609550
22169.759796,0.000000,-11325.150913,612.876398
22169.760129,-666.185348,-8956.491898,-1532.190996
22169.760463,1036.288319,-11769.274478,459.657299
22169.760796,5477.523971,-9030.512492,4826.401637
22169.761129,5625.565159,-7846.182985,3217.601092
22169.761462,5181.441594,-11621.233289,5132.839837
22169.761795,2960.823768,-9622.677246,-766.095498
22169.762128,2886.803174,-11547.212695,-689.485948
22169.762461,592.164754,-11177.109724,4213.525239
22169.762794,-74.020594,-9474.636058,-1302.362347
22169.763127,-4145.153275,-7179.997637,0.000000
22169.763461,-3108.864956,-9104.533087,-1149.143247
22169.763794,-74.020594,-4145.153275,-1378.971896
22169.764127,-4737.318029,-5107.421000,-1838.629195
22169.764460,-1110.308913,-9104.533087,229.828649
22169.764793,-1036.288319,-8216.285956,842.705048
22169.765126,0.000000,-8364.327145,0.000000
22169.765459,2368.659014,-9844.739029,2987.772442
22169.765792,222.061783,-10140.821405,-2145.067394
22169.766125,0.000000,-12509.480420,3524.039291
22169.766458,2368.659014,-8586.388927,536.266849
22169.766792,-1554.432478,-9548.656652,-2451.505594
22169.767125,-1554.432478,-12065.356855,1072.533697
22169.767458,-1036.288319,-8586.388927,76.609550
22169.767791,222.061783,-8290.306550,1762.019645
22169.768124,2294.638420,-7550.100608,5669.106685
22169.768457,2294.638420,-9474.636058,4826.401637
22169.768790,1110.308913,-6291.750507,2757.943793
22169.769123,0.000000,-9030.512492,2451.505594
22169.769456,3478.967927,-11843.295072,-1608.800546
22169.769790,-2368.659014,-13101.645173,-612.876398
22169.770123,-888.247130,-9696.697840,-2451.505594
22169.770456,-2516.700203,-10436.903782,-4519.963438
22169.770789,-3627.009116,-10436.903782,-1225.752797
22169.771122,-3034.844362,-6957.935855,-2528.115143
22169.771455,1110.308913,-9474.636058,1149.143247
22169.771788,962.267725,-4811.338623,1838.629195
22169.772121,-4145.153275,-10955.047942,3447.429741
22169.772454,74.020594,-2368.659014,2374.896044
22169.772788,1702.473667,-8290.306550,2374.896044
22169.773121,4737.318029,-10140.821405,2911.162892
22169.773454,6735.874072,-8438.347739,1991.848295
22169.773787,-1036.288319,-13471.748144,-1685.410096
22169.774120,2368.659014,-9548.656652,-1838.629195
22169.774453,-2146.597232,-8956.491898,-4290.134789
22169.774786,3256.906145,-13619.789333,-612.876398
22169.775119,2886.803174,-14211.954086,-1915.238745
22169.775452,-4145.153275,-14285.974681,3064.381992
22169.775786,2886.803174,-4441.235652,2374.896044
22169.776119,0.000000,-4515.256246,4596.572988
22169.776452,222.061783,-5921.647536,1378.971896
22169.776785,666.185348,-4589.276840,4366.744339
22169.777118,1184.329507,-7179.997637,2451.505594
22169.777451,518.144159,-9548.656652,-1838.629195
22169.777784,1184.329507,-10658.965565,-1608.800546
22169.778117,0.000000,-11399.171507,-4136.915689
22169.778450,3552.988522,-8956.491898,-1915.238745
22169.778783,-4737.318029,-13397.727550,-3983.696590
22169.779117,1110.308913,-11843.295072,-3753.867940
22169.779450,-1628.453072,-8364.327145,0.000000
22169.779783,2146.597232,-10066.800811,2451.505594
22169.780116,4663.297435,-9474.636058,5745.716235
22169.780449,296.082377,-5403.503377,6281.983084
22169.780782,1628.453072,-7328.038826,3217.601092
22169.781115,-1628.453072,-7031.956449,3524.039291
22169.781448,1628.453072,-7476.080014,1378.971896
22169.781781,3108.864956,-8808.450710,3677.258390
22169.782115,0.000000,-7772.162391,0.000000
22169.782448,-2368.659014,-7179.997637,-995.924147
22169.782781,-2442.679609,-11843.295072,-8044.002729
22169.783114,-3627.009116,-15988.448347,-2834.553343
22169.783447,-3256.906145,-10881.027347,-76.609550
22169.783780,1110.308913,-7846.182985,-1532.190996
22169.784113,-1628.453072,-10066.800811,2911.162892
22169.784446,-4293.194464,-7624.121203,-995.924147
22169.784779,1702.473667,-6957.935855,5745.716235
22169.785113,-1406.391290,-4811.338623,2451.505594
22169.785446,2146.597232,-14063.912898,3064.381992
22169.785779,4367.215058,-10658.965565,2987.772442
22169.786112,-4737.318029,-7179.997637,-3677.258390
22169.786445,5107.421000,-8586.388927,-76.609550
22169.786778,2368.659014,-7179.997637,1072.533697
22169.787111,740.205942,-11029.068536,-2451.505594
22169.787444,962.267725,-9030.512492,-2451.505594
22169.787777,-1998.556043,-12731.542202,-4979.620737
22169.788110,0.000000,-10140.821405,0.000000
22169.788444,-370.102971,-12435.459826,3294.210641
22169.788777,4071.132681,-8290.306550,1762.019645
22169.789110,-2368.659014,-6587.832884,4903.011187
22169.789443,4071.132681,-3552.988522,4673.182538
22169.789776,2368.659014,-4885.359217,2911.162892
22169.790109,814.226536,-7920.203579,2374.896044
22169.790442,3701.029710,-7624.121203,2068.457845
22169.790775,-1406.391290,-9474.636058,-76.609550
22169.791108,0.000000,-8068.244768,-2987.772442
22169.791442,-3108.864956,-11399.171507,-5515.887586
22169.791775,-1036.288319,-12435.459826,-4213.525239
22169.792108,0.000000,-11917.315666,-3217.601092
22169.792441,-3330.926739,-16580.613101,-3140.991542
22169.792774,-2368.659014,-7772.162391,306.438199
22169.793107,592.164754,-5995.668130,6128.763984
22169.793440,8808.450710,-9474.636058,9729.412825
22169.793773,5921.647536,-5995.668130,7354.516781
22169.794106,5255.462188,-2812.782580,2528.115143
22169.794440,370.102971,-9992.780217,689.485948
22169.794773,2664.741391,-7550.100608,-2451.505594
22169.795106,-2442.679609,-11547.212695,-3753.867940
22169.795439,-1184.329507,-14211.954086,-5592.497135
22169.795772,-4737.318029,-11325.150913,-2451.505594
22169.796105,-3627.009116,-11843.295072,-3140.991542
22169.796438,2294.638420,-10362.883188,-76.609550
22169.796772,-2442.679609,-7698.141797,1455.581446
22169.797105,0.000000,-5995.668130,2757.943793
22169.797438,1036.288319,-9770.718434,8044.002729
22169.797771,2072.576638,-7031.956449,4443.353888
22169.798104,0.000000,-4811.338623,6435.202183
22169.798437,-666.185348,-6513.812290,2374.896044
22169.798770,0.000000,-5403.503377,-612.876398
22169.799103,-1258.350101,-11843.295072,-3753.867940
22169.799437,-2812.782580,-11843.295072,-5132.839837
22169.799770,-2960.823768,-10436.903782,-2987.772442
22169.800103,-3775.050304,-11029.068536,-4290.134789
22169.800436,814.226536,-12361.439231,-842.705048
22169.800769,1036.288319,-9326.594869,3217.601092
22169.801102,4737.318029,-8808.450710,3677.258390
22169.801435,2886.803174,-8956.491898,2757.943793
22169.801768,4071.132681,-8882.471304,6052.154434
22169.802102,4663.297435,-6513.812290,1915.238745
22169.802435,0.000000,-7328.038826,4826.401637
22169.802768,0.000000,-7994.224174,-1378.971896
22169.803101,-2146.597232,-7550.100608,-995.924147
22169.803434,-4515.256246,-8438.347739,-4596.572988
22169.803767,-1850.514855,-10658.965565,-3907.087040
22169.804100,-2960.823768,-11103.089130,-689.485948
22169.804434,-3552.988522,-8364.327145,-4903.011187
22169.804767,3182.885551,-11251.130318,-76.609550
22169.805100,148.041188,-5995.668130,-3524.039291
22169.805433,4737.318029,-11769.274478,4826.401637
22169.805766,3701.029710,-12139.377449,5515.887586
22169.806099,6217.729913,-7254.018232,2911.162892
22169.806432,3627.009116,-9474.636058,5745.716235
22169.806765,4885.359217,-4811.338623,1072.533697
22169.807099,1406.391290,-9178.553681,-689.485948
22169.807432,-2368.659014,-9548.656652,459.657299
22169.807765,-1332.370696,-9844.739029,-4443.353888
22169.808098,-3404.947333,-11251.130318,-1302.362347
22169.808431,-1924.535449,-10807.006753,-2145.067394
22169.808764,1702.473667,-9474.636058,2374.896044
22169.809097,-1184.329507,-7179.997637,2528.115143
22169.809430,2960.823768,-9696.697840,2374.896044
22169.809764,2294.638420,-10214.842000,4366.744339
22169.810097,3552.988522,-6883.915261,5669.106685
22169.810430,4367.215058,-8882.471304,5745.716235
22169.810763,-296.082377,-8142.265362,-536.266849
22169.811096,-4219.173869,-10881.027347,-4290.134789
22169.811429,-2368.659014,-6735.874072,-4826.401637
22169.811762,-666.185348,-9844.739029,-1149.143247
22169.812096,-2072.576638,-9548.656652,-1225.752797
22169.812429,-1258.350101,-11251.130318,-1302.362347
22169.812762,-74.020594,-10362.883188,-995.924147
22169.813095,2368.659014,-8364.327145,4749.792088
22169.813428,5551.544565,-7105.977043,4826.401637
22169.813761,3997.112087,-7698.141797,5898.935335
22169.814094,3478.967927,-8216.285956,1225.752797
22169.814427,1702.473667,-11177.109724,995.924147
22169.814761,0.000000,-9548.656652,919.314598
22169.815094,-3552.988522,-5403.503377,-1532.190996
22169.815427,-3034.844362,-9548.656652,-4213.525239
22169.815760,-7105.977043,-8364.327145,-7354.516781
22169.816093,-4737.318029,-8660.409521,-3217.601092
22169.816426,-5551.544565,-7772.162391,612.876398
22169.816759,222.061783,-8364.327145,-536.266849
22169.817092,1332.370696,-8734.430116,6665.030833
22169.817426,1998.556043,-5477.523971,2451.505594
22169.817759,2886.803174,-10658.965565,3600.648841
22169.818092,4293.194464,-10362.883188,7277.907231
22169.818425,2886.803174,-8438.347739,0.000000
22169.818758,1480.411884,-9844.739029,2221.676944
22169.819091,1332.370696,-9030.512492,-1915.238745
22169.819424,-296.082377,-11917.315666,-1302.362347
22169.819758,-592.164754,-9104.533087,-1225.752797
22169.820091,444.123565,-9548.656652,-1225.752797
22169.820424,-1776.494261,-11177.109724,-536.266849
22169.820757,0.000000,-7254.018232,919.314598
22169.821090,1702.473667,-9474.636058,3294.210641
22169.821423,2368.659014,-4811.338623,3677.258390
22169.821756,2960.823768,-8216.285956,6665.030833
22169.822089,1998.556043,-6587.832884,1225.752797
22169.822423,592.164754,-9548.656652,2834.553343
22169.822756,-3775.050304,-9030.512492,-4596.572988
22169.823089,-2146.597232,-9770.718434,-7507.735880
22169.823422,-3330.926739,-13397.727550,-2834.553343
22169.823755,296.082377,-8364.327145,0.000000
22169.824088,1998.556043,-7550.100608,0.000000
22169.824421,2072.576638,-9474.636058,1072.533697
22169.824754,-518.144159,-11103.089130,689.485948
22169.825088,3701.029710,-7105.977043,5209.449386
22169.825421,0.000000,-7105.977043,2374.896044
22169.825754,4071.132681,-13027.624579,4213.525239
22169.826087,-1998.556043,-11917.315666,1225.752797
22169.826420,3182.885551,-9474.636058,2987.772442
22169.826753,1332.370696,-8956.491898,0.000000
22169.827086,0.000000,-6291.750507,-919.314598
22169.827420,-2590.720797,-10214.842000,-4749.792088
22169.827753,0.000000,-8290.306550,-3294.210641
22169.828086,-1480.411884,-12139.377449,-2834.553343
22169.828419,296.082377,-10732.986159,0.000000
22169.828752,3478.967927,-8734.430116,4519.963438
22169.829085,-3552.988522,-7179.997637,3677.258390
22169.829418,4071.132681,-7994.224174,4519.963438
22169.829751,-1850.514855,-7105.977043,2374.896044
22169.830085,2664.741391,-8512.368333,4213.525239
22169.830418,370.102971,-6513.812290,3830.477490
22169.830751,0.000000,-7476.080014,0.000000
22169.831084,-1776.494261,-8142.265362,0.000000
22169.831417,-2072.576638,-12435.459826,-76.609550
22169.831750,-370.102971,-5699.585753,-9193.145976
22169.832083,-2368.659014,-10732.986159,-6128.763984
22169.832417,2368.659014,-11843.295072,-76.609550
22169.832750,-1554.432478,-12065.356855,0.000000
22169.833083,4367.215058,-10066.800811,2068.457845
22169.833416,1406.391290,-9918.759623,3294.210641
22169.833749,2590.720797,-7402.059420,3830.477490
22169.834082,4811.338623,-9178.553681,6052.154434
22169.834415,-74.020594,-7105.977043,2374.896044
22169.834748,1776.494261,-2442.679609,1225.752797
22169.835082,-1554.432478,-9474.636058,-3140.991542
22169.835415,888.247130,-9548.656652,-4673.182538
22169.835748,-4737.318029,-9548.656652,0.000000
22169.836081,2294.638420,-8290.306550,-3140.991542
22169.836414,-2812.782580,-13767.830521,-1915.238745
22169.836747,-2146.597232,-10584.944971,-2757.943793
22169.837080,-1776.494261,-10658.965565,-1991.848295
22169.837413,1110.308913,-9474.636058,2374.896044
22169.837747,888.247130,-8512.368333,2987.772442
22169.838080,-3478.967927,-10436.903782,4060.306139
22169.838413,592.164754,-7179.997637,3983.696590
22169.838746,592.164754,-2442.679609,1225.752797
22169.839079,3182.885551,-12435.459826,3600.648841
22169.839412,4737.318029,-3034.844362,3064.381992
22169.839745,-2368.659014,-11325.150913,-76.609550
22169.840079,1110.308913,-9104.533087,-4519.963438
22169.840412,0.000000,-14285.974681,-4596.572988
22169.840745,1850.514855,-15396.283594,459.657299
22169.841078,5181.441594,-9474.636058,3907.087040
22169.841411,-1406.391290,-9918.759623,0.000000
22169.841744,2294.638420,-10658.965565,4213.525239
22169.842077,-1258.350101,-9474.636058,2374.896044
22169.842410,888.247130,-3627.009116,5515.887586
22169.842744,1110.308913,-7105.977043,4826.401637
22169.843077,-74.020594,-6513.812290,-76.609550
22169.843410,-4737.318029,-9178.553681,306.438199
22169.843743,-814.226536,-6291.750507,-1838.629195
22169.844076,-814.226536,-7698.141797,-2451.505594
22169.844409,-666.185348,-12287.418637,-5132.839837
22169.844742,0.000000,-12879.583391,-2374.896044
22169.845075,-74.020594,-11547.212695,-3753.867940
22169.845409,0.000000,-11917.315666,3064.381992
22169.845742,4663.297435,-9474.636058,3294.210641
22169.846075,4071.132681,-12435.459826,4213.525239
22169.846408,3256.906145,-7402.059420,5286.058936
22169.846741,4959.379811,-4811.338623,1838.629195
22169.847074,-1258.350101,-9030.512492,1455.581446
22169.847407,-518.144159,-7402.059420,0.000000
22169.847741,-2368.659014,-7772.162391,-3217.601092
22169.848074,-3034.844362,-11547.212695,-5286.058936
22169.848407,-4145.153275,-13397.727550,0.000000
22169.848740,-74.020594,-9178.553681,-76.609550
22169.849073,-1554.432478,-8364.327145,0.000000
22169.849406,592.164754,-7476.080014,3064.381992
22169.849739,-1850.514855,-10658.965565,1149.143247
22169.850072,2886.803174,-7698.141797,2987.772442
22169.850406,592.164754,-7624.121203,1378.971896
22169.850739,2294.638420,-12435.459826,2068.457845
22169.851072,0.000000,-4811.338623,1225.752797
22169.851405,-1258.350101,-10658.965565,-4366.744339
22169.851738,-962.267725,-11843.295072,-3753.867940
22169.852071,-2368.659014,-9548.656652,-919.314598
22169.852404,0.000000,-12805.562797,-1225.752797
22169.852737,3330.926739,-8586.388927,2681.334243
22169.853071,2294.638420,-8290.306550,1608.800546
22169.853404,2220.617826,-11029.068536,3753.867940
22169.853737,2886.803174,-7698.141797,7124.688131
22169.854070,0.000000,-7476.080014,1225.752797
22169.854403,1924.535449,-7105.977043,2528.115143
22169.854736,-740.205942,-7476.080014,-1225.752797
22169.855069,-1406.391290,-9918.759623,-2298.286494
22169.855403,-2442.679609,-9178.553681,-1915.238745
22169.855736,-3923.091493,-8068.244768,-4903.011187
22169.856069,-4145.153275,-10732.986159,3294.210641
22169.856402,-1554.432478,-8290.306550,-1608.800546
22169.856735,296.082377,-7179.997637,-612.876398
22169.857068,0.000000,-10362.883188,3447.429741
22169.857401,4589.276840,-6883.915261,4596.572988
22169.857734,3034.844362,-8734.430116,3294.210641
22169.858068,4959.379811,-12139.377449,4443.353888
22169.858401,2294.638420,-10066.800811,-76.609550
22169.858734,740.205942,-9548.656652,1225.752797
22169.859067,2886.803174,-11251.130318,-689.485948
22169.859400,-74.020594,-8734.430116,-4826.401637
22169.859733,-3849.070898,-11325.150913,-1225.752797
22169.860066,-74.020594,-5921.647536,-4060.306139
22169.860399,-5329.482782,-11695.253884,-1608.800546
22169.860733,592.164754,-6217.729913,-1072.533697
22169.861066,-444.123565,-10140.821405,4213.525239
22169.861399,592.164754,-4219.173869,4290.134789
22169.861732,0.000000,-7179.997637,5669.106685
22169.862065,1702.473667,-9474.636058,2374.896044
22169.862398,592.164754,-5995.668130,-1225.752797
22169.862731,-2960.823768,-10732.986159,-1838.629195
22169.863065,-444.123565,-9104.533087,-3677.258390
22169.863398,-4811.338623,-10807.006753,-6665.030833
22169.863731,-1110.308913,-8956.491898,-2451.505594
22169.864064,-1258.350101,-8956.491898,-2681.334243
22169.864397,2738.761985,-10510.924376,2987.772442
22169.864730,1776.494261,-7920.203579,6052.154434
22169.865063,5255.462188,-10362.883188,4366.744339
22169.865396,2960.823768,-5403.503377,4290.134789
22169.865730,3775.050304,-12361.439231,5439.278036
22169.866063,1184.329507,-9548.656652,4290.134789
22169.866396,1628.453072,-6957.935855,-1378.971896
22169.866729,-1406.391290,-15322.262999,1072.533697
22169.867062,2294.638420,-4737.318029,-1455.581446
22169.867395,-4737.318029,-11843.295072,-4366.744339
22169.867728,-74.020594,-9474.636058,-1302.362347
22169.868061,-3552.988522,-4811.338623,-4903.011187
22169.868395,-4737.318029,-9548.656652,-1685.410096
22169.868728,2294.638420,-8142.265362,1762.019645
22169.869061,-888.247130,-9548.656652,2528.115143
22169.869394,6587.832884,-7031.956449,3830.477490
22169.869727,1628.453072,-8734.430116,2451.505594
22169.870060,1628.453072,-9992.780217,-536.266849
22169.870393,-592.164754,-10955.047942,612.876398
22169.870727,1702.473667,-11843.295072,229.828649
22169.871060,4589.276840,-8068.244768,229.828649
22169.871393,814.226536,-8586.388927,995.924147
22169.871726,-74.020594,-7476.080014,-2528.115143
22169.872059,-666.185348,-9178.553681,-2528.115143
22169.872392,592.164754,-11251.130318,2374.896044
22169.872725,814.226536,-7698.141797,-1225.752797
22169.873058,-888.247130,-11917.315666,2451.505594
22169.873392,370.102971,-7772.162391,306.438199
22169.873725,-666.185348,-8808.450710,-2451.505594
22169.874058,-1776.494261,-13915.871710,2528.115143
22169.874391,74.020594,-7328.038826,2604.724693
22169.874724,-74.020594,-7179.997637,1149.143247
22169.875057,0.000000,-5403.503377,1838.629195
22169.875390,-2442.679609,-7105.977043,-1455.581446
22169.875723,-2442.679609,-4811.338623,0.000000
22169.876057,-74.020594,-8586.388927,1762.019645
22169.876390,-74.020594,-7105.977043,-1915.238745
22169.876723,-2368.659014,-10732.986159,-1072.533697
22169.877056,222.061783,-13027.624579,0.000000
22169.877389,148.041188,-11029.068536,-1302.362347
22169.877722,1480.411884,-9548.656652,1302.362347
22169.878055,1628.453072,-13101.645173,2451.505594
22169.878389,4663.297435,-6957.935855,1762.019645
22169.878722,-1776.494261,-7179.997637,0.000000
22169.879055,3478.967927,-11843.295072,-76.609550
22169.879388,-2294.638420,-8142.265362,1225.752797
22169.879721,3108.864956,-5329.482782,2987.772442
22169.880054,0.000000,-8216.285956,2145.067394
22169.880387,-1776.494261,-5551.544565,-995.924147
22169.880720,-2294.638420,-9474.636058,-4213.525239
22169.881054,2294.638420,-12731.542202,1762.019645
22169.881387,2590.720797,-6735.874072,-2451.505594
22169.881720,-1036.288319,-12213.398043,842.705048
22169.882053,4663.297435,-13619.789333,-76.609550
22169.882386,-1850.514855,-7179.997637,-4290.134789
22169.882719,888.247130,-11251.130318,1762.019645
22169.883052,1110.308913,-5551.544565,-2987.772442
22169.883386,814.226536,-11251.130318,1149.143247
22169.883719,1036.288319,-5255.462188,1455.581446
22169.884052,2294.638420,-9474.636058,4213.525239
22169.884385,296.082377,-5403.503377,2451.505594
22169.884718,814.226536,-6439.791695,-76.609550
22169.885051,666.185348,-9844.739029,1149.143247
22169.885384,0.000000,-9548.656652,0.000000
22169.885717,0.000000,-10732.986159,1149.143247
22169.886051,1702.473667,-9474.636058,-2068.457845
22169.886384,-74.020594,-11103.089130,-1455.581446
22169.886717,-1184.329507,-10140.821405,306.438199
22169.887050,0.000000,-6587.832884,-1915.238745
22169.887383,-592.164754,-8882.471304,-1455.581446
22169.887716,222.061783,-9770.718434,-1915.238745
22169.888049,-444.123565,-11917.315666,7660.954980
22169.888382,2220.617826,-3478.967927,5362.668486
22169.888716,148.041188,-7772.162391,8197.221829
22169.889049,-1850.514855,-6587.832884,3677.258390
22169.889382,2664.741391,-5329.482782,612.876398
22169.889715,-74.020594,-11843.295072,-1302.362347
22169.890048,-888.247130,-11917.315666,-3064.381992
22169.890381,-1406.391290,-11695.253884,-2681.334243
22169.890714,-1850.514855,-11473.192101,-766.095498
22169.891048,-1554.432478,-9178.553681,-4749.792088
22169.891381,-1850.514855,-12731.542202,-2221.676944
22169.891714,666.185348,-8142.265362,1149.143247
22169.892047,0.000000,-5995.668130,2451.505594
22169.892380,2294.638420,-9474.636058,4213.525239
22169.892713,2368.659014,-7105.977043,3600.648841
22169.893046,3478.967927,-6513.812290,4213.525239
22169.893379,6291.750507,-8586.388927,1302.362347
22169.893713,2368.659014,-13397.727550,3217.601092
22169.894046,518.144159,-9474.636058,-766.095498
22169.894379,0.000000,-10140.821405,-4290.134789
22169.894712,-74.020594,-14211.954086,-76.609550
22169.895045,-1184.329507,-5995.668130,-5822.325785
22169.895378,-1776.494261,-7476.080014,2298.286494
22169.895711,-1554.432478,-5921.647536,-1455.581446
22169.896044,-2368.659014,-7772.162391,-3370.820191
22169.896377,-1924.535449,-8438.347739,2604.724693
22169.896710,-592.164754,-7179.997637,-2451.505594
22169.897043,-222.061783,-9474.636058,1149.143247
22169.897376,2294.638420,-10362.883188,3600.648841
22169.897709,2368.659014,-7179.997637,4290.134789
22169.898043,4293.194464,-9178.553681,4060.306139
22169.898376,6735.874072,-11843.295072,1149.143247
22169.898709,1258.350101,-8956.491898,0.000000
22169.899042,4219.173869,-9992.780217,-76.609550
22169.899375,-74.020594,-15988.448347,-1302.362347
22169.899708,0.000000,-7476.080014,-1838.629195
22169.900041,-1554.432478,-9918.759623,-1532.190996
22169.900374,1406.391290,-8512.368333,-459.657299
22169.900707,-2072.576638,-13027.624579,2374.896044
22169.901040,1184.329507,-4811.338623,1991.848295
22169.901373,-1406.391290,-8808.450710,4290.134789
22169.901706,-1036.288319,-7328.038826,4136.915689
22169.902040,-1332.370696,-2738.761985,0.000000
22169.902373,1036.288319,-10066.800811,-76.609550
22169.902706,2294.638420,-7698.141797,-76.609550
22169.903039,-3552.988522,-9548.656652,-919.314598
22169.903372,1406.391290,-10362.883188,-2528.115143
22169.903705,-2442.679609,-10510.924376,-5439.278036
22169.904038,-962.267725,-13915.871710,-3447.429741
22169.904371,-1036.288319,-11695.253884,0.000000
22169.904704,-1036.288319,-10140.821405,-306.438199
22169.905037,1480.411884,-7328.038826,2451.505594
22169.905370,5033.400406,-10510.924376,8503.660028
22169.905703,6809.894666,-5107.421000,4903.011187
22169.906037,2368.659014,-7772.162391,6128.763984
22169.906370,3627.009116,-9474.636058,5745.716235
22169.906703,-1036.288319,-5403.503377,-1838.629195
22169.907036,-962.267725,-10955.047942,-2451.505594
22169.907369,-3849.070898,-11399.171507,-4136.915689
22169.907702,-4515.256246,-8216.285956,-4366.744339
22169.908035,-1258.350101,-8142.265362,-689.485948
22169.908368,-666.185348,-11843.295072,-2528.115143
22169.908701,-3849.070898,-6587.832884,0.000000
22169.909034,0.000000,-8808.450710,2451.505594
22169.909367,3404.947333,-11843.295072,4213.525239
22169.909700,3701.029710,-10732.986159,6894.859482
22169.910033,296.082377,-9918.759623,3830.477490
22169.910367,5107.421000,-6957.935855,2987.772442
22169.910700,3552.988522,-8512.368333,2681.334243
22169.911033,2812.782580,-6217.729913,0.000000
22169.911366,2886.803174,-8290.306550,76.609550
22169.911699,-4663.297435,-9548.656652,-6128.763984
22169.912032,0.000000,-9548.656652,-766.095498
22169.912365,-1850.514855,-14211.954086,-2834.553343
22169.912698,3034.844362,-7105.977043,-76.609550
22169.913031,-2072.576638,-11029.068536,153.219100
22169.913364,2590.720797,-10066.800811,2221.676944
22169.913697,2072.576638,-9400.615463,3370.820191
22169.914030,1776.494261,-9548.656652,2451.505594
22169.914364,-3478.967927,-10140.821405,1838.629195
22169.914697,-370.102971,-6217.729913,1762.019645
22169.915030,-74.020594,-10066.800811,-2528.115143
22169.915363,-1184.329507,-7920.203579,1149.143247
22169.915696,-74.020594,-11843.295072,-76.609550
22169.916029,-1776.494261,-7031.956449,-766.095498
22169.916362,0.000000,-7920.203579,-2221.676944
22169.916695,-3775.050304,-11991.336260,-1378.971896
22169.917028,2960.823768,-9548.656652,2451.505594
22169.917361,1480.411884,-8068.244768,2451.505594
22169.917694,2812.782580,-12139.377449,2757.943793
22169.918027,2664.741391,-10881.027347,3983.696590
22169.918360,4219.173869,-8734.430116,2681.334243
22169.918694,3552.988522,-7772.162391,612.876398
22169.919027,-740.205942,-8512.368333,0.000000
22169.919360,-4737.318029,-8068.244768,-3677.258390
22169.919693,-3923.091493,-10066.800811,-2528.115143
22169.920026,-3627.009116,-7105.977043,-1302.362347
22169.920359,-2960.823768,-7105.977043,2221.676944
22169.920692,-2220.617826,-7179.997637,306.438199
22169.921025,0.000000,-7031.956449,383.047749
22169.921358,-2220.617826,-9844.739029,766.095498
22169.921691,5551.544565,-9474.636058,3294.210641
22169.922024,1480.411884,-11917.315666,2757.943793
22169.922357,3552.988522,-9548.656652,3217.601092
22169.922691,4663.297435,-10658.965565,536.266849
22169.923024,0.000000,-7179.997637,0.000000
22169.923357,1110.308913,-9474.636058,-2834.553343
22169.923690,-2220.617826,-10436.903782,-1378.971896
22169.924023,518.144159,-8882.471304,459.657299
22169.924356,-1924.535449,-8290.306550,229.828649
22169.924689,518.144159,-7105.977043,1762.019645
22169.925022,-3552.988522,-7179.997637,4290.134789
22169.925355,3182.885551,-5921.647536,2681.334243
22169.925688,2294.638420,-5699.585753,612.876398
22169.926021,2368.659014,-9844.739029,1838.629195
22169.926354,-814.226536,-12657.521608,-2298.286494
22169.926688,-666.185348,-8438.347739,-4903.011187
22169.927021,-1776.494261,-13323.706956,-3217.601092
22169.927354,-666.185348,-9326.594869,-612.876398
22169.927687,-1184.329507,-7179.997637,0.000000
22169.928020,-4737.318029,-8956.491898,1762.019645
22169.928353,1702.473667,-7105.977043,-1149.143247
22169.928686,-5921.647536,-10732.986159,612.876398
22169.929019,3849.070898,-4515.256246,7048.078582
22169.929352,370.102971,-5995.668130,0.000000
22169.929685,4885.359217,-10288.862594,4136.915689
22169.930018,2960.823768,-9696.697840,1532.190996
22169.930351,1110.308913,-11917.315666,-1532.190996
22169.930684,592.164754,-8956.491898,-4443.353888
22169.931018,-2146.597232,-13545.768739,-3600.648841
22169.931351,-666.185348,-8660.409521,-5132.839837
22169.931684,-1554.432478,-10510.924376,-3753.867940
22169.932017,2294.638420,-12435.459826,2374.896044
22169.932350,4071.132681,-2812.782580,2145.067394
22169.932683,-1776.494261,-7179.997637,5132.839837
22169.933016,2294.638420,-8290.306550,3600.648841
22169.933349,-1702.473667,-10807.006753,2911.162892
22169.933682,4515.256246,-5773.606348,4749.792088
22169.934015,3478.967927,-9770.718434,2528.115143
22169.934348,-296.082377,-11251.130318,-76.609550
22169.934681,-2220.617826,-10955.047942,-3140.991542
22169.935015,-2960.823768,-10140.821405,-5515.887586
22169.935348,2664.741391,-11325.150913,-5209.449386
22169.935681,-4145.153275,-11325.150913,-689.485948
22169.936014,1110.308913,-9178.553681,-689.485948
22169.936347,-74.020594,-6809.894666,306.438199
22169.936680,3108.864956,-5625.565159,3907.087040
22169.937013,1628.453072,-8068.244768,6281.983084
22169.937346,4145.153275,-4811.338623,5669.106685
22169.937679,-1554.432478,-12361.439231,2681.334243
22169.938012,0.000000,-9548.656652,2451.505594
22169.938345,1702.473667,-10955.047942,-766.095498
22169.938678,3478.967927,-9474.636058,-76.609550
22169.939012,518.144159,-8956.491898,-3064.381992
22169.939345,-3849.070898,-7772.162391,-5056.230287
22169.939678,-3552.988522,-10732.986159,-5975.544884
22169.940011,-3108.864956,-14359.995275,689.485948
22169.940344,1110.308913,-6883.915261,-536.266849
22169.940677,-888.247130,-7179.997637,2604.724693
22169.941010,-74.020594,-10658.965565,5439.278036
22169.941343,0.000000,-1258.350101,1838.629195
22169.941676,-74.020594,-11843.295072,1762.019645
22169.942009,3182.885551,-8660.409521,612.876398
22169.942342,888.247130,-12139.377449,3600.648841
22169.942675,1702.473667,-11843.295072,2068.457845
22169.943008,0.000000,-6661.853478,-1302.362347
22169.943342,-3034.844362,-10362.883188,-5515.887586
22169.943675,2294.638420,-6957.935855,-2298.286494
22169.944008,-2220.617826,-10362.883188,-2298.286494
22169.944341,2516.700203,-9844.739029,2987.772442
22169.944674,-666.185348,-5403.503377,-3677.258390
22169.945007,74.020594,-15914.427753,0.000000
22169.945340,2886.803174,-11843.295072,3600.648841
22169.945673,2294.638420,-9474.636058,4826.401637
22169.946006,666.185348,-10658.965565,5362.668486
22169.946339,3849.070898,-2812.782580,2987.772442
22169.946672,-1258.350101,-10584.944971,689.485948
22169.947005,2294.638420,-2886.803174,1608.800546
22169.947339,0.000000,-10362.883188,-76.609550
22169.947672,-2072.576638,-10140.821405,-919.314598
22169.948005,-2368.659014,-9918.759623,-3447.429741
22169.948338,-1110.308913,-10658.965565,-4596.572988
22169.948671,888.247130,-8438.347739,-4519.963438
22169.949004,-888.247130,-11769.274478,-1302.362347
22169.949337,4663.297435,-12361.439231,4519.963438
22169.949670,1554.432478,-6291.750507,2451.505594
22169.950003,2220.617826,-12287.418637,4826.401637
22169.950336,4367.215058,-8290.306550,5286.058936
22169.950669,2812.782580,-8882.471304,5745.716235
22169.951002,2886.803174,-4885.359217,4366.744339
22169.951336,518.144159,-6957.935855,766.095498
22169.951669,-2368.659014,-5403.503377,-3677.258390
22169.952002,0.000000,-10658.965565,-3140.991542
22169.952335,-4737.318029,-12805.562797,-3064.381992
22169.952668,74.020594,-6291.750507,-2451.505594
22169.953001,-3849.070898,-12953.603985,-1915.238745
22169.953334,-814.226536,-10732.986159,0.000000
22169.953667,-2664.741391,-9474.636058,-1302.362347
22169.954000,592.164754,-9918.759623,2374.896044
22169.954333,2368.659014,-9252.574275,4519.963438
22169.954666,3627.009116,-9474.636058,6665.030833
22169.954999,2294.638420,-9474.636058,8503.660028
22169.955332,-2368.659014,-1850.514855,1225.752797
22169.955666,-592.164754,-7550.100608,-76.609550
22169.955999,1998.556043,-7994.224174,-3140.991542
22169.956332,0.000000,-10436.903782,-76.609550
22169.956665,-3627.009116,-11843.295072,-4519.963438
22169.956998,-1258.350101,-10732.986159,-4443.353888
22169.957331,-3330.926739,-13767.830521,-4519.963438
22169.957664,4663.297435,-11695.253884,4213.525239
22169.957997,3478.967927,-9474.636058,3907.087040
22169.958330,0.000000,-5995.668130,4903.011187
22169.958663,4663.297435,-8290.306550,5439.278036
22169.958996,-2368.659014,-5107.421000,1838.629195
22169.959329,6439.791695,-5329.482782,4826.401637
22169.959663,-2960.823768,-8364.327145,1455.581446
22169.959996,0.000000,-4293.194464,-1915.238745
22169.960329,-5699.585753,-7994.224174,-8044.002729
22169.960662,-4737.318029,-10732.986159,-6128.763984
22169.960995,-3182.885551,-10140.821405,-5515.887586
22169.961328,1702.473667,-15766.386565,0.000000
22169.961661,6735.874072,-13619.789333,6052.154434
22169.961994,0.000000,-5995.668130,2757.943793
22169.962327,6143.709319,-8290.306550,6052.154434
22169.962660,7698.141797,-8142.265362,9422.974625
22169.962993,7698.141797,-8364.327145,5822.325785
22169.963326,6143.709319,-6587.832884,4366.744339
22169.963660,-5921.647536,-11917.315666,-2451.505594
22169.963993,-3997.112087,-5699.585753,-7354.516781
22169.964326,-4811.338623,-11843.295072,-3983.696590
22169.964659,-2220.617826,-10955.047942,-2911.162892
22169.964992,-3108.864956,-7698.141797,-2911.162892
22169.965325,-5921.647536,-11325.150913,-4596.572988
22169.965658,2294.638420,-7105.977043,-76.609550
22169.965991,-2812.782580,-7476.080014,5822.325785
22169.966324,7254.018232,-5921.647536,8273.831378
22169.966657,4663.297435,-10658.965565,7890.783629
22169.966990,3552.988522,-9104.533087,4903.011187
22169.967323,-814.226536,-7402.059420,76.609550
22169.967656,-3997.112087,-11029.068536,-4136.915689
22169.967990,-2886.803174,-8438.347739,-8733.488677
22169.968323,-4071.132681,-14211.954086,-2834.553343
22169.968656,-2664.741391,-10140.821405,-2145.067394
22169.968989,-5921.647536,-8364.327145,-383.047749
22169.969322,2294.638420,-11843.295072,1149.143247
22169.969655,370.102971,-5403.503377,4903.011187
22169.969988,6661.853478,-2072.576638,5439.278036
22169.970321,5773.606348,-11769.274478,8580.269578
22169.970654,4441.235652,0.000000,1915.238745
22169.970987,2812.782580,-15544.324782,2528.115143
22169.971320,-2442.679609,-26055.249158,-1302.362347
22169.971653,2960.823768,-5403.503377,-3677.258390
22169.971987,-1258.350101,-1184.329507,-2528.115143
22169.972320,-666.185348,-4145.153275,-4979.620737
22169.972653,-11251.130318,-16062.468941,-3370.820191
22169.972986,-4959.379811,-11177.109724,0.000000
22169.973319,-222.061783,-7105.977043,2528.115143
22169.973652,3330.926739,-10066.800811,5515.887586
22169.973985,7846.182985,-1998.556043,1378.971896
22169.974318,4737.318029,-5403.503377,612.876398
22169.974651,9474.636058,-8364.327145,7277.907231
22169.974984,6735.874072,-11843.295072,2834.553343
22169.975317,1332.370696,-9548.656652,-3370.820191
22169.975650,0.000000,-11029.068536,306.438199
22169.975983,-2442.679609,-6291.750507,-7354.516781
22169.976317,-3256.906145,-9918.759623,-2221.676944
22169.976650,-1702.473667,-6735.874072,2145.067394
22169.976983,-1110.308913,-4515.256246,3370.820191
22169.977316,-3552.988522,-9548.656652,2681.334243
22169.977649,3478.967927,-9326.594869,7890.783629
22169.977982,2368.659014,-10436.903782,8197.221829
22169.978315,4441.235652,-8586.388927,2834.553343
22169.978648,3478.967927,-14211.954086,-76.609550
22169.978981,-666.185348,-15396.283594,-7124.688131
22169.979314,-2072.576638,-12509.480420,-7048.078582
22169.979647,-962.267725,-15692.365970,-3753.867940
22169.979980,-74.020594,-10436.903782,-6052.154434
22169.980314,-3256.906145,-10288.862594,-2451.505594
22169.980647,-74.020594,-6513.812290,-3907.087040
22169.980980,-1332.370696,-7772.162391,-306.438199
22169.981313,2368.659014,-7402.059420,3753.867940
22169.981646,1702.473667,-7105.977043,4366.744339
22169.981979,962.267725,-5921.647536,3294.210641
22169.982312,0.000000,-7772.162391,2451.505594
22169.982645,-666.185348,-14211.954086,-76.609550
22169.982978,2294.638420,-6809.894666,-3370.820191
22169.983311,-3923.091493,-13027.624579,-3753.867940
22169.983644,-1184.329507,-8068.244768,-4136.915689
22169.983977,-5699.585753,-9474.636058,-5132.839837
22169.984311,-1554.432478,-5995.668130,-766.095498
22169.984644,-3256.906145,-6587.832884,1225.752797
22169.984977,3478.967927,-3256.906145,1302.362347
22169.985310,4737.318029,-10140.821405,8503.660028
22169.985643,3478.967927,-11251.130318,8197.221829
22169.985976,2960.823768,-10732.986159,3677.258390
22169.986309,0.000000,-11621.233289,4903.011187
22169.986642,4145.153275,-8068.244768,3677.258390
22169.986975,2516.700203,-6217.729913,-536.266849
22169.987308,3478.967927,-9918.759623,2221.676944
22169.987641,-74.020594,-7105.977043,-3140.991542
22169.987974,-962.267725,-5403.503377,-2451.505594
22169.988307,-1258.350101,-7994.224174,-1915.238745
22169.988641,-74.020594,-6217.729913,-4060.306139
22169.988974,-1184.329507,-8882.471304,1608.800546
22169.989307,2294.638420,-13027.624579,2374.896044
22169.989640,4441.235652,-8956.491898,3524.039291
22169.989973,2368.659014,-11695.253884,6205.373534
22169.990306,4367.215058,-10584.944971,1455.581446
22169.990639,-1036.288319,-14804.118840,1685.410096
22169.990972,592.164754,-11917.315666,1149.143247
22169.991305,1110.308913,-11325.150913,-2911.162892
22169.991638,-2368.659014,-11917.315666,-3370.820191
22169.991971,3256.906145,-7105.977043,1762.019645
22169.992304,2886.803174,-6513.812290,3294.210641
22169.992638,4441.235652,-3108.864956,536.266849
22169.992971,-3849.070898,-11473.192101,-1608.800546
22169.993304,-2146.597232,-10288.862594,-4903.011187
22169.993637,-2664.741391,-13989.892304,-2528.115143
22169.993970,-2368.659014,-15618.345376,-76.609550
22169.994303,-592.164754,-12435.459826,842.705048
22169.994636,-4441.235652,-7328.038826,-229.828649
22169.994969,1850.514855,-7254.018232,-153.219100
22169.995302,1702.473667,-8882.471304,3600.648841
22169.995635,2368.659014,-3478.967927,3217.601092
22169.995968,-74.020594,-8290.306550,2374.896044
22169.996302,-2442.679609,-5403.503377,0.000000
22169.996635,-2072.576638,-5847.626942,-2221.676944
22169.996968,1702.473667,-9474.636058,536.266849
22169.997301,2072.576638,-9400.615463,-1302.362347
22169.997634,370.102971,-13545.768739,-306.438199
22169.997967,0.000000,-13101.645173,4673.182538
22169.998300,0.000000,-8660.409521,0.000000
22169.998633,-74.020594,-9548.656652,1838.629195
22169.998966,296.082377,-7920.203579,4213.525239
22169.999299,4071.132681,-7698.141797,6665.030833
22169.999633,-3108.864956,-3627.009116,3064.381992
22169.999966,1406.391290,-518.144159,0.000000
22170.000299,-4219.173869,-7254.018232,-1608.800546
22170.000632,518.144159,-7994.224174,-3524.039291
22170.000965,-3330.926739,-12287.418637,-3983.696590
22170.001298,-3034.844362,-15026.180623,-2528.115143
22170.001631,4663.297435,-13027.624579,-76.609550
22170.001964,0.000000,-13101.645173,1838.629195
22170.002297,9400.615463,-9326.594869,6665.030833
22170.002630,4663.297435,-10066.800811,3753.867940
22170.002964,7624.121203,-5699.585753,4519.963438
22170.003297,2738.761985,-9548.656652,4596.572988
22170.003630,592.164754,-11843.295072,995.924147
22170.003963,2590.720797,-8660.409521,-2145.067394
22170.004296,-4441.235652,-12657.521608,-6128.763984
22170.004629,-74.020594,-7624.121203,-3677.258390
22170.004962,-4737.318029,-7179.997637,-1532.190996
22170.005295,2072.576638,-10510.924376,-842.705048
22170.005628,-1110.308913,-4811.338623,-1762.019645
22170.005961,-2368.659014,-10140.821405,-842.705048
22170.006295,2516.700203,-7402.059420,2221.676944
22170.006628,-1554.432478,-9696.697840,306.438199
22170.006961,2294.638420,-7328.038826,2298.286494
22170.007294,-74.020594,-10658.965565,5439.278036
22170.007627,0.000000,-7179.997637,-612.876398
22170.007960,-666.185348,-9474.636058,-2528.115143
22170.008293,-2442.679609,-10066.800811,-3217.601092
22170.008626,-1776.494261,-6883.915261,-612.876398
22170.008959,-2072.576638,-7179.997637,536.266849
22170.009292,888.247130,-9844.739029,919.314598
22170.009626,3923.091493,-7994.224174,4673.182538
22170.009959,4515.256246,-8068.244768,3064.381992
22170.010292,7031.956449,-11547.212695,7277.907231
22170.010625,888.247130,-11029.068536,3907.087040
22170.010958,2146.597232,-8734.430116,0.000000
22170.011291,-3701.029710,-13027.624579,76.609550
22170.011624,-1776.494261,-8364.327145,-2221.676944
22170.011957,-2442.679609,-9474.636058,-76.609550
22170.012290,-3552.988522,-5995.668130,0.000000
22170.012623,-74.020594,-5921.647536,-1915.238745
22170.012957,-5995.668130,-6883.915261,-3064.381992
22170.013290,-2960.823768,-4219.173869,-1838.629195
22170.013623,1702.473667,-10362.883188,536.266849
22170.013956,3108.864956,-11843.295072,4826.401637
22170.014289,4219.173869,-11843.295072,2987.772442
22170.014622,1554.432478,-12065.356855,1838.629195
22170.014955,3034.844362,-8364.327145,612.876398
22170.015288,2368.659014,-9770.718434,2987.772442
22170.015621,4663.297435,-9474.636058,1149.143247
22170.015954,-1554.432478,-9548.656652,-2451.505594
22170.016288,-2590.720797,-13027.624579,-689.485948
22170.016621,-74.020594,-7698.141797,-1302.362347
22170.016954,-2368.659014,-9548.656652,459.657299
22170.017287,962.267725,-5847.626942,1225.752797
22170.017620,-962.267725,-9770.718434,-153.219100
22170.017953,0.000000,-7698.141797,1072.533697
22170.018286,2886.803174,-5107.421000,1225.752797
22170.018619,1998.556043,-13619.789333,3600.648841
22170.018952,4663.297435,-8882.471304,3600.648841
22170.019285,-6957.935855,-8956.491898,-2145.067394
22170.019618,1702.473667,-7994.224174,-2681.334243
22170.019952,-2368.659014,-9252.574275,-4060.306139
22170.020285,1628.453072,-10436.903782,-1302.362347
22170.020618,222.061783,-8142.265362,-229.828649
22170.020951,-2960.823768,-8956.491898,-3064.381992
22170.021284,1480.411884,-9400.615463,2987.772442
22170.021617,2294.638420,-9474.636058,383.047749
22170.021950,4737.318029,-8956.491898,5822.325785
22170.022283,4663.297435,-12435.459826,9116.536426
22170.022616,6439.791695,-9992.780217,1072.533697
22170.022949,3923.091493,-10658.965565,4596.572988
22170.023283,3108.864956,-9622.677246,3217.601092
22170.023616,740.205942,-8364.327145,0.000000
22170.023949,-3256.906145,-9548.656652,-2451.505594
22170.024282,-3627.009116,-8586.388927,-5132.839837
22170.024615,-3775.050304,-6809.894666,-2298.286494
22170.024948,-2072.576638,-4219.173869,-4443.353888
22170.025281,-3182.885551,-9474.636058,-1608.800546
22170.025614,-2368.659014,-8290.306550,536.266849
22170.025947,0.000000,-8364.327145,2451.505594
22170.026280,4293.194464,-11843.295072,9116.536426
22170.026614,3775.050304,-11251.130318,2681.334243
22170.026947,2886.803174,-14211.954086,4826.401637
22170.027280,3034.844362,-8734.430116,2528.115143
22170.027613,2368.659014,-8364.327145,459.657299
22170.027946,1332.370696,-9178.553681,-689.485948
22170.028279,-1628.453072,-9548.656652,-1762.019645
22170.028612,-1406.391290,-10066.800811,-2528.115143
22170.028945,-3552.988522,-8364.327145,1838.629195
22170.029278,-1850.514855,-8882.471304,-1302.362347
22170.029611,-1406.391290,-10658.965565,-1302.362347
22170.029945,0.000000,-8512.368333,3064.381992
22170.030278,814.226536,-7476.080014,459.657299
22170.030611,296.082377,-11621.233289,1991.848295
22170.030944,1258.350101,-10732.986159,612.876398
22170.031277,-2368.659014,-11843.295072,2145.067394
22170.031610,-370.102971,-4737.318029,-689.485948
22170.031943,592.164754,-10955.047942,3600.648841
22170.032276,-370.102971,-5921.647536,-2681.334243
22170.032609,-2368.659014,-7476.080014,306.438199
22170.032942,-4145.153275,-9548.656652,0.000000
22170.033276,-3108.864956,-6661.853478,-5515.887586
22170.033609,-2220.617826,-12509.480420,-2911.162892
22170.033942,3256.906145,-10066.800811,2987.772442
22170.034275,4071.132681,-9178.553681,2221.676944
22170.034608,2368.659014,-13101.645173,3064.381992
22170.034941,5847.626942,-9474.636058,2068.457845
22170.035274,888.247130,-9548.656652,0.000000
22170.035607,2368.659014,-9400.615463,2987.772442
22170.035940,5847.626942,-9474.636058,2374.896044
22170.036273,-3997.112087,-11029.068536,2068.457845
22170.036607,2220.617826,-2442.679609,0.000000
22170.036940,-4515.256246,-10955.047942,-2681.334243
22170.037273,2590.720797,-2960.823768,842.705048
22170.037606,-148.041188,-7698.141797,536.266849
22170.037939,3182.885551,-9474.636058,-3140.991542
22170.038272,0.000000,-11029.068536,1225.752797
22170.038605,-74.020594,-15396.283594,-76.609550
22170.038938,7031.956449,-11251.130318,2374.896044
22170.039271,0.000000,-12583.501014,3600.648841
22170.039604,5255.462188,-5995.668130,-1225.752797
22170.039937,-1776.494261,-9696.697840,1608.800546
22170.040271,1850.514855,-6513.812290,-1608.800546
22170.040604,0.000000,-6291.750507,1225.752797
22170.040937,2220.617826,-10066.800811,3907.087040
22170.041270,1628.453072,-6587.832884,1149.143247
22170.041603,-296.082377,-9844.739029,1915.238745
22170.041936,-74.020594,-10066.800811,-2681.334243
22170.042269,-1776.494261,-9548.656652,612.876398
22170.042602,-74.020594,-11843.295072,-1302.362347
22170.042935,3478.967927,-11843.295072,459.657299
22170.043268,-1184.329507,-9622.677246,2834.553343
22170.043602,-962.267725,-7994.224174,-76.609550
22170.043935,-4589.276840,-9992.780217,0.000000
22170.044268,-2072.576638,-4515.256246,-919.314598
22170.044601,-3849.070898,-6365.771101,-1532.190996
22170.044934,-2368.659014,-9696.697840,4290.134789
22170.045267,-2368.659014,-4219.173869,4979.620737
22170.045600,-666.185348,-7105.977043,-76.609550
22170.045933,2368.659014,-6587.832884,0.000000
22170.046266,-2368.659014,-11103.089130,689.485948
22170.046599,2294.638420,-11695.253884,-1762.019645
22170.046933,-1850.514855,-15692.365970,-76.609550
22170.047266,-888.247130,-10732.986159,-1072.533697
22170.047599,-1776.494261,-9474.636058,-1072.533697
22170.047932,2294.638420,-8882.471304,1762.019645
22170.048265,-888.247130,-4811.338623,0.000000
22170.048598,-74.020594,-8290.306550,1149.143247
22170.048931,-370.102971,-5403.503377,-1532.190996
22170.049264,-1480.411884,-8068.244768,0.000000
22170.049597,3478.967927,-11843.295072,-306.438199
22170.049930,1184.329507,-13397.727550,3447.429741
22170.050264,4219.173869,-8586.388927,4903.011187
22170.050597,2590.720797,-5921.647536,-1991.848295
22170.050930,962.267725,-12065.356855,-612.876398
22170.051263,592.164754,-9844.739029,1225.752797
22170.051596,444.123565,-6735.874072,-3677.258390
22170.051929,-2368.659014,-8364.327145,0.000000
22170.052262,-1258.350101,-13027.624579,-3753.867940
22170.052595,814.226536,-5255.462188,-383.047749
22170.052928,-74.020594,-10066.800811,-1302.362347
22170.053261,1184.329507,-8956.491898,-612.876398
22170.053595,-1258.350101,-7920.203579,229.828649
22170.053928,2886.803174,-8882.471304,2374.896044
22170.054261,6735.874072,-10658.965565,7277.907231
22170.054594,740.205942,-9548.656652,3064.381992
22170.054927,5403.503377,-11547.212695,6435.202183
22170.055260,4663.297435,-8882.471304,-1915.238745
22170.055593,2442.679609,-7105.977043,0.000000
22170.055926,-962.267725,-9326.594869,-2528.115143
22170.056259,-888.247130,-9696.697840,-4979.620737
22170.056592,-2886.803174,-10510.924376,-2298.286494
22170.056926,-1258.350101,-11177.109724,-4673.182538
22170.057259,-74.020594,-11843.295072,3294.210641
22170.057592,-2516.700203,-7031.956449,2145.067394
22170.057925,-1184.329507,-9770.718434,2834.553343
22170.058258,740.205942,-5403.503377,7201.297681
22170.058591,1480.411884,-4811.338623,2451.505594
22170.058924,4367.215058,-11843.295072,7124.688131
22170.059257,666.185348,-6587.832884,1225.752797
22170.059590,-2960.823768,-8956.491898,-612.876398
22170.059923,-814.226536,-7994.224174,-3140.991542
22170.060257,-3182.885551,-8660.409521,-8580.269578
22170.060590,-3034.844362,-11177.109724,-4903.011187
22170.060923,-2072.576638,-8808.450710,-2451.505594
22170.061256,-2072.576638,-10214.842000,-1149.143247
22170.061589,-1184.329507,-10362.883188,3753.867940
22170.061922,1480.411884,-9474.636058,4826.401637
22170.062255,1480.411884,-6587.832884,3677.258390
22170.062588,0.000000,-10732.986159,7354.516781
22170.062921,5847.626942,-6513.812290,6358.592633
22170.063254,0.000000,-5995.668130,3064.381992
22170.063587,1998.556043,-7994.224174,-919.314598
22170.063921,-1998.556043,-10288.862594,-4519.963438
22170.064254,-3034.844362,-8734.430116,-6665.030833
22170.064587,-3627.009116,-11843.295072,-5898.935335
22170.064920,-2442.679609,-13027.624579,-4979.620737
22170.065253,-2368.659014,-10140.821405,1532.190996
22170.065586,1406.391290,-9030.512492,3447.429741
22170.065919,3478.967927,-8882.471304,1455.581446
22170.066252,4367.215058,-9474.636058,4826.401637
22170.066585,4737.318029,-9104.533087,6435.202183
22170.066918,4367.215058,-7402.059420,5056.230287
22170.067252,3256.906145,-11325.150913,2451.505594
22170.067585,1184.329507,-7772.162391,1838.629195
22170.067918,-74.020594,-8216.285956,-4826.401637
22170.068251,-2220.617826,-5995.668130,-2451.505594
22170.068584,-3108.864956,-11843.295072,-3140.991542
22170.068917,-666.185348,-8290.306550,-4979.620737
22170.069250,-1924.535449,-8660.409521,-2374.896044
22170.069583,-1628.453072,-11103.089130,-1072.533697
22170.069916,2220.617826,-8290.306550,1608.800546
22170.070249,1628.453072,-10436.903782,3677.258390
22170.070583,4737.318029,-10436.903782,8120.612279
22170.070916,2368.659014,-7179.997637,4903.011187
22170.071249,4071.132681,-11251.130318,6052.154434
22170.071582,3478.967927,-5551.544565,0.000000
22170.071915,296.082377,-9548.656652,1455.581446
22170.072248,-888.247130,-6143.709319,-2221.676944
22170.072581,-3108.864956,-11325.150913,-3217.601092
22170.072914,-3552.988522,-7402.059420,-3907.087040
22170.073247,-1258.350101,-8438.347739,-3983.696590
22170.073580,-740.205942,-10955.047942,-76.609550
22170.073914,592.164754,-6883.915261,2451.505594
22170.074247,-3182.885551,-12509.480420,1455.581446
22170.074580,2220.617826,-8586.388927,3600.648841
22170.074913,-1924.535449,-13619.789333,2987.772442
22170.075246,2072.576638,-12361.439231,6128.763984
22170.075579,-3256.906145,-5995.668130,2145.067394
22170.075912,-5921.647536,-8364.327145,3447.429741
22170.076245,-5403.503377,-1776.494261,-5745.716235
22170.076578,-10436.903782,-9918.759623,-4366.744339
22170.076911,-5033.400406,-5329.482782,-2834.553343
22170.077245,-10066.800811,-11843.295072,-2451.505594
22170.077578,-6735.874072,-11695.253884,-919.314598
22170.077911,-7402.059420,-9400.615463,1455.581446
22170.078244,-5403.503377,-11843.295072,-76.609550
22170.078577,-4737.318029,-7476.080014,3830.477490
22170.078910,-4737.318029,-10436.903782,5286.058936
22170.079243,-1554.432478,-10658.965565,4213.525239
22170.079576,-7105.977043,-9548.656652,2451.505594
22170.079909,-5403.503377,-8882.471304,-383.047749
22170.080242,-8808.450710,-8364.327145,-1762.019645
22170.080576,-7179.997637,-7772.162391,-2681.334243
22170.080909,-9992.780217,-9178.553681,-2681.334243
22170.081242,-8660.409521,-5995.668130,-4903.011187
22170.081575,-10658.965565,-9548.656652,-229.828649
22170.081908,-5403.503377,-9326.594869,2374.896044
22170.082241,-1554.432478,-6217.729913,1225.752797
22170.082574,-2664.741391,-9252.574275,6052.154434
22170.082907,-3923.091493,-11547.212695,0.000000
22170.083240,-5181.441594,-13175.665768,-842.705048
22170.083573,-5773.606348,-12065.356855,2451.505594
22170.083906,-3923.091493,-9548.656652,2681.334243
22170.084240,-5625.565159,-5995.668130,2451.505594
22170.084573,-7476.080014,-11547.212695,2374.896044
22170.084906,-11029.068536,-2738.761985,-6741.640382
22170.085239,-11251.130318,-8364.327145,0.000000
22170.085572,-7179.997637,-11843.295072,-1302.362347
22170.085905,-7920.203579,-9548.656652,3677.258390
22170.086238,-7550.100608,-10362.883188,2681.334243
22170.086571,-4885.359217,-7698.141797,-383.047749
22170.086904,-5107.421000,-8882.471304,766.095498
22170.087237,-3552.988522,-8068.244768,0.000000
22170.087571,-4219.173869,-11325.150913,1225.752797
22170.087904,-7179.997637,-11843.295072,-612.876398
22170.088237,-8586.388927,-9696.697840,-2757.943793
22170.088570,-9844.739029,-11251.130318,-1915.238745
22170.088903,-7772.162391,-4219.173869,-2451.505594
22170.089236,-10066.800811,-8956.491898,229.828649
22170.089569,-6217.729913,-8734.430116,4213.525239
22170.089902,-7920.203579,-8882.471304,842.705048
22170.090235,-5995.668130,-10955.047942,3294.210641
22170.090568,-4811.338623,-7624.121203,2451.505594
22170.090902,-6291.750507,-9474.636058,76.609550
22170.091235,-3923.091493,-10288.862594,689.485948
22170.091568,-11547.212695,-10732.986159,-2451.505594
22170.091901,-9548.656652,-11843.295072,-4290.134789
22170.092234,-9548.656652,-13027.624579,-689.485948
22170.092567,-12435.459826,-7772.162391,0.000000
22170.092900,-11325.150913,-3923.091493,0.000000
22170.093233,-13619.789333,-6291.750507,-689.485948
22170.093566,-11843.295072,-5255.462188,1225.752797
22170.093899,-12435.459826,-10807.006753,0.000000
22170.094233,-9326.594869,-10584.944971,3524.039291
22170.094566,-9696.697840,-13767.830521,4519.963438
22170.094899,-10288.862594,-7920.203579,0.000000
22170.095232,-5995.668130,-11547.212695,2374.896044
22170.095565,-8364.327145,-7476.080014,0.000000
22170.095898,-9326.594869,-8808.450710,0.000000
22170.096231,-12435.459826,-11547.212695,-1302.362347
22170.096564,-13249.686362,-11177.109724,-1685.410096
22170.096897,-13915.871710,-8068.244768,-1762.019645
22170.097230,-11399.171507,-6883.915261,1302.362347
22170.097564,-13989.892304,-7105.977043,-1608.800546
22170.097897,-14211.954086,-8956.491898,2451.505594
22170.098230,-11621.233289,-7772.162391,1838.629195
22170.098563,-6587.832884,-10066.800811,6358.592633
22170.098896,-9326.594869,-8660.409521,5209.449386
22170.099229,-7179.997637,-7402.059420,1149.143247
22170.099562,-7179.997637,-8882.471304,-2068.457845
22170.099895,-9548.656652,-9474.636058,-2068.457845
22170.100229,-10066.800811,-11695.253884,-2145.067394
22170.100562,-10510.924376,-11843.295072,-2757.943793
22170.100895,-9548.656652,-9178.553681,-3753.867940
22170.101228,-13027.624579,-8364.327145,-2451.505594
22170.101561,-9548.656652,-11251.130318,-76.609550
22170.101894,-6587.832884,-10658.965565,1455.581446
22170.102227,-8068.244768,-8364.327145,3677.258390
22170.102560,-4811.338623,-8882.471304,5592.497135
22170.102894,-4737.318029,-7698.141797,5439.278036
22170.103227,-3997.112087,-6439.791695,5209.449386
22170.103560,-3997.112087,-7846.182985,3140.991542
22170.103893,-4811.338623,-8142.265362,-1685.410096
22170.104226,-9696.697840,-11029.068536,-5056.230287
22170.104559,-13915.871710,-13545.768739,-7507.735880
22170.104892,-15692.365970,-12435.459826,-8273.831378
