#time,accel_x,accel_y,accel_z
20595.300636,9104.533087,-9178.553681,-76.609550
20595.300970,5551.544565,-8808.450710,-4903.011187
20595.301303,3256.906145,-10881.027347,-3907.087040
20595.301637,4663.297435,-9474.636058,-5592.497135
20595.301970,4589.276840,-10436.903782,-2911.162892
20595.302304,5699.585753,-9696.697840,-1225.752797
20595.302637,9992.780217,-9770.718434,2681.334243
20595.302971,11843.295072,-8068.244768,6128.763984
20595.303304,11843.295072,-7179.997637,9576.193725
20595.303638,13545.768739,-7402.059420,3370.820191
20595.303971,12435.459826,-7179.997637,2451.505594
20595.304305,13545.768739,-10658.965565,2374.896044
20595.304638,7698.141797,-9548.656652,0.000000
20595.304972,3108.864956,-13027.624579,-4826.401637
20595.305305,-74.020594,-14211.954086,-5592.497135
20595.305639,-1184.329507,-11473.192101,-4903.011187
20595.305972,518.144159,-10066.800811,-1915.238745
20595.306306,4515.256246,-9178.553681,2068.457845
20595.306639,6883.915261,-3034.844362,4903.011187
20595.306973,10362.883188,-5255.462188,11874.480219
20595.307306,12657.521608,-4737.318029,8503.660028
20595.307640,12953.603985,-6365.771101,7277.907231
20595.307973,11917.315666,-6587.832884,2145.067394
20595.308307,9992.780217,-8734.430116,-1991.848295
20595.308640,8142.265362,-9548.656652,-6358.592633
20595.308973,4145.153275,-11917.315666,-9193.145976
20595.309307,4367.215058,-12509.480420,-9806.022374
20595.309640,3552.988522,-14285.974681,-6128.763984
20595.309974,4589.276840,-14211.954086,-2528.115143
20595.310307,3923.091493,-9844.739029,-1225.752797
20595.310641,9400.615463,-9178.553681,6511.811733
20595.310974,13027.624579,-6143.709319,10418.898773
20595.311308,14211.954086,-4441.235652,12257.527968
20595.311641,11843.295072,-5551.544565,9116.536426
20595.311975,7698.141797,-6587.832884,4903.011187
20595.312308,3997.112087,-9252.574275,0.000000
20595.312642,-222.061783,-9474.636058,-4443.353888
20595.312975,-4441.235652,-11547.212695,-7660.954980
20595.313309,-5181.441594,-11843.295072,-7431.126331
20595.313642,-4737.318029,-8660.409521,-5439.278036
20595.313976,2294.638420,-10658.965565,-383.047749
20595.314309,1924.535449,-7179.997637,2451.505594
20595.314643,5033.400406,-8586.388927,4826.401637
20595.314976,7031.956449,-8882.471304,5132.839837
20595.315310,5329.482782,-6291.750507,3830.477490
20595.315643,6809.894666,-7476.080014,1915.238745
20595.315977,6069.688724,-9844.739029,1149.143247
20595.316310,4441.235652,-9844.739029,0.000000
20595.316644,2368.659014,-11325.150913,-1838.629195
20595.316977,-74.020594,-12139.377449,-4290.134789
20595.317311,-2072.576638,-9548.656652,-1838.629195
20595.317644,2886.803174,-10955.047942,1762.019645
20595.317978,5255.462188,-5773.606348,1149.143247
20595.318311,7550.100608,-5921.647536,4213.525239
20595.318645,9474.636058,-6291.750507,3447.429741
20595.318978,11473.192101,-7698.141797,3600.648841
20595.319312,9548.656652,-8512.368333,766.095498
20595.319645,10288.862594,-11251.130318,-1608.800546
20595.319979,4663.297435,-11029.068536,-6435.202183
20595.320312,0.000000,-13397.727550,-6741.640382
20595.320646,-444.123565,-14211.954086,-3753.867940
20595.320979,-3182.885551,-11917.315666,-2451.505594
20595.321313,3478.967927,-10658.965565,3753.867940
20595.321646,4885.359217,-7550.100608,8120.612279
20595.321980,7254.018232,-4515.256246,7124.688131
20595.322313,6439.791695,-5699.585753,6281.983084
20595.322647,6365.771101,-3997.112087,2681.334243
20595.322980,5107.421000,-4811.338623,0.000000
20595.323314,4293.194464,-10658.965565,-2221.676944
20595.323647,-74.020594,-14211.954086,-6818.249932
20595.323981,-7105.977043,-13101.645173,-8580.269578
20595.324314,-1998.556043,-13619.789333,-5132.839837
20595.324648,-592.164754,-13397.727550,766.095498
20595.324981,2442.679609,-7254.018232,3907.087040
20595.325315,1628.453072,-7179.997637,4903.011187
20595.325648,1776.494261,-6513.812290,4826.401637
20595.325982,4441.235652,-5403.503377,4136.915689
20595.326315,3404.947333,-9252.574275,4213.525239
20595.326649,4145.153275,-8290.306550,1149.143247
20595.326982,-1776.494261,-11473.192101,-919.314598
20595.327316,-3552.988522,-11621.233289,-3140.991542
20595.327649,-74.020594,-8512.368333,-4596.572988
20595.327982,2442.679609,-5107.421000,0.000000
20595.328316,4811.338623,-7550.100608,3294.210641
20595.328649,444.123565,-8660.409521,0.000000
20595.328983,-962.267725,-9696.697840,-1455.581446
20595.329316,-2368.659014,-13619.789333,-76.609550
20595.329650,-3478.967927,-10584.944971,-383.047749
20595.329983,-3627.009116,-11843.295072,-76.609550
20595.330317,-5107.421000,-11547.212695,-689.485948
20595.330650,-4145.153275,-6587.832884,2451.505594
20595.330984,1628.453072,-6957.935855,7890.783629
20595.331317,4663.297435,-5181.441594,4979.620737
20595.331651,4663.297435,-7698.141797,4826.401637
20595.331984,3034.844362,-6365.771101,1685.410096
20595.332318,592.164754,-8956.491898,-153.219100
20595.332651,-2442.679609,-10214.842000,-3983.696590
20595.332985,-7105.977043,-11917.315666,-7048.078582
20595.333318,-6587.832884,-13915.871710,-6281.983084
20595.333652,-5921.647536,-14285.974681,-76.609550
20595.333985,-1850.514855,-10658.965565,-76.609550
20595.334319,-3182.885551,-6513.812290,0.000000
20595.334652,-2960.823768,-4811.338623,1225.752797
20595.334986,1184.329507,-5551.544565,3677.258390
20595.335319,4663.297435,-3849.070898,4596.572988
20595.335653,4737.318029,-6735.874072,5439.278036
20595.335986,2886.803174,-9474.636058,2374.896044
20595.336320,2220.617826,-7179.997637,0.000000
20595.336653,3997.112087,-11843.295072,-76.609550
20595.336987,4367.215058,-10658.965565,-3447.429741
20595.337320,-2072.576638,-10140.821405,-4596.572988
20595.337654,-888.247130,-13619.789333,-3753.867940
20595.337987,-2294.638420,-12805.562797,-4136.915689
20595.338321,-2220.617826,-12361.439231,-1991.848295
20595.338654,-2590.720797,-11843.295072,-459.657299
20595.338988,-1110.308913,-9030.512492,2528.115143
20595.339321,2368.659014,-5995.668130,9346.365076
20595.339655,7920.203579,-4737.318029,7890.783629
20595.339988,7402.059420,-2442.679609,7354.516781
20595.340322,7920.203579,-5921.647536,5439.278036
20595.340655,5255.462188,-7105.977043,1149.143247
20595.340989,1628.453072,-10584.944971,-3677.258390
20595.341322,-2590.720797,-13693.809927,-6818.249932
20595.341656,-5773.606348,-13693.809927,-8733.488677
20595.341989,-6587.832884,-13915.871710,-7354.516781
20595.342323,-4737.318029,-12583.501014,-2911.162892
20595.342656,74.020594,-10066.800811,1149.143247
20595.342990,4293.194464,-7179.997637,6818.249932
20595.343323,6513.812290,-6883.915261,9959.241474
20595.343657,6439.791695,-5329.482782,8197.221829
20595.343990,5033.400406,-5403.503377,7048.078582
20595.344324,2368.659014,-6291.750507,6052.154434
20595.344657,-666.185348,-7698.141797,-2757.943793
20595.344991,-4737.318029,-8956.491898,-4903.011187
20595.345324,-3627.009116,-11843.295072,-6205.373534
20595.345658,-2368.659014,-10436.903782,-4366.744339
20595.345991,-1850.514855,-10140.821405,-3370.820191
20595.346325,-1850.514855,-11547.212695,-2528.115143
20595.346658,-3256.906145,-10732.986159,-2451.505594
20595.346992,0.000000,-9548.656652,2757.943793
20595.347325,3478.967927,-9474.636058,6052.154434
20595.347658,2294.638420,-6439.791695,2757.943793
20595.347992,592.164754,-7179.997637,4903.011187
20595.348325,4071.132681,-7402.059420,2911.162892
20595.348658,2294.638420,-5995.668130,3217.601092
20595.348991,1702.473667,-5699.585753,0.000000
20595.349324,-2442.679609,-8586.388927,-2834.553343
20595.349658,-3108.864956,-9696.697840,-4903.011187
20595.349991,-4737.318029,-9548.656652,-2298.286494
20595.350324,-1850.514855,-11843.295072,-4979.620737
20595.350658,-5477.523971,-11473.192101,-4749.792088
20595.350991,-4737.318029,-13101.645173,612.876398
20595.351324,-1184.329507,-10140.821405,3064.381992
20595.351658,2738.761985,-6513.812290,5975.544884
20595.351991,4367.215058,-6217.729913,6894.859482
20595.352324,3034.844362,-6143.709319,7048.078582
20595.352658,3478.967927,-7105.977043,4826.401637
20595.352991,2294.638420,-7994.224174,1149.143247
20595.353324,-4219.173869,-11843.295072,-3753.867940
20595.353658,-6735.874072,-8364.327145,-6128.763984
20595.353991,-4811.338623,-11547.212695,-4596.572988
20595.354324,-1184.329507,-9622.677246,-1302.362347
20595.354658,0.000000,-7920.203579,-612.876398
20595.354991,2886.803174,-10066.800811,1915.238745
20595.355324,4737.318029,-10288.862594,4443.353888
20595.355658,2442.679609,-8882.471304,2298.286494
20595.355991,5847.626942,-10658.965565,1915.238745
20595.356324,666.185348,-8364.327145,612.876398
20595.356658,0.000000,-9252.574275,2068.457845
20595.356991,2294.638420,-8882.471304,-76.609550
20595.357324,2664.741391,-6587.832884,1915.238745
20595.357658,2516.700203,-6883.915261,0.000000
20595.357991,1776.494261,-7550.100608,-612.876398
20595.358324,-518.144159,-9918.759623,-4136.915689
20595.358658,-2368.659014,-10955.047942,-5286.058936
20595.358991,-74.020594,-12065.356855,-2834.553343
20595.359324,592.164754,-11325.150913,536.266849
20595.359658,1332.370696,-10288.862594,1532.190996
20595.359991,2664.741391,-10807.006753,3370.820191
20595.360324,4367.215058,-8882.471304,4826.401637
20595.360658,4737.318029,-8364.327145,9116.536426
20595.360991,5847.626942,-6217.729913,3600.648841
20595.361324,1480.411884,-5995.668130,0.000000
20595.361658,2368.659014,-9252.574275,766.095498
20595.361991,-2072.576638,-8660.409521,-3370.820191
20595.362324,-5551.544565,-12139.377449,-5056.230287
20595.362658,-6957.935855,-11695.253884,-5592.497135
20595.362991,-4441.235652,-11769.274478,-3064.381992
20595.363324,0.000000,-5995.668130,766.095498
20595.363658,2294.638420,-8290.306550,6052.154434
20595.363991,3478.967927,-7105.977043,2834.553343
20595.364324,0.000000,-7772.162391,3983.696590
20595.364658,3478.967927,-9474.636058,3600.648841
20595.364991,0.000000,-8956.491898,2298.286494
20595.365324,-3923.091493,-8660.409521,-2451.505594
20595.365658,-5255.462188,-9770.718434,-4519.963438
20595.365991,-4441.235652,-9252.574275,-2911.162892
20595.366324,-592.164754,-8512.368333,-306.438199
20595.366658,-74.020594,-9178.553681,-1302.362347
20595.366991,0.000000,-8290.306550,-76.609550
20595.367324,0.000000,-10436.903782,3830.477490
20595.367658,814.226536,-8290.306550,1149.143247
20595.367991,-74.020594,-11251.130318,1455.581446
20595.368324,-1406.391290,-10362.883188,2068.457845
20595.368658,-518.144159,-9474.636058,2068.457845
20595.368991,2368.659014,-7698.141797,3830.477490
20595.369324,2294.638420,-8290.306550,2374.896044
20595.369658,-74.020594,-5107.421000,-3064.381992
20595.369991,-3256.906145,-8364.327145,-689.485948
20595.370324,-74.020594,-9474.636058,-4366.744339
20595.370658,-1258.350101,-7179.997637,-3677.258390
20595.370991,-370.102971,-11547.212695,-1915.238745
20595.371324,-666.185348,-11325.150913,-842.705048
20595.371658,444.123565,-10288.862594,919.314598
20595.371991,3034.844362,-11029.068536,4213.525239
20595.372324,7031.956449,-8808.450710,6052.154434
20595.372658,5699.585753,-8882.471304,5592.497135
20595.372991,4737.318029,-6587.832884,3294.210641
20595.373324,2442.679609,-8956.491898,1072.533697
20595.373658,0.000000,-7772.162391,-1838.629195
20595.373991,-2220.617826,-12731.542202,-2221.676944
20595.374324,-3034.844362,-9844.739029,-6128.763984
20595.374658,-4145.153275,-10732.986159,-1838.629195
20595.374991,-74.020594,-9474.636058,-995.924147
20595.375324,2960.823768,-4811.338623,1455.581446
20595.375658,5699.585753,-8290.306550,5286.058936
20595.375991,5329.482782,-7550.100608,3907.087040
20595.376324,4441.235652,-10658.965565,3140.991542
20595.376658,3404.947333,-10658.965565,3294.210641
20595.376991,-1998.556043,-11325.150913,-76.609550
20595.377324,-2442.679609,-9252.574275,-4903.011187
20595.377658,-2368.659014,-9844.739029,-2451.505594
20595.377991,-518.144159,-10214.842000,-76.609550
20595.378324,370.102971,-7328.038826,0.000000
20595.378658,222.061783,-9178.553681,229.828649
20595.378991,0.000000,-8068.244768,459.657299
20595.379324,1480.411884,-9326.594869,2374.896044
20595.379657,1110.308913,-9474.636058,1608.800546
20595.379991,-2368.659014,-11547.212695,1149.143247
20595.380324,-4293.194464,-9548.656652,0.000000
20595.380657,148.041188,-11547.212695,3294.210641
20595.380991,1110.308913,-7698.141797,2834.553343
20595.381324,-74.020594,-8290.306550,2987.772442
20595.381657,-2442.679609,-7698.141797,-995.924147
20595.381991,-4293.194464,-9326.594869,-1762.019645
20595.382324,-3552.988522,-8734.430116,-1838.629195
20595.382657,-6809.894666,-8364.327145,-2451.505594
20595.382991,-4811.338623,-9474.636058,-3753.867940
20595.383324,-3552.988522,-9548.656652,2451.505594
20595.383657,2886.803174,-8290.306550,1455.581446
20595.383991,2368.659014,-7179.997637,6128.763984
20595.384324,2960.823768,-7772.162391,4519.963438
20595.384657,2516.700203,-7476.080014,4060.306139
20595.384991,2368.659014,-8068.244768,2221.676944
20595.385324,1998.556043,-8956.491898,306.438199
20595.385657,-1480.411884,-11547.212695,-842.705048
20595.385991,-5551.544565,-9844.739029,-6741.640382
20595.386324,-4071.132681,-11843.295072,-3753.867940
20595.386657,-1850.514855,-11547.212695,-2834.553343
20595.386991,0.000000,-5699.585753,612.876398
20595.387324,3256.906145,-7179.997637,3677.258390
20595.387657,4737.318029,-5995.668130,4596.572988
20595.387991,6143.709319,-6735.874072,3217.601092
20595.388324,5773.606348,-10214.842000,3600.648841
20595.388657,5551.544565,-11251.130318,3294.210641
20595.388991,-1036.288319,-10140.821405,-1838.629195
20595.389324,-296.082377,-11621.233289,-3294.210641
20595.389657,444.123565,-11843.295072,-2528.115143
20595.389991,666.185348,-9918.759623,-1608.800546
20595.390324,1776.494261,-9400.615463,2451.505594
20595.390657,814.226536,-7920.203579,-1225.752797
20595.390991,0.000000,-7179.997637,1838.629195
20595.391324,2590.720797,-9474.636058,2987.772442
20595.391657,518.144159,-6957.935855,689.485948
20595.391991,-1184.329507,-9104.533087,2911.162892
20595.392324,0.000000,-8364.327145,1302.362347
20595.392657,4293.194464,-7254.018232,3830.477490
20595.392991,4293.194464,-7624.121203,3370.820191
20595.393324,3478.967927,-9474.636058,1149.143247
20595.393657,-1850.514855,-10288.862594,-4903.011187
20595.393991,-3404.947333,-13249.686362,-4903.011187
20595.394324,-2664.741391,-12287.418637,-2528.115143
20595.394657,-3627.009116,-9992.780217,-4290.134789
20595.394991,-1998.556043,-11843.295072,-689.485948
20595.395324,-1776.494261,-8882.471304,1608.800546
20595.395657,2442.679609,-7105.977043,5975.544884
20595.395991,3108.864956,-5995.668130,7507.735880
20595.396324,3330.926739,-5181.441594,4749.792088
20595.396657,370.102971,-3627.009116,2451.505594
20595.396991,2294.638420,-9474.636058,-76.609550
20595.397324,-1850.514855,-7994.224174,-4979.620737
20595.397657,-6365.771101,-11917.315666,-5515.887586
20595.397991,-4219.173869,-12731.542202,-6281.983084
20595.398324,-4811.338623,-13323.706956,-3140.991542
20595.398657,-2442.679609,-9622.677246,-1608.800546
20595.398991,-1184.329507,-8586.388927,766.095498
20595.399324,0.000000,-5995.668130,3677.258390
20595.399657,2812.782580,-7402.059420,7277.907231
20595.399991,4663.297435,-6513.812290,4060.306139
20595.400324,1184.329507,-7179.997637,4903.011187
20595.400657,2516.700203,-10362.883188,4826.401637
20595.400991,-370.102971,-7476.080014,-2451.505594
20595.401324,370.102971,-9474.636058,-1915.238745
20595.401657,-296.082377,-9400.615463,-2221.676944
20595.401991,-74.020594,-9622.677246,-2451.505594
20595.402324,-888.247130,-9844.739029,-2145.067394
20595.402657,518.144159,-10658.965565,-1608.800546
20595.402991,888.247130,-11843.295072,-76.609550
20595.403324,518.144159,-10807.006753,229.828649
20595.403657,1480.411884,-10362.883188,2068.457845
20595.403991,740.205942,-6809.894666,1915.238745
20595.404324,4737.318029,-7179.997637,6894.859482
20595.404657,7920.203579,-5625.565159,4443.353888
20595.404991,3552.988522,-4219.173869,4903.011187
20595.405324,5847.626942,-8290.306550,1149.143247
20595.405657,1110.308913,-10362.883188,-4213.525239
20595.405991,-2072.576638,-11991.336260,-5286.058936
20595.406324,-3108.864956,-12213.398043,-5286.058936
20595.406657,-2812.782580,-11991.336260,-5439.278036
20595.406991,-74.020594,-12435.459826,-76.609550
20595.407324,0.000000,-9548.656652,4136.915689
20595.407657,4663.297435,-8882.471304,4519.963438
20595.407991,4145.153275,-3627.009116,4903.011187
20595.408324,4737.318029,-6587.832884,4903.011187
20595.408657,5255.462188,-7105.977043,3983.696590
20595.408991,2146.597232,-8068.244768,1838.629195
20595.409324,-962.267725,-8956.491898,-1762.019645
20595.409657,-5773.606348,-12065.356855,-4903.011187
20595.409991,-5255.462188,-10658.965565,-5592.497135
20595.410324,-3108.864956,-11843.295072,-1302.362347
20595.410657,-962.267725,-10658.965565,-2068.457845
20595.410991,-3627.009116,-7772.162391,-2451.505594
20595.411324,-2368.659014,-10140.821405,0.000000
20595.411657,444.123565,-8438.347739,3830.477490
20595.411991,1998.556043,-8290.306550,4749.792088
20595.412324,1110.308913,-9474.636058,4443.353888
20595.412657,-1850.514855,-8882.471304,2298.286494
20595.412991,-1776.494261,-6291.750507,0.000000
20595.413324,2886.803174,-8290.306550,1762.019645
20595.413657,222.061783,-8290.306550,-76.609550
20595.413991,-3552.988522,-7772.162391,-1225.752797
20595.414324,-2442.679609,-11547.212695,-1608.800546
20595.414657,-2960.823768,-10807.006753,-2528.115143
20595.414991,-4293.194464,-10584.944971,-3140.991542
20595.415324,-3849.070898,-11103.089130,-3064.381992
20595.415657,-3552.988522,-9918.759623,-536.266849
20595.415991,2664.741391,-8956.491898,4673.182538
20595.416324,7031.956449,-5921.647536,3294.210641
20595.416657,5921.647536,-7328.038826,8963.317327
20595.416991,5847.626942,-8290.306550,3600.648841
20595.417324,2294.638420,-6957.935855,-76.609550
20595.417657,1184.329507,-11177.109724,-383.047749
20595.417991,-1924.535449,-9844.739029,-4596.572988
20595.418324,-3923.091493,-11473.192101,-5362.668486
20595.418657,-2220.617826,-10362.883188,-4443.353888
20595.418991,0.000000,-10732.986159,-76.609550
20595.419324,2738.761985,-9030.512492,919.314598
20595.419657,5181.441594,-8808.450710,4213.525239
20595.419991,5181.441594,-7846.182985,5056.230287
20595.420324,5847.626942,-6143.709319,4290.134789
20595.420657,3849.070898,-8364.327145,5515.887586
20595.420991,4367.215058,-9474.636058,2374.896044
20595.421324,-74.020594,-8882.471304,-2757.943793
20595.421657,-2368.659014,-10732.986159,-2298.286494
20595.421991,-1554.432478,-10658.965565,-2528.115143
20595.422324,-1258.350101,-9178.553681,-2221.676944
20595.422657,-74.020594,-6957.935855,-2221.676944
20595.422991,-296.082377,-8882.471304,-1762.019645
20595.423324,740.205942,-9548.656652,0.000000
20595.423657,0.000000,-9548.656652,3064.381992
20595.423991,2294.638420,-10658.965565,1608.800546
20595.424324,0.000000,-7179.997637,0.000000
20595.424657,0.000000,-10732.986159,2451.505594
20595.424991,3552.988522,-7179.997637,2374.896044
20595.425324,3034.844362,-7994.224174,4213.525239
20595.425657,2738.761985,-8142.265362,2374.896044
20595.425991,-1554.432478,-10214.842000,-689.485948
20595.426324,-1554.432478,-10066.800811,-1915.238745
20595.426657,-5921.647536,-9844.739029,-2528.115143
20595.426991,-7179.997637,-9770.718434,-7354.516781
20595.427324,-8882.471304,-10807.006753,-3370.820191
20595.427657,-1258.350101,-11843.295072,1149.143247
20595.427990,2886.803174,-6957.935855,7048.078582
20595.428324,3775.050304,-4737.318029,6665.030833
20595.428657,3552.988522,-7698.141797,6665.030833
20595.428990,2146.597232,-8142.265362,3294.210641
20595.429324,0.000000,-8438.347739,536.266849
20595.429657,1554.432478,-11251.130318,-689.485948
20595.429990,-5921.647536,-9548.656652,-7354.516781
20595.430324,-5329.482782,-11029.068536,-4366.744339
20595.430657,-2738.761985,-10510.924376,-4366.744339
20595.430990,-1998.556043,-8734.430116,-1302.362347
20595.431324,-592.164754,-7550.100608,1302.362347
20595.431657,2442.679609,-7994.224174,3217.601092
20595.431990,4441.235652,-6291.750507,5132.839837
20595.432324,3552.988522,-7772.162391,4903.011187
20595.432657,4663.297435,-8882.471304,995.924147
20595.432990,0.000000,-11325.150913,2374.896044
20595.433324,-74.020594,-11843.295072,-1915.238745
20595.433657,74.020594,-9548.656652,0.000000
20595.433990,0.000000,-8512.368333,-919.314598
20595.434324,1184.329507,-7846.182985,-1072.533697
20595.434657,-370.102971,-9326.594869,-2298.286494
20595.434990,1036.288319,-9622.677246,-1915.238745
20595.435324,0.000000,-9548.656652,-1225.752797
20595.435657,2294.638420,-9474.636058,-536.266849
20595.435990,1628.453072,-8438.347739,1762.019645
20595.436324,1702.473667,-8808.450710,2451.505594
20595.436657,4959.379811,-9030.512492,3753.867940
20595.436990,5033.400406,-7179.997637,6128.763984
20595.437324,7031.956449,-8290.306550,4213.525239
20595.437657,592.164754,-7179.997637,612.876398
20595.437990,2146.597232,-11547.212695,-1915.238745
20595.438324,-2442.679609,-10955.047942,-3294.210641
20595.438657,-4145.153275,-9548.656652,-4290.134789
20595.438990,-3923.091493,-11843.295072,-3524.039291
20595.439324,-2886.803174,-11843.295072,-1991.848295
20595.439657,1702.473667,-8882.471304,2528.115143
20595.439990,4663.297435,-7105.977043,7124.688131
20595.440324,5847.626942,-4663.297435,3907.087040
20595.440657,3108.864956,-8734.430116,3677.258390
20595.440990,4071.132681,-9474.636058,-76.609550
20595.441324,-1480.411884,-9548.656652,0.000000
20595.441657,-2368.659014,-11843.295072,-689.485948
20595.441990,-4663.297435,-11177.109724,-4060.306139
20595.442324,-3627.009116,-11695.253884,-2604.724693
20595.442657,-1258.350101,-9474.636058,-536.266849
20595.442990,-74.020594,-8882.471304,995.924147
20595.443324,-74.020594,-6957.935855,-2145.067394
20595.443657,0.000000,-8956.491898,2681.334243
20595.443990,2886.803174,-11251.130318,4826.401637
20595.444324,888.247130,-7476.080014,2451.505594
20595.444657,-370.102971,-10658.965565,1455.581446
20595.444990,-1258.350101,-9474.636058,459.657299
20595.445324,-1258.350101,-9844.739029,1455.581446
20595.445657,148.041188,-7624.121203,1302.362347
20595.445990,-1110.308913,-7476.080014,-766.095498
20595.446324,-2368.659014,-8364.327145,0.000000
20595.446657,-3256.906145,-10436.903782,-995.924147
20595.446990,-666.185348,-9474.636058,-2528.115143
20595.447324,-2590.720797,-9548.656652,-2451.505594
20595.447657,-74.020594,-9474.636058,-1302.362347
20595.447990,-592.164754,-10214.842000,1225.752797
20595.448324,1850.514855,-8956.491898,2451.505594
20595.448657,4663.297435,-8142.265362,4443.353888
20595.448990,3552.988522,-6587.832884,4290.134789
20595.449323,5625.565159,-7328.038826,4903.011187
20595.449655,2886.803174,-8216.285956,1072.533697
20595.449988,1998.556043,-10362.883188,-842.705048
20595.450321,-814.226536,-13027.624579,-1302.362347
20595.450654,-4219.173869,-14063.912898,-3753.867940
20595.450987,-3627.009116,-9252.574275,-7048.078582
20595.451320,-3552.988522,-11029.068536,-3677.258390
20595.451653,4441.235652,-7698.141797,2374.896044
20595.451986,4441.235652,-8290.306550,6894.859482
20595.452319,6439.791695,-5921.647536,4213.525239
20595.452652,4737.318029,-8364.327145,4749.792088
20595.452985,3775.050304,-10436.903782,2834.553343
20595.453318,3478.967927,-7105.977043,-383.047749
20595.453651,-2368.659014,-11917.315666,-1149.143247
20595.453984,-4737.318029,-8364.327145,-3064.381992
20595.454317,-74.020594,-12435.459826,-1915.238745
20595.454650,-74.020594,-10362.883188,-1302.362347
20595.454983,1110.308913,-8142.265362,383.047749
20595.455315,-370.102971,-9918.759623,-459.657299
20595.455648,2294.638420,-7402.059420,0.000000
20595.455981,1628.453072,-8586.388927,2834.553343
20595.456314,1184.329507,-8142.265362,2451.505594
20595.456647,-74.020594,-10658.965565,1762.019645
20595.456980,-1776.494261,-11769.274478,4290.134789
20595.457313,2886.803174,-8882.471304,-76.609550
20595.457646,0.000000,-5995.668130,1532.190996
20595.457979,0.000000,-7772.162391,0.000000
20595.458312,-2442.679609,-7550.100608,-3370.820191
20595.458645,-1554.432478,-9770.718434,-2221.676944
20595.458978,-962.267725,-9548.656652,-2145.067394
20595.459311,-3330.926739,-10732.986159,-2757.943793
20595.459644,-4367.215058,-9548.656652,-4673.182538
20595.459977,-1184.329507,-12731.542202,2374.896044
20595.460310,2590.720797,-8290.306550,3294.210641
20595.460643,2368.659014,-5403.503377,6894.859482
20595.460975,6661.853478,-8290.306550,9116.536426
20595.461308,2368.659014,-5995.668130,3983.696590
20595.461641,666.185348,-9326.594869,1302.362347
20595.461974,-2368.659014,-9992.780217,-2298.286494
20595.462307,-6291.750507,-11769.274478,-5898.935335
20595.462640,-9474.636058,-10881.027347,-6128.763984
20595.462973,-2442.679609,-11843.295072,-3140.991542
20595.463306,-2664.741391,-7328.038826,612.876398
20595.463639,0.000000,-3923.091493,3677.258390
20595.463972,5107.421000,-9474.636058,6665.030833
20595.464305,2664.741391,-6587.832884,4903.011187
20595.464638,3923.091493,-9400.615463,3294.210641
20595.464971,2738.761985,-9770.718434,2681.334243
20595.465304,1332.370696,-8142.265362,-766.095498
20595.465637,-2368.659014,-9548.656652,-1685.410096
20595.465970,1406.391290,-10881.027347,-1685.410096
20595.466303,-222.061783,-9770.718434,-995.924147
20595.466635,-1776.494261,-9844.739029,-1378.971896
20595.466968,-666.185348,-9474.636058,-2528.115143
20595.467301,-3552.988522,-9548.656652,-1838.629195
20595.467634,370.102971,-10066.800811,2374.896044
20595.467967,2294.638420,-9474.636058,1149.143247
20595.468300,-2072.576638,-7179.997637,1532.190996
20595.468633,2886.803174,-10066.800811,3907.087040
20595.468966,2072.576638,-10584.944971,4366.744339
20595.469299,4071.132681,-6069.688724,3600.648841
20595.469632,2146.597232,-7402.059420,1991.848295
20595.469965,0.000000,-6587.832884,-2451.505594
20595.470298,-3330.926739,-9548.656652,-3064.381992
20595.470631,-74.020594,-11547.212695,-2834.553343
20595.470964,-2886.803174,-8882.471304,-4673.182538
20595.471297,-5329.482782,-10140.821405,-3064.381992
20595.471630,-2738.761985,-9474.636058,-2528.115143
20595.471963,592.164754,-9252.574275,3217.601092
20595.472295,5181.441594,-5921.647536,5286.058936
20595.472628,4293.194464,-7624.121203,5822.325785
20595.472961,5329.482782,-9474.636058,5056.230287
20595.473294,3552.988522,-6587.832884,4903.011187
20595.473627,3330.926739,-11251.130318,-76.609550
20595.473960,-222.061783,-8660.409521,-4290.134789
20595.474293,-6809.894666,-10140.821405,-4903.011187
20595.474626,-4145.153275,-11029.068536,-4290.134789
20595.474959,-74.020594,-8512.368333,-383.047749
20595.475292,1998.556043,-7772.162391,1302.362347
20595.475625,1924.535449,-7476.080014,1915.238745
20595.475958,1702.473667,-8290.306550,1149.143247
20595.476291,2960.823768,-8808.450710,3294.210641
20595.476624,2368.659014,-6291.750507,0.000000
20595.476957,2368.659014,-9548.656652,2451.505594
20595.477290,2294.638420,-8882.471304,383.047749
20595.477623,2294.638420,-10658.965565,1762.019645
20595.477955,3330.926739,-9622.677246,1225.752797
20595.478288,2072.576638,-8512.368333,1072.533697
20595.478621,2886.803174,-9104.533087,-306.438199
20595.478954,0.000000,-7476.080014,-2145.067394
20595.479287,-74.020594,-11843.295072,-2528.115143
20595.479620,-4737.318029,-10140.821405,-1225.752797
20595.479953,-3552.988522,-11621.233289,1149.143247
20595.480286,-1554.432478,-8068.244768,0.000000
20595.480619,1258.350101,-9474.636058,6052.154434
20595.480952,3182.885551,-6439.791695,4443.353888
20595.481285,3478.967927,-5921.647536,4979.620737
20595.481618,1184.329507,-5551.544565,2451.505594
20595.481951,-1776.494261,-7772.162391,0.000000
20595.482284,-1850.514855,-11843.295072,-2528.115143
20595.482617,-3552.988522,-10362.883188,-4060.306139
20595.482950,-7031.956449,-12805.562797,-5362.668486
20595.483283,-5403.503377,-11029.068536,-4979.620737
20595.483616,-5773.606348,-10140.821405,-2374.896044
20595.483948,1110.308913,-8586.388927,3600.648841
20595.484281,3478.967927,-6217.729913,3983.696590
20595.484614,1184.329507,-6143.709319,6894.859482
20595.484947,4663.297435,-9474.636058,6894.859482
20595.485280,1406.391290,-6143.709319,2451.505594
20595.485613,1110.308913,-8956.491898,1608.800546
20595.485946,-3182.885551,-10214.842000,-1838.629195
20595.486279,-5625.565159,-11325.150913,-4366.744339
20595.486612,-5921.647536,-11325.150913,-4290.134789
20595.486945,-74.020594,-8290.306550,-4060.306139
20595.487278,-1776.494261,-7772.162391,-3370.820191
20595.487611,0.000000,-9474.636058,2068.457845
20595.487944,3330.926739,-10658.965565,2374.896044
20595.488277,1776.494261,-7772.162391,3830.477490
20595.488610,3182.885551,-8660.409521,3064.381992
20595.488943,1110.308913,-8216.285956,1455.581446
20595.489276,1998.556043,-9770.718434,1455.581446
20595.489608,6439.791695,-8586.388927,4213.525239
20595.489941,7031.956449,-9474.636058,1149.143247
20595.490274,1184.329507,-8956.491898,1532.190996
20595.490607,0.000000,-9548.656652,76.609550
20595.490940,-666.185348,-12287.418637,-3140.991542
20595.491273,2294.638420,-9474.636058,-1915.238745
20595.491606,-2368.659014,-11103.089130,-3370.820191
20595.491939,-814.226536,-10881.027347,-1685.410096
20595.492272,370.102971,-9622.677246,2451.505594
20595.492605,3478.967927,-7698.141797,3907.087040
20595.492938,4737.318029,-4219.173869,2451.505594
20595.493271,5921.647536,-8290.306550,6052.154434
20595.493604,4663.297435,-7105.977043,919.314598
20595.493937,0.000000,-7179.997637,0.000000
20595.494270,1998.556043,-11843.295072,-2528.115143
20595.494603,-2368.659014,-11177.109724,-3677.258390
20595.494936,-2146.597232,-11399.171507,-3677.258390
20595.495268,-1702.473667,-11917.315666,-3217.601092
20595.495601,148.041188,-10584.944971,-766.095498
20595.495934,1332.370696,-8068.244768,1532.190996
20595.496267,3404.947333,-7328.038826,4903.011187
20595.496600,4441.235652,-7105.977043,5132.839837
20595.496933,2960.823768,-8660.409521,4903.011187
20595.497266,1998.556043,-10955.047942,4519.963438
20595.497599,-3627.009116,-9474.636058,-2757.943793
20595.497932,-5625.565159,-8956.491898,-3677.258390
20595.498265,-2442.679609,-11251.130318,-2528.115143
20595.498598,-3552.988522,-7179.997637,0.000000
20595.498931,-2960.823768,-7402.059420,-229.828649
20595.499264,-3108.864956,-8586.388927,-1608.800546
20595.499597,-3923.091493,-9104.533087,-2068.457845
20595.499930,-370.102971,-11251.130318,-76.609550
20595.500263,-1776.494261,-8956.491898,2451.505594
20595.500596,-666.185348,-7846.182985,0.000000
20595.500928,-2368.659014,-10288.862594,2221.676944
20595.501261,3404.947333,-9770.718434,4826.401637
20595.501594,3478.967927,-7550.100608,4519.963438
20595.501927,2368.659014,-7994.224174,3294.210641
20595.502260,-1628.453072,-8734.430116,-459.657299
20595.502593,-2294.638420,-10214.842000,-2221.676944
20595.502926,-2886.803174,-9844.739029,-1915.238745
20595.503259,-2664.741391,-11177.109724,-1455.581446
20595.503592,-5921.647536,-9548.656652,-2451.505594
20595.503925,-2590.720797,-10658.965565,-1302.362347
20595.504258,222.061783,-7772.162391,2145.067394
20595.504591,1924.535449,-4219.173869,3217.601092
20595.504924,4663.297435,-8290.306550,2987.772442
20595.505257,3552.988522,-8956.491898,3524.039291
20595.505590,3256.906145,-9030.512492,1915.238745
20595.505923,2442.679609,-10510.924376,0.000000
20595.506256,814.226536,-11843.295072,-1915.238745
20595.506588,-2960.823768,-11621.233289,-1302.362347
20595.506921,-592.164754,-10732.986159,-76.609550
20595.507254,3330.926739,-8734.430116,-689.485948
20595.507587,1184.329507,-6587.832884,1532.190996
20595.507920,2072.576638,-7624.121203,1225.752797
20595.508253,2368.659014,-7698.141797,1838.629195
20595.508586,3997.112087,-8216.285956,2374.896044
20595.508919,3256.906145,-8068.244768,1608.800546
20595.509252,1998.556043,-9548.656652,0.000000
20595.509585,1184.329507,-12435.459826,-76.609550
20595.509918,1998.556043,-9548.656652,-1072.533697
20595.510251,1998.556043,-7476.080014,0.000000
20595.510584,1184.329507,-7772.162391,1225.752797
20595.510917,0.000000,-8660.409521,-2145.067394
20595.511250,-962.267725,-9104.533087,-2681.334243
20595.511583,-1184.329507,-9622.677246,-2987.772442
20595.511916,222.061783,-9474.636058,-1302.362347
20595.512248,74.020594,-8956.491898,0.000000
20595.512581,444.123565,-7994.224174,1225.752797
20595.512914,2294.638420,-10584.944971,2987.772442
20595.513247,5477.523971,-6365.771101,5975.544884
20595.513580,6735.874072,-8290.306550,7890.783629
20595.513913,5107.421000,-4811.338623,2604.724693
20595.514246,2368.659014,-10955.047942,1762.019645
20595.514579,-74.020594,-10658.965565,-4979.620737
20595.514912,-4737.318029,-12805.562797,-5362.668486
20595.515245,-5921.647536,-10732.986159,-4213.525239
20595.515578,-6957.935855,-12065.356855,-5439.278036
20595.515911,-4145.153275,-10140.821405,-1608.800546
20595.516244,2960.823768,-6365.771101,4519.963438
20595.516577,3330.926739,-5921.647536,6665.030833
20595.516910,5847.626942,-3108.864956,4290.134789
20595.517243,1998.556043,-9474.636058,4213.525239
20595.517576,740.205942,-7179.997637,612.876398
20595.517908,-3552.988522,-8956.491898,919.314598
20595.518241,-2738.761985,-12435.459826,-2528.115143
20595.518574,-6809.894666,-10881.027347,-4290.134789
20595.518907,-5033.400406,-12509.480420,-3447.429741
20595.519240,-1258.350101,-8290.306550,-766.095498
20595.519573,-4145.153275,-7476.080014,0.000000
20595.519906,-740.205942,-5403.503377,0.000000
20595.520239,-592.164754,-8956.491898,4213.525239
20595.520572,3478.967927,-7105.977043,4213.525239
20595.520905,74.020594,-6143.709319,2451.505594
20595.521238,-2294.638420,-9104.533087,689.485948
20595.521571,-2072.576638,-9844.739029,-76.609550
20595.521904,-3627.009116,-10732.986159,306.438199
20595.522237,1258.350101,-5995.668130,153.219100
20595.522570,-222.061783,-10066.800811,1149.143247
20595.522903,0.000000,-7179.997637,-919.314598
20595.523236,2294.638420,-11843.295072,-689.485948
20595.523568,-1258.350101,-9548.656652,-2451.505594
20595.523901,666.185348,-9474.636058,-2451.505594
20595.524234,-2960.823768,-12953.603985,-1225.752797
20595.524567,2294.638420,-7402.059420,229.828649
20595.524900,3627.009116,-8956.491898,4673.182538
20595.525233,6291.750507,-7624.121203,5209.449386
20595.525566,6439.791695,-7031.956449,4519.963438
20595.525899,5329.482782,-10362.883188,4826.401637
20595.526232,5107.421000,-5995.668130,612.876398
20595.526565,0.000000,-10732.986159,1072.533697
20595.526898,-74.020594,-10658.965565,-4979.620737
20595.527231,-3108.864956,-10881.027347,-6128.763984
20595.527564,-1924.535449,-12287.418637,-4979.620737
20595.527897,1628.453072,-10362.883188,-1302.362347
20595.528230,3923.091493,-7772.162391,1991.848295
20595.528563,5921.647536,-6513.812290,3600.648841
20595.528896,4663.297435,-9474.636058,2987.772442
20595.529229,5921.647536,-8882.471304,2987.772442
20595.529561,4737.318029,-8364.327145,4213.525239
20595.529894,2664.741391,-9400.615463,1915.238745
20595.530227,1110.308913,-9474.636058,-1915.238745
20595.530560,-1776.494261,-12509.480420,-1225.752797
20595.530893,2294.638420,-11251.130318,-1608.800546
20595.531226,0.000000,-7772.162391,0.000000
20595.531559,0.000000,-8364.327145,0.000000
20595.531892,-74.020594,-8586.388927,-2068.457845
20595.532225,370.102971,-10807.006753,1455.581446
20595.532558,-444.123565,-9326.594869,1838.629195
20595.532891,-3330.926739,-9770.718434,459.657299
20595.533224,-5625.565159,-8364.327145,-1225.752797
20595.533557,1110.308913,-10955.047942,3600.648841
20595.533890,0.000000,-5107.421000,4903.011187
20595.534223,3182.885551,-7105.977043,2987.772442
20595.534556,-1258.350101,-10066.800811,842.705048
20595.534889,-5551.544565,-9696.697840,-2911.162892
20595.535221,-3923.091493,-10140.821405,-3370.820191
20595.535554,-4589.276840,-10955.047942,-2834.553343
20595.535887,-5995.668130,-10066.800811,-3677.258390
20595.536220,-5921.647536,-11029.068536,0.000000
20595.536553,2294.638420,-11251.130318,3600.648841
20595.536886,888.247130,-5403.503377,5209.449386
20595.537219,0.000000,-6291.750507,7967.393179
20595.537552,3923.091493,-7994.224174,5439.278036
20595.537885,0.000000,-8438.347739,3830.477490
20595.538218,148.041188,-8142.265362,76.609550
20595.538551,-4737.318029,-10436.903782,-3524.039291
20595.538884,-6587.832884,-11177.109724,-5209.449386
20595.539217,-4811.338623,-11547.212695,-3140.991542
20595.539550,-3627.009116,-10658.965565,-3753.867940
20595.539883,-1776.494261,-5403.503377,0.000000
20595.540216,888.247130,-9400.615463,4060.306139
20595.540549,5847.626942,-6513.812290,1762.019645
20595.540881,3552.988522,-9252.574275,5745.716235
20595.541214,5403.503377,-9400.615463,3677.258390
20595.541547,3182.885551,-10881.027347,2374.896044
20595.541880,148.041188,-9992.780217,-76.609550
20595.542213,2738.761985,-10658.965565,-76.609550
20595.542546,1110.308913,-9844.739029,-689.485948
20595.542879,2664.741391,-6809.894666,-536.266849
20595.543212,-1332.370696,-10140.821405,-1685.410096
20595.543545,0.000000,-7179.997637,-3677.258390
20595.543878,-2368.659014,-9548.656652,-612.876398
20595.544211,4663.297435,-9474.636058,-76.609550
20595.544544,2886.803174,-8882.471304,-76.609550
20595.544877,148.041188,-9548.656652,919.314598
20595.545210,3923.091493,-8586.388927,1915.238745
20595.545543,5625.565159,-8068.244768,4903.011187
20595.545876,8290.306550,-7105.977043,5132.839837
20595.546209,5995.668130,-7994.224174,2451.505594
20595.546541,3552.988522,-10214.842000,-306.438199
20595.546874,1110.308913,-10066.800811,-3830.477490
20595.547207,-74.020594,-11251.130318,-5286.058936
20595.547540,-1850.514855,-11621.233289,-4443.353888
20595.547873,-4145.153275,-9548.656652,-2145.067394
20595.548206,444.123565,-10214.842000,306.438199
20595.548539,4737.318029,-7031.956449,5286.058936
20595.548872,6513.812290,-5995.668130,7201.297681
20595.549205,7328.038826,-4959.379811,5362.668486
20595.549538,6661.853478,-8882.471304,4519.963438
20595.549871,2368.659014,-8660.409521,2604.724693
20595.550204,-814.226536,-9548.656652,-4290.134789
20595.550537,-4737.318029,-12213.398043,-3370.820191
20595.550870,-5995.668130,-12361.439231,-7431.126331
20595.551203,-4811.338623,-11769.274478,-3753.867940
20595.551536,-962.267725,-9918.759623,-536.266849
20595.551869,-2664.741391,-7476.080014,1225.752797
20595.552201,-1480.411884,-7476.080014,2221.676944
20595.552534,-962.267725,-7550.100608,3600.648841
20595.552867,2294.638420,-8808.450710,6665.030833
20595.553200,-2960.823768,-7179.997637,3983.696590
20595.553533,-5921.647536,-10140.821405,4136.915689
20595.553866,-4219.173869,-7550.100608,-2221.676944
20595.554199,-6513.812290,-8364.327145,-1225.752797
20595.554532,-2442.679609,-8512.368333,-1149.143247
20595.554865,-4515.256246,-8808.450710,-995.924147
20595.555198,-5403.503377,-9992.780217,-2374.896044
20595.555531,-4071.132681,-8956.491898,-2451.505594
20595.555864,-3923.091493,-9178.553681,-2528.115143
20595.556197,-4737.318029,-9548.656652,1072.533697
20595.556530,-3775.050304,-10658.965565,-76.609550
20595.556863,-3034.844362,-6883.915261,-2451.505594
20595.557196,-2368.659014,-9548.656652,2451.505594
20595.557529,4071.132681,-4737.318029,3907.087040
20595.557861,2368.659014,-6809.894666,3983.696590
20595.558194,3701.029710,-5699.585753,2068.457845
20595.558527,2960.823768,-10584.944971,919.314598
20595.558860,1998.556043,-8882.471304,-2911.162892
20595.559193,-2294.638420,-13397.727550,-3907.087040
20595.559526,-3256.906145,-9548.656652,-6588.421283
20595.559859,-2960.823768,-14211.954086,-4519.963438
20595.560192,2368.659014,-7328.038826,612.876398
20595.560525,5847.626942,-8882.471304,3294.210641
20595.560858,4737.318029,-5995.668130,2451.505594
20595.561191,9474.636058,-7994.224174,8503.660028
20595.561524,6735.874072,-9474.636058,4213.525239
20595.561857,7994.224174,-4219.173869,4903.011187
20595.562190,2812.782580,-9474.636058,-459.657299
20595.562523,962.267725,-11251.130318,-4519.963438
20595.562856,-370.102971,-10362.883188,-5745.716235
20595.563189,3478.967927,-13027.624579,-1302.362347
20595.563521,6439.791695,-9474.636058,-842.705048
20595.563854,1184.329507,-9548.656652,1838.629195
20595.564187,592.164754,-8364.327145,1225.752797
20595.564520,4663.297435,-10658.965565,2374.896044
20595.564853,6513.812290,-7179.997637,5439.278036
20595.565186,2072.576638,-8660.409521,2374.896044
20595.565519,814.226536,-10510.924376,919.314598
20595.565852,888.247130,-9030.512492,842.705048
20595.566185,0.000000,-7624.121203,1915.238745
20595.566518,3182.885551,-6217.729913,-1608.800546
20595.566851,-592.164754,-10288.862594,-76.609550
20595.567184,-962.267725,-9178.553681,-3140.991542
20595.567517,-2442.679609,-9770.718434,-4903.011187
20595.567850,-5107.421000,-12731.542202,-3140.991542
20595.568183,-7105.977043,-11917.315666,-3907.087040
20595.568516,-5921.647536,-11473.192101,-766.095498
20595.568849,-2072.576638,-9104.533087,2604.724693
20595.569181,296.082377,-5403.503377,7354.516781
20595.569514,814.226536,-3923.091493,4903.011187
20595.569847,2886.803174,-9474.636058,7277.907231
20595.570180,-3034.844362,-6587.832884,0.000000
20595.570513,-3256.906145,-10214.842000,0.000000
20595.570846,-8290.306550,-10140.821405,-4903.011187
20595.571179,-7994.224174,-10362.883188,-5439.278036
20595.571512,-7920.203579,-10362.883188,-4290.134789
20595.571845,-7105.977043,-10140.821405,-1072.533697
20595.572178,-1850.514855,-8290.306550,1149.143247
20595.572511,-2960.823768,-8512.368333,5439.278036
20595.572844,1998.556043,-6809.894666,4826.401637
20595.573177,4071.132681,-8882.471304,3600.648841
20595.573510,0.000000,-7772.162391,4903.011187
20595.573843,296.082377,-7179.997637,1225.752797
20595.574176,-1850.514855,-8734.430116,-3064.381992
20595.574509,-1184.329507,-7772.162391,-2987.772442
20595.574842,-1776.494261,-10584.944971,-995.924147
20595.575175,-74.020594,-9474.636058,-1608.800546
20595.575508,1036.288319,-8660.409521,-536.266849
20595.575841,1110.308913,-9326.594869,-1455.581446
20595.576174,2664.741391,-9548.656652,842.705048
20595.576507,3478.967927,-9696.697840,1685.410096
20595.576840,6439.791695,-11251.130318,3600.648841
20595.577173,3552.988522,-5995.668130,0.000000
20595.577506,4145.153275,-11843.295072,4826.401637
20595.577839,7920.203579,-7105.977043,2528.115143
20595.578172,3552.988522,-6587.832884,3064.381992
20595.578505,7624.121203,-9474.636058,1149.143247
20595.578838,2960.823768,-8734.430116,-1302.362347
20595.579171,2146.597232,-11399.171507,-2757.943793
20595.579504,2294.638420,-9992.780217,-2604.724693
20595.579837,-370.102971,-9474.636058,-4826.401637
20595.580170,-1776.494261,-12509.480420,-2145.067394
20595.580503,4663.297435,-12435.459826,2374.896044
20595.580836,6735.874072,-7179.997637,4290.134789
20595.581169,7698.141797,-5699.585753,7660.954980
20595.581502,7624.121203,-6217.729913,3370.820191
20595.581835,6217.729913,-7179.997637,2451.505594
20595.582168,4885.359217,-9770.718434,1532.190996
20595.582501,2368.659014,-10436.903782,-1915.238745
20595.582834,-2960.823768,-10140.821405,-6128.763984
20595.583167,-2368.659014,-15396.283594,-3753.867940
20595.583500,-1998.556043,-9844.739029,-4903.011187
20595.583833,-1480.411884,-9548.656652,0.000000
20595.584166,1776.494261,-10658.965565,3600.648841
20595.584499,1776.494261,-4811.338623,3677.258390
20595.584832,1850.514855,-9400.615463,5515.887586
20595.585165,2590.720797,-4293.194464,3524.039291
20595.585498,-2886.803174,-11325.150913,1762.019645
20595.585831,-3108.864956,-8068.244768,-306.438199
20595.586164,-4811.338623,-11843.295072,-2528.115143
20595.586497,-6809.894666,-9548.656652,0.000000
20595.586830,-2294.638420,-8882.471304,2068.457845
20595.587163,-3627.009116,-9474.636058,-1915.238745
20595.587496,-6365.771101,-7179.997637,-1225.752797
20595.587829,-5403.503377,-8734.430116,-2528.115143
20595.588162,-4811.338623,-11843.295072,-459.657299
20595.588495,-4367.215058,-8660.409521,1762.019645
20595.588828,-2812.782580,-10288.862594,3064.381992
20595.589161,-3849.070898,-6735.874072,2451.505594
20595.589494,-666.185348,-8734.430116,4673.182538
20595.589827,518.144159,-6735.874072,4826.401637
20595.590160,0.000000,-5477.523971,2604.724693
20595.590493,-2590.720797,-4811.338623,0.000000
20595.590826,-3552.988522,-10658.965565,-1302.362347
20595.591159,-2442.679609,-11843.295072,-4979.620737
20595.591492,-6143.709319,-10584.944971,-4903.011187
20595.591825,-5995.668130,-12435.459826,-3753.867940
20595.592158,-5995.668130,-10140.821405,-3677.258390
20595.592491,370.102971,-9474.636058,1149.143247
20595.592824,5107.421000,-6217.729913,5822.325785
20595.593157,5921.647536,-4811.338623,8580.269578
20595.593490,6735.874072,-7179.997637,5439.278036
20595.593823,11177.109724,-7698.141797,3294.210641
20595.594156,5033.400406,-8660.409521,2145.067394
20595.594489,4737.318029,-11325.150913,-76.609550
20595.594822,0.000000,-11029.068536,-5822.325785
20595.595155,-2368.659014,-14285.974681,-6818.249932
20595.595488,2368.659014,-9844.739029,-1608.800546
20595.595821,2368.659014,-11029.068536,-76.609550
20595.596154,7328.038826,-8882.471304,1762.019645
20595.596487,7031.956449,-9474.636058,2987.772442
20595.596820,7105.977043,-9548.656652,4903.011187
20595.597153,10436.903782,-8882.471304,6665.030833
20595.597486,2368.659014,-8364.327145,1532.190996
20595.597819,2368.659014,-9548.656652,1225.752797
20595.598152,1998.556043,-10658.965565,-1302.362347
20595.598485,4885.359217,-8660.409521,0.000000
20595.598818,2294.638420,-10362.883188,-76.609550
20595.599151,1110.308913,-8956.491898,-2911.162892
20595.599484,-2368.659014,-9844.739029,-4903.011187
20595.599817,1702.473667,-11843.295072,-2528.115143
20595.600150,-888.247130,-9474.636058,-1608.800546
20595.600483,-4441.235652,-10732.986159,919.314598
20595.600816,-74.020594,-9474.636058,1762.019645
20595.601149,-1184.329507,-10436.903782,4519.963438
20595.601482,2960.823768,-6587.832884,5439.278036
20595.601815,1554.432478,-7328.038826,6052.154434
20595.602148,-370.102971,-6069.688724,1838.629195
20595.602481,-296.082377,-8808.450710,2374.896044
20595.602814,-3034.844362,-10658.965565,-3753.867940
20595.603147,-7105.977043,-10732.986159,-1302.362347
20595.603480,-8660.409521,-13989.892304,-1915.238745
20595.603813,-7772.162391,-11547.212695,-4979.620737
20595.604146,-8956.491898,-11547.212695,-383.047749
20595.604479,-5033.400406,-7031.956449,2068.457845
20595.604812,-1480.411884,-5773.606348,4519.963438
20595.605145,-740.205942,-4811.338623,5286.058936
20595.605478,0.000000,-6587.832884,5209.449386
20595.605811,518.144159,-9178.553681,4136.915689
20595.606144,-518.144159,-8586.388927,1455.581446
20595.606477,-3108.864956,-10214.842000,-1225.752797
20595.606810,-4293.194464,-8956.491898,-4366.744339
20595.607143,-4145.153275,-11621.233289,-1149.143247
20595.607476,-666.185348,-8882.471304,-1915.238745
20595.607809,-1258.350101,-7179.997637,-3064.381992
20595.608142,-2072.576638,-8956.491898,-919.314598
20595.608475,2294.638420,-9474.636058,-76.609550
20595.608808,1628.453072,-8956.491898,2298.286494
20595.609141,2368.659014,-6883.915261,1685.410096
20595.609474,0.000000,-10140.821405,1685.410096
20595.609807,1184.329507,-9548.656652,2451.505594
20595.610140,2368.659014,-7772.162391,4443.353888
20595.610473,7031.956449,-6513.812290,995.924147
20595.610806,3552.988522,-8364.327145,0.000000
20595.611139,1184.329507,-9992.780217,-1915.238745
20595.611472,1184.329507,-11473.192101,-4213.525239
20595.611805,2886.803174,-11547.212695,-2068.457845
20595.612138,2072.576638,-11103.089130,-1608.800546
20595.612471,1258.350101,-10510.924376,-1608.800546
20595.612804,6439.791695,-9474.636058,2374.896044
20595.613137,4145.153275,-8660.409521,5286.058936
20595.613470,7624.121203,-2738.761985,1225.752797
20595.613803,7105.977043,-10510.924376,6052.154434
20595.614136,7328.038826,-6809.894666,2681.334243
20595.614469,6513.812290,-9844.739029,3064.381992
20595.614802,2886.803174,-9326.594869,-2451.505594
20595.615135,-1184.329507,-10510.924376,-4903.011187
20595.615468,-5033.400406,-12953.603985,-5669.106685
20595.615801,-666.185348,-9548.656652,-3907.087040
20595.616134,814.226536,-12435.459826,1149.143247
20595.616467,1184.329507,-5477.523971,919.314598
20595.616800,296.082377,-5995.668130,4903.011187
20595.617133,4367.215058,-6217.729913,3600.648841
20595.617466,3478.967927,-6957.935855,2987.772442
20595.617799,1184.329507,-9548.656652,3064.381992
20595.618132,592.164754,-7476.080014,-612.876398
20595.618465,-3034.844362,-12657.521608,-689.485948
20595.618798,0.000000,-9548.656652,-1838.629195
20595.619131,-74.020594,-11251.130318,-1915.238745
20595.619464,0.000000,-10066.800811,2068.457845
20595.619797,296.082377,-9252.574275,2987.772442
20595.620130,-3923.091493,-9178.553681,-2911.162892
20595.620463,-3108.864956,-7402.059420,-2374.896044
20595.620796,-5107.421000,-10584.944971,76.609550
20595.621129,-4737.318029,-8290.306550,919.314598
20595.621462,-4811.338623,-8586.388927,995.924147
20595.621795,-2960.823768,-7920.203579,3677.258390
20595.622128,-74.020594,-5033.400406,2757.943793
20595.622461,-444.123565,-5477.523971,2834.553343
20595.622794,-2664.741391,-8068.244768,-766.095498
20595.623127,-4219.173869,-9696.697840,-4136.915689
20595.623460,-5921.647536,-10732.986159,-4903.011187
20595.623793,-3627.009116,-10510.924376,-3753.867940
20595.624126,-5403.503377,-10732.986159,-4903.011187
20595.624459,-3552.988522,-11251.130318,-689.485948
20595.624792,1110.308913,-11547.212695,3294.210641
20595.625125,1776.494261,-5403.503377,5515.887586
20595.625458,4959.379811,-5699.585753,6281.983084
20595.625791,3775.050304,-7846.182985,5132.839837
20595.626124,3552.988522,-7179.997637,3753.867940
20595.626457,2960.823768,-9252.574275,3600.648841
20595.626790,1110.308913,-9622.677246,-3677.258390
20595.627123,-4959.379811,-12953.603985,-4903.011187
20595.627456,-3330.926739,-14211.954086,-5592.497135
20595.627789,-2590.720797,-10658.965565,-4136.915689
20595.628122,1184.329507,-8734.430116,842.705048
20595.628455,2960.823768,-8290.306550,2911.162892
20595.628788,5181.441594,-7254.018232,3600.648841
20595.629121,6217.729913,-7179.997637,5515.887586
20595.629454,5255.462188,-8586.388927,3600.648841
20595.629787,4515.256246,-5995.668130,612.876398
20595.630120,4663.297435,-12731.542202,-76.609550
20595.630453,1998.556043,-9474.636058,-2528.115143
20595.630786,2960.823768,-10140.821405,1838.629195
20595.631119,3478.967927,-8586.388927,-2221.676944
20595.631452,3775.050304,-9178.553681,-842.705048
20595.631785,-296.082377,-9844.739029,-1225.752797
20595.632118,2368.659014,-8512.368333,-1838.629195
20595.632451,1184.329507,-9548.656652,0.000000
20595.632784,0.000000,-10214.842000,2374.896044
20595.633117,2886.803174,-9474.636058,-76.609550
20595.633450,0.000000,-8364.327145,3830.477490
20595.633783,5921.647536,-8808.450710,7890.783629
20595.634116,4663.297435,-8290.306550,2374.896044
20595.634449,3256.906145,-8438.347739,2987.772442
20595.634782,-888.247130,-9252.574275,-1685.410096
20595.635115,-1554.432478,-10140.821405,-3753.867940
20595.635448,-2368.659014,-10436.903782,-2757.943793
20595.635781,-4145.153275,-11399.171507,-2528.115143
20595.636114,-4293.194464,-10955.047942,-2528.115143
20595.636447,-4367.215058,-11251.130318,-536.266849
20595.636780,222.061783,-8290.306550,2374.896044
20595.637113,962.267725,-5625.565159,4826.401637
20595.637446,0.000000,-5403.503377,5515.887586
20595.637779,1702.473667,-7698.141797,1762.019645
20595.638112,-222.061783,-7624.121203,612.876398
20595.638445,-2442.679609,-11251.130318,-76.609550
20595.638778,-4811.338623,-11547.212695,-2528.115143
20595.639111,-7105.977043,-12139.377449,-3677.258390
20595.639444,-5477.523971,-10955.047942,-1455.581446
20595.639777,-3256.906145,-7179.997637,153.219100
20595.640110,-962.267725,-8438.347739,2681.334243
20595.640443,-4737.318029,-5995.668130,1838.629195
20595.640776,-222.061783,-9326.594869,1149.143247
20595.641109,2294.638420,-8882.471304,2374.896044
20595.641442,-1184.329507,-7476.080014,2145.067394
20595.641775,-1258.350101,-9474.636058,-766.095498
20595.642108,370.102971,-9844.739029,1072.533697
20595.642441,1480.411884,-9844.739029,2374.896044
20595.642774,3552.988522,-8068.244768,2451.505594
20595.643107,-74.020594,-9474.636058,-76.609550
20595.643440,740.205942,-11251.130318,-76.609550
20595.643773,1110.308913,-10658.965565,-1608.800546
20595.644106,0.000000,-8956.491898,306.438199
20595.644439,-2072.576638,-10140.821405,-612.876398
20595.644772,-4737.318029,-8660.409521,-2451.505594
20595.645105,-1480.411884,-9548.656652,383.047749
20595.645438,3923.091493,-5551.544565,4903.011187
20595.645770,6143.709319,-8290.306550,6052.154434
20595.646103,6513.812290,-2442.679609,3983.696590
20595.646436,4663.297435,-11843.295072,2374.896044
20595.646769,2664.741391,-7179.997637,-2451.505594
20595.647102,592.164754,-12509.480420,-76.609550
20595.647435,-74.020594,-14211.954086,-4979.620737
20595.647768,-2072.576638,-11325.150913,-4060.306139
20595.648101,-1332.370696,-12139.377449,-4136.915689
20595.648434,2812.782580,-10807.006753,229.828649
20595.648767,3997.112087,-6883.915261,2987.772442
20595.649100,6513.812290,-8660.409521,7277.907231
20595.649433,7031.956449,-5921.647536,2374.896044
20595.649766,4737.318029,-8364.327145,4903.011187
20595.650099,7031.956449,-9474.636058,4826.401637
20595.650432,2294.638420,-10066.800811,-76.609550
20595.650765,-1036.288319,-11325.150913,-1149.143247
20595.651098,-740.205942,-12213.398043,-2145.067394
20595.651431,296.082377,-11177.109724,-1378.971896
20595.651764,740.205942,-8068.244768,-1455.581446
20595.652097,0.000000,-9548.656652,-919.314598
20595.652430,-962.267725,-8512.368333,-1455.581446
20595.652763,0.000000,-9770.718434,76.609550
20595.653096,666.185348,-8734.430116,2451.505594
20595.653429,518.144159,-7328.038826,1915.238745
20595.653762,-1776.494261,-9844.739029,3294.210641
20595.654095,4663.297435,-7994.224174,3600.648841
20595.654428,0.000000,-7179.997637,6741.640382
20595.654761,7031.956449,-5921.647536,3447.429741
20595.655094,1702.473667,-11251.130318,-76.609550
20595.655427,-962.267725,-9992.780217,-2757.943793
20595.655760,-3849.070898,-12139.377449,-3907.087040
20595.656093,-5033.400406,-11029.068536,-4826.401637
20595.656426,-7698.141797,-11325.150913,-6128.763984
20595.656759,-8290.306550,-9548.656652,-2145.067394
20595.657092,-74.020594,-8734.430116,1762.019645
20595.657425,0.000000,-4811.338623,4903.011187
20595.657758,2664.741391,-4367.215058,7277.907231
20595.658091,444.123565,-5107.421000,3753.867940
20595.658424,1776.494261,-8290.306550,2374.896044
20595.658757,-814.226536,-9178.553681,-536.266849
20595.659090,-4737.318029,-12583.501014,-3447.429741
20595.659423,-4811.338623,-12435.459826,-4979.620737
20595.659756,-8290.306550,-11917.315666,-2528.115143
20595.660089,-1258.350101,-9326.594869,-3370.820191
20595.660422,-2960.823768,-8512.368333,1838.629195
20595.660755,296.082377,-7031.956449,4366.744339
20595.661088,2294.638420,-7550.100608,3983.696590
20595.661421,3182.885551,-6513.812290,3447.429741
20595.661754,2960.823768,-8364.327145,3677.258390
20595.662087,-74.020594,-9400.615463,919.314598
20595.662420,-2146.597232,-8882.471304,-3524.039291
20595.662753,-2368.659014,-13027.624579,-1302.362347
20595.663086,-1776.494261,-8364.327145,-4290.134789
20595.663419,1184.329507,-8956.491898,842.705048
20595.663752,814.226536,-8586.388927,-1838.629195
20595.664085,1110.308913,-9178.553681,-995.924147
20595.664418,888.247130,-9696.697840,-1225.752797
20595.664751,2220.617826,-9696.697840,306.438199
20595.665084,3034.844362,-8142.265362,1532.190996
20595.665417,1184.329507,-8364.327145,2757.943793
20595.665750,4663.297435,-9474.636058,-383.047749
20595.666083,6513.812290,-9474.636058,6665.030833
20595.666416,4663.297435,-9474.636058,2374.896044
20595.666749,5551.544565,-5107.421000,1838.629195
20595.667082,962.267725,-10658.965565,-1302.362347
20595.667415,1702.473667,-9696.697840,-3370.820191
20595.667748,-370.102971,-10658.965565,-2911.162892
20595.668081,-1628.453072,-11769.274478,-3983.696590
20595.668414,-2368.659014,-10140.821405,-3677.258390
20595.668747,-74.020594,-10288.862594,-1455.581446
20595.669080,5181.441594,-7772.162391,3983.696590
20595.669413,5699.585753,-5921.647536,5975.544884
20595.669746,4885.359217,-7772.162391,5132.839837
20595.670079,296.082377,-7179.997637,2451.505594
20595.670412,3775.050304,-9178.553681,2374.896044
20595.670745,0.000000,-7179.997637,612.876398
20595.671078,-74.020594,-11843.295072,-2528.115143
20595.671411,-3034.844362,-11843.295072,-5286.058936
20595.671744,-7698.141797,-10732.986159,-3677.258390
20595.672077,-1406.391290,-8068.244768,-2911.162892
20595.672411,-370.102971,-9326.594869,229.828649
20595.672744,-222.061783,-7920.203579,689.485948
20595.673077,888.247130,-9326.594869,4826.401637
20595.673410,0.000000,-7179.997637,5822.325785
20595.673743,-74.020594,-8290.306550,1149.143247
20595.674076,-4737.318029,-7772.162391,0.000000
20595.674409,-4145.153275,-10658.965565,1149.143247
20595.674742,-148.041188,-9030.512492,2221.676944
20595.675075,-4145.153275,-8364.327145,2451.505594
20595.675408,-2442.679609,-7254.018232,-612.876398
20595.675741,-4737.318029,-9400.615463,-2068.457845
20595.676074,-4071.132681,-8364.327145,-3600.648841
20595.676408,-2442.679609,-8734.430116,-5898.935335
20595.676741,-4737.318029,-11029.068536,-536.266849
20595.677074,-2738.761985,-9474.636058,-995.924147
20595.677407,-2738.761985,-7772.162391,0.000000
20595.677740,3552.988522,-8290.306550,4826.401637
20595.678073,4663.297435,-7179.997637,7277.907231
20595.678406,4737.318029,-6069.688724,5975.544884
20595.678739,2072.576638,-8290.306550,2221.676944
20595.679072,0.000000,-9548.656652,0.000000
20595.679405,-1998.556043,-8364.327145,-3677.258390
20595.679738,-1776.494261,-12139.377449,-2528.115143
20595.680072,-3627.009116,-10362.883188,-6435.202183
20595.680405,-5625.565159,-9548.656652,-6128.763984
20595.680738,0.000000,-8364.327145,0.000000
20595.681071,3775.050304,-6883.915261,3370.820191
20595.681404,6143.709319,-6957.935855,5898.935335
20595.681737,4145.153275,-7402.059420,4366.744339
20595.682070,7031.956449,-9474.636058,4213.525239
20595.682403,4737.318029,-8956.491898,5132.839837
20595.682736,3775.050304,-8364.327145,0.000000
20595.683069,0.000000,-9844.739029,-1225.752797
20595.683402,-666.185348,-13027.624579,-4979.620737
20595.683735,1480.411884,-10288.862594,-3983.696590
20595.684069,3404.947333,-10362.883188,842.705048
20595.684402,3330.926739,-8142.265362,689.485948
20595.684735,1406.391290,-8956.491898,76.609550
20595.685068,4071.132681,-10362.883188,2374.896044
20595.685401,5921.647536,-7772.162391,5745.716235
20595.685734,1850.514855,-8068.244768,2451.505594
20595.686067,2368.659014,-10066.800811,1302.362347
20595.686400,2738.761985,-9918.759623,1455.581446
20595.686733,6735.874072,-9474.636058,4519.963438
20595.687066,3701.029710,-7179.997637,1225.752797
20595.687399,1406.391290,-10658.965565,-2528.115143
20595.687732,-4145.153275,-9548.656652,-4290.134789
20595.688066,-3552.988522,-9548.656652,-3064.381992
20595.688399,-370.102971,-10066.800811,-3753.867940
20595.688732,-4959.379811,-11843.295072,-3447.429741
20595.689065,-1480.411884,-8882.471304,-766.095498
20595.689398,1036.288319,-10881.027347,4979.620737
20595.689731,4663.297435,-4737.318029,6894.859482
20595.690064,5033.400406,-6883.915261,9729.412825
20595.690397,3478.967927,-8882.471304,3600.648841
20595.690730,592.164754,-5403.503377,612.876398
20595.691063,-1776.494261,-12213.398043,-76.609550
20595.691396,-3034.844362,-9474.636058,-7201.297681
20595.691730,-6957.935855,-12805.562797,-5286.058936
20595.692063,-7698.141797,-12509.480420,-5822.325785
20595.692396,-4811.338623,-10362.883188,-2681.334243
20595.692729,-4737.318029,-8068.244768,0.000000
20595.693062,1184.329507,-8882.471304,4826.401637
20595.693395,518.144159,-4811.338623,4903.011187
20595.693728,0.000000,-4811.338623,3677.258390
20595.694061,1110.308913,-9474.636058,4826.401637
20595.694394,-2368.659014,-8660.409521,1838.629195
20595.694727,-2146.597232,-8068.244768,-689.485948
20595.695060,-3404.947333,-9992.780217,-1532.190996
20595.695393,-1776.494261,-9622.677246,-689.485948
20595.695727,-1184.329507,-9844.739029,459.657299
20595.696060,-74.020594,-11843.295072,-689.485948
20595.696393,-1258.350101,-7994.224174,-2451.505594
20595.696726,-1776.494261,-10658.965565,919.314598
20595.697059,2294.638420,-9474.636058,-383.047749
20595.697392,-1776.494261,-8364.327145,3677.258390
20595.697725,-74.020594,-7254.018232,0.000000
20595.698058,518.144159,-10732.986159,2298.286494
20595.698391,4441.235652,-7624.121203,3983.696590
20595.698724,5329.482782,-7550.100608,4903.011187
20595.699057,4589.276840,-6957.935855,1685.410096
20595.699390,1036.288319,-9252.574275,-1378.971896
20595.699724,1184.329507,-10955.047942,-2528.115143
20595.700057,2146.597232,-9918.759623,-2834.553343
20595.700390,-2960.823768,-10732.986159,-3064.381992
20595.700723,-1110.308913,-12731.542202,-2834.553343
20595.701056,814.226536,-9474.636058,-1302.362347
20595.701389,2960.823768,-8956.491898,5209.449386
20595.701722,8512.368333,-5329.482782,6052.154434
20595.702055,3701.029710,-8364.327145,4903.011187
20595.702388,6143.709319,-6957.935855,3294.210641
20595.702721,3849.070898,-9104.533087,3064.381992
20595.703054,2368.659014,-8364.327145,306.438199
20595.703388,-74.020594,-11177.109724,-4903.011187
20595.703721,-2738.761985,-13027.624579,-7431.126331
20595.704054,-2960.823768,-11917.315666,-3064.381992
20595.704387,-2368.659014,-9548.656652,0.000000
20595.704720,1776.494261,-7179.997637,306.438199
20595.705053,0.000000,-8438.347739,2757.943793
20595.705386,3182.885551,-7550.100608,2987.772442
20595.705719,3108.864956,-8290.306550,4366.744339
20595.706052,4663.297435,-9474.636058,5439.278036
20595.706385,0.000000,-5995.668130,1378.971896
20595.706718,-1258.350101,-11843.295072,-1608.800546
20595.707051,-2368.659014,-9548.656652,0.000000
20595.707385,-1258.350101,-11251.130318,-1302.362347
20595.707718,-814.226536,-8734.430116,-689.485948
20595.708051,-3552.988522,-9696.697840,-1225.752797
20595.708384,-2590.720797,-9474.636058,-2145.067394
20595.708717,-2072.576638,-9474.636058,-76.609550
20595.709050,-2590.720797,-10955.047942,1455.581446
20595.709383,-3552.988522,-8364.327145,3907.087040
20595.709716,-4737.318029,-7179.997637,2451.505594
20595.710049,0.000000,-7179.997637,6894.859482
20595.710382,3478.967927,-4737.318029,3294.210641
20595.710715,222.061783,-5699.585753,2987.772442
20595.711048,814.226536,-7698.141797,229.828649
20595.711382,-2664.741391,-10658.965565,-2068.457845
20595.711715,-2368.659014,-10807.006753,-2911.162892
20595.712048,-5255.462188,-12065.356855,-4366.744339
20595.712381,-4811.338623,-13619.789333,-4979.620737
20595.712714,-7105.977043,-10140.821405,-4290.134789
20595.713047,1702.473667,-9474.636058,2987.772442
20595.713380,5847.626942,-7105.977043,5745.716235
20595.713713,4367.215058,-3701.029710,7124.688131
20595.714046,5847.626942,-7994.224174,5439.278036
20595.714379,5625.565159,-7550.100608,4826.401637
20595.714712,3478.967927,-9104.533087,2068.457845
20595.715046,0.000000,-9844.739029,-2528.115143
20595.715379,-2590.720797,-13619.789333,-6511.811733
20595.715712,-4737.318029,-11843.295072,-6435.202183
20595.716045,-1036.288319,-11547.212695,-2374.896044
20595.716378,888.247130,-9252.574275,-76.609550
20595.716711,-2072.576638,-7179.997637,0.000000
20595.717044,1554.432478,-8882.471304,536.266849
20595.717377,4367.215058,-7105.977043,2374.896044
20595.717710,4737.318029,-6291.750507,6128.763984
20595.718043,4737.318029,-8734.430116,4366.744339
20595.718376,1998.556043,-8068.244768,-1225.752797
20595.718709,1850.514855,-11103.089130,842.705048
20595.719043,4737.318029,-8068.244768,2298.286494
20595.719376,2368.659014,-10140.821405,306.438199
20595.719709,1776.494261,-9252.574275,-1838.629195
20595.720042,-814.226536,-13027.624579,-4979.620737
20595.720375,-2368.659014,-9844.739029,-3064.381992
20595.720708,-3552.988522,-9548.656652,306.438199
20595.721041,-370.102971,-10362.883188,-1608.800546
20595.721374,0.000000,-7179.997637,2604.724693
20595.721707,1110.308913,-9474.636058,4136.915689
20595.722040,6661.853478,-4959.379811,5745.716235
20595.722373,6069.688724,-6513.812290,6511.811733
20595.722706,7031.956449,-6513.812290,4213.525239
20595.723040,3775.050304,-11843.295072,-76.609550
20595.723373,-2368.659014,-9548.656652,-2451.505594
20595.723706,-1258.350101,-12435.459826,-3140.991542
20595.724039,-4811.338623,-13027.624579,-7737.564530
20595.724372,-3627.009116,-13619.789333,-5592.497135
20595.724705,-4737.318029,-11917.315666,-1378.971896
20595.725038,2220.617826,-7772.162391,2145.067394
20595.725371,4219.173869,-7550.100608,7354.516781
20595.725704,4737.318029,-4219.173869,6894.859482
20595.726037,6439.791695,-5181.441594,4596.572988
20595.726370,0.000000,-8364.327145,6128.763984
20595.726704,2294.638420,-8882.471304,-76.609550
20595.727037,-5921.647536,-10140.821405,-3677.258390
20595.727370,-6661.853478,-10658.965565,-5898.935335
20595.727703,-4441.235652,-11991.336260,-3677.258390
20595.728036,-3775.050304,-9918.759623,-2374.896044
20595.728369,-592.164754,-8364.327145,-76.609550
20595.728702,-3552.988522,-9326.594869,306.438199
20595.729035,-3256.906145,-7179.997637,0.000000
20595.729368,1110.308913,-10362.883188,3600.648841
20595.729701,-74.020594,-6513.812290,689.485948
20595.730034,-1184.329507,-9548.656652,3370.820191
20595.730367,-740.205942,-7698.141797,2374.896044
20595.730701,1776.494261,-8808.450710,4826.401637
20595.731034,1924.535449,-7328.038826,4136.915689
20595.731367,592.164754,-8512.368333,459.657299
20595.731700,-2368.659014,-9622.677246,-2757.943793
20595.732033,-3775.050304,-11325.150913,-3983.696590
20595.732366,-2590.720797,-10881.027347,-3907.087040
20595.732699,-5329.482782,-11399.171507,-3677.258390
20595.733032,-4367.215058,-9918.759623,-3753.867940
20595.733365,-2072.576638,-10140.821405,612.876398
20595.733698,2738.761985,-4811.338623,1838.629195
20595.734031,6661.853478,-7698.141797,7890.783629
20595.734364,4071.132681,-5699.585753,4903.011187
20595.734698,2886.803174,-7105.977043,2068.457845
20595.735031,3997.112087,-9474.636058,2068.457845
20595.735364,1924.535449,-10732.986159,-383.047749
20595.735697,-1776.494261,-11843.295072,-3753.867940
20595.736030,-3923.091493,-11177.109724,-5898.935335
20595.736363,-370.102971,-13915.871710,-2528.115143
20595.736696,-2072.576638,-9548.656652,0.000000
20595.737029,1184.329507,-7179.997637,3677.258390
20595.737362,4589.276840,-8734.430116,3600.648841
20595.737695,3701.029710,-4811.338623,3064.381992
20595.738028,5255.462188,-8586.388927,4519.963438
20595.738361,4515.256246,-8734.430116,4443.353888
20595.738695,2146.597232,-7920.203579,536.266849
20595.739028,-1036.288319,-11547.212695,-1915.238745
20595.739361,1702.473667,-10214.842000,-2528.115143
20595.739694,0.000000,-9548.656652,-76.609550
20595.740027,2886.803174,-9474.636058,-689.485948
20595.740360,1702.473667,-9474.636058,-3753.867940
20595.740693,-1776.494261,-11325.150913,-1532.190996
20595.741026,1554.432478,-8660.409521,-1225.752797
20595.741359,2442.679609,-9400.615463,2987.772442
20595.741692,1776.494261,-6883.915261,2987.772442
20595.742025,296.082377,-7994.224174,995.924147
20595.742359,1480.411884,-8660.409521,2451.505594
20595.742692,3552.988522,-8956.491898,7277.907231
20595.743025,3478.967927,-6217.729913,1225.752797
20595.743358,-1184.329507,-8364.327145,-3677.258390
20595.743691,-1776.494261,-11547.212695,-1685.410096
20595.744024,-1850.514855,-10140.821405,-4596.572988
20595.744357,-3627.009116,-12583.501014,-2604.724693
20595.744690,-6439.791695,-10955.047942,-3830.477490
20595.745023,-7254.018232,-11547.212695,-2068.457845
20595.745356,-4145.153275,-7772.162391,612.876398
20595.745689,2072.576638,-4737.318029,6588.421283
20595.746022,3478.967927,-4145.153275,7890.783629
20595.746356,2590.720797,-4441.235652,4979.620737
20595.746689,2294.638420,-9474.636058,3294.210641
20595.747022,-370.102971,-5995.668130,0.000000
20595.747355,-1184.329507,-13619.789333,-2528.115143
20595.747688,-7994.224174,-10732.986159,-9652.803275
20595.748021,-7994.224174,-13101.645173,-7048.078582
20595.748354,-2146.597232,-12435.459826,-689.485948
20595.748687,148.041188,-8068.244768,1149.143247
20595.749020,888.247130,-7105.977043,3370.820191
20595.749353,2590.720797,-6809.894666,4903.011187
20595.749686,3256.906145,-4811.338623,4290.134789
20595.750019,4293.194464,-7476.080014,3064.381992
20595.750353,0.000000,-9622.677246,3907.087040
20595.750686,-1850.514855,-7624.121203,-3677.258390
20595.751019,-4145.153275,-8364.327145,-1225.752797
20595.751352,1258.350101,-9474.636058,-842.705048
20595.751685,-888.247130,-7772.162391,-1991.848295
20595.752018,-2220.617826,-10436.903782,-3447.429741
20595.752351,-1258.350101,-10510.924376,-3753.867940
20595.752684,0.000000,-11325.150913,-1225.752797
20595.753017,3478.967927,-8734.430116,0.000000
20595.753350,2960.823768,-9548.656652,5439.278036
20595.753683,2294.638420,-8142.265362,995.924147
20595.754017,3552.988522,-8808.450710,3677.258390
20595.754350,6513.812290,-9104.533087,6435.202183
20595.754683,7105.977043,-6365.771101,6052.154434
20595.755016,4071.132681,-7105.977043,2068.457845
20595.755349,2294.638420,-9474.636058,-2528.115143
20595.755682,1110.308913,-11843.295072,-4060.306139
20595.756015,-3552.988522,-10732.986159,-4290.134789
20595.756348,-1258.350101,-10658.965565,-5592.497135
20595.756681,-3034.844362,-13027.624579,-5975.544884
20595.757014,-2368.659014,-11621.233289,-76.609550
20595.757347,4663.297435,-7994.224174,4826.401637
20595.757680,7254.018232,-4515.256246,7277.907231
20595.758014,5773.606348,-4811.338623,5745.716235
20595.758347,4219.173869,-7328.038826,3907.087040
20595.758680,4663.297435,-8586.388927,3294.210641
20595.759013,1924.535449,-9696.697840,2987.772442
20595.759346,-222.061783,-9030.512492,-5439.278036
20595.759679,-5329.482782,-13693.809927,-6128.763984
20595.760012,-1258.350101,-14211.954086,-4979.620737
20595.760345,-74.020594,-11251.130318,-1302.362347
20595.760678,3404.947333,-9474.636058,2374.896044
20595.761011,1184.329507,-9030.512492,2374.896044
20595.761344,1184.329507,-9474.636058,3140.991542
20595.761677,2590.720797,-7698.141797,5439.278036
20595.762011,296.082377,-8586.388927,6052.154434
20595.762344,0.000000,-7846.182985,2451.505594
20595.762677,-1776.494261,-9030.512492,1532.190996
20595.763010,-1480.411884,-9104.533087,842.705048
20595.763343,-962.267725,-7254.018232,-1072.533697
20595.763676,-4589.276840,-10066.800811,-689.485948
20595.764009,-3034.844362,-11843.295072,-3140.991542
20595.764342,-5699.585753,-9992.780217,-5515.887586
20595.764675,-4441.235652,-10732.986159,-1915.238745
20595.765008,-3627.009116,-10066.800811,-1915.238745
20595.765341,-3256.906145,-7772.162391,536.266849
20595.765675,518.144159,-7772.162391,4290.134789
20595.766008,4293.194464,-6291.750507,7431.126331
20595.766341,2960.823768,-5995.668130,6128.763984
20595.766674,1776.494261,-6883.915261,5745.716235
20595.767007,-74.020594,-7328.038826,-2298.286494
20595.767340,-2368.659014,-10140.821405,-1225.752797
20595.767673,-2664.741391,-12139.377449,-3753.867940
20595.768006,-4811.338623,-11103.089130,-6435.202183
20595.768339,-5847.626942,-11769.274478,-5286.058936
20595.768672,-3775.050304,-11473.192101,-2221.676944
20595.769005,1554.432478,-8068.244768,2068.457845
20595.769338,5995.668130,-6809.894666,7584.345430
20595.769672,6883.915261,-6809.894666,9729.412825
20595.770005,4071.132681,-4811.338623,2911.162892
20595.770338,4737.318029,-9400.615463,4903.011187
20595.770671,6439.791695,-9474.636058,2987.772442
20595.771004,296.082377,-9548.656652,0.000000
20595.771337,518.144159,-11621.233289,-3830.477490
20595.771670,-1850.514855,-13397.727550,-4903.011187
20595.772003,370.102971,-11473.192101,-2528.115143
20595.772336,1702.473667,-8882.471304,-76.609550
20595.772670,3478.967927,-9474.636058,-76.609550
20595.773003,1702.473667,-7179.997637,-1225.752797
20595.773336,2664.741391,-9252.574275,4826.401637
20595.773669,4663.297435,-8290.306550,4213.525239
20595.774002,1998.556043,-9178.553681,2987.772442
20595.774335,0.000000,-9252.574275,3064.381992
20595.774668,2516.700203,-10066.800811,3064.381992
20595.775002,3923.091493,-7846.182985,2834.553343
20595.775335,3552.988522,-7772.162391,1225.752797
20595.775668,-74.020594,-10066.800811,-4366.744339
20595.776001,-2368.659014,-10732.986159,-3370.820191
20595.776334,592.164754,-11917.315666,-76.609550
20595.776667,-1258.350101,-9548.656652,-3524.039291
20595.777001,-4219.173869,-10510.924376,-2681.334243
20595.777334,-3627.009116,-9548.656652,-2145.067394
20595.777667,1702.473667,-8882.471304,3600.648841
20595.778000,3775.050304,-6217.729913,7048.078582
20595.778333,2368.659014,-4811.338623,6741.640382
20595.778666,3478.967927,-5921.647536,2757.943793
20595.778999,888.247130,-9400.615463,1378.971896
20595.779333,1036.288319,-10214.842000,0.000000
20595.779666,-3923.091493,-12731.542202,-3370.820191
20595.779999,-8882.471304,-10732.986159,-5822.325785
20595.780332,-5995.668130,-12435.459826,-4979.620737
20595.780665,-5181.441594,-9548.656652,-3370.820191
20595.780998,-2072.576638,-8438.347739,2374.896044
20595.781332,-74.020594,-7994.224174,3600.648841
20595.781665,0.000000,-4811.338623,3983.696590
20595.781998,2146.597232,-5921.647536,3830.477490
20595.782331,2072.576638,-7179.997637,3830.477490
20595.782664,740.205942,-8364.327145,2145.067394
20595.782997,-814.226536,-10288.862594,1455.581446
20595.783330,-74.020594,-11843.295072,-2528.115143
20595.783664,0.000000,-10732.986159,0.000000
20595.783997,1628.453072,-11695.253884,-76.609550
20595.784330,-74.020594,-8956.491898,-2068.457845
20595.784663,-1184.329507,-9548.656652,-76.609550
20595.784996,222.061783,-9548.656652,0.000000
20595.785329,1702.473667,-8956.491898,1838.629195
20595.785663,1110.308913,-8290.306550,2221.676944
20595.785996,-74.020594,-9474.636058,1149.143247
20595.786329,3182.885551,-7846.182985,0.000000
20595.786662,6069.688724,-8882.471304,7277.907231
20595.786995,5847.626942,-7105.977043,3294.210641
20595.787328,2368.659014,-6587.832884,1225.752797
20595.787661,1554.432478,-11843.295072,-3140.991542
20595.787995,0.000000,-12213.398043,-3677.258390
20595.788328,0.000000,-11547.212695,-3064.381992
20595.788661,-1702.473667,-11991.336260,-4673.182538
20595.788994,-4737.318029,-9844.739029,-4290.134789
20595.789327,-1776.494261,-9548.656652,0.000000
20595.789660,6661.853478,-9474.636058,6665.030833
20595.789993,5921.647536,-3627.009116,7967.393179
20595.790327,4737.318029,-5403.503377,7354.516781
20595.790660,7031.956449,-7994.224174,3600.648841
20595.790993,2516.700203,-10066.800811,2374.896044
20595.791326,1406.391290,-10066.800811,-383.047749
20595.791659,-4885.359217,-12139.377449,-5592.497135
20595.791992,-6957.935855,-10881.027347,-8580.269578
20595.792326,-5329.482782,-13101.645173,-4519.963438
20595.792659,-1258.350101,-10140.821405,-1455.581446
20595.792992,296.082377,-7328.038826,1455.581446
20595.793325,1036.288319,-8586.388927,3907.087040
20595.793658,3478.967927,-9474.636058,4826.401637
20595.793991,2738.761985,-6661.853478,3753.867940
20595.794324,1184.329507,-7179.997637,2451.505594
20595.794658,-74.020594,-8882.471304,1762.019645
20595.794991,-1480.411884,-9400.615463,0.000000
20595.795324,888.247130,-11547.212695,1149.143247
20595.795657,-962.267725,-9918.759623,0.000000
20595.795990,-2368.659014,-9844.739029,-1072.533697
20595.796323,-2738.761985,-8882.471304,-3447.429741
20595.796657,-2960.823768,-9548.656652,-1685.410096
20595.796990,-1258.350101,-6587.832884,-2451.505594
20595.797323,-1184.329507,-9992.780217,1915.238745
20595.797656,-74.020594,-9474.636058,1762.019645
20595.797989,-74.020594,-8882.471304,2374.896044
20595.798322,2590.720797,-9474.636058,3600.648841
20595.798655,3552.988522,-6291.750507,5056.230287
20595.798989,2146.597232,-6809.894666,2681.334243
20595.799322,1406.391290,-7476.080014,0.000000
20595.799655,-74.020594,-12731.542202,-383.047749
20595.799988,-1184.329507,-11917.315666,0.000000
20595.800321,-1924.535449,-12435.459826,-1915.238745
20595.800654,-3775.050304,-10436.903782,-6128.763984
20595.800988,-4737.318029,-9548.656652,-3064.381992
20595.801321,1702.473667,-7994.224174,919.314598
20595.801654,4737.318029,-6291.750507,4903.011187
20595.801987,5033.400406,-5107.421000,6435.202183
20595.802320,4293.194464,-7031.956449,3140.991542
20595.802653,4367.215058,-7105.977043,2681.334243
20595.802986,2368.659014,-10807.006753,3294.210641
20595.803320,-74.020594,-13027.624579,-1302.362347
20595.803653,-6513.812290,-10732.986159,-4903.011187
20595.803986,-2368.659014,-12731.542202,-3294.210641
20595.804319,-1628.453072,-10214.842000,-919.314598
20595.804652,1998.556043,-7698.141797,-76.609550
20595.804985,0.000000,-8068.244768,0.000000
20595.805318,296.082377,-8290.306550,-229.828649
20595.805652,1184.329507,-8364.327145,1225.752797
20595.805985,5255.462188,-9474.636058,4213.525239
20595.806318,814.226536,-7179.997637,1225.752797
20595.806651,-2368.659014,-8364.327145,2451.505594
20595.806984,2220.617826,-11843.295072,2145.067394
20595.807317,1702.473667,-8438.347739,1225.752797
20595.807651,1702.473667,-10066.800811,536.266849
20595.807984,-444.123565,-8660.409521,-1685.410096
20595.808317,-1924.535449,-10881.027347,-2145.067394
20595.808650,-2220.617826,-9548.656652,-1685.410096
20595.808983,-2886.803174,-9474.636058,-2145.067394
20595.809316,-4071.132681,-9622.677246,-2757.943793
20595.809649,-3034.844362,-9474.636058,536.266849
20595.809983,2294.638420,-8882.471304,4826.401637
20595.810316,3701.029710,-4811.338623,5515.887586
20595.810649,6439.791695,-7105.977043,7277.907231
20595.810982,2294.638420,-6365.771101,306.438199
20595.811315,0.000000,-9548.656652,612.876398
20595.811648,-74.020594,-12213.398043,-383.047749
20595.811982,-3701.029710,-11399.171507,-3524.039291
20595.812315,-6513.812290,-10732.986159,-5822.325785
20595.812648,-4589.276840,-11547.212695,-4826.401637
20595.812981,-2220.617826,-8438.347739,-2221.676944
20595.813314,1110.308913,-4811.338623,1225.752797
20595.813647,5995.668130,-6513.812290,7277.907231
20595.813980,5255.462188,-7105.977043,4826.401637
20595.814314,2960.823768,-7179.997637,3677.258390
20595.814647,3775.050304,-10658.965565,2987.772442
20595.814980,1184.329507,-9548.656652,612.876398
20595.815313,-1554.432478,-11695.253884,-2681.334243
20595.815646,-2738.761985,-11695.253884,-3983.696590
20595.815979,-1776.494261,-11325.150913,-2145.067394
20595.816312,-962.267725,-8364.327145,0.000000
20595.816646,1702.473667,-9474.636058,-76.609550
20595.816979,-1850.514855,-9178.553681,-2145.067394
20595.817312,0.000000,-5403.503377,0.000000
20595.817645,1184.329507,-7179.997637,1838.629195
20595.817978,3627.009116,-7031.956449,3140.991542
20595.818311,888.247130,-7476.080014,153.219100
20595.818645,518.144159,-11621.233289,383.047749
20595.818978,4663.297435,-10658.965565,4213.525239
20595.819311,1776.494261,-9548.656652,4290.134789
20595.819644,2294.638420,-9474.636058,-76.609550
20595.819977,-2294.638420,-8660.409521,-4290.134789
20595.820310,-1036.288319,-11473.192101,-2145.067394
20595.820643,1702.473667,-9474.636058,-76.609550
20595.820977,-3849.070898,-9696.697840,-2068.457845
20595.821310,-4959.379811,-9400.615463,-2834.553343
20595.821643,-3849.070898,-9474.636058,-153.219100
20595.821976,1480.411884,-4811.338623,2757.943793
20595.822309,8068.244768,-7105.977043,7277.907231
20595.822642,2960.823768,-6587.832884,4903.011187
20595.822976,2368.659014,-9548.656652,5286.058936
20595.823309,814.226536,-8956.491898,-1838.629195
20595.823642,518.144159,-11769.274478,-1302.362347
20595.823975,-3330.926739,-12139.377449,-4443.353888
20595.824308,-6513.812290,-11917.315666,-5515.887586
20595.824641,-3627.009116,-11843.295072,-2834.553343
20595.824974,-2368.659014,-6587.832884,306.438199
20595.825308,2294.638420,-7105.977043,2987.772442
20595.825641,1406.391290,-5921.647536,4519.963438
20595.825974,2146.597232,-5773.606348,3677.258390
20595.826307,2812.782580,-7105.977043,3600.648841
20595.826640,1406.391290,-7698.141797,1378.971896
20595.826973,444.123565,-9474.636058,1149.143247
20595.827307,-2442.679609,-10288.862594,-4903.011187
20595.827640,0.000000,-13027.624579,-842.705048
20595.827973,0.000000,-11251.130318,-612.876398
20595.828306,-74.020594,-8068.244768,-3294.210641
20595.828639,-666.185348,-8882.471304,-3140.991542
20595.828972,-1554.432478,-10881.027347,-2068.457845
20595.829305,1184.329507,-9252.574275,1762.019645
20595.829639,740.205942,-7179.997637,3064.381992
20595.829972,4071.132681,-8290.306550,2987.772442
20595.830305,0.000000,-6365.771101,536.266849
20595.830638,1184.329507,-8956.491898,5439.278036
20595.830971,5255.462188,-7698.141797,3600.648841
20595.831304,2960.823768,-6291.750507,3217.601092
20595.831637,3478.967927,-9178.553681,-229.828649
20595.831971,296.082377,-11399.171507,-2987.772442
20595.832304,-518.144159,-12139.377449,-3600.648841
20595.832637,-2368.659014,-12805.562797,-3600.648841
20595.832970,-2442.679609,-13027.624579,-6205.373534
20595.833303,-5921.647536,-11029.068536,-2451.505594
20595.833636,3552.988522,-10362.883188,6665.030833
20595.833970,5255.462188,-4589.276840,6741.640382
20595.834303,7105.977043,-4367.215058,8963.317327
20595.834636,3552.988522,-7254.018232,4903.011187
20595.834969,4959.379811,-7105.977043,3140.991542
20595.835302,1628.453072,-9992.780217,1532.190996
20595.835635,-370.102971,-11251.130318,-3447.429741
20595.835968,-5921.647536,-9622.677246,-9422.974625
20595.836302,-8882.471304,-14878.139434,-5439.278036
20595.836635,-1036.288319,-11547.212695,-76.609550
20595.836968,-74.020594,-9326.594869,-1072.533697
20595.837301,740.205942,-8290.306550,3907.087040
20595.837634,2220.617826,-6069.688724,4060.306139
20595.837967,3997.112087,-7179.997637,7277.907231
20595.838301,3701.029710,-6291.750507,5975.544884
20595.838634,-1258.350101,-9178.553681,2374.896044
20595.838967,-2442.679609,-8290.306550,-1991.848295
20595.839300,-2960.823768,-11103.089130,-1225.752797
20595.839633,74.020594,-9548.656652,-995.924147
20595.839966,-2368.659014,-7772.162391,-1838.629195
20595.840299,-3552.988522,-9548.656652,-2757.943793
20595.840633,-1258.350101,-10658.965565,-4673.182538
20595.840966,-1998.556043,-9030.512492,-3294.210641
20595.841299,0.000000,-9548.656652,1685.410096
20595.841632,-1184.329507,-7772.162391,1532.190996
20595.841965,74.020594,-7994.224174,2528.115143
20595.842298,1776.494261,-7698.141797,4443.353888
20595.842632,3552.988522,-7476.080014,5669.106685
20595.842965,7031.956449,-7105.977043,6052.154434
20595.843298,1110.308913,-6143.709319,3140.991542
20595.843631,1702.473667,-8512.368333,-3677.258390
20595.843964,-2220.617826,-11177.109724,-2221.676944
20595.844297,-1554.432478,-14211.954086,-2834.553343
20595.844630,-3627.009116,-11103.089130,-3830.477490
20595.844964,-5921.647536,-13323.706956,-2528.115143
20595.845297,-1776.494261,-9252.574275,153.219100
20595.845630,3478.967927,-6735.874072,3677.258390
20595.845963,4589.276840,-5255.462188,7048.078582
20595.846296,4737.318029,-3627.009116,7890.783629
20595.846629,2368.659014,-5995.668130,0.000000
20595.846962,6069.688724,-10214.842000,4826.401637
20595.847296,1110.308913,-10140.821405,-1455.581446
20595.847629,-1554.432478,-11251.130318,-4060.306139
20595.847962,-3034.844362,-11843.295072,-6358.592633
20595.848295,-814.226536,-13545.768739,-3140.991542
20595.848628,2294.638420,-8586.388927,229.828649
20595.848961,888.247130,-8734.430116,612.876398
20595.849295,-74.020594,-9474.636058,-76.609550
20595.849628,0.000000,-8956.491898,2834.553343
20595.849961,4663.297435,-8882.471304,6052.154434
20595.850294,1110.308913,-6143.709319,1225.752797
20595.850627,-2368.659014,-7772.162391,306.438199
20595.850960,518.144159,-8068.244768,-919.314598
20595.851293,2072.576638,-9770.718434,2451.505594
20595.851627,3849.070898,-8512.368333,1991.848295
20595.851960,-1110.308913,-10955.047942,-2068.457845
20595.852293,-2442.679609,-10732.986159,-6128.763984
20595.852626,-2368.659014,-12361.439231,-76.609550
20595.852959,-74.020594,-9474.636058,-1225.752797
20595.853292,-3552.988522,-8364.327145,2145.067394
20595.853626,-2072.576638,-8660.409521,-153.219100
20595.853959,-740.205942,-7179.997637,2451.505594
20595.854292,2664.741391,-6365.771101,5209.449386
20595.854625,3108.864956,-7624.121203,5132.839837
20595.854958,2886.803174,-5625.565159,3983.696590
20595.855291,2294.638420,-6661.853478,0.000000
20595.855624,2294.638420,-9326.594869,-383.047749
20595.855958,-962.267725,-11103.089130,-2528.115143
20595.856291,-5551.544565,-13027.624579,-5132.839837
20595.856624,-5033.400406,-11991.336260,-4060.306139
20595.856957,-4219.173869,-13027.624579,-4060.306139
20595.857290,0.000000,-5995.668130,0.000000
20595.857623,4737.318029,-8290.306550,6665.030833
20595.857957,4663.297435,-4515.256246,4443.353888
20595.858290,2368.659014,-5403.503377,4903.011187
20595.858623,3256.906145,-8216.285956,2911.162892
20595.858956,3108.864956,-8438.347739,2374.896044
20595.859289,-2220.617826,-10955.047942,-1838.629195
20595.859622,-1850.514855,-11843.295072,-4366.744339
20595.859955,-370.102971,-12731.542202,-4673.182538
20595.860289,1776.494261,-13027.624579,1762.019645
20595.860622,2886.803174,-9474.636058,-76.609550
20595.860955,888.247130,-7476.080014,0.000000
20595.861288,1702.473667,-9474.636058,1455.581446
20595.861621,1184.329507,-9252.574275,2068.457845
20595.861954,1184.329507,-8512.368333,2451.505594
20595.862287,0.000000,-8882.471304,1072.533697
20595.862621,0.000000,-7476.080014,306.438199
20595.862954,2886.803174,-8364.327145,0.000000
20595.863287,4515.256246,-9474.636058,4826.401637
20595.863620,1554.432478,-6587.832884,0.000000
20595.863953,-1850.514855,-9474.636058,-4290.134789
20595.864286,-2368.659014,-11547.212695,-3447.429741
20595.864620,-1184.329507,-10732.986159,-995.924147
20595.864953,-1554.432478,-10362.883188,-2145.067394
20595.865286,-3034.844362,-9696.697840,-2068.457845
20595.865619,-1480.411884,-9622.677246,0.000000
20595.865952,888.247130,-7179.997637,3677.258390
20595.866285,7031.956449,-9474.636058,7277.907231
20595.866618,1480.411884,-5403.503377,3064.381992
20595.866952,4663.297435,-8734.430116,4826.401637
20595.867285,2368.659014,-9400.615463,612.876398
20595.867618,1998.556043,-9696.697840,306.438199
20595.867951,-3034.844362,-12731.542202,-3217.601092
20595.868284,-6439.791695,-11769.274478,-6358.592633
20595.868617,-4811.338623,-12435.459826,-3753.867940
20595.868951,-3256.906145,-11029.068536,1455.581446
20595.869284,1110.308913,-5329.482782,1302.362347
20595.869617,1702.473667,-3034.844362,2451.505594
20595.869950,5107.421000,-6809.894666,4826.401637
20595.870283,3849.070898,-6291.750507,3064.381992
20595.870616,3849.070898,-9326.594869,3294.210641
20595.870949,2368.659014,-9104.533087,1072.533697
20595.871283,-1924.535449,-11695.253884,-2221.676944
20595.871616,-74.020594,-11251.130318,-2528.115143
20595.871949,-1776.494261,-13249.686362,-2221.676944
20595.872282,0.000000,-10140.821405,-2068.457845
20595.872615,0.000000,-7994.224174,0.000000
20595.872948,-74.020594,-8882.471304,-689.485948
20595.873281,2886.803174,-8290.306550,1762.019645
20595.873614,0.000000,-8364.327145,1225.752797
20595.873947,148.041188,-8216.285956,3447.429741
20595.874280,-1258.350101,-7328.038826,0.000000
20595.874613,2294.638420,-9474.636058,2987.772442
20595.874946,4145.153275,-9178.553681,5745.716235
20595.875279,2368.659014,-7772.162391,2757.943793
20595.875612,1998.556043,-8290.306550,-995.924147
20595.875945,-2368.659014,-11843.295072,-3907.087040
20595.876278,518.144159,-11251.130318,-3753.867940
20595.876611,-3108.864956,-10140.821405,-3677.258390
20595.876944,-370.102971,-11843.295072,-1608.800546
20595.877277,-2442.679609,-10658.965565,-4519.963438
20595.877611,-1480.411884,-9844.739029,1532.190996
20595.877944,4663.297435,-7698.141797,5439.278036
20595.878277,5329.482782,-5921.647536,8197.221829
20595.878610,4959.379811,-5847.626942,5669.106685
20595.878943,3849.070898,-8216.285956,4826.401637
20595.879276,2368.659014,-7179.997637,306.438199
20595.879609,-3552.988522,-9548.656652,306.438199
20595.879942,-3923.091493,-12435.459826,-6511.811733
20595.880275,-8882.471304,-11917.315666,-8886.707777
20595.880608,-7105.977043,-11917.315666,-4213.525239
20595.880941,-1850.514855,-7328.038826,-2374.896044
20595.881274,-148.041188,-7254.018232,1838.629195
20595.881607,1480.411884,-5329.482782,3447.429741
20595.881940,2812.782580,-7105.977043,5439.278036
20595.882273,5033.400406,-7254.018232,6741.640382
20595.882606,3478.967927,-10066.800811,4826.401637
20595.882939,-74.020594,-8882.471304,-2068.457845
20595.883272,0.000000,-10732.986159,-76.609550
20595.883605,2886.803174,-12435.459826,-76.609550
20595.883938,1110.308913,-8364.327145,-1838.629195
20595.884271,1036.288319,-10214.842000,-1302.362347
20595.884605,-2146.597232,-10362.883188,-2987.772442
20595.884938,-1554.432478,-10140.821405,-2528.115143
20595.885271,-740.205942,-10658.965565,-612.876398
20595.885604,-2368.659014,-10066.800811,842.705048
20595.885937,-1258.350101,-8290.306550,-76.609550
20595.886270,0.000000,-5995.668130,3677.258390
20595.886603,5847.626942,-7698.141797,7277.907231
20595.886936,6439.791695,-5551.544565,4290.134789
20595.887269,4293.194464,-7179.997637,1991.848295
20595.887602,1850.514855,-11251.130318,-1915.238745
20595.887935,518.144159,-12583.501014,-2834.553343
20595.888268,-74.020594,-13101.645173,-2145.067394
20595.888601,-3108.864956,-11917.315666,-3294.210641
20595.888934,-3552.988522,-10362.883188,-4596.572988
20595.889267,-3701.029710,-12657.521608,-1762.019645
20595.889600,2516.700203,-6587.832884,2451.505594
20595.889933,3849.070898,-5255.462188,7507.735880
20595.890266,1776.494261,-2442.679609,6741.640382
20595.890599,4515.256246,-7698.141797,4673.182538
20595.890932,1850.514855,-7105.977043,1455.581446
20595.891265,518.144159,-9030.512492,229.828649
20595.891599,-1258.350101,-11547.212695,-3140.991542
20595.891932,-4959.379811,-13915.871710,-6358.592633
20595.892265,-2664.741391,-12139.377449,-4060.306139
20595.892598,-592.164754,-10732.986159,0.000000
20595.892931,4071.132681,-9178.553681,2987.772442
20595.893264,666.185348,-8734.430116,3064.381992
20595.893597,1628.453072,-9178.553681,-689.485948
20595.893930,1480.411884,-6883.915261,2451.505594
20595.894263,1776.494261,-4811.338623,3064.381992
20595.894596,2294.638420,-7328.038826,612.876398
20595.894929,-814.226536,-9696.697840,-76.609550
20595.895262,1110.308913,-9104.533087,0.000000
20595.895595,3775.050304,-9178.553681,2987.772442
20595.895928,2294.638420,-8956.491898,0.000000
20595.896261,592.164754,-11547.212695,-76.609550
20595.896594,-296.082377,-12583.501014,-76.609550
20595.896927,-74.020594,-9548.656652,-3677.258390
20595.897260,-1184.329507,-9992.780217,-76.609550
20595.897593,-3108.864956,-9696.697840,-1608.800546
20595.897926,-1776.494261,-8586.388927,536.266849
20595.898260,740.205942,-7254.018232,4136.915689
20595.898593,4663.297435,-6661.853478,4826.401637
20595.898926,2664.741391,-5403.503377,4903.011187
20595.899259,3478.967927,-9474.636058,-76.609550
20595.899592,592.164754,-8956.491898,0.000000
20595.899925,0.000000,-12509.480420,-76.609550
20595.900258,-74.020594,-11843.295072,-3294.210641
20595.900591,-6809.894666,-10732.986159,-4903.011187
20595.900924,-3552.988522,-11473.192101,-4443.353888
20595.901257,-888.247130,-9844.739029,1532.190996
20595.901590,1850.514855,-7402.059420,3600.648841
20595.901923,1998.556043,-4811.338623,4290.134789
20595.902256,1702.473667,-7105.977043,4136.915689
20595.902589,3478.967927,-7254.018232,2911.162892
20595.902922,2368.659014,-8956.491898,3447.429741
20595.903255,2294.638420,-9474.636058,842.705048
20595.903588,-4737.318029,-10732.986159,-1838.629195
20595.903921,-2442.679609,-13027.624579,-2528.115143
20595.904254,-2738.761985,-8364.327145,-3677.258390
20595.904587,-888.247130,-9844.739029,1149.143247
20595.904920,1036.288319,-8142.265362,842.705048
20595.905254,-4145.153275,-7179.997637,-1225.752797
20595.905587,0.000000,-8808.450710,0.000000
20595.905920,3108.864956,-7105.977043,2987.772442
20595.906253,1850.514855,-5995.668130,2451.505594
20595.906586,-2960.823768,-8364.327145,612.876398
20595.906919,3478.967927,-9474.636058,-76.609550
20595.907252,1184.329507,-7179.997637,0.000000
20595.907585,5329.482782,-8882.471304,4826.401637
20595.907918,2294.638420,-8882.471304,-995.924147
20595.908251,-518.144159,-11843.295072,-3294.210641
20595.908584,-1776.494261,-11547.212695,-3370.820191
20595.908917,-3034.844362,-10658.965565,-3907.087040
20595.909250,-3404.947333,-10881.027347,-3294.210641
20595.909583,-5773.606348,-8660.409521,-1225.752797
20595.909916,2886.803174,-7105.977043,1149.143247
20595.910249,3552.988522,-5995.668130,9499.584175
20595.910582,8216.285956,-6365.771101,8503.660028
20595.910915,2368.659014,-5995.668130,2451.505594
20595.911248,814.226536,-9474.636058,-536.266849
20595.911581,1110.308913,-10214.842000,-1302.362347
20595.911914,-1258.350101,-12361.439231,-3447.429741
20595.912248,-2146.597232,-10288.862594,-4979.620737
20595.912581,-5329.482782,-12213.398043,-4060.306139
20595.912914,-74.020594,-11843.295072,-1915.238745
20595.913247,814.226536,-8364.327145,1838.629195
20595.913580,2072.576638,-8290.306550,4903.011187
20595.913913,4071.132681,-7105.977043,3600.648841
20595.914246,2590.720797,-6957.935855,3677.258390
20595.914579,4663.297435,-7624.121203,4290.134789
20595.914912,1998.556043,-8586.388927,3294.210641
20595.915245,-3256.906145,-7179.997637,-1838.629195
20595.915578,-1850.514855,-13027.624579,-2528.115143
20595.915911,-3552.988522,-10140.821405,-1225.752797
20595.916244,-3552.988522,-7476.080014,-1838.629195
20595.916577,-666.185348,-9474.636058,-995.924147
20595.916910,-1258.350101,-9474.636058,-1915.238745
20595.917243,-888.247130,-8512.368333,-153.219100
20595.917576,1332.370696,-7994.224174,1225.752797
20595.917909,1406.391290,-8734.430116,2604.724693
20595.918242,0.000000,-5995.668130,612.876398
20595.918575,-74.020594,-10658.965565,536.266849
20595.918909,3330.926739,-10214.842000,4366.744339
20595.919242,4811.338623,-7402.059420,4979.620737
20595.919575,3552.988522,-7624.121203,3064.381992
20595.919908,740.205942,-7328.038826,-2221.676944
20595.920241,-814.226536,-13027.624579,-1302.362347
20595.920574,-1554.432478,-10658.965565,-4903.011187
20595.920907,-5329.482782,-10732.986159,-2911.162892
20595.921240,-5921.647536,-10658.965565,-2987.772442
20595.921573,-4811.338623,-8734.430116,-2451.505594
20595.921906,1776.494261,-6069.688724,3370.820191
20595.922239,4663.297435,-5403.503377,7431.126331
20595.922572,4811.338623,-3478.967927,4903.011187
20595.922905,1776.494261,-8956.491898,2451.505594
20595.923238,5551.544565,-9474.636058,-76.609550
20595.923571,592.164754,-11325.150913,0.000000
20595.923904,-1480.411884,-14211.954086,-2528.115143
20595.924237,-5403.503377,-11547.212695,-7431.126331
20595.924570,-5921.647536,-12509.480420,-3370.820191
20595.924903,370.102971,-9030.512492,612.876398
20595.925236,1998.556043,-7105.977043,3140.991542
20595.925569,444.123565,-6217.729913,2604.724693
20595.925903,2072.576638,-7698.141797,4519.963438
20595.926236,4071.132681,-9178.553681,2987.772442
20595.926569,1184.329507,-5403.503377,4290.134789
20595.926902,-74.020594,-13027.624579,-76.609550
20595.927235,-2220.617826,-8068.244768,-3064.381992
20595.927568,-592.164754,-13101.645173,1915.238745
20595.927901,2220.617826,-9548.656652,383.047749
20595.928234,1480.411884,-8586.388927,153.219100
20595.928567,-1184.329507,-9696.697840,-1302.362347
20595.928900,518.144159,-9326.594869,-1915.238745
20595.929233,0.000000,-8364.327145,-3677.258390
20595.929566,3330.926739,-10658.965565,-76.609550
20595.929899,-1036.288319,-6587.832884,306.438199
20595.930232,0.000000,-6587.832884,3677.258390
20595.930565,4663.297435,-9474.636058,2374.896044
20595.930898,5699.585753,-8068.244768,5209.449386
20595.931231,6365.771101,-7179.997637,3983.696590
20595.931564,4811.338623,-7920.203579,1378.971896
20595.931897,4811.338623,-9844.739029,-995.924147
20595.932230,2590.720797,-11251.130318,-1608.800546
20595.932564,-592.164754,-13175.665768,-3370.820191
20595.932897,-1776.494261,-10436.903782,-4366.744339
20595.933230,-3701.029710,-13175.665768,-3983.696590
20595.933563,2294.638420,-11843.295072,-76.609550
20595.933896,1332.370696,-5403.503377,4903.011187
20595.934229,4441.235652,-6513.812290,9116.536426
20595.934562,5255.462188,-3552.988522,4213.525239
20595.934895,1776.494261,-8660.409521,3677.258390
20595.935228,3552.988522,-7920.203579,4366.744339
20595.935561,-2220.617826,-11251.130318,-536.266849
20595.935894,-3552.988522,-10510.924376,-4979.620737
20595.936227,-6291.750507,-12435.459826,-6511.811733
20595.936560,-4737.318029,-11917.315666,-2145.067394
20595.936893,-3256.906145,-7772.162391,0.000000
20595.937226,-2368.659014,-9400.615463,2374.896044
20595.937559,-666.185348,-9474.636058,1149.143247
20595.937892,-74.020594,-7698.141797,4136.915689
20595.938225,2886.803174,-7105.977043,5132.839837
20595.938558,-518.144159,-7105.977043,3677.258390
20595.938891,-2368.659014,-8734.430116,536.266849
20595.939224,-2812.782580,-10658.965565,842.705048
20595.939558,-74.020594,-10658.965565,3600.648841
20595.939891,0.000000,-8364.327145,0.000000
20595.940224,-3552.988522,-11251.130318,-1608.800546
20595.940557,-4811.338623,-9548.656652,-6128.763984
20595.940890,-5773.606348,-9844.739029,-3064.381992
20595.941223,-2442.679609,-9474.636058,-2068.457845
20595.941556,-2590.720797,-8586.388927,-689.485948
20595.941889,-4071.132681,-8882.471304,689.485948
20595.942222,814.226536,-7105.977043,3294.210641
20595.942555,3182.885551,-6809.894666,5439.278036
20595.942888,4145.153275,-7328.038826,7277.907231
20595.943221,5255.462188,-7105.977043,3600.648841
20595.943554,888.247130,-7772.162391,612.876398
20595.943887,5329.482782,-11473.192101,-76.609550
20595.944220,-3923.091493,-11917.315666,-4903.011187
20595.944553,-3478.967927,-12657.521608,-6588.421283
20595.944886,-4293.194464,-11769.274478,-5822.325785
20595.945219,-666.185348,-11843.295072,-1838.629195
20595.945552,2368.659014,-5995.668130,1225.752797
20595.945885,7031.956449,-9474.636058,6665.030833
20595.946218,6439.791695,-4145.153275,3983.696590
20595.946552,1184.329507,-5995.668130,4903.011187
20595.946885,7105.977043,-10510.924376,4826.401637
20595.947218,3552.988522,-8068.244768,1378.971896
20595.947551,592.164754,-10214.842000,-1685.410096
20595.947884,-444.123565,-10955.047942,-4060.306139
20595.948217,-444.123565,-12139.377449,-2911.162892
20595.948550,2072.576638,-8660.409521,-1838.629195
20595.948883,2886.803174,-9252.574275,459.657299
20595.949216,1850.514855,-8438.347739,-1302.362347
20595.949549,1406.391290,-9918.759623,-76.609550
20595.949882,3478.967927,-10362.883188,3600.648841
20595.950215,3478.967927,-6883.915261,2451.505594
20595.950548,74.020594,-8068.244768,3677.258390
20595.950881,-74.020594,-11251.130318,-76.609550
20595.951214,0.000000,-7772.162391,1838.629195
20595.951547,1184.329507,-8660.409521,5439.278036
20595.951880,1554.432478,-6809.894666,1225.752797
20595.952213,-3330.926739,-10140.821405,-1991.848295
20595.952546,-3478.967927,-9844.739029,-2604.724693
20595.952879,-2812.782580,-10066.800811,-3140.991542
20595.953213,-3627.009116,-8512.368333,-3677.258390
20595.953546,-4737.318029,-10658.965565,-1608.800546
20595.953879,-3034.844362,-13619.789333,-76.609550
20595.954212,1110.308913,-7846.182985,2834.553343
20595.954545,1998.556043,-8290.306550,6665.030833
20595.954878,2960.823768,-6513.812290,6205.373534
20595.955211,2294.638420,-5921.647536,4290.134789
20595.955544,-296.082377,-9326.594869,1685.410096
20595.955877,-1480.411884,-8956.491898,0.000000
20595.956210,-7105.977043,-10881.027347,-4290.134789
20595.956543,-5403.503377,-11843.295072,-7431.126331
20595.956876,-7031.956449,-10140.821405,-5822.325785
20595.957209,-4367.215058,-9548.656652,-1225.752797
20595.957542,-1184.329507,-6587.832884,919.314598
20595.957875,222.061783,-7031.956449,1838.629195
20595.958208,2368.659014,-7254.018232,3217.601092
20595.958541,2072.576638,-8364.327145,3677.258390
20595.958874,4071.132681,-9474.636058,4519.963438
20595.959207,0.000000,-8364.327145,2757.943793
20595.959540,-666.185348,-9474.636058,-2528.115143
20595.959873,0.000000,-10140.821405,0.000000
20595.960207,2886.803174,-10362.883188,2374.896044
20595.960540,3478.967927,-9474.636058,1378.971896
20595.960873,962.267725,-8290.306550,-1685.410096
20595.961206,296.082377,-8956.491898,-2834.553343
20595.961539,0.000000,-11695.253884,-689.485948
20595.961872,2146.597232,-7179.997637,383.047749
20595.962205,1406.391290,-11843.295072,1762.019645
20595.962538,1850.514855,-5403.503377,306.438199
20595.962871,4737.318029,-10436.903782,7890.783629
20595.963204,8808.450710,-6513.812290,4060.306139
20595.963537,8512.368333,-5699.585753,6894.859482
20595.963870,4663.297435,-8586.388927,153.219100
20595.964203,2368.659014,-10732.986159,-3217.601092
20595.964536,0.000000,-11917.315666,-4366.744339
20595.964869,0.000000,-9622.677246,-4136.915689
20595.965202,-1258.350101,-11251.130318,-3907.087040
20595.965535,-2368.659014,-10955.047942,-3907.087040
20595.965868,-74.020594,-10436.903782,0.000000
20595.966201,5699.585753,-6587.832884,5975.544884
20595.966534,7031.956449,-5329.482782,7277.907231
20595.966867,6217.729913,-7105.977043,7277.907231
20595.967201,8216.285956,-9178.553681,3600.648841
20595.967534,2368.659014,-8364.327145,2604.724693
20595.967867,2960.823768,-10140.821405,0.000000
20595.968200,-2738.761985,-11843.295072,-6052.154434
20595.968533,-4959.379811,-13693.809927,-7431.126331
20595.968866,-4071.132681,-12509.480420,-4443.353888
20595.969199,-1850.514855,-10140.821405,-1991.848295
20595.969532,-2368.659014,-7772.162391,0.000000
20595.969865,1702.473667,-8290.306550,2374.896044
20595.970198,222.061783,-7105.977043,3600.648841
20595.970531,0.000000,-5995.668130,7354.516781
20595.970864,1702.473667,-9474.636058,4519.963438
20595.971197,-3552.988522,-6883.915261,1378.971896
20595.971530,-4071.132681,-9104.533087,-1838.629195
20595.971863,-814.226536,-10140.821405,459.657299
20595.972197,-3849.070898,-10436.903782,0.000000
20595.972530,-3552.988522,-9252.574275,-1225.752797
20595.972863,-3034.844362,-11843.295072,-3753.867940
20595.973196,-5921.647536,-9548.656652,-2451.505594
20595.973529,-5921.647536,-8364.327145,612.876398
20595.973862,-3330.926739,-11251.130318,842.705048
20595.974196,-2368.659014,-7476.080014,3600.648841
20595.974529,-1406.391290,-7550.100608,4290.134789
20595.974862,3478.967927,-7550.100608,6511.811733
20595.975195,2664.741391,-5699.585753,7277.907231
20595.975528,2294.638420,-7105.977043,1762.019645
20595.975861,-1924.535449,-7179.997637,-2451.505594
20595.976195,-4737.318029,-10732.986159,-3064.381992
20595.976528,-74.020594,-12435.459826,-4060.306139
20595.976861,-2886.803174,-9770.718434,-5362.668486
20595.977194,-4441.235652,-13545.768739,-3140.991542
20595.977527,-3034.844362,-11843.295072,-2221.676944
20595.977860,2294.638420,-9474.636058,3217.601092
20595.978194,6513.812290,-4959.379811,7890.783629
20595.978527,7920.203579,-4441.235652,9422.974625
20595.978860,5255.462188,-6291.750507,4443.353888
20595.979193,6513.812290,-7550.100608,3064.381992
20595.979526,2590.720797,-11399.171507,612.876398
20595.979859,0.000000,-9548.656652,-3677.258390
20595.980193,-4145.153275,-10881.027347,-5132.839837
20595.980526,-74.020594,-13027.624579,-5898.935335
20595.980859,1776.494261,-7772.162391,-3677.258390
20595.981192,3701.029710,-9992.780217,2374.896044
20595.981525,2368.659014,-6587.832884,-995.924147
20595.981858,888.247130,-10214.842000,766.095498
20595.982192,4737.318029,-8142.265362,2451.505594
20595.982525,3552.988522,-7846.182985,4060.306139
20595.982858,3182.885551,-9178.553681,2374.896044
20595.983191,2442.679609,-7179.997637,1532.190996
20595.983524,5551.544565,-11251.130318,2068.457845
20595.983857,3552.988522,-7476.080014,3753.867940
20595.984191,1776.494261,-11103.089130,2374.896044
20595.984524,-592.164754,-9992.780217,-2987.772442
20595.984857,-1332.370696,-12287.418637,-3447.429741
20595.985190,-1776.494261,-10732.986159,-1838.629195
20595.985523,-2664.741391,-9400.615463,-995.924147
20595.985856,-4737.318029,-10066.800811,-1302.362347
20595.986190,-4737.318029,-8068.244768,2298.286494
20595.986523,-2368.659014,-5995.668130,2528.115143
20595.986856,1184.329507,-5551.544565,7507.735880
20595.987189,2294.638420,-5551.544565,4060.306139
20595.987522,-1258.350101,-7105.977043,1149.143247
20595.987855,518.144159,-8882.471304,-76.609550
20595.988189,-4071.132681,-11177.109724,-2145.067394
20595.988522,-3997.112087,-11325.150913,-3140.991542
20595.988855,-7994.224174,-11769.274478,-5822.325785
20595.989188,-4811.338623,-14211.954086,-3753.867940
20595.989521,-5773.606348,-9548.656652,153.219100
20595.989855,0.000000,-7179.997637,4903.011187
20595.990188,4663.297435,-5625.565159,6052.154434
20595.990521,888.247130,-3627.009116,3677.258390
20595.990854,2294.638420,-7179.997637,3447.429741
20595.991187,1110.308913,-8364.327145,2681.334243
20595.991520,-1998.556043,-10658.965565,-842.705048
20595.991854,-5033.400406,-10362.883188,-3753.867940
20595.992187,-3775.050304,-10362.883188,-6358.592633
20595.992520,0.000000,-10140.821405,842.705048
20595.992853,1036.288319,-9178.553681,-76.609550
20595.993186,1110.308913,-6365.771101,-2757.943793
20595.993519,-3552.988522,-9548.656652,-1225.752797
20595.993853,1998.556043,-9548.656652,0.000000
20595.994186,2442.679609,-10288.862594,4213.525239
20595.994519,740.205942,-7476.080014,3294.210641
20595.994852,-740.205942,-7254.018232,0.000000
20595.995185,2886.803174,-8882.471304,1532.190996
20595.995518,6217.729913,-8142.265362,5822.325785
20595.995852,5255.462188,-7105.977043,4060.306139
20595.996185,888.247130,-8660.409521,-1685.410096
20595.996518,-1184.329507,-10732.986159,-2911.162892
20595.996851,-666.185348,-12583.501014,-4290.134789
20595.997184,0.000000,-7179.997637,-5898.935335
20595.997517,-3552.988522,-11621.233289,-2528.115143
20595.997851,1702.473667,-9474.636058,-3447.429741
20595.998184,2368.659014,-7772.162391,3983.696590
20595.998517,8660.409521,-7105.977043,6971.469032
20595.998850,9474.636058,-6587.832884,7890.783629
20595.999183,5921.647536,-7476.080014,3983.696590
20595.999516,7031.956449,-10658.965565,1608.800546
20595.999850,5847.626942,-10362.883188,-689.485948
20596.000183,296.082377,-12287.418637,-1302.362347
20596.000516,-2442.679609,-11843.295072,-6818.249932
20596.000849,-4959.379811,-12065.356855,-7660.954980
20596.001182,-1036.288319,-13397.727550,-76.609550
20596.001515,0.000000,-7846.182985,1838.629195
20596.001849,2516.700203,-7550.100608,3677.258390
20596.002182,5181.441594,-3627.009116,5822.325785
20596.002515,3997.112087,-5995.668130,4290.134789
20596.002848,6735.874072,-4811.338623,612.876398
20596.003181,2960.823768,-10881.027347,4826.401637
20596.003514,-1258.350101,-10658.965565,-3983.696590
20596.003848,-2146.597232,-11399.171507,-5822.325785
20596.004181,-3404.947333,-13027.624579,-3140.991542
20596.004514,148.041188,-10955.047942,-1838.629195
20596.004847,-1036.288319,-9474.636058,-612.876398
20596.005180,-1702.473667,-8882.471304,-1455.581446
20596.005513,-3552.988522,-9104.533087,612.876398
20596.005847,-1480.411884,-7476.080014,2451.505594
20596.006180,-74.020594,-9474.636058,5439.278036
20596.006513,-1850.514855,-5551.544565,612.876398
20596.006846,-2664.741391,-9326.594869,612.876398
20596.007179,0.000000,-9548.656652,2451.505594
20596.007512,-666.185348,-9178.553681,2987.772442
20596.007846,-2146.597232,-7105.977043,-459.657299
20596.008179,-5403.503377,-11695.253884,-3753.867940
20596.008512,-3627.009116,-11843.295072,-3753.867940
20596.008845,-4737.318029,-11917.315666,-689.485948
20596.009178,-4959.379811,-9326.594869,-4290.134789
20596.009511,-7105.977043,-7772.162391,-2451.505594
20596.009845,-1924.535449,-10658.965565,1762.019645
20596.010178,2664.741391,-6587.832884,3983.696590
20596.010511,3404.947333,-5921.647536,6741.640382
20596.010844,1776.494261,-6365.771101,2451.505594
20596.011177,1702.473667,-8438.347739,1838.629195
20596.011510,2294.638420,-10658.965565,1762.019645
20596.011844,2664.741391,-9844.739029,995.924147
20596.012177,-2664.741391,-10732.986159,-3217.601092
20596.012510,-4589.276840,-11991.336260,-6741.640382
20596.012843,-3034.844362,-12805.562797,-3753.867940
20596.013176,2294.638420,-11251.130318,-76.609550
20596.013509,1776.494261,-7179.997637,2451.505594
20596.013843,4293.194464,-7105.977043,4213.525239
20596.014176,3034.844362,-5403.503377,2451.505594
20596.014509,2960.823768,-5403.503377,3677.258390
20596.014842,4663.297435,-10658.965565,2374.896044
20596.015175,2368.659014,-9326.594869,306.438199
20596.015508,-888.247130,-11325.150913,-2834.553343
20596.015842,2220.617826,-11621.233289,-1072.533697
20596.016175,3775.050304,-8882.471304,-76.609550
20596.016508,2960.823768,-10214.842000,2374.896044
20596.016841,4737.318029,-8808.450710,1455.581446
20596.017174,3478.967927,-9474.636058,-1455.581446
20596.017507,2960.823768,-9992.780217,2604.724693
20596.017841,1110.308913,-9030.512492,-842.705048
20596.018174,-370.102971,-8512.368333,-995.924147
20596.018507,-222.061783,-8586.388927,-612.876398
20596.018840,3256.906145,-9770.718434,2451.505594
20596.019173,4737.318029,-5995.668130,4903.011187
20596.019506,5033.400406,-10658.965565,6052.154434
20596.019840,888.247130,-5995.668130,0.000000
20596.020173,0.000000,-9548.656652,0.000000
20596.020506,2146.597232,-13027.624579,-1302.362347
20596.020839,-3849.070898,-9548.656652,-2757.943793
20596.021172,-5699.585753,-11399.171507,-5592.497135
20596.021505,-6069.688724,-11325.150913,-4290.134789
20596.021839,-1628.453072,-9918.759623,2221.676944
20596.022172,3256.906145,-6513.812290,7277.907231
20596.022505,3478.967927,-7105.977043,4826.401637
20596.022838,-814.226536,-5995.668130,0.000000
20596.023171,1924.535449,-9178.553681,4749.792088
20596.023504,-74.020594,-9474.636058,-76.609550
20596.023838,-2368.659014,-8660.409521,612.876398
20596.024171,-6735.874072,-11029.068536,-5669.106685
20596.024504,-6513.812290,-13101.645173,-5592.497135
20596.024837,-3701.029710,-11251.130318,-995.924147
20596.025170,-1776.494261,-9474.636058,1532.190996
20596.025503,-1258.350101,-6735.874072,919.314598
20596.025837,-1554.432478,-6883.915261,1532.190996
20596.026170,740.205942,-7402.059420,3064.381992
20596.026503,-814.226536,-5255.462188,1915.238745
20596.026836,-2516.700203,-8068.244768,0.000000
20596.027169,-2960.823768,-10436.903782,-76.609550
20596.027502,-666.185348,-11843.295072,-76.609550
20596.027836,0.000000,-7179.997637,3064.381992
20596.028169,1110.308913,-10066.800811,1455.581446
20596.028502,-1184.329507,-8882.471304,-1915.238745
20596.028835,-2590.720797,-11029.068536,-2911.162892
20596.029168,-1628.453072,-11029.068536,-2604.724693
20596.029501,-2368.659014,-8956.491898,-1072.533697
20596.029835,-2442.679609,-7846.182985,-4290.134789
20596.030168,1110.308913,-9474.636058,-76.609550
20596.030501,2886.803174,-7179.997637,3830.477490
20596.030834,6513.812290,-5995.668130,6128.763984
20596.031167,7105.977043,-6587.832884,5515.887586
20596.031500,5107.421000,-9252.574275,3217.601092
20596.031834,4293.194464,-9548.656652,153.219100
20596.032167,814.226536,-12361.439231,-3600.648841
20596.032500,-74.020594,-12435.459826,-5286.058936
20596.032833,-5329.482782,-11325.150913,-7354.516781
20596.033166,-1258.350101,-11843.295072,-6205.373534
20596.033499,444.123565,-7772.162391,-1838.629195
20596.033833,5625.565159,-9104.533087,4903.011187
20596.034166,10584.944971,-5625.565159,8503.660028
20596.034499,6365.771101,-5699.585753,6588.421283
20596.034832,6735.874072,-6513.812290,2911.162892
20596.035165,5699.585753,-9548.656652,2451.505594
20596.035498,5033.400406,-9326.594869,1072.533697
20596.035832,592.164754,-11325.150913,-76.609550
20596.036165,-2294.638420,-10732.986159,-7354.516781
20596.036498,-2368.659014,-12509.480420,-4290.134789
20596.036831,3478.967927,-13027.624579,-76.609550
20596.037164,2294.638420,-8512.368333,0.000000
20596.037497,1110.308913,-8290.306550,995.924147
20596.037831,2960.823768,-8068.244768,2374.896044
20596.038164,4145.153275,-6439.791695,4903.011187
20596.038497,3404.947333,-7031.956449,5209.449386
20596.038830,1110.308913,-9474.636058,-76.609550
20596.039163,-4737.318029,-10140.821405,0.000000
20596.039496,962.267725,-11251.130318,-76.609550
20596.039830,2294.638420,-8882.471304,536.266849
20596.040163,-3478.967927,-7624.121203,-2911.162892
20596.040496,-1850.514855,-10658.965565,-3753.867940
20596.040829,-4145.153275,-12879.583391,-1608.800546
20596.041162,-2294.638420,-9992.780217,-842.705048
20596.041495,-5551.544565,-9474.636058,-842.705048
20596.041829,-5403.503377,-9474.636058,-1608.800546
20596.042162,-5329.482782,-9030.512492,995.924147
20596.042495,-1258.350101,-7846.182985,5286.058936
20596.042828,1480.411884,-5255.462188,6665.030833
20596.043161,0.000000,-4811.338623,4903.011187
20596.043494,-74.020594,-8290.306550,2068.457845
20596.043828,-3627.009116,-8586.388927,-2221.676944
20596.044161,-6513.812290,-11473.192101,-2298.286494
20596.044494,-7179.997637,-11843.295072,-6205.373534
20596.044827,-8660.409521,-11621.233289,-8580.269578
20596.045160,-4885.359217,-11251.130318,-3447.429741
20596.045493,-3849.070898,-10362.883188,1455.581446
20596.045827,962.267725,-5995.668130,3753.867940
20596.046160,2368.659014,-7105.977043,6665.030833
20596.046493,4515.256246,-8290.306550,4826.401637
20596.046826,2368.659014,-6587.832884,5515.887586
20596.047159,1184.329507,-7179.997637,5822.325785
20596.047492,4663.297435,-7994.224174,-76.609550
20596.047826,-2368.659014,-10140.821405,-2145.067394
20596.048159,1406.391290,-10881.027347,-4290.134789
20596.048492,1406.391290,-13249.686362,-1685.410096
20596.048825,2664.741391,-9992.780217,-1149.143247
20596.049158,2294.638420,-9474.636058,-1608.800546
20596.049491,2294.638420,-9474.636058,-1302.362347
20596.049825,4737.318029,-6587.832884,3370.820191
20596.050158,4145.153275,-9178.553681,6971.469032
20596.050491,7031.956449,-6809.894666,2221.676944
20596.050824,4515.256246,-8882.471304,2374.896044
20596.051157,5477.523971,-10732.986159,3140.991542
20596.051491,7772.162391,-6957.935855,3907.087040
20596.051824,6735.874072,-8216.285956,1838.629195
20596.052157,1776.494261,-8956.491898,-4596.572988
20596.052490,1998.556043,-11843.295072,-6435.202183
20596.052823,-1776.494261,-11917.315666,-3677.258390
20596.053156,1702.473667,-12879.583391,-1915.238745
20596.053490,-2442.679609,-10658.965565,-4366.744339
20596.053823,-2664.741391,-9696.697840,-2528.115143
20596.054156,4145.153275,-8216.285956,5362.668486
20596.054489,6735.874072,-5625.565159,8580.269578
20596.054822,6143.709319,-4885.359217,7431.126331
20596.055155,3701.029710,-7105.977043,4596.572988
20596.055489,0.000000,-8364.327145,1225.752797
20596.055822,1110.308913,-11843.295072,-76.609550
20596.056155,-3627.009116,-11547.212695,-5592.497135
20596.056488,-9326.594869,-11029.068536,-7814.174080
20596.056821,-10658.965565,-13101.645173,-6511.811733
20596.057154,-4663.297435,-10584.944971,-1915.238745
20596.057488,-4145.153275,-9400.615463,1762.019645
20596.057821,-1554.432478,-5921.647536,2911.162892
20596.058154,-1258.350101,-7105.977043,3830.477490
20596.058487,0.000000,-6587.832884,5439.278036
20596.058820,592.164754,-5847.626942,4290.134789
20596.059153,-1850.514855,-9030.512492,2911.162892
20596.059487,-2812.782580,-7254.018232,-1685.410096
20596.059820,-4737.318029,-13397.727550,-2451.505594
20596.060153,-2812.782580,-9548.656652,-4903.011187
20596.060486,-1184.329507,-11843.295072,-76.609550
20596.060819,-3034.844362,-9548.656652,-2757.943793
20596.061152,-2442.679609,-8142.265362,-1915.238745
20596.061486,-2516.700203,-11399.171507,1149.143247
20596.061819,-1850.514855,-8808.450710,1838.629195
20596.062152,-2368.659014,-6883.915261,2374.896044
20596.062485,-1554.432478,-7105.977043,1302.362347
20596.062818,1110.308913,-8290.306550,3294.210641
20596.063151,592.164754,-7179.997637,4903.011187
20596.063485,5847.626942,-8882.471304,4826.401637
20596.063818,2294.638420,-6587.832884,-2298.286494
20596.064151,-2368.659014,-9548.656652,-4290.134789
20596.064484,1702.473667,-11843.295072,-4979.620737
20596.064817,0.000000,-10955.047942,-3064.381992
20596.065150,-222.061783,-11325.150913,-2757.943793
20596.065484,-444.123565,-10584.944971,-1991.848295
20596.065817,2146.597232,-9548.656652,536.266849
20596.066150,4737.318029,-6143.709319,8120.612279
20596.066483,9104.533087,-5921.647536,6511.811733
20596.066816,6143.709319,-3627.009116,2451.505594
20596.067149,8660.409521,-11251.130318,4826.401637
20596.067483,4515.256246,-8364.327145,0.000000
20596.067816,3478.967927,-11325.150913,-689.485948
20596.068149,-2146.597232,-12583.501014,-5975.544884
20596.068482,-1924.535449,-11843.295072,-6511.811733
20596.068815,-1776.494261,-12213.398043,-2451.505594
20596.069148,5921.647536,-10732.986159,4213.525239
20596.069482,4663.297435,-6513.812290,1225.752797
20596.069815,2960.823768,-5403.503377,0.000000
20596.070148,6217.729913,-8882.471304,6971.469032
20596.070481,4959.379811,-6587.832884,3677.258390
20596.070814,4959.379811,-7994.224174,2681.334243
20596.071147,-370.102971,-10362.883188,-995.924147
20596.071480,-1406.391290,-10140.821405,-3064.381992
20596.071814,0.000000,-11917.315666,0.000000
20596.072147,3330.926739,-9622.677246,1838.629195
20596.072480,1258.350101,-7846.182985,1072.533697
20596.072813,-518.144159,-8660.409521,-689.485948
20596.073146,-74.020594,-8882.471304,-1302.362347
20596.073479,-1258.350101,-8438.347739,-1838.629195
20596.073812,-2368.659014,-10732.986159,-76.609550
20596.074145,-2442.679609,-10658.965565,-76.609550
20596.074478,-3627.009116,-8956.491898,-1225.752797
20596.074811,1702.473667,-10066.800811,4826.401637
20596.075144,666.185348,-7328.038826,4366.744339
20596.075477,-148.041188,-6069.688724,2451.505594
20596.075810,-2146.597232,-8660.409521,0.000000
20596.076143,-4145.153275,-10732.986159,-1225.752797
20596.076476,-1258.350101,-11547.212695,-1608.800546
20596.076810,-7105.977043,-9548.656652,-4903.011187
20596.077143,-6217.729913,-10955.047942,-2528.115143
20596.077476,-6587.832884,-10214.842000,-3983.696590
20596.077809,-3552.988522,-5995.668130,1225.752797
20596.078142,444.123565,-7105.977043,5286.058936
20596.078475,1406.391290,-5329.482782,3830.477490
20596.078808,444.123565,-7550.100608,2451.505594
20596.079141,2590.720797,-10066.800811,3907.087040
20596.079474,370.102971,-7476.080014,1838.629195
20596.079807,-74.020594,-13027.624579,-689.485948
20596.080140,-4293.194464,-9548.656652,-4903.011187
20596.080473,-3404.947333,-13471.748144,-2451.505594
20596.080806,-74.020594,-10658.965565,-76.609550
20596.081139,444.123565,-8364.327145,1532.190996
20596.081472,-962.267725,-7550.100608,-1225.752797
20596.081806,518.144159,-7254.018232,-383.047749
20596.082139,2664.741391,-8290.306550,2604.724693
20596.082472,3552.988522,-7179.997637,5898.935335
20596.082805,2590.720797,-6291.750507,0.000000
20596.083138,0.000000,-10140.821405,3064.381992
20596.083471,5847.626942,-10362.883188,1149.143247
20596.083804,4663.297435,-9918.759623,2528.115143
20596.084137,5699.585753,-8586.388927,229.828649
20596.084470,370.102971,-10807.006753,-2298.286494
20596.084803,666.185348,-11251.130318,-3600.648841
20596.085136,2886.803174,-9918.759623,-2298.286494
20596.085469,1110.308913,-13619.789333,-1302.362347
20596.085802,0.000000,-6587.832884,-1838.629195
20596.086135,592.164754,-10510.924376,2987.772442
20596.086469,7031.956449,-7105.977043,3294.210641
20596.086802,5699.585753,-4293.194464,5822.325785
20596.087135,6735.874072,-8290.306550,4673.182538
20596.087468,4515.256246,-6587.832884,919.314598
20596.087801,1554.432478,-11695.253884,-76.609550
20596.088134,1702.473667,-11621.233289,-2987.772442
20596.088467,-814.226536,-13027.624579,-3907.087040
20596.088800,-5625.565159,-11917.315666,-6128.763984
20596.089133,-3849.070898,-11325.150913,-4443.353888
20596.089466,-1850.514855,-10510.924376,-76.609550
20596.089799,148.041188,-6587.832884,3677.258390
20596.090132,3330.926739,-6513.812290,7124.688131
20596.090465,4663.297435,-7105.977043,4826.401637
20596.090798,1850.514855,-5699.585753,3064.381992
20596.091131,1776.494261,-8660.409521,4060.306139
