#time,accel_x,accel_y,accel_z
21073.131698,8586.388927,-9400.615463,2451.505594
21073.132031,9400.615463,-9474.636058,1838.629195
21073.132365,10881.027347,-9104.533087,4213.525239
21073.132698,9992.780217,-8808.450710,3217.601092
21073.133031,9696.697840,-8290.306550,919.314598
21073.133365,8438.347739,-10214.842000,-76.609550
21073.133698,7031.956449,-7179.997637,-4596.572988
21073.134032,7105.977043,-9326.594869,-689.485948
21073.134365,9326.594869,-10362.883188,-383.047749
21073.134698,7920.203579,-9474.636058,-2528.115143
21073.135032,9474.636058,-8882.471304,383.047749
21073.135365,10658.965565,-9548.656652,3064.381992
21073.135699,11325.150913,-9770.718434,3370.820191
21073.136032,7105.977043,-10732.986159,1838.629195
21073.136365,7031.956449,-11843.295072,1149.143247
21073.136699,4145.153275,-10732.986159,3064.381992
21073.137032,7031.956449,-9474.636058,1149.143247
21073.137366,2664.741391,-6587.832884,919.314598
21073.137699,4145.153275,-6291.750507,306.438199
21073.138032,4737.318029,-6291.750507,766.095498
21073.138366,7105.977043,-6217.729913,-536.266849
21073.138699,6883.915261,-7105.977043,-383.047749
21073.139032,10584.944971,-9474.636058,-76.609550
21073.139366,8808.450710,-7179.997637,0.000000
21073.139699,10658.965565,-11251.130318,-76.609550
21073.140033,11177.109724,-13027.624579,-1915.238745
21073.140366,8290.306550,-10732.986159,306.438199
21073.140699,8882.471304,-11621.233289,383.047749
21073.141033,7402.059420,-10732.986159,229.828649
21073.141366,6439.791695,-10362.883188,0.000000
21073.141700,8068.244768,-8882.471304,1915.238745
21073.142033,10288.862594,-7846.182985,5439.278036
21073.142366,9178.553681,-4219.173869,2451.505594
21073.142700,8808.450710,-6661.853478,2145.067394
21073.143033,8882.471304,-8068.244768,2068.457845
21073.143367,7550.100608,-9770.718434,1149.143247
21073.143700,6217.729913,-9844.739029,153.219100
21073.144033,5847.626942,-10658.965565,-3140.991542
21073.144367,2960.823768,-8364.327145,0.000000
21073.144700,7105.977043,-10288.862594,1762.019645
21073.145033,9992.780217,-7994.224174,1149.143247
21073.145367,9474.636058,-8364.327145,2451.505594
21073.145700,9400.615463,-7624.121203,0.000000
21073.146034,8734.430116,-8142.265362,-1149.143247
21073.146367,8660.409521,-8586.388927,-2604.724693
21073.146700,7920.203579,-9474.636058,-2528.115143
21073.147034,7624.121203,-11251.130318,-3677.258390
21073.147367,6069.688724,-13249.686362,612.876398
21073.147701,8734.430116,-12435.459826,3600.648841
21073.148034,9992.780217,-9104.533087,4213.525239
21073.148367,13323.706956,-7994.224174,7584.345430
21073.148701,11251.130318,-4811.338623,4903.011187
21073.149034,9326.594869,-6069.688724,2451.505594
21073.149368,7328.038826,-6883.915261,-1991.848295
21073.149701,5403.503377,-8882.471304,-4979.620737
21073.150034,2294.638420,-9548.656652,-7354.516781
21073.150368,-74.020594,-14211.954086,-7431.126331
21073.150701,-2442.679609,-14211.954086,-7431.126331
21073.151035,0.000000,-10140.821405,-3370.820191
21073.151368,7031.956449,-7920.203579,3294.210641
21073.151701,11917.315666,-4293.194464,9806.022374
21073.152035,10288.862594,-6439.791695,9346.365076
21073.152368,9326.594869,-7920.203579,5898.935335
21073.152701,7698.141797,-7772.162391,3370.820191
21073.153035,6513.812290,-9844.739029,3064.381992
21073.153368,6439.791695,-9474.636058,-3140.991542
21073.153702,0.000000,-8660.409521,-7354.516781
21073.154035,0.000000,-11917.315666,-3600.648841
21073.154368,2886.803174,-8142.265362,-6358.592633
21073.154702,4737.318029,-11177.109724,-689.485948
21073.155035,3108.864956,-11251.130318,766.095498
21073.155369,4441.235652,-10584.944971,1838.629195
21073.155702,5329.482782,-8660.409521,4903.011187
21073.156035,8586.388927,-7179.997637,7584.345430
21073.156369,8956.491898,-7550.100608,7507.735880
21073.156702,7698.141797,-6217.729913,5898.935335
21073.157036,4663.297435,-9474.636058,2374.896044
21073.157369,1036.288319,-10584.944971,-1302.362347
21073.157702,-2442.679609,-7476.080014,-7967.393179
21073.158036,-4441.235652,-9548.656652,-8273.831378
21073.158369,-1184.329507,-8882.471304,-5592.497135
21073.158702,-74.020594,-9918.759623,-2834.553343
21073.159036,2960.823768,-10066.800811,-76.609550
21073.159369,3627.009116,-11917.315666,3907.087040
21073.159703,3627.009116,-10732.986159,4903.011187
21073.160036,962.267725,-8882.471304,2528.115143
21073.160369,2368.659014,-8660.409521,4826.401637
21073.160703,3552.988522,-4811.338623,5515.887586
21073.161036,5033.400406,-9474.636058,4826.401637
21073.161370,1924.535449,-6069.688724,-766.095498
21073.161703,-3478.967927,-11695.253884,-2451.505594
21073.162036,-4811.338623,-12435.459826,-5056.230287
21073.162370,-3404.947333,-7920.203579,-4979.620737
21073.162703,-1924.535449,-7328.038826,-4290.134789
21073.163037,-1924.535449,-7698.141797,-3140.991542
21073.163370,1110.308913,-9474.636058,-76.609550
21073.163703,2368.659014,-11917.315666,3677.258390
21073.164037,2072.576638,-12435.459826,6665.030833
21073.164370,1258.350101,-8808.450710,3064.381992
21073.164703,2368.659014,-8364.327145,5209.449386
21073.165037,3182.885551,-5107.421000,2451.505594
21073.165370,3330.926739,-5625.565159,1225.752797
21073.165704,592.164754,-7624.121203,-76.609550
21073.166037,-1850.514855,-11325.150913,-1608.800546
21073.166370,-3552.988522,-9548.656652,-4213.525239
21073.166704,-2590.720797,-11399.171507,-3140.991542
21073.167037,-74.020594,-10362.883188,-1915.238745
21073.167371,-74.020594,-5699.585753,-3064.381992
21073.167704,4071.132681,-9474.636058,3447.429741
21073.168037,2368.659014,-8068.244768,2757.943793
21073.168371,-74.020594,-11547.212695,2528.115143
21073.168704,814.226536,-9400.615463,2987.772442
21073.169038,2738.761985,-8660.409521,4060.306139
21073.169371,2368.659014,-7476.080014,3064.381992
21073.169704,3256.906145,-7994.224174,1762.019645
21073.170038,-1110.308913,-9548.656652,-2298.286494
21073.170371,-4293.194464,-9548.656652,-3370.820191
21073.170705,-3256.906145,-11843.295072,-2528.115143
21073.171038,0.000000,-7624.121203,-2451.505594
21073.171371,1998.556043,-10362.883188,1608.800546
21073.171705,2368.659014,-7846.182985,919.314598
21073.172038,518.144159,-10066.800811,1991.848295
21073.172371,-3256.906145,-10732.986159,1532.190996
21073.172705,-1036.288319,-9326.594869,1149.143247
21073.173038,-296.082377,-8142.265362,2911.162892
21073.173372,3108.864956,-6735.874072,3217.601092
21073.173705,-74.020594,-6513.812290,-76.609550
21073.174038,-74.020594,-7994.224174,-1072.533697
21073.174372,-888.247130,-10584.944971,1915.238745
21073.174705,-666.185348,-12435.459826,-1915.238745
21073.175039,-3552.988522,-9548.656652,-1915.238745
21073.175372,-74.020594,-10066.800811,-76.609550
21073.175705,1184.329507,-7179.997637,-536.266849
21073.176039,2886.803174,-7994.224174,1302.362347
21073.176372,3108.864956,-10955.047942,3600.648841
21073.176706,0.000000,-9548.656652,1302.362347
21073.177039,-2146.597232,-7179.997637,1225.752797
21073.177372,1406.391290,-9474.636058,1149.143247
21073.177706,0.000000,-5033.400406,-1302.362347
21073.178039,-2072.576638,-6587.832884,306.438199
21073.178372,444.123565,-8882.471304,-689.485948
21073.178706,-2664.741391,-11621.233289,-689.485948
21073.179039,-666.185348,-9030.512492,-842.705048
21073.179373,148.041188,-9030.512492,1225.752797
21073.179706,2368.659014,-7994.224174,1225.752797
21073.180039,1924.535449,-5995.668130,0.000000
21073.180373,4663.297435,-11251.130318,536.266849
21073.180706,1480.411884,-10436.903782,1225.752797
21073.181040,0.000000,-10140.821405,3600.648841
21073.181373,2368.659014,-9548.656652,-1532.190996
21073.181706,2294.638420,-10658.965565,-1302.362347
21073.182040,296.082377,-9252.574275,459.657299
21073.182373,222.061783,-8142.265362,229.828649
21073.182707,-74.020594,-11547.212695,1762.019645
21073.183040,-2368.659014,-8068.244768,1072.533697
21073.183373,-74.020594,-11843.295072,2374.896044
21073.183707,1184.329507,-4219.173869,1225.752797
21073.184040,3330.926739,-8882.471304,3294.210641
21073.184373,4663.297435,-8734.430116,1455.581446
21073.184707,1110.308913,-11695.253884,1072.533697
21073.185040,-2590.720797,-10658.965565,-1608.800546
21073.185374,-2516.700203,-10436.903782,-3140.991542
21073.185707,-3997.112087,-8364.327145,-3907.087040
21073.186040,1110.308913,-10658.965565,-383.047749
21073.186374,-1480.411884,-5995.668130,0.000000
21073.186707,0.000000,-10436.903782,4290.134789
21073.187041,-74.020594,-9326.594869,2681.334243
21073.187374,1554.432478,-7476.080014,5132.839837
21073.187707,3701.029710,-6439.791695,5362.668486
21073.188041,3108.864956,-5329.482782,2987.772442
21073.188374,2072.576638,-6809.894666,-919.314598
21073.188708,666.185348,-9548.656652,-1225.752797
21073.189041,-74.020594,-11843.295072,-1762.019645
21073.189374,-3034.844362,-13175.665768,-3677.258390
21073.189708,-3627.009116,-11917.315666,-3217.601092
21073.190041,-1924.535449,-9178.553681,-4136.915689
21073.190375,-666.185348,-6809.894666,-2604.724693
21073.190708,0.000000,-8660.409521,3677.258390
21073.191041,1702.473667,-10658.965565,2374.896044
21073.191375,0.000000,-10436.903782,6128.763984
21073.191708,2664.741391,-6883.915261,6281.983084
21073.192041,2886.803174,-7994.224174,2911.162892
21073.192375,2368.659014,-5255.462188,1532.190996
21073.192708,3478.967927,-7105.977043,-995.924147
21073.193042,962.267725,-9696.697840,-383.047749
21073.193375,-1776.494261,-10140.821405,-3677.258390
21073.193708,-2664.741391,-14211.954086,-3753.867940
21073.194042,-4145.153275,-11843.295072,-5592.497135
21073.194375,-3997.112087,-7772.162391,-4290.134789
21073.194709,518.144159,-11251.130318,-76.609550
21073.195042,0.000000,-10732.986159,2451.505594
21073.195375,0.000000,-9548.656652,5209.449386
21073.195709,2146.597232,-8142.265362,6665.030833
21073.196042,5033.400406,-5255.462188,7354.516781
21073.196376,6439.791695,-7105.977043,6358.592633
21073.196709,9400.615463,-5921.647536,-76.609550
21073.197042,0.000000,-11029.068536,-1072.533697
21073.197376,-4737.318029,-9548.656652,-3064.381992
21073.197709,-4959.379811,-13471.748144,-4979.620737
21073.198042,-3034.844362,-11843.295072,-4979.620737
21073.198376,-1998.556043,-9474.636058,-2757.943793
21073.198707,-3849.070898,-8364.327145,-1838.629195
21073.199041,296.082377,-7328.038826,0.000000
21073.199374,962.267725,-10436.903782,4519.963438
21073.199707,2664.741391,-7179.997637,4903.011187
21073.200040,3552.988522,-7476.080014,7890.783629
21073.200374,5255.462188,-7105.977043,4673.182538
21073.200707,5847.626942,-5329.482782,0.000000
21073.201040,3775.050304,-7105.977043,0.000000
21073.201373,2368.659014,-9770.718434,0.000000
21073.201706,-2442.679609,-13027.624579,-4979.620737
21073.202040,-4145.153275,-12879.583391,-5515.887586
21073.202373,-4441.235652,-9548.656652,-4903.011187
21073.202706,-2368.659014,-10732.986159,-3753.867940
21073.203039,-1036.288319,-9918.759623,-689.485948
21073.203373,740.205942,-10510.924376,3600.648841
21073.203706,1998.556043,-10362.883188,6052.154434
21073.204039,1924.535449,-7105.977043,6052.154434
21073.204372,0.000000,-5995.668130,6128.763984
21073.204706,3478.967927,-7105.977043,4213.525239
21073.205039,1110.308913,-5329.482782,-1072.533697
21073.205372,1998.556043,-10658.965565,-76.609550
21073.205705,-2146.597232,-10658.965565,-2681.334243
21073.206039,-5033.400406,-13397.727550,-3753.867940
21073.206372,-4737.318029,-8956.491898,-4290.134789
21073.206705,-3182.885551,-10214.842000,-3907.087040
21073.207038,-74.020594,-8586.388927,-1378.971896
21073.207372,0.000000,-10140.821405,3064.381992
21073.207705,1110.308913,-11695.253884,4673.182538
21073.208038,518.144159,-8882.471304,3600.648841
21073.208371,592.164754,-6143.709319,4903.011187
21073.208705,6217.729913,-6217.729913,6665.030833
21073.209038,4367.215058,-5107.421000,3677.258390
21073.209371,4071.132681,-7105.977043,0.000000
21073.209704,518.144159,-11843.295072,-3064.381992
21073.210038,-4737.318029,-12213.398043,-6128.763984
21073.210371,-2738.761985,-13027.624579,-4366.744339
21073.210704,-1406.391290,-7772.162391,-4903.011187
21073.211037,-2960.823768,-10288.862594,-1685.410096
21073.211371,2294.638420,-8290.306550,-76.609550
21073.211704,1184.329507,-8808.450710,5362.668486
21073.212037,2368.659014,-8290.306550,6205.373534
21073.212370,2812.782580,-7550.100608,4903.011187
21073.212704,2368.659014,-7254.018232,5362.668486
21073.213037,3256.906145,-6957.935855,4826.401637
21073.213370,2294.638420,-3997.112087,-4673.182538
21073.213703,-1480.411884,-11917.315666,-4290.134789
21073.214037,-740.205942,-13323.706956,-1915.238745
21073.214370,-4589.276840,-11695.253884,-4519.963438
21073.214703,-814.226536,-10066.800811,-4060.306139
21073.215036,-740.205942,-10214.842000,-2221.676944
21073.215370,2368.659014,-8290.306550,536.266849
21073.215703,3478.967927,-9918.759623,4213.525239
21073.216036,3478.967927,-11843.295072,4826.401637
21073.216369,518.144159,-8364.327145,2451.505594
21073.216703,3034.844362,-9474.636058,4826.401637
21073.217036,3182.885551,-6513.812290,2374.896044
21073.217369,222.061783,-3034.844362,0.000000
21073.217702,-296.082377,-8290.306550,-1608.800546
21073.218036,-4663.297435,-11177.109724,-3907.087040
21073.218369,-5403.503377,-10955.047942,-3677.258390
21073.218702,-4367.215058,-10584.944971,-3524.039291
21073.219035,-666.185348,-9474.636058,-1608.800546
21073.219369,592.164754,-8512.368333,-459.657299
21073.219702,1702.473667,-9178.553681,2221.676944
21073.220035,2442.679609,-9400.615463,3983.696590
21073.220368,0.000000,-10140.821405,3064.381992
21073.220702,3256.906145,-10066.800811,5439.278036
21073.221035,2516.700203,-6587.832884,2757.943793
21073.221368,2368.659014,-4811.338623,5439.278036
21073.221701,-74.020594,-7550.100608,-2604.724693
21073.222035,-2368.659014,-8956.491898,-3753.867940
21073.222368,-2664.741391,-11251.130318,-2221.676944
21073.222701,-4441.235652,-10732.986159,-3524.039291
21073.223034,-2590.720797,-8956.491898,-2604.724693
21073.223368,-74.020594,-9326.594869,-229.828649
21073.223701,3256.906145,-9918.759623,4519.963438
21073.224034,3478.967927,-5995.668130,2451.505594
21073.224367,4737.318029,-10881.027347,6128.763984
21073.224701,2886.803174,-12435.459826,4826.401637
21073.225034,-1184.329507,-9030.512492,1225.752797
21073.225367,-814.226536,-6809.894666,-2834.553343
21073.225700,-1036.288319,-8364.327145,-3064.381992
21073.226034,0.000000,-9178.553681,-2528.115143
21073.226367,-1258.350101,-11547.212695,-995.924147
21073.226700,-2220.617826,-11843.295072,-76.609550
21073.227033,-4737.318029,-9548.656652,0.000000
21073.227367,1480.411884,-8290.306550,1762.019645
21073.227700,5847.626942,-8068.244768,4826.401637
21073.228033,5847.626942,-6809.894666,3600.648841
21073.228366,2812.782580,-9548.656652,3370.820191
21073.228700,740.205942,-10510.924376,2298.286494
21073.229033,-222.061783,-10362.883188,-76.609550
21073.229366,0.000000,-7772.162391,-1838.629195
21073.229699,-74.020594,-9474.636058,-4366.744339
21073.230033,-1776.494261,-8438.347739,-4903.011187
21073.230366,-1850.514855,-12435.459826,-1608.800546
21073.230699,-1406.391290,-9844.739029,-1685.410096
21073.231032,-4737.318029,-9548.656652,1225.752797
21073.231366,444.123565,-7994.224174,1532.190996
21073.231699,3256.906145,-7846.182985,3447.429741
21073.232032,4737.318029,-5107.421000,3753.867940
21073.232365,6735.874072,-9474.636058,4826.401637
21073.232698,2368.659014,-8364.327145,3677.258390
21073.233032,2886.803174,-11843.295072,3447.429741
21073.233365,2294.638420,-11251.130318,-689.485948
21073.233698,-1776.494261,-9548.656652,-2451.505594
21073.234031,-4145.153275,-7772.162391,-6128.763984
21073.234365,-3775.050304,-10807.006753,-4366.744339
21073.234698,-2516.700203,-11251.130318,-2834.553343
21073.235031,-4959.379811,-11473.192101,-536.266849
21073.235364,-1850.514855,-9474.636058,1762.019645
21073.235698,1184.329507,-7179.997637,5362.668486
21073.236031,2812.782580,-4811.338623,5056.230287
21073.236364,4959.379811,-4959.379811,3830.477490
21073.236697,3997.112087,-9400.615463,4979.620737
21073.237031,4663.297435,-10658.965565,3600.648841
21073.237364,0.000000,-10436.903782,306.438199
21073.237697,-74.020594,-14211.954086,-76.609550
21073.238030,-2442.679609,-6587.832884,-8273.831378
21073.238364,-4737.318029,-11769.274478,-5822.325785
21073.238697,-4737.318029,-8364.327145,-3677.258390
21073.239030,-3182.885551,-11473.192101,-1532.190996
21073.239363,-3034.844362,-10807.006753,1455.581446
21073.239697,1258.350101,-7328.038826,4596.572988
21073.240030,5847.626942,-7105.977043,6665.030833
21073.240363,7624.121203,-5329.482782,5439.278036
21073.240696,4145.153275,-7179.997637,6358.592633
21073.241030,4663.297435,-11547.212695,2987.772442
21073.241363,296.082377,-8660.409521,0.000000
21073.241696,-666.185348,-11991.336260,-1915.238745
21073.242029,-3627.009116,-9548.656652,-7354.516781
21073.242363,-2886.803174,-10362.883188,-7201.297681
21073.242696,-1554.432478,-11547.212695,-4749.792088
21073.243029,-4145.153275,-11473.192101,-2451.505594
21073.243362,-3627.009116,-9696.697840,-4749.792088
21073.243696,-592.164754,-10658.965565,4826.401637
21073.244029,5255.462188,-6957.935855,7584.345430
21073.244362,7031.956449,-4145.153275,7507.735880
21073.244695,5625.565159,-4441.235652,7584.345430
21073.245029,3997.112087,-8142.265362,4673.182538
21073.245362,-444.123565,-10288.862594,76.609550
21073.245695,-666.185348,-9770.718434,-2987.772442
21073.246028,-2368.659014,-10881.027347,-5975.544884
21073.246362,-2738.761985,-8364.327145,-7354.516781
21073.246695,-1776.494261,-12805.562797,-3753.867940
21073.247028,-1258.350101,-12435.459826,-4519.963438
21073.247361,-4737.318029,-12435.459826,-1378.971896
21073.247695,-2368.659014,-10732.986159,2451.505594
21073.248028,3775.050304,-7105.977043,6052.154434
21073.248361,4589.276840,-4885.359217,7507.735880
21073.248694,6291.750507,-4737.318029,7124.688131
21073.249028,6439.791695,-5329.482782,6665.030833
21073.249361,4737.318029,-8364.327145,7277.907231
21073.249694,2294.638420,-8290.306550,-995.924147
21073.250027,-2442.679609,-11177.109724,-6128.763984
21073.250361,-5921.647536,-9696.697840,-8350.440928
21073.250694,-4737.318029,-12213.398043,-9806.022374
21073.251027,-2146.597232,-10288.862594,-5056.230287
21073.251360,-1554.432478,-13397.727550,-612.876398
21073.251694,-296.082377,-11991.336260,3217.601092
21073.252027,2294.638420,-9474.636058,6665.030833
21073.252360,3552.988522,-6735.874072,8350.440928
21073.252693,7624.121203,-4293.194464,8273.831378
21073.253027,6957.935855,-3034.844362,6358.592633
21073.253360,4959.379811,-7994.224174,5132.839837
21073.253693,2294.638420,-9474.636058,-76.609550
21073.254026,-4145.153275,-10140.821405,-6128.763984
21073.254360,-666.185348,-13027.624579,-6818.249932
21073.254693,-3923.091493,-9696.697840,-8427.050478
21073.255026,-4737.318029,-9548.656652,-7354.516781
21073.255359,-2590.720797,-12435.459826,-5898.935335
21073.255693,-2812.782580,-12953.603985,1149.143247
21073.256026,-888.247130,-9252.574275,4136.915689
21073.256359,3478.967927,-7624.121203,6588.421283
21073.256692,4071.132681,-4145.153275,6971.469032
21073.257026,4145.153275,-5477.523971,7584.345430
21073.257359,4663.297435,-7105.977043,3294.210641
21073.257692,1184.329507,-7772.162391,1532.190996
21073.258025,148.041188,-10658.965565,689.485948
21073.258359,-1554.432478,-8956.491898,-4749.792088
21073.258692,-1480.411884,-9622.677246,-5132.839837
21073.259025,-2960.823768,-10436.903782,-6435.202183
21073.259358,-2072.576638,-10807.006753,-6205.373534
21073.259692,-2960.823768,-12213.398043,-2451.505594
21073.260025,-592.164754,-14211.954086,3600.648841
21073.260358,-74.020594,-8438.347739,3294.210641
21073.260691,1554.432478,-5107.421000,3064.381992
21073.261025,4737.318029,-5329.482782,7277.907231
21073.261358,2960.823768,-3923.091493,5822.325785
21073.261691,3552.988522,-6883.915261,3830.477490
21073.262024,148.041188,-9252.574275,2528.115143
21073.262358,-1850.514855,-9474.636058,-995.924147
21073.262691,-740.205942,-8882.471304,-2528.115143
21073.263024,-1258.350101,-11843.295072,-5286.058936
21073.263357,-1924.535449,-7476.080014,-8580.269578
21073.263690,-1776.494261,-13101.645173,-3677.258390
21073.264024,296.082377,-13915.871710,-76.609550
21073.264357,-1776.494261,-11917.315666,2451.505594
21073.264690,1406.391290,-8734.430116,4290.134789
21073.265023,4219.173869,-7402.059420,6511.811733
21073.265357,4441.235652,-3923.091493,6281.983084
21073.265690,5699.585753,-5255.462188,4903.011187
21073.266023,1258.350101,-8512.368333,2068.457845
21073.266356,-1332.370696,-10066.800811,536.266849
21073.266690,-2368.659014,-8364.327145,-3217.601092
21073.267023,-2590.720797,-8142.265362,-6665.030833
21073.267356,-2072.576638,-8956.491898,-6588.421283
21073.267689,-74.020594,-13027.624579,-3753.867940
21073.268023,-1998.556043,-13915.871710,-2528.115143
21073.268356,-2368.659014,-10436.903782,1225.752797
21073.268689,518.144159,-11547.212695,4213.525239
21073.269022,2960.823768,-5995.668130,5515.887586
21073.269356,3849.070898,-5477.523971,5209.449386
21073.269689,3330.926739,-4811.338623,3600.648841
21073.270022,592.164754,-8660.409521,2451.505594
21073.270355,-1554.432478,-9918.759623,0.000000
21073.270689,1110.308913,-10658.965565,-76.609550
21073.271022,-1406.391290,-7920.203579,-3677.258390
21073.271355,-148.041188,-7624.121203,-4596.572988
21073.271688,-1184.329507,-7772.162391,-4290.134789
21073.272022,1184.329507,-11621.233289,-842.705048
21073.272355,1628.453072,-10955.047942,919.314598
21073.272688,-518.144159,-13323.706956,1762.019645
21073.273021,2294.638420,-10658.965565,3600.648841
21073.273355,296.082377,-7179.997637,2757.943793
21073.273688,2294.638420,-8290.306550,1762.019645
21073.274021,0.000000,-4811.338623,1838.629195
21073.274354,-74.020594,-9474.636058,2374.896044
21073.274688,-74.020594,-9474.636058,1149.143247
21073.275021,-2960.823768,-9030.512492,-76.609550
21073.275354,0.000000,-6291.750507,-2451.505594
21073.275687,74.020594,-8142.265362,-612.876398
21073.276021,1702.473667,-8734.430116,-995.924147
21073.276354,0.000000,-11621.233289,2221.676944
21073.276687,-6809.894666,-14285.974681,-1838.629195
21073.277020,-2220.617826,-5403.503377,0.000000
21073.277354,1554.432478,-13027.624579,2374.896044
21073.277687,4885.359217,-5107.421000,3677.258390
21073.278020,1702.473667,-9474.636058,2374.896044
21073.278353,-1554.432478,-8142.265362,-919.314598
21073.278687,222.061783,-9770.718434,459.657299
21073.279020,-3330.926739,-10436.903782,919.314598
21073.279353,4663.297435,-7105.977043,2374.896044
21073.279686,-2368.659014,-7179.997637,1225.752797
21073.280020,4367.215058,-7698.141797,-76.609550
21073.280353,4367.215058,-10658.965565,-383.047749
21073.280686,2812.782580,-11399.171507,1838.629195
21073.281019,1406.391290,-12139.377449,-76.609550
21073.281353,-1480.411884,-11473.192101,0.000000
21073.281686,-444.123565,-8660.409521,-1991.848295
21073.282019,-1702.473667,-8512.368333,-2298.286494
21073.282352,2886.803174,-8290.306550,-1302.362347
21073.282686,-518.144159,-11251.130318,2221.676944
21073.283019,-814.226536,-9326.594869,2834.553343
21073.283352,-1332.370696,-6291.750507,3983.696590
21073.283685,1184.329507,-4811.338623,3677.258390
21073.284019,6439.791695,-4737.318029,2987.772442
21073.284352,3256.906145,-4811.338623,0.000000
21073.284685,2960.823768,-11621.233289,1149.143247
21073.285018,-666.185348,-13915.871710,-2221.676944
21073.285352,-3627.009116,-9548.656652,-4903.011187
21073.285685,-1850.514855,-12435.459826,-4060.306139
21073.286018,-2664.741391,-10807.006753,-4979.620737
21073.286351,-1702.473667,-9474.636058,-3370.820191
21073.286685,0.000000,-10436.903782,2298.286494
21073.287018,2146.597232,-11843.295072,4826.401637
21073.287351,-2368.659014,-7179.997637,6128.763984
21073.287684,1184.329507,-2442.679609,6435.202183
21073.288018,5107.421000,-6513.812290,6358.592633
21073.288351,2960.823768,-2442.679609,1532.190996
21073.288684,2368.659014,-10066.800811,-995.924147
21073.289017,1702.473667,-11843.295072,-1532.190996
21073.289351,-2812.782580,-13989.892304,-3677.258390
21073.289684,-1554.432478,-13027.624579,-4060.306139
21073.290017,-1258.350101,-14211.954086,-4979.620737
21073.290350,-4737.318029,-8956.491898,-2757.943793
21073.290684,-74.020594,-9474.636058,2068.457845
21073.291017,-74.020594,-8586.388927,1225.752797
21073.291350,-74.020594,-11103.089130,6358.592633
21073.291683,296.082377,-4367.215058,5515.887586
21073.292017,4071.132681,-4737.318029,6665.030833
21073.292350,3849.070898,-4737.318029,4366.744339
21073.292683,2368.659014,-5107.421000,0.000000
21073.293016,1702.473667,-9918.759623,-2298.286494
21073.293350,-4737.318029,-11029.068536,-2757.943793
21073.293683,-1258.350101,-14211.954086,-4979.620737
21073.294016,-3552.988522,-10658.965565,-6052.154434
21073.294349,-2960.823768,-9992.780217,-4979.620737
21073.294682,-1332.370696,-11843.295072,-1685.410096
21073.295016,296.082377,-11621.233289,1225.752797
21073.295349,-1110.308913,-10955.047942,3370.820191
21073.295682,1776.494261,-8290.306550,7660.954980
21073.296015,2960.823768,-2442.679609,7354.516781
21073.296349,6439.791695,-5329.482782,6665.030833
21073.296682,5551.544565,-2146.597232,1225.752797
21073.297015,2368.659014,-8364.327145,2221.676944
21073.297348,222.061783,-10510.924376,-1608.800546
21073.297682,-2294.638420,-12213.398043,-4060.306139
21073.298015,-5551.544565,-12805.562797,-6665.030833
21073.298348,-2812.782580,-11325.150913,-6971.469032
21073.298681,-2590.720797,-11843.295072,-3830.477490
21073.299015,0.000000,-9548.656652,-1225.752797
21073.299348,-74.020594,-11251.130318,2911.162892
21073.299681,518.144159,-9474.636058,4596.572988
21073.300014,3182.885551,-7105.977043,6358.592633
21073.300348,4145.153275,-4811.338623,6128.763984
21073.300681,5847.626942,-1850.514855,2528.115143
21073.301014,4737.318029,-7179.997637,5745.716235
21073.301347,2368.659014,-9548.656652,3140.991542
21073.301680,-74.020594,-12731.542202,-2528.115143
21073.302014,-2442.679609,-13619.789333,-5592.497135
21073.302347,-4441.235652,-10732.986159,-6128.763984
21073.302680,-3923.091493,-11843.295072,-4979.620737
21073.303013,-3108.864956,-9252.574275,-3447.429741
21073.303346,-1258.350101,-11843.295072,-76.609550
21073.303680,-1776.494261,-8364.327145,4903.011187
21073.304013,2368.659014,-7476.080014,11261.603821
21073.304346,4663.297435,-3701.029710,5362.668486
21073.304679,1776.494261,-3627.009116,4903.011187
21073.305013,3923.091493,-7105.977043,689.485948
21073.305346,1628.453072,-9030.512492,-153.219100
21073.305679,-370.102971,-10436.903782,-1685.410096
21073.306012,-3552.988522,-13767.830521,-3907.087040
21073.306345,-3108.864956,-10807.006753,-4979.620737
21073.306679,-4145.153275,-10140.821405,-1838.629195
21073.307012,-666.185348,-9474.636058,-3600.648841
21073.307345,-74.020594,-8586.388927,-2451.505594
21073.307678,2368.659014,-12065.356855,5515.887586
21073.308011,1110.308913,-8142.265362,4366.744339
21073.308345,3034.844362,-6957.935855,5132.839837
21073.308678,1924.535449,-6661.853478,3064.381992
21073.309011,3108.864956,-5921.647536,2451.505594
21073.309344,1184.329507,-7476.080014,612.876398
21073.309678,3478.967927,-11251.130318,3600.648841
21073.310011,-2442.679609,-11029.068536,-3370.820191
21073.310344,-4441.235652,-9548.656652,-4903.011187
21073.310677,-2368.659014,-11843.295072,-766.095498
21073.311010,-1850.514855,-7179.997637,-5822.325785
21073.311344,-370.102971,-10362.883188,-2528.115143
21073.311677,592.164754,-10436.903782,689.485948
21073.312010,2294.638420,-9252.574275,3907.087040
21073.312343,0.000000,-7179.997637,3064.381992
21073.312676,4663.297435,-6513.812290,4213.525239
21073.313010,4959.379811,-5477.523971,3217.601092
21073.313343,3552.988522,-7476.080014,2221.676944
21073.313676,5847.626942,-8290.306550,-76.609550
21073.314009,-1258.350101,-12879.583391,-3677.258390
21073.314343,-2368.659014,-12805.562797,-2068.457845
21073.314676,-74.020594,-12435.459826,-2528.115143
21073.315009,-666.185348,-9548.656652,-3677.258390
21073.315342,2886.803174,-9474.636058,-76.609550
21073.315675,370.102971,-9400.615463,-306.438199
21073.316009,1924.535449,-9844.739029,2834.553343
21073.316342,592.164754,-9696.697840,3677.258390
21073.316675,1406.391290,-5773.606348,2451.505594
21073.317008,4367.215058,-6291.750507,1838.629195
21073.317342,3627.009116,-9474.636058,2374.896044
21073.317675,1406.391290,-6143.709319,0.000000
21073.318008,-4737.318029,-11621.233289,-1225.752797
21073.318341,-3034.844362,-10510.924376,-4366.744339
21073.318674,-7328.038826,-13175.665768,-3217.601092
21073.319008,-2442.679609,-7698.141797,-4060.306139
21073.319341,-2220.617826,-9474.636058,-2068.457845
21073.319674,0.000000,-7179.997637,0.000000
21073.320007,3478.967927,-8882.471304,2451.505594
21073.320340,3182.885551,-12435.459826,7277.907231
21073.320674,2886.803174,-8142.265362,2528.115143
21073.321007,1776.494261,-7476.080014,2451.505594
21073.321340,5477.523971,-7772.162391,2604.724693
21073.321673,1776.494261,-9400.615463,1072.533697
21073.322007,444.123565,-10288.862594,-689.485948
21073.322340,-4293.194464,-11251.130318,-2987.772442
21073.322673,-4811.338623,-11843.295072,-3753.867940
21073.323006,-5921.647536,-7476.080014,-3064.381992
21073.323339,-1554.432478,-7994.224174,-2834.553343
21073.323673,-74.020594,-5403.503377,-2451.505594
21073.324006,3256.906145,-7698.141797,4213.525239
21073.324339,6439.791695,-7105.977043,5439.278036
21073.324672,2368.659014,-11547.212695,5592.497135
21073.325005,2664.741391,-8660.409521,2451.505594
21073.325339,1554.432478,-9252.574275,-229.828649
21073.325672,740.205942,-8808.450710,-2068.457845
21073.326005,2368.659014,-10732.986159,-76.609550
21073.326338,-1258.350101,-10732.986159,-3677.258390
21073.326672,-2368.659014,-11325.150913,-3064.381992
21073.327005,-3552.988522,-12139.377449,-76.609550
21073.327338,-74.020594,-9474.636058,-689.485948
21073.327671,1776.494261,-7994.224174,2068.457845
21073.328004,2072.576638,-5995.668130,2451.505594
21073.328338,3182.885551,-7105.977043,5132.839837
21073.328671,2960.823768,-7846.182985,4136.915689
21073.329004,1332.370696,-11473.192101,5669.106685
21073.329337,1332.370696,-5403.503377,76.609550
21073.329670,222.061783,-10658.965565,-2374.896044
21073.330004,-3404.947333,-11843.295072,-5515.887586
21073.330337,-3330.926739,-10066.800811,-7277.907231
21073.330670,-4737.318029,-13989.892304,-1455.581446
21073.331003,-74.020594,-13027.624579,-383.047749
21073.331337,-2590.720797,-8660.409521,612.876398
21073.331670,1480.411884,-7105.977043,2987.772442
21073.332003,4367.215058,-6513.812290,3294.210641
21073.332336,3256.906145,-5477.523971,5132.839837
21073.332669,4145.153275,-8364.327145,5515.887586
21073.333003,1998.556043,-9770.718434,3753.867940
21073.333336,0.000000,-6587.832884,0.000000
21073.333669,0.000000,-8956.491898,-76.609550
21073.334002,222.061783,-9030.512492,-4290.134789
21073.334336,-3330.926739,-8660.409521,-6128.763984
21073.334669,-4589.276840,-13767.830521,-3753.867940
21073.335002,-4811.338623,-10881.027347,-5822.325785
21073.335335,-5255.462188,-12657.521608,-2145.067394
21073.335668,-74.020594,-7402.059420,1532.190996
21073.336002,3404.947333,-6365.771101,6588.421283
21073.336335,8882.471304,-3108.864956,10265.679673
21073.336668,7846.182985,-9474.636058,12180.918418
21073.337001,4663.297435,-6291.750507,3677.258390
21073.337334,2072.576638,-10362.883188,4903.011187
21073.337668,1998.556043,-7105.977043,-3447.429741
21073.338001,0.000000,-7772.162391,-4903.011187
21073.338334,-2738.761985,-11103.089130,-6971.469032
21073.338667,-2368.659014,-12065.356855,-6741.640382
21073.339001,-4737.318029,-13101.645173,-5056.230287
21073.339334,-3034.844362,-13619.789333,-2528.115143
21073.339667,2294.638420,-9474.636058,2374.896044
21073.340000,5847.626942,-5403.503377,4903.011187
21073.340333,7994.224174,-4515.256246,9882.631924
21073.340667,9400.615463,-6513.812290,7890.783629
21073.341000,6735.874072,-9178.553681,5745.716235
21073.341333,3997.112087,-9622.677246,3294.210641
21073.341666,1332.370696,-9548.656652,-1532.190996
21073.341999,-74.020594,-11251.130318,-4519.963438
21073.342333,-4441.235652,-9548.656652,-7967.393179
21073.342666,-3627.009116,-10510.924376,-8580.269578
21073.342999,-3256.906145,-13841.851115,-2145.067394
21073.343332,-1258.350101,-13619.789333,-1915.238745
21073.343666,-6809.894666,-11029.068536,2451.505594
21073.343999,-814.226536,-7920.203579,4826.401637
21073.344332,3701.029710,-3330.926739,7201.297681
21073.344665,4293.194464,-3923.091493,8350.440928
21073.344998,4737.318029,-4885.359217,7048.078582
21073.345332,1184.329507,-7179.997637,3217.601092
21073.345665,-1850.514855,-9696.697840,-612.876398
21073.345998,-1924.535449,-9252.574275,-4903.011187
21073.346331,-4367.215058,-11769.274478,-7354.516781
21073.346664,-5107.421000,-13323.706956,-8273.831378
21073.346998,-6661.853478,-10732.986159,-6971.469032
21073.347331,-4811.338623,-16580.613101,-2528.115143
21073.347664,-4811.338623,-8364.327145,0.000000
21073.347997,-1184.329507,-7179.997637,3677.258390
21073.348331,6143.709319,-7105.977043,9729.412825
21073.348664,5329.482782,-3330.926739,11644.651570
21073.348997,4663.297435,-4219.173869,8350.440928
21073.349330,4885.359217,-6217.729913,5898.935335
21073.349663,148.041188,-9178.553681,1149.143247
21073.349997,-1184.329507,-9104.533087,-4290.134789
21073.350330,-4219.173869,-9548.656652,-9806.022374
21073.350663,-7105.977043,-11325.150913,-9116.536426
21073.350996,-2442.679609,-13619.789333,-8656.879127
21073.351330,-3627.009116,-14359.995275,-4366.744339
21073.351663,-2368.659014,-12509.480420,-76.609550
21073.351996,-888.247130,-10214.842000,3677.258390
21073.352329,5847.626942,-5033.400406,8503.660028
21073.352662,7550.100608,-3330.926739,10265.679673
21073.352996,9400.615463,-4737.318029,9729.412825
21073.353329,4367.215058,-3034.844362,4903.011187
21073.353662,3108.864956,-9992.780217,4903.011187
21073.353995,2294.638420,-11843.295072,-1915.238745
21073.354328,-3552.988522,-7476.080014,-7354.516781
21073.354662,-3627.009116,-13323.706956,-9116.536426
21073.354995,-2294.638420,-9548.656652,-9039.926876
21073.355328,-1406.391290,-14804.118840,-5132.839837
21073.355661,-2072.576638,-13249.686362,-1608.800546
21073.355995,-2220.617826,-10658.965565,76.609550
21073.356328,0.000000,-7179.997637,5209.449386
21073.356661,4737.318029,-6291.750507,8197.221829
21073.356994,5551.544565,-2368.659014,6358.592633
21073.357327,2960.823768,-3627.009116,7354.516781
21073.357661,5551.544565,-6513.812290,3907.087040
21073.357994,1998.556043,-11251.130318,2528.115143
21073.358327,-2368.659014,-9030.512492,-3600.648841
21073.358660,-3478.967927,-11029.068536,-7048.078582
21073.358993,-5403.503377,-11843.295072,-9422.974625
21073.359327,-3997.112087,-11991.336260,-7354.516781
21073.359660,-4145.153275,-12657.521608,-4060.306139
21073.359993,-2368.659014,-12287.418637,612.876398
21073.360326,-592.164754,-10288.862594,5439.278036
21073.360660,4071.132681,-6513.812290,6052.154434
21073.360993,2516.700203,-3923.091493,7967.393179
21073.361326,4737.318029,-4811.338623,9729.412825
21073.361659,4367.215058,-6957.935855,4826.401637
21073.361992,1776.494261,-7179.997637,2451.505594
21073.362326,814.226536,-9474.636058,-76.609550
21073.362659,-888.247130,-8438.347739,-2911.162892
21073.362992,-1480.411884,-8660.409521,-5515.887586
21073.363325,-3627.009116,-11547.212695,-7431.126331
21073.363658,-3849.070898,-14211.954086,-7431.126331
21073.363992,-6809.894666,-13693.809927,-3677.258390
21073.364325,-148.041188,-11251.130318,3294.210641
21073.364658,3552.988522,-8438.347739,6511.811733
21073.364991,8216.285956,-7105.977043,9116.536426
21073.365325,7179.997637,-5921.647536,9039.926876
21073.365658,6143.709319,-3627.009116,7124.688131
21073.365991,5551.544565,-9178.553681,4903.011187
21073.366324,-1776.494261,-8364.327145,0.000000
21073.366657,-74.020594,-10658.965565,-2528.115143
21073.366991,-4145.153275,-8956.491898,-2528.115143
21073.367324,-1258.350101,-11251.130318,-7124.688131
21073.367657,-3849.070898,-9548.656652,-7737.564530
21073.367990,-2294.638420,-12509.480420,-2451.505594
21073.368323,-3256.906145,-11325.150913,-1225.752797
21073.368657,-1850.514855,-10362.883188,842.705048
21073.368990,370.102971,-7920.203579,2757.943793
21073.369323,4737.318029,-5995.668130,8580.269578
21073.369656,5847.626942,-3256.906145,4903.011187
21073.369990,6143.709319,-9178.553681,8503.660028
21073.370323,-74.020594,-9178.553681,229.828649
21073.370656,-4737.318029,-11769.274478,-76.609550
21073.370989,-2072.576638,-9178.553681,-3524.039291
21073.371322,-1924.535449,-8956.491898,-4979.620737
21073.371656,-518.144159,-10436.903782,-4060.306139
21073.371989,-888.247130,-10807.006753,-1915.238745
21073.372322,-1702.473667,-14211.954086,-76.609550
21073.372655,-4737.318029,-7772.162391,1225.752797
21073.372989,-666.185348,-11843.295072,1149.143247
21073.373322,3182.885551,-4219.173869,2987.772442
21073.373655,2368.659014,-6883.915261,8503.660028
21073.373988,3701.029710,-5625.565159,3830.477490
21073.374321,1184.329507,-7105.977043,2757.943793
21073.374655,-1702.473667,-10436.903782,153.219100
21073.374988,518.144159,-9474.636058,383.047749
21073.375321,-666.185348,-9474.636058,-1915.238745
21073.375654,0.000000,-8364.327145,-3064.381992
21073.375987,-1998.556043,-7772.162391,-5132.839837
21073.376321,1258.350101,-11251.130318,-1302.362347
21073.376654,-222.061783,-9844.739029,459.657299
21073.376987,2294.638420,-13619.789333,4519.963438
21073.377320,148.041188,-7772.162391,2451.505594
21073.377654,0.000000,-9548.656652,5132.839837
21073.377987,2886.803174,-6513.812290,995.924147
21073.378320,0.000000,-7476.080014,919.314598
21073.378653,1184.329507,-10362.883188,2374.896044
21073.378986,-1184.329507,-8956.491898,2145.067394
21073.379320,-2146.597232,-7772.162391,76.609550
21073.379653,-444.123565,-6439.791695,-2145.067394
21073.379986,370.102971,-9178.553681,-2451.505594
21073.380319,2072.576638,-7179.997637,0.000000
21073.380652,2294.638420,-13619.789333,-76.609550
21073.380986,-74.020594,-13027.624579,-1915.238745
21073.381319,-1184.329507,-10881.027347,306.438199
21073.381652,-74.020594,-11251.130318,689.485948
21073.381985,2516.700203,-8142.265362,1685.410096
21073.382319,-962.267725,-8586.388927,842.705048
21073.382652,-888.247130,-8068.244768,1072.533697
21073.382985,-3552.988522,-8956.491898,612.876398
21073.383318,-4737.318029,-6587.832884,4596.572988
21073.383651,-74.020594,-5329.482782,-1225.752797
21073.383985,0.000000,-5107.421000,-1838.629195
21073.384318,2368.659014,-7105.977043,1455.581446
21073.384651,222.061783,-8364.327145,-1838.629195
21073.384984,444.123565,-12583.501014,-689.485948
21073.385317,-1702.473667,-13323.706956,-383.047749
21073.385651,370.102971,-9770.718434,-842.705048
21073.385984,2294.638420,-11843.295072,-153.219100
21073.386317,888.247130,-8882.471304,-76.609550
21073.386650,-74.020594,-10658.965565,-995.924147
21073.386984,0.000000,-8364.327145,3677.258390
21073.387317,2886.803174,-12435.459826,6052.154434
21073.387650,1184.329507,-4811.338623,5209.449386
21073.387983,5255.462188,-4589.276840,4060.306139
21073.388316,4071.132681,-4737.318029,1915.238745
21073.388650,4219.173869,-6661.853478,-612.876398
21073.388983,296.082377,-12139.377449,-3830.477490
21073.389316,2886.803174,-13027.624579,-2681.334243
21073.389649,0.000000,-11029.068536,-3370.820191
21073.389983,3849.070898,-12583.501014,1149.143247
21073.390316,2738.761985,-9252.574275,-3370.820191
21073.390649,0.000000,-10140.821405,0.000000
21073.390982,1924.535449,-9844.739029,536.266849
21073.391315,296.082377,-11399.171507,3907.087040
21073.391649,370.102971,-7179.997637,4136.915689
21073.391982,1998.556043,-3849.070898,3294.210641
21073.392315,4071.132681,-5033.400406,3907.087040
21073.392648,1776.494261,-6291.750507,1762.019645
21073.392981,666.185348,-7846.182985,-1225.752797
21073.393315,-1184.329507,-12287.418637,-995.924147
21073.393648,-3034.844362,-11843.295072,-2834.553343
21073.393981,-4737.318029,-11029.068536,-1991.848295
21073.394314,-2442.679609,-11251.130318,-5592.497135
21073.394648,-4145.153275,-9548.656652,-5515.887586
21073.394981,-1184.329507,-10140.821405,153.219100
21073.395314,-962.267725,-11399.171507,2451.505594
21073.395647,-3849.070898,-10288.862594,2987.772442
21073.395980,0.000000,-5329.482782,3447.429741
21073.396314,1332.370696,-6069.688724,6281.983084
21073.396647,4737.318029,-74.020594,3677.258390
21073.396980,2886.803174,-9474.636058,2374.896044
21073.397313,2294.638420,-8290.306550,-1302.362347
21073.397646,-4737.318029,-14285.974681,-1225.752797
21073.397980,-1258.350101,-11843.295072,-2528.115143
21073.398313,-2368.659014,-10881.027347,-2528.115143
21073.398646,-4441.235652,-10510.924376,-4826.401637
21073.398979,-1776.494261,-8956.491898,-2451.505594
21073.399312,-5033.400406,-12065.356855,-1532.190996
21073.399646,0.000000,-9696.697840,4290.134789
21073.399979,-74.020594,-7402.059420,2987.772442
21073.400312,2368.659014,-2738.761985,4290.134789
21073.400645,4293.194464,-4737.318029,7277.907231
21073.400978,3182.885551,-3701.029710,0.000000
21073.401312,7105.977043,-8512.368333,2987.772442
21073.401645,0.000000,-11917.315666,0.000000
21073.401978,2886.803174,-10658.965565,-1608.800546
21073.402311,-3256.906145,-12139.377449,-4826.401637
21073.402644,-666.185348,-14211.954086,-6818.249932
21073.402978,-2738.761985,-8438.347739,-7354.516781
21073.403311,-2220.617826,-14137.933492,-1302.362347
21073.403644,-666.185348,-13027.624579,-76.609550
21073.403977,-2442.679609,-6735.874072,1225.752797
21073.404310,3775.050304,-4737.318029,7277.907231
21073.404644,4145.153275,-3108.864956,7814.174080
21073.404977,7254.018232,-2960.823768,5515.887586
21073.405310,5699.585753,-7994.224174,4519.963438
21073.405643,5847.626942,-10955.047942,2221.676944
21073.405976,1628.453072,-11843.295072,-1991.848295
21073.406310,-1998.556043,-14211.954086,-5898.935335
21073.406643,-1628.453072,-12805.562797,-7201.297681
21073.406976,-4737.318029,-12213.398043,-7354.516781
21073.407309,-1184.329507,-12805.562797,-3140.991542
21073.407642,-1406.391290,-10066.800811,-1762.019645
21073.407976,-962.267725,-9548.656652,1225.752797
21073.408309,1776.494261,-6439.791695,9116.536426
21073.408642,4811.338623,-444.123565,8197.221829
21073.408975,5625.565159,-3849.070898,8350.440928
21073.409308,3627.009116,-5033.400406,4136.915689
21073.409641,148.041188,-8068.244768,-1072.533697
21073.409975,-2368.659014,-13101.645173,-1991.848295
21073.410308,-4737.318029,-13841.851115,-3140.991542
21073.410641,-5699.585753,-10436.903782,-9193.145976
21073.410974,-4737.318029,-11917.315666,-8580.269578
21073.411307,-1776.494261,-8956.491898,-2834.553343
21073.411641,-2368.659014,-12213.398043,-1225.752797
21073.411974,2368.659014,-8734.430116,3983.696590
21073.412307,1924.535449,-8586.388927,7507.735880
21073.412640,4145.153275,-5107.421000,7737.564530
21073.412973,7031.956449,-2960.823768,4826.401637
21073.413307,2960.823768,-7105.977043,4826.401637
21073.413640,3182.885551,-3923.091493,0.000000
21073.413973,0.000000,-12731.542202,-1302.362347
21073.414306,-2220.617826,-15470.304188,-2834.553343
21073.414639,-2590.720797,-11843.295072,-5592.497135
21073.414973,-1554.432478,-11843.295072,-4979.620737
21073.415306,2812.782580,-9104.533087,-2528.115143
21073.415639,444.123565,-10288.862594,-689.485948
21073.415972,1184.329507,-6587.832884,1838.629195
21073.416305,4663.297435,-10658.965565,4826.401637
21073.416639,3849.070898,-7772.162391,7354.516781
21073.416972,7920.203579,-5921.647536,4826.401637
21073.417305,592.164754,-7179.997637,4290.134789
21073.417638,2072.576638,-6587.832884,766.095498
21073.417971,-814.226536,-10807.006753,-306.438199
21073.418305,-2294.638420,-12361.439231,-2528.115143
21073.418638,-4737.318029,-11621.233289,-3753.867940
21073.418971,-3256.906145,-10658.965565,-2681.334243
21073.419304,-2442.679609,-7772.162391,-4903.011187
21073.419637,888.247130,-9178.553681,-76.609550
21073.419970,1998.556043,-9474.636058,-76.609550
21073.420304,0.000000,-9548.656652,6128.763984
21073.420637,592.164754,-8660.409521,4290.134789
21073.420970,296.082377,-7328.038826,2528.115143
21073.421303,2886.803174,-7550.100608,2221.676944
21073.421636,1480.411884,-6587.832884,1149.143247
21073.421970,2812.782580,-12435.459826,2987.772442
21073.422303,-2442.679609,-9548.656652,-2451.505594
21073.422636,-5255.462188,-13619.789333,-3064.381992
21073.422969,-3923.091493,-8882.471304,-2221.676944
21073.423302,-1924.535449,-8734.430116,-1532.190996
21073.423636,-2368.659014,-8660.409521,0.000000
21073.423969,-74.020594,-5181.441594,-1838.629195
21073.424302,-3552.988522,-8364.327145,1225.752797
21073.424635,2738.761985,-9474.636058,3294.210641
21073.424968,518.144159,-8882.471304,2987.772442
21073.425302,1184.329507,-7920.203579,4060.306139
21073.425635,1110.308913,-6883.915261,612.876398
21073.425968,1924.535449,-9252.574275,-1149.143247
21073.426301,2516.700203,-12213.398043,-229.828649
21073.426634,-666.185348,-14211.954086,-76.609550
21073.426968,-1850.514855,-9252.574275,-1685.410096
21073.427301,0.000000,-9696.697840,0.000000
21073.427634,1628.453072,-9474.636058,-76.609550
21073.427967,1110.308913,-4219.173869,-766.095498
21073.428300,1776.494261,-9178.553681,2374.896044
21073.428634,740.205942,-7698.141797,1915.238745
21073.428967,-74.020594,-10214.842000,1302.362347
21073.429300,740.205942,-7920.203579,2834.553343
21073.429633,666.185348,-6217.729913,-76.609550
21073.429966,1998.556043,-5403.503377,0.000000
21073.430299,2590.720797,-12879.583391,-76.609550
21073.430633,-74.020594,-13619.789333,-2528.115143
21073.430966,-2146.597232,-11621.233289,-1225.752797
21073.431299,-1258.350101,-10658.965565,-2834.553343
21073.431632,148.041188,-9178.553681,-76.609550
21073.431965,1924.535449,-7105.977043,1149.143247
21073.432299,4589.276840,-5477.523971,2068.457845
21073.432632,2368.659014,-7179.997637,3677.258390
21073.432965,2368.659014,-10140.821405,3677.258390
21073.433298,3478.967927,-11843.295072,2374.896044
21073.433631,222.061783,-6143.709319,0.000000
21073.433965,-1776.494261,-8364.327145,995.924147
21073.434298,-666.185348,-10955.047942,-4366.744339
21073.434631,-1628.453072,-10066.800811,-4519.963438
21073.434964,-5773.606348,-13989.892304,-2757.943793
21073.435297,-2886.803174,-10066.800811,-1455.581446
21073.435631,-4441.235652,-9548.656652,0.000000
21073.435964,0.000000,-6661.853478,1685.410096
21073.436297,2664.741391,-5551.544565,4290.134789
21073.436630,4663.297435,-5181.441594,5056.230287
21073.436963,5847.626942,-9474.636058,6052.154434
21073.437297,2590.720797,-9474.636058,4826.401637
21073.437630,888.247130,-7179.997637,2451.505594
21073.437963,2294.638420,-9474.636058,-1302.362347
21073.438296,-74.020594,-10510.924376,-5592.497135
21073.438629,-2442.679609,-11251.130318,-5439.278036
21073.438963,-3478.967927,-13545.768739,-5286.058936
21073.439296,-4811.338623,-11917.315666,-3524.039291
21073.439629,-3034.844362,-10214.842000,-76.609550
21073.439962,1110.308913,-6883.915261,2374.896044
21073.440295,7698.141797,-6587.832884,7890.783629
21073.440628,3552.988522,-2442.679609,7354.516781
21073.440962,7031.956449,-7105.977043,6971.469032
21073.441295,2664.741391,-6883.915261,1608.800546
21073.441628,2886.803174,-9770.718434,1608.800546
21073.441961,2590.720797,-9770.718434,-1915.238745
21073.442294,-962.267725,-11843.295072,-4903.011187
21073.442628,-4737.318029,-12213.398043,-8273.831378
21073.442961,-3997.112087,-13471.748144,-6358.592633
21073.443294,-4219.173869,-14211.954086,-1915.238745
21073.443627,-4737.318029,-11769.274478,1838.629195
21073.443960,-1258.350101,-8290.306550,1149.143247
21073.444294,0.000000,-5107.421000,4903.011187
21073.444627,5329.482782,-1554.432478,9806.022374
21073.444960,4885.359217,-3330.926739,7354.516781
21073.445293,4663.297435,-7402.059420,4519.963438
21073.445626,1480.411884,-11029.068536,1378.971896
21073.445960,-2220.617826,-10288.862594,-3677.258390
21073.446293,-2960.823768,-9844.739029,-9039.926876
21073.446626,-3627.009116,-14211.954086,-8656.879127
21073.446959,-2442.679609,-15396.283594,-6205.373534
21073.447292,-5921.647536,-13101.645173,-2451.505594
21073.447626,-2738.761985,-11251.130318,1762.019645
21073.447959,-2664.741391,-8142.265362,4519.963438
21073.448292,3627.009116,-4885.359217,7660.954980
21073.448625,6217.729913,-1036.288319,8963.317327
21073.448958,4515.256246,-3404.947333,6281.983084
21073.449292,4737.318029,-5403.503377,5362.668486
21073.449625,2294.638420,-9178.553681,-1455.581446
21073.449958,0.000000,-11029.068536,-612.876398
21073.450291,0.000000,-11029.068536,-2528.115143
21073.450624,-2442.679609,-14211.954086,-8656.879127
21073.450957,-3552.988522,-12509.480420,-8044.002729
21073.451291,-2146.597232,-15248.242405,-4979.620737
21073.451624,-1036.288319,-13323.706956,689.485948
21073.451957,-2072.576638,-10584.944971,4596.572988
21073.452290,1184.329507,-4219.173869,7354.516781
21073.452623,4885.359217,-3404.947333,9499.584175
21073.452957,6291.750507,-592.164754,8427.050478
21073.453290,4145.153275,-3182.885551,5745.716235
21073.453623,518.144159,-7550.100608,1762.019645
21073.453956,-2368.659014,-8660.409521,-2451.505594
21073.454289,-2664.741391,-11843.295072,-3140.991542
21073.454623,-1850.514855,-11547.212695,-8656.879127
21073.454956,-3552.988522,-12509.480420,-7354.516781
21073.455289,-1258.350101,-16284.530724,-3753.867940
21073.455622,-2368.659014,-13989.892304,-1532.190996
21073.455955,-2812.782580,-11251.130318,842.705048
21073.456289,74.020594,-9030.512492,4290.134789
21073.456622,3552.988522,-3627.009116,7354.516781
21073.456955,4145.153275,-1258.350101,9806.022374
21073.457288,7031.956449,-4441.235652,6665.030833
21073.457621,3552.988522,-3627.009116,3677.258390
21073.457955,592.164754,-9548.656652,1608.800546
21073.458288,-1850.514855,-9548.656652,-3600.648841
21073.458621,-2294.638420,-9770.718434,-6052.154434
21073.458954,-4219.173869,-12139.377449,-9576.193725
21073.459287,-4145.153275,-12583.501014,-7737.564530
21073.459621,-2442.679609,-14211.954086,-4443.353888
21073.459954,-7105.977043,-13693.809927,-536.266849
21073.460287,-74.020594,-9474.636058,2374.896044
21073.460620,0.000000,-6587.832884,7354.516781
21073.460953,4737.318029,-1998.556043,10112.460574
21073.461286,5477.523971,-4071.132681,7354.516781
21073.461620,7328.038826,-3775.050304,6052.154434
21073.461953,4515.256246,-8586.388927,4749.792088
21073.462286,2960.823768,-9770.718434,459.657299
21073.462619,-666.185348,-11029.068536,-4060.306139
21073.462952,-3182.885551,-13545.768739,-6818.249932
21073.463286,-4145.153275,-10066.800811,-9422.974625
21073.463619,-5921.647536,-11325.150913,-6128.763984
21073.463952,-370.102971,-12435.459826,-4979.620737
21073.464285,-3627.009116,-12139.377449,1149.143247
21073.464618,2072.576638,-6217.729913,4979.620737
21073.464952,3627.009116,-6439.791695,7584.345430
21073.465285,6513.812290,-3627.009116,7737.564530
21073.465618,5921.647536,-3627.009116,7354.516781
21073.465951,7031.956449,-8290.306550,5286.058936
21073.466284,4737.318029,-7772.162391,3830.477490
21073.466618,-1184.329507,-12361.439231,-76.609550
21073.466951,1110.308913,-9474.636058,-7354.516781
21073.467284,-3034.844362,-13175.665768,-6818.249932
21073.467617,-2886.803174,-12287.418637,-8350.440928
21073.467950,-3923.091493,-12435.459826,-6205.373534
21073.468284,-4737.318029,-13545.768739,-536.266849
21073.468617,-2960.823768,-5995.668130,1225.752797
21073.468950,1702.473667,-6957.935855,6358.592633
21073.469283,4737.318029,-3478.967927,8886.707777
21073.469616,5107.421000,-2960.823768,8120.612279
21073.469950,4145.153275,-5699.585753,5975.544884
21073.470283,1480.411884,-7179.997637,2451.505594
21073.470616,-1850.514855,-13027.624579,-1302.362347
21073.470949,-4737.318029,-8364.327145,-6128.763984
21073.471282,-1554.432478,-12435.459826,-5898.935335
21073.471615,-1554.432478,-14211.954086,-5286.058936
21073.471949,-3330.926739,-10140.821405,-6741.640382
21073.472282,-2442.679609,-13841.851115,-1608.800546
21073.472615,-1924.535449,-10066.800811,1455.581446
21073.472948,-518.144159,-8512.368333,5056.230287
21073.473281,2368.659014,-5995.668130,9193.145976
21073.473615,5847.626942,-4145.153275,6052.154434
21073.473948,2368.659014,-3627.009116,3907.087040
21073.474281,2368.659014,-6883.915261,6052.154434
21073.474614,-1406.391290,-9474.636058,-689.485948
21073.474947,-3552.988522,-10140.821405,-919.314598
21073.475281,-1554.432478,-10584.944971,-5056.230287
21073.475614,-3108.864956,-11695.253884,-7737.564530
21073.475947,-2960.823768,-10584.944971,-7354.516781
21073.476280,-74.020594,-14211.954086,-2528.115143
21073.476613,2294.638420,-13027.624579,-1149.143247
21073.476947,0.000000,-8956.491898,5515.887586
21073.477280,0.000000,-8364.327145,8810.098227
21073.477613,5551.544565,-5625.565159,6665.030833
21073.477946,4663.297435,-5181.441594,6052.154434
21073.478279,4885.359217,-4811.338623,3753.867940
21073.478613,1850.514855,-9252.574275,2298.286494
21073.478946,-962.267725,-9918.759623,-1149.143247
21073.479279,-2368.659014,-9178.553681,-3294.210641
21073.479612,-2368.659014,-9548.656652,-7354.516781
21073.479945,0.000000,-11251.130318,-4060.306139
21073.480278,814.226536,-11399.171507,-4749.792088
21073.480612,0.000000,-10140.821405,0.000000
21073.480945,1998.556043,-11251.130318,-76.609550
21073.481278,222.061783,-11177.109724,2911.162892
21073.481611,4293.194464,-7105.977043,5745.716235
21073.481944,4367.215058,-6587.832884,6052.154434
21073.482278,3256.906145,-4811.338623,3217.601092
21073.482611,1776.494261,-7772.162391,2451.505594
21073.482944,-296.082377,-9030.512492,0.000000
21073.483277,-1480.411884,-10510.924376,612.876398
21073.483610,-1184.329507,-8660.409521,-1532.190996
21073.483944,-1036.288319,-11103.089130,-2068.457845
21073.484277,-1258.350101,-8512.368333,-6588.421283
21073.484610,296.082377,-10140.821405,-3370.820191
21073.484943,296.082377,-12139.377449,2374.896044
21073.485276,0.000000,-9696.697840,1225.752797
21073.485610,1776.494261,-10362.883188,3524.039291
21073.485943,740.205942,-9104.533087,3447.429741
21073.486276,518.144159,-7698.141797,1838.629195
21073.486609,-222.061783,-7994.224174,-76.609550
21073.486942,-2368.659014,-8660.409521,1378.971896
21073.487276,-74.020594,-6883.915261,0.000000
21073.487609,-518.144159,-9474.636058,4213.525239
21073.487942,-74.020594,-8142.265362,-689.485948
21073.488275,1110.308913,-10510.924376,-689.485948
21073.488608,592.164754,-9178.553681,-1915.238745
21073.488942,1406.391290,-10658.965565,-842.705048
21073.489275,-2368.659014,-11917.315666,-153.219100
21073.489608,0.000000,-11473.192101,842.705048
21073.489941,2294.638420,-11399.171507,4213.525239
21073.490274,1776.494261,-7179.997637,1225.752797
21073.490607,1776.494261,-10658.965565,1762.019645
21073.490941,-1480.411884,-7772.162391,0.000000
21073.491274,-3256.906145,-8364.327145,153.219100
21073.491607,-2442.679609,-8142.265362,1685.410096
21073.491940,-740.205942,-5921.647536,2068.457845
21073.492273,0.000000,-6587.832884,919.314598
21073.492607,296.082377,-5847.626942,612.876398
21073.492940,1998.556043,-8290.306550,-1302.362347
21073.493273,0.000000,-11917.315666,919.314598
21073.493606,3182.885551,-13619.789333,2374.896044
21073.493939,1110.308913,-10881.027347,-1532.190996
21073.494273,0.000000,-11917.315666,0.000000
21073.494606,1110.308913,-8512.368333,-3064.381992
21073.494939,592.164754,-11251.130318,-536.266849
21073.495272,296.082377,-9696.697840,1608.800546
21073.495605,0.000000,-9548.656652,2451.505594
21073.495939,-1776.494261,-5699.585753,766.095498
21073.496272,3552.988522,-8290.306550,5898.935335
21073.496605,4663.297435,-5625.565159,3447.429741
21073.496938,592.164754,-4811.338623,1225.752797
21073.497271,296.082377,-12361.439231,306.438199
21073.497605,-74.020594,-8438.347739,-3370.820191
21073.497938,-1406.391290,-12139.377449,-2451.505594
21073.498271,814.226536,-11177.109724,-1302.362347
21073.498604,-518.144159,-11399.171507,-2451.505594
21073.498937,-1332.370696,-8956.491898,-2451.505594
21073.499271,-370.102971,-10362.883188,-842.705048
21073.499604,-740.205942,-10214.842000,1072.533697
21073.499937,-740.205942,-7920.203579,4136.915689
21073.500270,4663.297435,-6513.812290,6052.154434
21073.500603,3182.885551,-3923.091493,4903.011187
21073.500937,4663.297435,-6365.771101,4826.401637
21073.501270,4663.297435,-7994.224174,-1991.848295
21073.501603,0.000000,-10732.986159,-1838.629195
21073.501936,-1184.329507,-12805.562797,-2145.067394
21073.502269,-814.226536,-11917.315666,-2451.505594
21073.502603,-1184.329507,-15026.180623,-76.609550
21073.502936,-2368.659014,-9030.512492,-2451.505594
21073.503269,-1258.350101,-8882.471304,-1455.581446
21073.503602,-666.185348,-6883.915261,0.000000
21073.503935,-2220.617826,-8290.306550,2987.772442
21073.504269,-666.185348,-7105.977043,1149.143247
21073.504602,370.102971,-4811.338623,2451.505594
21073.504935,3478.967927,-6809.894666,4826.401637
21073.505268,2368.659014,-6957.935855,1608.800546
21073.505601,1776.494261,-9548.656652,306.438199
21073.505935,-1480.411884,-12213.398043,-1991.848295
21073.506268,-1776.494261,-12509.480420,-2451.505594
21073.506601,-1702.473667,-11843.295072,-3677.258390
21073.506934,-74.020594,-14211.954086,-3753.867940
21073.507267,-2960.823768,-9548.656652,-2451.505594
21073.507601,-2072.576638,-7772.162391,612.876398
21073.507934,-2368.659014,-8660.409521,1762.019645
21073.508267,-592.164754,-7105.977043,5132.839837
21073.508600,1406.391290,-3997.112087,4136.915689
21073.508933,1998.556043,-4737.318029,4673.182538
21073.509267,4071.132681,-5773.606348,1762.019645
21073.509600,1184.329507,-8956.491898,2145.067394
21073.509933,-74.020594,-13027.624579,-1302.362347
21073.510266,-2664.741391,-11917.315666,-3677.258390
21073.510599,-2516.700203,-14211.954086,-3064.381992
21073.510933,-74.020594,-11547.212695,-4290.134789
21073.511266,-74.020594,-11103.089130,-2298.286494
21073.511599,1332.370696,-9770.718434,-1149.143247
21073.511932,518.144159,-10436.903782,689.485948
21073.512265,0.000000,-7031.956449,3600.648841
21073.512599,6365.771101,-7105.977043,6971.469032
21073.512932,3701.029710,-3034.844362,5515.887586
21073.513265,1184.329507,-5995.668130,5209.449386
21073.513598,6735.874072,-6513.812290,-76.609550
21073.513931,3182.885551,-11251.130318,919.314598
21073.514265,814.226536,-11547.212695,-1378.971896
21073.514598,-2664.741391,-12879.583391,-4596.572988
21073.514931,-2368.659014,-10955.047942,-5822.325785
21073.515264,-1702.473667,-9992.780217,-4290.134789
21073.515597,-74.020594,-10362.883188,-3294.210641
21073.515931,888.247130,-8512.368333,229.828649
21073.516264,-666.185348,-9474.636058,1762.019645
21073.516597,2368.659014,-8290.306550,4903.011187
21073.516930,2886.803174,-4737.318029,5745.716235
21073.517263,2738.761985,-6957.935855,6052.154434
21073.517597,3478.967927,-7105.977043,842.705048
21073.517930,1184.329507,-8364.327145,2298.286494
21073.518263,1776.494261,-10732.986159,1532.190996
21073.518596,-1258.350101,-12879.583391,-2834.553343
21073.518929,-2442.679609,-11473.192101,-4213.525239
21073.519263,-3849.070898,-11325.150913,-5362.668486
21073.519596,-1480.411884,-10288.862594,-3370.820191
21073.519929,-2072.576638,-7476.080014,-4290.134789
21073.520262,-74.020594,-12731.542202,1762.019645
21073.520595,0.000000,-6365.771101,1762.019645
21073.520929,592.164754,-6143.709319,8044.002729
21073.521262,4663.297435,-7105.977043,6052.154434
21073.521595,1406.391290,-6587.832884,3830.477490
21073.521928,2516.700203,-6957.935855,1302.362347
21073.522261,-370.102971,-11177.109724,-612.876398
21073.522595,-3404.947333,-12287.418637,-3140.991542
21073.522928,-5329.482782,-10732.986159,-4290.134789
21073.523261,-666.185348,-13027.624579,-3753.867940
21073.523594,-1776.494261,-8660.409521,-3064.381992
21073.523927,-2072.576638,-5403.503377,-2451.505594
21073.524261,-1628.453072,-11251.130318,995.924147
21073.524594,0.000000,-9030.512492,2987.772442
21073.524927,1850.514855,-7846.182985,4903.011187
21073.525260,4737.318029,-6365.771101,6588.421283
21073.525593,4515.256246,-6291.750507,5286.058936
21073.525927,3182.885551,-8290.306550,1762.019645
21073.526260,962.267725,-7920.203579,-2834.553343
21073.526593,-2960.823768,-11621.233289,-1532.190996
21073.526926,-3034.844362,-12287.418637,-1838.629195
21073.527259,-2146.597232,-10658.965565,-4366.744339
21073.527593,-1776.494261,-10436.903782,-2298.286494
21073.527926,-370.102971,-8586.388927,-1685.410096
21073.528259,2442.679609,-7698.141797,1149.143247
21073.528592,3923.091493,-7772.162391,2911.162892
21073.528925,3923.091493,-9474.636058,4826.401637
21073.529259,1998.556043,-7328.038826,4596.572988
21073.529592,2590.720797,-6439.791695,1225.752797
21073.529925,2368.659014,-7772.162391,383.047749
21073.530258,0.000000,-7772.162391,0.000000
21073.530591,0.000000,-11325.150913,-76.609550
21073.530925,-1258.350101,-11843.295072,-2681.334243
21073.531258,-4441.235652,-9548.656652,-4903.011187
21073.531591,0.000000,-8956.491898,-919.314598
21073.531924,-1036.288319,-8364.327145,0.000000
21073.532257,1850.514855,-6439.791695,153.219100
21073.532591,2886.803174,-8290.306550,1991.848295
21073.532924,2442.679609,-8882.471304,3600.648841
21073.533257,2664.741391,-9474.636058,5209.449386
21073.533590,2294.638420,-7920.203579,3524.039291
21073.533923,2294.638420,-6587.832884,-2298.286494
21073.534257,0.000000,-8660.409521,76.609550
21073.534590,-666.185348,-13027.624579,-1915.238745
21073.534923,-3701.029710,-12953.603985,-1532.190996
21073.535256,-5329.482782,-11325.150913,-2068.457845
21073.535589,-2442.679609,-10658.965565,-76.609550
21073.535923,-1332.370696,-7698.141797,0.000000
21073.536256,222.061783,-6587.832884,1762.019645
21073.536589,1184.329507,-6291.750507,4826.401637
21073.536922,296.082377,-4811.338623,612.876398
21073.537255,0.000000,-10140.821405,4826.401637
21073.537589,1110.308913,-7328.038826,306.438199
21073.537922,0.000000,-7772.162391,0.000000
21073.538255,1110.308913,-10510.924376,-536.266849
21073.538588,0.000000,-11547.212695,-2681.334243
21073.538921,-4219.173869,-13027.624579,-3677.258390
21073.539255,-4589.276840,-11547.212695,-2528.115143
21073.539588,-2442.679609,-11843.295072,-689.485948
21073.539921,0.000000,-6587.832884,2528.115143
21073.540254,3478.967927,-9474.636058,5439.278036
21073.540587,-888.247130,-4219.173869,2451.505594
21073.540921,4737.318029,-4811.338623,6128.763984
21073.541254,1998.556043,-8364.327145,2451.505594
21073.541587,3923.091493,-9326.594869,2604.724693
21073.541920,2442.679609,-8290.306550,229.828649
21073.542253,-1480.411884,-11103.089130,-2757.943793
21073.542587,-1628.453072,-9548.656652,-7354.516781
21073.542920,-1850.514855,-16580.613101,-4979.620737
21073.543253,-1554.432478,-11029.068536,-3064.381992
21073.543586,-6513.812290,-9548.656652,1225.752797
21073.543919,0.000000,-8364.327145,3370.820191
21073.544253,1480.411884,-4811.338623,3677.258390
21073.544586,5477.523971,-4515.256246,5362.668486
21073.544919,7698.141797,-3034.844362,6128.763984
21073.545252,4145.153275,-8734.430116,4826.401637
21073.545585,4663.297435,-8068.244768,1225.752797
21073.545919,1110.308913,-10955.047942,-1915.238745
21073.546252,0.000000,-11769.274478,-4366.744339
21073.546585,-1776.494261,-12435.459826,-6358.592633
21073.546918,-296.082377,-14804.118840,-2528.115143
21073.547251,-74.020594,-11251.130318,-2298.286494
21073.547585,-2368.659014,-10140.821405,0.000000
21073.547918,-2442.679609,-11103.089130,2374.896044
21073.548251,-2738.761985,-4811.338623,1532.190996
21073.548584,592.164754,-3627.009116,5515.887586
21073.548917,3627.009116,-3997.112087,4903.011187
21073.549251,4663.297435,-4663.297435,4290.134789
21073.549584,0.000000,-10732.986159,1762.019645
21073.549917,1702.473667,-9326.594869,-1608.800546
21073.550250,518.144159,-9844.739029,-3370.820191
21073.550583,1406.391290,-13915.871710,-3140.991542
21073.550917,-74.020594,-14211.954086,-4979.620737
21073.551250,-4737.318029,-13397.727550,-5515.887586
21073.551583,-1258.350101,-14211.954086,-76.609550
21073.551916,-3404.947333,-9400.615463,1762.019645
21073.552249,-888.247130,-6291.750507,3830.477490
21073.552583,3034.844362,-4737.318029,7507.735880
21073.552916,3701.029710,-1406.391290,7354.516781
21073.553249,4071.132681,-2442.679609,2451.505594
21073.553582,3775.050304,-9474.636058,2987.772442
21073.553915,0.000000,-8956.491898,0.000000
21073.554249,-888.247130,-9548.656652,-1532.190996
21073.554582,-1184.329507,-9548.656652,-5898.935335
21073.554915,-4811.338623,-13101.645173,-7660.954980
21073.555248,-3627.009116,-13323.706956,-7354.516781
21073.555581,-3256.906145,-13619.789333,-2528.115143
21073.555915,-2072.576638,-11399.171507,1838.629195
21073.556248,-4145.153275,-5995.668130,3370.820191
21073.556581,4071.132681,-6513.812290,6971.469032
21073.556914,3997.112087,-2442.679609,5515.887586
21073.557247,5773.606348,-4737.318029,8503.660028
21073.557581,5403.503377,-7105.977043,1532.190996
21073.557914,4589.276840,-10510.924376,2068.457845
21073.558247,2590.720797,-11325.150913,459.657299
21073.558580,1702.473667,-11473.192101,-3447.429741
21073.558913,-2442.679609,-13323.706956,-7431.126331
21073.559247,-3552.988522,-14137.933492,-6205.373534
21073.559580,-3330.926739,-12509.480420,-6588.421283
21073.559913,-3034.844362,-9548.656652,-3064.381992
21073.560246,-3552.988522,-11251.130318,2987.772442
21073.560579,0.000000,-6957.935855,4903.011187
21073.560913,4145.153275,-3108.864956,9269.755526
21073.561246,5699.585753,-2368.659014,9269.755526
21073.561579,6883.915261,-3997.112087,6818.249932
21073.561912,4071.132681,-7698.141797,3294.210641
21073.562245,1554.432478,-11103.089130,-76.609550
21073.562579,-592.164754,-11843.295072,-3753.867940
21073.562912,-2146.597232,-12657.521608,-7890.783629
21073.563245,-1998.556043,-14211.954086,-8197.221829
21073.563578,-1258.350101,-14211.954086,-6205.373534
21073.563911,-2664.741391,-14508.036463,-612.876398
21073.564245,-2442.679609,-11251.130318,-1302.362347
21073.564578,148.041188,-7179.997637,4903.011187
21073.564911,2960.823768,-2442.679609,11031.775171
21073.565244,7031.956449,-2368.659014,9576.193725
21073.565577,5995.668130,-2590.720797,6971.469032
21073.565911,4071.132681,-7105.977043,4596.572988
21073.566244,1258.350101,-9400.615463,1532.190996
21073.566577,-1110.308913,-9548.656652,-3600.648841
21073.566910,-3256.906145,-13323.706956,-5286.058936
21073.567243,-4811.338623,-15396.283594,-9882.631924
21073.567577,-5403.503377,-11325.150913,-9652.803275
21073.567910,-1924.535449,-14211.954086,-3753.867940
21073.568243,-3923.091493,-11029.068536,-1532.190996
21073.568576,-2072.576638,-9104.533087,3370.820191
21073.568909,2072.576638,-5403.503377,7737.564530
21073.569243,3330.926739,-4737.318029,10955.165621
21073.569576,2368.659014,-2442.679609,7967.393179
21073.569909,5847.626942,-7105.977043,7277.907231
21073.570242,0.000000,-5107.421000,2451.505594
21073.570575,1184.329507,-10436.903782,2374.896044
21073.570909,-1258.350101,-13027.624579,-3753.867940
21073.571242,-2072.576638,-11325.150913,-6128.763984
21073.571575,-4959.379811,-13693.809927,-8580.269578
21073.571908,-2738.761985,-12435.459826,-7737.564530
21073.572241,-2220.617826,-13249.686362,-4213.525239
21073.572575,-666.185348,-11843.295072,3294.210641
21073.572908,-74.020594,-9474.636058,3294.210641
21073.573241,1184.329507,-3034.844362,7354.516781
21073.573574,7031.956449,-5329.482782,9116.536426
21073.573907,5847.626942,-2072.576638,6511.811733
21073.574241,2516.700203,-5699.585753,6052.154434
21073.574574,370.102971,-9104.533087,0.000000
21073.574907,-1184.329507,-11325.150913,-1762.019645
21073.575240,-1924.535449,-10881.027347,-4136.915689
21073.575573,-74.020594,-12731.542202,-4979.620737
21073.575907,-2886.803174,-11917.315666,-8120.612279
21073.576240,-2146.597232,-13027.624579,-6435.202183
21073.576573,-2368.659014,-13545.768739,-1762.019645
21073.576906,0.000000,-7179.997637,1225.752797
21073.577239,592.164754,-5995.668130,7354.516781
21073.577573,6143.709319,-7105.977043,9116.536426
21073.577906,6217.729913,-1480.411884,7431.126331
21073.578239,4737.318029,-4219.173869,6741.640382
21073.578572,4293.194464,-7698.141797,3294.210641
21073.578905,-2960.823768,-11029.068536,-612.876398
21073.579239,-1850.514855,-10658.965565,-4136.915689
21073.579572,-2368.659014,-10436.903782,-4213.525239
21073.579905,-2368.659014,-12139.377449,-5056.230287
21073.580238,-1258.350101,-9696.697840,-7354.516781
21073.580571,-74.020594,-15396.283594,-2528.115143
21073.580905,-1702.473667,-9548.656652,1225.752797
21073.581238,0.000000,-5995.668130,5822.325785
21073.581571,2368.659014,-5403.503377,4290.134789
21073.581904,3256.906145,-4959.379811,5132.839837
21073.582237,2368.659014,-6661.853478,3370.820191
21073.582571,4071.132681,-7846.182985,2834.553343
21073.582904,1406.391290,-11251.130318,-76.609550
21073.583237,-3552.988522,-11917.315666,0.000000
21073.583570,-814.226536,-8882.471304,-3140.991542
21073.583903,-1628.453072,-9548.656652,-3064.381992
21073.584237,740.205942,-11251.130318,-2528.115143
21073.584570,1110.308913,-10658.965565,-3140.991542
21073.584903,148.041188,-12435.459826,842.705048
21073.585236,-1702.473667,-8290.306550,2068.457845
21073.585569,-814.226536,-9178.553681,3217.601092
21073.585903,1554.432478,-7254.018232,4443.353888
21073.586236,2960.823768,-7550.100608,7124.688131
21073.586569,0.000000,-4811.338623,2451.505594
21073.586902,-2960.823768,-8364.327145,2451.505594
21073.587235,-2442.679609,-11251.130318,-689.485948
21073.587569,-3701.029710,-5699.585753,-2451.505594
21073.587902,-962.267725,-9918.759623,-1762.019645
21073.588235,-518.144159,-8660.409521,-2298.286494
21073.588568,962.267725,-9474.636058,-2374.896044
21073.588901,1998.556043,-11029.068536,-306.438199
21073.589235,2886.803174,-10658.965565,-1608.800546
21073.589568,-2960.823768,-12509.480420,1532.190996
21073.589901,2294.638420,-10955.047942,2374.896044
21073.590234,1110.308913,-5995.668130,612.876398
21073.590567,1184.329507,-5995.668130,2451.505594
21073.590901,3478.967927,-8142.265362,2068.457845
21073.591234,0.000000,-9252.574275,3600.648841
21073.591567,-2146.597232,-7476.080014,1762.019645
21073.591900,-1036.288319,-6809.894666,383.047749
21073.592233,-666.185348,-8290.306550,-2834.553343
21073.592567,-74.020594,-7994.224174,-3294.210641
21073.592900,1406.391290,-9474.636058,-2604.724693
21073.593233,888.247130,-11325.150913,-1838.629195
21073.593566,0.000000,-11325.150913,0.000000
21073.593899,2294.638420,-11251.130318,842.705048
21073.594233,2146.597232,-10658.965565,995.924147
21073.594566,1184.329507,-9548.656652,3983.696590
21073.594899,3034.844362,-9474.636058,1762.019645
21073.595232,0.000000,-8068.244768,1225.752797
21073.595565,-74.020594,-7920.203579,2604.724693
21073.595899,-2812.782580,-8956.491898,2374.896044
21073.596232,-962.267725,-5329.482782,1149.143247
21073.596565,1702.473667,-7698.141797,1762.019645
21073.596898,4663.297435,-8290.306550,-76.609550
21073.597231,592.164754,-8956.491898,612.876398
21073.597565,0.000000,-11917.315666,0.000000
21073.597898,-74.020594,-10658.965565,-3140.991542
21073.598231,0.000000,-10732.986159,306.438199
21073.598564,2072.576638,-11029.068536,612.876398
21073.598897,-370.102971,-10362.883188,-1225.752797
21073.599231,-296.082377,-9918.759623,-1149.143247
21073.599564,-1258.350101,-10362.883188,536.266849
21073.599897,-74.020594,-8882.471304,1762.019645
21073.600230,1184.329507,-7402.059420,6665.030833
21073.600563,370.102971,-5699.585753,2451.505594
21073.600897,0.000000,-2442.679609,0.000000
21073.601230,1702.473667,-9474.636058,-76.609550
21073.601563,592.164754,-10881.027347,-612.876398
21073.601896,-74.020594,-12731.542202,-689.485948
21073.602229,-666.185348,-11177.109724,-1378.971896
21073.602562,0.000000,-10732.986159,-1225.752797
21073.602895,-1554.432478,-11399.171507,-3370.820191
21073.603228,2368.659014,-10881.027347,-76.609550
21073.603562,-370.102971,-12287.418637,-76.609550
21073.603895,0.000000,-7179.997637,1838.629195
21073.604228,-296.082377,-6661.853478,4903.011187
21073.604561,4071.132681,-5329.482782,7277.907231
21073.604894,3923.091493,-3552.988522,4136.915689
21073.605227,2146.597232,-6217.729913,689.485948
21073.605560,2294.638420,-11843.295072,-76.609550
21073.605893,-2886.803174,-9548.656652,-3677.258390
21073.606226,-74.020594,-13027.624579,-3753.867940
21073.606559,-1406.391290,-11251.130318,-3753.867940
21073.606893,-2368.659014,-10140.821405,-2451.505594
21073.607226,-1184.329507,-10140.821405,-2298.286494
21073.607559,-1184.329507,-8808.450710,-536.266849
21073.607892,-666.185348,-9252.574275,-1149.143247
21073.608225,-1924.535449,-9844.739029,2145.067394
21073.608558,2886.803174,-8290.306550,4213.525239
21073.608891,3552.988522,-4811.338623,5822.325785
21073.609224,5995.668130,-5995.668130,4749.792088
21073.609557,5625.565159,-7698.141797,1915.238745
21073.609890,3478.967927,-11399.171507,1378.971896
21073.610223,2812.782580,-13027.624579,1685.410096
21073.610557,-1184.329507,-10732.986159,-2451.505594
21073.610890,-3552.988522,-12657.521608,-1915.238745
21073.611223,-1554.432478,-12731.542202,-4979.620737
21073.611556,-3849.070898,-9548.656652,-3370.820191
21073.611889,-2960.823768,-11177.109724,1149.143247
21073.612222,-3404.947333,-7994.224174,1838.629195
21073.612555,-888.247130,-5773.606348,4366.744339
21073.612888,2294.638420,-3701.029710,5669.106685
21073.613221,3478.967927,-5921.647536,5439.278036
21073.613554,2146.597232,-4811.338623,1225.752797
21073.613888,4663.297435,-10658.965565,842.705048
21073.614221,1406.391290,-10140.821405,-2451.505594
21073.614554,0.000000,-13693.809927,-766.095498
21073.614887,-370.102971,-13619.789333,-3753.867940
21073.615220,-2664.741391,-12287.418637,-4979.620737
21073.615553,-962.267725,-10881.027347,-2221.676944
21073.615886,-592.164754,-10140.821405,-76.609550
21073.616219,-2368.659014,-5995.668130,306.438199
21073.616552,-4737.318029,-4811.338623,4903.011187
21073.616885,2886.803174,-5921.647536,6052.154434
21073.617219,4071.132681,-1184.329507,5132.839837
21073.617552,2368.659014,-6143.709319,4366.744339
21073.617885,3478.967927,-7402.059420,0.000000
21073.618218,-148.041188,-11843.295072,-2221.676944
21073.618551,-1776.494261,-13619.789333,-2834.553343
21073.618884,-2590.720797,-12139.377449,-5132.839837
21073.619217,-2516.700203,-13027.624579,-5515.887586
21073.619550,-814.226536,-13027.624579,-1302.362347
21073.619883,1702.473667,-8882.471304,-3753.867940
21073.620216,-1184.329507,-8364.327145,0.000000
21073.620550,1332.370696,-9474.636058,6665.030833
21073.620883,3478.967927,-2812.782580,4903.011187
21073.621216,4293.194464,-5329.482782,7737.564530
21073.621549,3775.050304,-6143.709319,4826.401637
21073.621882,2664.741391,-6291.750507,919.314598
21073.622215,-1036.288319,-12879.583391,0.000000
21073.622548,-1924.535449,-10881.027347,-2757.943793
21073.622881,-5329.482782,-13397.727550,-3830.477490
21073.623214,-3478.967927,-9474.636058,-4519.963438
21073.623547,-1258.350101,-10510.924376,-3753.867940
21073.623880,-1184.329507,-7772.162391,-3140.991542
21073.624214,-1776.494261,-7476.080014,0.000000
21073.624547,962.267725,-9474.636058,2374.896044
21073.624880,3478.967927,-8290.306550,3600.648841
21073.625213,2886.803174,-6809.894666,5745.716235
21073.625546,5551.544565,-7698.141797,3907.087040
21073.625879,3108.864956,-8660.409521,3064.381992
21073.626212,3552.988522,-8142.265362,-612.876398
21073.626545,1554.432478,-12805.562797,-229.828649
21073.626878,-74.020594,-15100.201217,-76.609550
21073.627211,-2368.659014,-10732.986159,-76.609550
21073.627545,-1850.514855,-10658.965565,-3753.867940
21073.627878,0.000000,-8882.471304,-2528.115143
21073.628211,-2368.659014,-7179.997637,-1532.190996
21073.628544,1702.473667,-7550.100608,0.000000
21073.628877,592.164754,-8660.409521,3830.477490
21073.629210,1258.350101,-7402.059420,4136.915689
21073.629543,1480.411884,-8142.265362,3524.039291
21073.629876,1036.288319,-6957.935855,1762.019645
21073.630209,3478.967927,-9178.553681,2987.772442
21073.630542,4663.297435,-8586.388927,0.000000
21073.630876,0.000000,-11917.315666,612.876398
21073.631209,-740.205942,-11547.212695,-76.609550
21073.631542,-4737.318029,-8660.409521,-3677.258390
21073.631875,-1924.535449,-9770.718434,-4060.306139
21073.632208,-2220.617826,-8660.409521,-3830.477490
21073.632541,-1036.288319,-8216.285956,-2528.115143
21073.632874,0.000000,-7772.162391,0.000000
21073.633207,2294.638420,-9474.636058,2374.896044
21073.633540,2368.659014,-7179.997637,3064.381992
21073.633873,3552.988522,-8586.388927,6665.030833
21073.634207,3478.967927,-8290.306550,1149.143247
21073.634540,2368.659014,-10288.862594,842.705048
21073.634873,-1406.391290,-13397.727550,-1991.848295
21073.635206,-2442.679609,-10140.821405,-3140.991542
21073.635539,-2294.638420,-10658.965565,-2145.067394
21073.635872,2072.576638,-9474.636058,842.705048
21073.636205,-74.020594,-8586.388927,-3064.381992
21073.636538,0.000000,-7772.162391,-76.609550
21073.636871,3182.885551,-9474.636058,-76.609550
21073.637204,1110.308913,-8586.388927,2068.457845
21073.637537,2960.823768,-9474.636058,5745.716235
21073.637871,370.102971,-7846.182985,2451.505594
21073.638204,666.185348,-8290.306550,689.485948
21073.638537,148.041188,-9770.718434,0.000000
21073.638870,-296.082377,-11621.233289,383.047749
21073.639203,-3552.988522,-10140.821405,-2145.067394
21073.639536,-4885.359217,-10584.944971,-2451.505594
21073.639869,-1332.370696,-7105.977043,-383.047749
21073.640202,-2072.576638,-7179.997637,-1225.752797
21073.640535,1776.494261,-6143.709319,1149.143247
21073.640868,4071.132681,-8290.306550,2374.896044
21073.641202,2442.679609,-7772.162391,612.876398
21073.641535,1776.494261,-10732.986159,3907.087040
21073.641868,2886.803174,-9474.636058,2987.772442
21073.642201,1628.453072,-9252.574275,919.314598
21073.642534,888.247130,-9474.636058,-1072.533697
21073.642867,-592.164754,-12213.398043,-2451.505594
21073.643200,-4145.153275,-12213.398043,-2451.505594
21073.643533,-4145.153275,-9548.656652,919.314598
21073.643866,-3034.844362,-6957.935855,-3677.258390
21073.644199,-888.247130,-7179.997637,612.876398
21073.644533,740.205942,-5921.647536,3294.210641
21073.644866,1776.494261,-3627.009116,919.314598
21073.645199,4145.153275,-7105.977043,2834.553343
21073.645532,1628.453072,-10732.986159,1838.629195
21073.645865,2960.823768,-8364.327145,1685.410096
21073.646198,2294.638420,-11843.295072,-689.485948
21073.646531,592.164754,-12213.398043,-76.609550
21073.646864,-666.185348,-9844.739029,-4903.011187
21073.647197,-2072.576638,-13249.686362,-1608.800546
21073.647530,-2960.823768,-12213.398043,1608.800546
21073.647864,-2442.679609,-9104.533087,459.657299
21073.648197,-1036.288319,-6069.688724,2145.067394
21073.648530,1702.473667,-5329.482782,4673.182538
21073.648863,3478.967927,-3478.967927,4903.011187
21073.649196,2886.803174,-3849.070898,3447.429741
21073.649529,4071.132681,-10658.965565,2374.896044
21073.649862,0.000000,-9548.656652,0.000000
21073.650195,1184.329507,-10140.821405,1149.143247
21073.650528,-370.102971,-11843.295072,-4366.744339
21073.650861,-1998.556043,-13027.624579,-6052.154434
21073.651194,-2960.823768,-11917.315666,-6128.763984
21073.651528,-2738.761985,-13989.892304,-1762.019645
21073.651861,-2368.659014,-9696.697840,1149.143247
21073.652194,-2368.659014,-7476.080014,3064.381992
21073.652527,2886.803174,-4441.235652,2221.676944
21073.652860,3849.070898,-4367.215058,8963.317327
21073.653193,7031.956449,-4737.318029,7277.907231
21073.653526,1776.494261,-4811.338623,3064.381992
21073.653859,222.061783,-9770.718434,-1072.533697
21073.654192,-2072.576638,-8364.327145,-3064.381992
21073.654525,-1258.350101,-13027.624579,-3907.087040
21073.654859,-2886.803174,-13619.789333,-6511.811733
21073.655192,-1480.411884,-14211.954086,-5362.668486
21073.655525,-3108.864956,-13841.851115,-4290.134789
21073.655858,-1258.350101,-11843.295072,995.924147
21073.656191,-1554.432478,-7772.162391,3753.867940
21073.656524,2294.638420,-4589.276840,7124.688131
21073.656857,5329.482782,-3923.091493,9806.022374
21073.657190,6439.791695,-962.267725,6128.763984
21073.657523,2368.659014,-2442.679609,4903.011187
21073.657856,2294.638420,-11251.130318,-689.485948
21073.658190,-1036.288319,-11547.212695,-2528.115143
21073.658523,-2368.659014,-10732.986159,-3217.601092
21073.658856,-2738.761985,-13027.624579,-7890.783629
21073.659189,-4293.194464,-11695.253884,-9346.365076
21073.659522,-3552.988522,-14434.015869,-6665.030833
21073.659855,-666.185348,-13619.789333,-76.609550
21073.660188,-1258.350101,-7476.080014,766.095498
21073.660521,0.000000,-7179.997637,4903.011187
21073.660854,5921.647536,-5625.565159,11261.603821
21073.661187,7328.038826,-2812.782580,8886.707777
21073.661521,7402.059420,-2516.700203,7890.783629
21073.661854,4219.173869,-9474.636058,2298.286494
21073.662187,2442.679609,-11621.233289,-766.095498
21073.662520,-1628.453072,-11991.336260,-2834.553343
21073.662853,-2146.597232,-10510.924376,-8350.440928
21073.663186,-6587.832884,-11917.315666,-9806.022374
21073.663519,-3330.926739,-15988.448347,-5592.497135
21073.663852,-1258.350101,-14211.954086,-1915.238745
21073.664185,-4737.318029,-9844.739029,0.000000
21073.664518,-2442.679609,-7105.977043,3140.991542
21073.664851,1036.288319,-3182.885551,7354.516781
21073.665185,5107.421000,-2960.823768,9499.584175
21073.665518,4663.297435,-2368.659014,6818.249932
21073.665851,3256.906145,-5699.585753,2451.505594
21073.666184,1776.494261,-10881.027347,1225.752797
21073.666517,2886.803174,-13027.624579,-3140.991542
21073.666850,814.226536,-12213.398043,-5209.449386
21073.667183,-4145.153275,-12509.480420,-5515.887586
21073.667516,-1554.432478,-13027.624579,-8044.002729
21073.667849,-3330.926739,-13545.768739,-5132.839837
21073.668182,-1406.391290,-11473.192101,-1225.752797
21073.668516,-3034.844362,-8956.491898,2451.505594
21073.668849,296.082377,-4219.173869,6435.202183
21073.669182,4071.132681,-2664.741391,9576.193725
21073.669515,3849.070898,-2220.617826,8810.098227
21073.669848,4737.318029,-1998.556043,5439.278036
21073.670181,4663.297435,-8882.471304,4213.525239
21073.670514,1554.432478,-11251.130318,-76.609550
21073.670847,-3552.988522,-11917.315666,-2911.162892
21073.671180,-1258.350101,-13915.871710,-7737.564530
21073.671513,-2590.720797,-15396.283594,-9116.536426
21073.671847,-1554.432478,-14804.118840,-7124.688131
21073.672180,-814.226536,-13471.748144,-2987.772442
21073.672513,-2664.741391,-11399.171507,1532.190996
21073.672846,740.205942,-6513.812290,5822.325785
21073.673179,2294.638420,-4737.318029,9576.193725
21073.673512,5921.647536,-1998.556043,12180.918418
21073.673845,592.164754,-1258.350101,9806.022374
21073.674178,4663.297435,-5329.482782,4136.915689
21073.674511,592.164754,-6587.832884,306.438199
21073.674844,-1554.432478,-11769.274478,-3217.601092
21073.675178,-3256.906145,-12065.356855,-7048.078582
21073.675511,-4293.194464,-14359.995275,-9499.584175
21073.675844,-3923.091493,-14804.118840,-10189.070123
21073.676177,-3108.864956,-13989.892304,-7431.126331
21073.676510,-2442.679609,-14211.954086,-3753.867940
21073.676843,888.247130,-11029.068536,3677.258390
21073.677176,3108.864956,-7402.059420,9729.412825
21073.677509,4737.318029,-1258.350101,9806.022374
21073.677842,4737.318029,-3627.009116,11031.775171
21073.678175,4367.215058,-2664.741391,5898.935335
21073.678508,3330.926739,-7105.977043,3294.210641
21073.678842,518.144159,-10288.862594,-459.657299
21073.679175,-2886.803174,-10881.027347,-3753.867940
21073.679508,-4071.132681,-10288.862594,-9039.926876
21073.679841,-1998.556043,-15396.283594,-7431.126331
21073.680174,-3627.009116,-14211.954086,-8656.879127
21073.680507,-4737.318029,-11029.068536,-4290.134789
21073.680840,-666.185348,-13323.706956,1762.019645
21073.681173,0.000000,-7772.162391,5898.935335
21073.681506,2886.803174,-3997.112087,7431.126331
21073.681839,4885.359217,-5107.421000,9959.241474
21073.682173,5921.647536,-3182.885551,8350.440928
21073.682506,4737.318029,-5107.421000,6741.640382
21073.682839,4663.297435,-8882.471304,-76.609550
21073.683172,-2960.823768,-10732.986159,-1838.629195
21073.683505,-4737.318029,-11029.068536,-2604.724693
21073.683838,-74.020594,-13027.624579,-6818.249932
21073.684171,-4441.235652,-12213.398043,-7814.174080
21073.684504,-3256.906145,-11917.315666,-7354.516781
21073.684837,-1480.411884,-11769.274478,-1762.019645
21073.685170,518.144159,-9252.574275,3294.210641
21073.685504,1184.329507,-5107.421000,6281.983084
21073.685837,3997.112087,-6587.832884,9422.974625
21073.686170,4663.297435,-3330.926739,7507.735880
21073.686503,4959.379811,-5181.441594,4826.401637
21073.686836,3478.967927,-7994.224174,2374.896044
21073.687169,-1776.494261,-8660.409521,-1225.752797
21073.687502,-1406.391290,-12287.418637,-3140.991542
21073.687835,-370.102971,-9770.718434,-6665.030833
21073.688168,-4293.194464,-13101.645173,-6741.640382
21073.688501,-74.020594,-13027.624579,-4979.620737
21073.688835,296.082377,-12065.356855,-1991.848295
21073.689168,518.144159,-9992.780217,612.876398
21073.689501,2590.720797,-7402.059420,4213.525239
21073.689834,1184.329507,-6587.832884,5515.887586
21073.690167,2368.659014,-3034.844362,6435.202183
21073.690500,4663.297435,-6513.812290,3447.429741
21073.690833,1776.494261,-5995.668130,0.000000
21073.691166,-888.247130,-9474.636058,1149.143247
21073.691499,-4219.173869,-10807.006753,-2987.772442
21073.691832,-2812.782580,-9844.739029,-2221.676944
21073.692165,-3256.906145,-9548.656652,-3830.477490
21073.692499,-1480.411884,-9400.615463,-3983.696590
21073.692832,1258.350101,-9474.636058,-1838.629195
21073.693165,-1184.329507,-10140.821405,2145.067394
21073.693498,1702.473667,-8290.306550,-536.266849
21073.693831,592.164754,-8364.327145,4519.963438
21073.694164,2664.741391,-8808.450710,6052.154434
21073.694497,2738.761985,-8364.327145,2451.505594
21073.694830,1924.535449,-8290.306550,995.924147
21073.695163,-666.185348,-9400.615463,-229.828649
21073.695496,-1110.308913,-9918.759623,-76.609550
21073.695830,-1258.350101,-9474.636058,-383.047749
21073.696163,0.000000,-9326.594869,1149.143247
21073.696496,-74.020594,-9474.636058,-2528.115143
21073.696829,0.000000,-7179.997637,-1838.629195
21073.697162,2294.638420,-11251.130318,2374.896044
21073.697495,1998.556043,-8586.388927,-383.047749
21073.697828,-592.164754,-10214.842000,459.657299
21073.698161,-592.164754,-9030.512492,1302.362347
21073.698494,518.144159,-8882.471304,1685.410096
21073.698827,0.000000,-7179.997637,0.000000
21073.699161,-74.020594,-9474.636058,-689.485948
21073.699494,-4145.153275,-8956.491898,1378.971896
21073.699827,296.082377,-8808.450710,4213.525239
21073.700160,-666.185348,-6587.832884,306.438199
21073.700493,666.185348,-8142.265362,1762.019645
21073.700826,518.144159,-7254.018232,0.000000
21073.701159,2590.720797,-7772.162391,-1149.143247
21073.701492,3182.885551,-10214.842000,-1072.533697
21073.701825,-1776.494261,-11325.150913,0.000000
21073.702158,2294.638420,-9474.636058,-995.924147
21073.702492,296.082377,-12583.501014,1455.581446
21073.702825,2368.659014,-10066.800811,842.705048
21073.703158,962.267725,-9178.553681,153.219100
21073.703491,-2368.659014,-6587.832884,0.000000
21073.703824,-74.020594,-7994.224174,2374.896044
21073.704157,-4737.318029,-5995.668130,1225.752797
21073.704490,1702.473667,-6365.771101,3294.210641
21073.704824,1184.329507,-7624.121203,4826.401637
21073.705157,1184.329507,-5403.503377,1991.848295
21073.705490,1184.329507,-8956.491898,-2451.505594
21073.705823,1110.308913,-12657.521608,-1915.238745
21073.706156,-962.267725,-11621.233289,-2757.943793
21073.706489,-296.082377,-12657.521608,-229.828649
21073.706822,1702.473667,-12435.459826,-3447.429741
21073.707155,-1628.453072,-11325.150913,-2451.505594
21073.707489,1776.494261,-11251.130318,1149.143247
21073.707822,370.102971,-7254.018232,1532.190996
21073.708155,1184.329507,-8216.285956,6052.154434
21073.708488,1406.391290,-5847.626942,6128.763984
21073.708821,2368.659014,-4737.318029,4903.011187
21073.709154,2590.720797,-5033.400406,2374.896044
21073.709487,1554.432478,-8290.306550,-842.705048
21073.709821,2294.638420,-9622.677246,-5822.325785
21073.710154,-1480.411884,-14211.954086,-1302.362347
21073.710487,-74.020594,-14730.098246,-1302.362347
21073.710820,-1258.350101,-13471.748144,-3294.210641
21073.711153,-74.020594,-12435.459826,-1915.238745
21073.711486,1036.288319,-9104.533087,919.314598
21073.711819,592.164754,-8438.347739,2221.676944
21073.712153,666.185348,-7846.182985,4366.744339
21073.712486,-2886.803174,-5995.668130,4060.306139
21073.712819,592.164754,-3923.091493,4903.011187
21073.713152,4071.132681,-6513.812290,4213.525239
21073.713485,0.000000,-4811.338623,612.876398
21073.713818,0.000000,-8956.491898,0.000000
21073.714151,1110.308913,-11843.295072,-2528.115143
21073.714484,-2368.659014,-12361.439231,-2987.772442
21073.714818,-518.144159,-11843.295072,-2834.553343
21073.715151,-2516.700203,-12509.480420,-3753.867940
21073.715484,-3552.988522,-10436.903782,-4136.915689
21073.715817,-888.247130,-9474.636058,-1455.581446
21073.716150,-666.185348,-8956.491898,1915.238745
21073.716483,592.164754,-7031.956449,4596.572988
21073.716816,3108.864956,-6809.894666,9576.193725
21073.717150,4663.297435,-5921.647536,7277.907231
21073.717483,2294.638420,-3627.009116,1532.190996
21073.717816,1776.494261,-9696.697840,612.876398
21073.718149,4071.132681,-11251.130318,-1915.238745
21073.718482,-2072.576638,-13989.892304,-1225.752797
21073.718815,-296.082377,-12139.377449,-2834.553343
21073.719148,-2368.659014,-11473.192101,-4290.134789
21073.719481,-1406.391290,-12657.521608,-4213.525239
21073.719815,1110.308913,-9474.636058,-1302.362347
21073.720148,0.000000,-8956.491898,2528.115143
21073.720481,222.061783,-5107.421000,0.000000
21073.720814,592.164754,-7550.100608,6971.469032
21073.721147,4663.297435,-7105.977043,6052.154434
21073.721480,4663.297435,-3849.070898,4826.401637
21073.721813,4663.297435,-8216.285956,1455.581446
21073.722147,4811.338623,-9770.718434,0.000000
21073.722480,148.041188,-13323.706956,383.047749
21073.722813,0.000000,-12361.439231,-842.705048
21073.723146,-74.020594,-13027.624579,-2834.553343
21073.723479,-2368.659014,-13101.645173,-2451.505594
21073.723812,-666.185348,-10510.924376,-2221.676944
21073.724145,-1628.453072,-6661.853478,-3677.258390
21073.724479,-4145.153275,-7179.997637,1225.752797
21073.724812,-962.267725,-6439.791695,2451.505594
21073.725145,592.164754,-6291.750507,6894.859482
21073.725478,3108.864956,-2738.761985,5592.497135
21073.725811,1924.535449,-6439.791695,1608.800546
21073.726144,2590.720797,-7698.141797,-229.828649
21073.726477,1184.329507,-14063.912898,-76.609550
21073.726810,-2368.659014,-10140.821405,-4903.011187
21073.727144,-4145.153275,-12805.562797,-2068.457845
21073.727477,-1036.288319,-13841.851115,-2298.286494
21073.727810,0.000000,-9548.656652,-1225.752797
21073.728143,-1036.288319,-8882.471304,-1072.533697
21073.728476,592.164754,-7624.121203,1149.143247
21073.728809,-74.020594,-7105.977043,3677.258390
21073.729142,296.082377,-6143.709319,6128.763984
21073.729476,4663.297435,-5921.647536,6052.154434
21073.729809,0.000000,-7179.997637,1838.629195
21073.730142,0.000000,-5995.668130,2145.067394
21073.730475,1406.391290,-11547.212695,-153.219100
21073.730808,-1776.494261,-11917.315666,-2451.505594
21073.731141,-4219.173869,-12731.542202,-4060.306139
21073.731474,-4071.132681,-12361.439231,-4290.134789
21073.731807,-222.061783,-9844.739029,-1915.238745
21073.732141,0.000000,-7772.162391,0.000000
21073.732474,3478.967927,-5921.647536,536.266849
21073.732807,1554.432478,-8290.306550,2987.772442
21073.733140,3627.009116,-8216.285956,4519.963438
21073.733473,4663.297435,-7105.977043,6052.154434
21073.733806,2368.659014,-6587.832884,4290.134789
21073.734139,4145.153275,-9178.553681,3600.648841
21073.734473,1110.308913,-8068.244768,-2451.505594
21073.734806,1184.329507,-10732.986159,-1762.019645
21073.735139,-2516.700203,-13249.686362,-1608.800546
21073.735472,-2960.823768,-12361.439231,-4290.134789
21073.735805,-1628.453072,-11029.068536,-1991.848295
21073.736138,0.000000,-10436.903782,229.828649
21073.736471,1924.535449,-4293.194464,76.609550
21073.736804,0.000000,-5995.668130,3064.381992
21073.737138,5551.544565,-5921.647536,2987.772442
21073.737471,592.164754,-7179.997637,1532.190996
21073.737804,1776.494261,-9474.636058,4213.525239
21073.738137,222.061783,-9474.636058,-76.609550
21073.738470,-1924.535449,-11177.109724,-2451.505594
21073.738803,444.123565,-10288.862594,-2528.115143
21073.739136,-3256.906145,-12435.459826,-1915.238745
21073.739470,-2072.576638,-10732.986159,153.219100
21073.739803,-2146.597232,-7179.997637,1225.752797
21073.740136,1702.473667,-9474.636058,1149.143247
21073.740469,962.267725,-6217.729913,-919.314598
21073.740802,296.082377,-6587.832884,1225.752797
21073.741135,2368.659014,-6587.832884,1532.190996
21073.741468,1554.432478,-9474.636058,3140.991542
21073.741802,0.000000,-10732.986159,2987.772442
21073.742135,740.205942,-7476.080014,1149.143247
21073.742468,1702.473667,-10658.965565,-689.485948
21073.742801,1184.329507,-10140.821405,689.485948
21073.743134,-2738.761985,-14211.954086,-1608.800546
21073.743467,-4219.173869,-8956.491898,-3064.381992
21073.743800,-4367.215058,-11843.295072,612.876398
21073.744133,-74.020594,-7994.224174,1149.143247
21073.744467,518.144159,-7105.977043,1149.143247
21073.744800,1628.453072,-6809.894666,2374.896044
21073.745133,3478.967927,-5033.400406,2757.943793
21073.745466,0.000000,-7402.059420,766.095498
21073.745799,4071.132681,-11843.295072,2374.896044
21073.746132,0.000000,-8364.327145,1225.752797
21073.746465,0.000000,-11325.150913,0.000000
21073.746799,3330.926739,-11695.253884,-3753.867940
21073.747132,1110.308913,-13619.789333,-2221.676944
21073.747465,148.041188,-13027.624579,76.609550
21073.747798,-1998.556043,-10066.800811,2145.067394
21073.748131,-888.247130,-7476.080014,689.485948
21073.748464,-1036.288319,-5403.503377,995.924147
21073.748797,2516.700203,-5329.482782,2221.676944
21073.749130,4219.173869,-4219.173869,3370.820191
21073.749464,1850.514855,-7179.997637,3140.991542
21073.749797,592.164754,-10140.821405,1532.190996
21073.750130,-74.020594,-8290.306550,-306.438199
21073.750463,296.082377,-10881.027347,-76.609550
21073.750796,-74.020594,-10214.842000,-6741.640382
21073.751129,-1776.494261,-14211.954086,-4060.306139
21073.751462,-1184.329507,-13101.645173,-1838.629195
21073.751796,-1850.514855,-11547.212695,153.219100
21073.752129,-296.082377,-8512.368333,2528.115143
21073.752462,1406.391290,-7105.977043,4903.011187
21073.752795,3552.988522,-5773.606348,4826.401637
21073.753128,4737.318029,-3034.844362,4903.011187
21073.753461,4663.297435,-8290.306550,4826.401637
21073.753794,1850.514855,-8290.306550,-76.609550
21073.754128,-2812.782580,-9548.656652,306.438199
21073.754461,1702.473667,-12435.459826,-76.609550
21073.754794,-2368.659014,-9548.656652,-4903.011187
21073.755127,-4219.173869,-13323.706956,-6818.249932
21073.755460,-3552.988522,-11695.253884,-6128.763984
21073.755793,-5477.523971,-11769.274478,-1072.533697
21073.756126,-2368.659014,-8660.409521,1838.629195
21073.756459,-74.020594,-9474.636058,3600.648841
21073.756793,592.164754,-4811.338623,4290.134789
21073.757126,3552.988522,-4959.379811,8503.660028
21073.757459,4663.297435,-5921.647536,3140.991542
21073.757792,4145.153275,-8216.285956,3600.648841
21073.758125,2294.638420,-11177.109724,919.314598
21073.758458,1998.556043,-10807.006753,-1762.019645
21073.758791,962.267725,-11917.315666,-3983.696590
21073.759125,-1554.432478,-14211.954086,-5592.497135
21073.759458,-518.144159,-9548.656652,-7277.907231
21073.759791,-4145.153275,-12509.480420,153.219100
21073.760124,518.144159,-9474.636058,-76.609550
21073.760457,-2442.679609,-7772.162391,0.000000
21073.760790,4145.153275,-5625.565159,7890.783629
21073.761123,5921.647536,-3627.009116,9193.145976
21073.761456,9030.512492,-2368.659014,8503.660028
21073.761790,7105.977043,-5625.565159,5439.278036
21073.762123,3478.967927,-10362.883188,1455.581446
21073.762456,1480.411884,-11325.150913,-1915.238745
21073.762789,-1406.391290,-12213.398043,-6588.421283
21073.763122,-2368.659014,-14434.015869,-7354.516781
21073.763455,-4737.318029,-10732.986159,-9499.584175
21073.763788,-3552.988522,-13101.645173,-3294.210641
21073.764122,-666.185348,-10955.047942,-76.609550
21073.764455,-3108.864956,-8290.306550,2987.772442
21073.764788,296.082377,-3034.844362,7354.516781
21073.765121,2960.823768,-3923.091493,9116.536426
21073.765454,5033.400406,-2738.761985,8810.098227
21073.765787,3775.050304,-4515.256246,3907.087040
21073.766120,2812.782580,-9252.574275,2145.067394
21073.766453,-74.020594,-13323.706956,842.705048
21073.766787,-2738.761985,-10436.903782,-3294.210641
21073.767120,-2738.761985,-15396.283594,-10035.851024
21073.767453,-7105.977043,-13249.686362,-9806.022374
21073.767786,-6513.812290,-12509.480420,-5515.887586
21073.768119,-2664.741391,-11621.233289,-919.314598
21073.768452,-4589.276840,-10510.924376,3524.039291
21073.768785,-1628.453072,-5625.565159,5669.106685
21073.769119,1036.288319,-4441.235652,8197.221829
21073.769452,3923.091493,-2368.659014,7890.783629
21073.769785,2664.741391,-3923.091493,7967.393179
21073.770118,1776.494261,-4811.338623,1915.238745
21073.770451,592.164754,-7772.162391,919.314598
21073.770784,-74.020594,-12139.377449,-2834.553343
21073.771117,-1554.432478,-13027.624579,-6205.373534
21073.771451,-3330.926739,-15396.283594,-9269.755526
21073.771784,-2960.823768,-13693.809927,-7967.393179
21073.772117,-1702.473667,-12879.583391,-4213.525239
21073.772450,-518.144159,-10584.944971,2145.067394
21073.772783,2294.638420,-9474.636058,8503.660028
21073.773116,592.164754,-1850.514855,9806.022374
21073.773449,2368.659014,-1554.432478,11644.651570
21073.773782,6439.791695,-2368.659014,5745.716235
21073.774116,2664.741391,-3627.009116,2451.505594
21073.774449,2738.761985,-8734.430116,995.924147
21073.774782,-592.164754,-12139.377449,-1302.362347
21073.775115,-4145.153275,-11325.150913,-7354.516781
21073.775448,-2146.597232,-12287.418637,-9346.365076
21073.775781,-4811.338623,-15248.242405,-9576.193725
21073.776114,-2368.659014,-11029.068536,-4979.620737
21073.776448,-1258.350101,-13027.624579,-1915.238745
21073.776781,-74.020594,-8290.306550,0.000000
21073.777114,1184.329507,-5995.668130,7354.516781
21073.777447,6143.709319,-3552.988522,8963.317327
21073.777780,6587.832884,-4515.256246,7660.954980
21073.778113,4367.215058,-6587.832884,5056.230287
21073.778446,4293.194464,-8586.388927,3217.601092
21073.778779,1110.308913,-10362.883188,-842.705048
21073.779113,-1036.288319,-11695.253884,-3524.039291
21073.779446,-3552.988522,-12953.603985,-5286.058936
21073.779779,-2220.617826,-11843.295072,-5975.544884
21073.780112,-1776.494261,-11325.150913,-4903.011187
21073.780445,-2442.679609,-11843.295072,-5286.058936
21073.780778,-3552.988522,-8364.327145,-4290.134789
21073.781111,-1776.494261,-9474.636058,5439.278036
21073.781445,2738.761985,-5773.606348,5822.325785
21073.781778,2368.659014,-3627.009116,7354.516781
21073.782111,4589.276840,-6661.853478,6205.373534
21073.782444,3552.988522,-5773.606348,3294.210641
21073.782777,3034.844362,-9770.718434,2374.896044
21073.783110,-74.020594,-13027.624579,-76.609550
21073.783443,2294.638420,-12435.459826,-3140.991542
21073.783776,-3552.988522,-10732.986159,-3370.820191
21073.784110,-2368.659014,-11325.150913,-3447.429741
21073.784443,-1258.350101,-10066.800811,-5286.058936
21073.784776,-74.020594,-9252.574275,-383.047749
21073.785109,1554.432478,-9104.533087,1608.800546
21073.785442,1184.329507,-7772.162391,4366.744339
21073.785775,2072.576638,-9178.553681,5132.839837
21073.786108,3552.988522,-5625.565159,4979.620737
21073.786442,4663.297435,-5995.668130,1225.752797
21073.786775,5625.565159,-9178.553681,6665.030833
21073.787108,1554.432478,-8808.450710,0.000000
21073.787441,-3256.906145,-9548.656652,-2145.067394
21073.787774,-962.267725,-11843.295072,-3447.429741
21073.788107,-2960.823768,-11177.109724,-6128.763984
21073.788440,-2220.617826,-10510.924376,-5822.325785
21073.788774,-2738.761985,-10955.047942,-4213.525239
21073.789107,-1776.494261,-10140.821405,0.000000
21073.789440,-1554.432478,-7179.997637,2451.505594
21073.789773,3849.070898,-9474.636058,7277.907231
21073.790106,4071.132681,-5995.668130,4903.011187
21073.790439,2368.659014,-8068.244768,5515.887586
21073.790772,2368.659014,-5403.503377,1225.752797
21073.791105,-148.041188,-10362.883188,2068.457845
21073.791439,-1628.453072,-10584.944971,-76.609550
21073.791772,-1850.514855,-9474.636058,-1302.362347
21073.792105,-74.020594,-9474.636058,-2528.115143
21073.792438,-4145.153275,-9918.759623,-5132.839837
21073.792771,-370.102971,-10658.965565,-4979.620737
21073.793104,-74.020594,-10066.800811,-3830.477490
21073.793437,-2368.659014,-10732.986159,842.705048
21073.793771,-740.205942,-9992.780217,842.705048
21073.794104,1628.453072,-8882.471304,5286.058936
21073.794437,1628.453072,-7179.997637,6052.154434
21073.794770,1480.411884,-6661.853478,2911.162892
21073.795103,1110.308913,-9474.636058,4826.401637
21073.795436,-592.164754,-7772.162391,1302.362347
21073.795769,-1332.370696,-9844.739029,919.314598
21073.796102,-1480.411884,-8364.327145,-612.876398
21073.796436,-2072.576638,-9326.594869,-4136.915689
21073.796769,0.000000,-10584.944971,-3524.039291
21073.797102,0.000000,-9548.656652,-4903.011187
21073.797435,1184.329507,-10881.027347,1455.581446
21073.797768,370.102971,-9696.697840,1149.143247
21073.798101,2886.803174,-7994.224174,1455.581446
21073.798434,2368.659014,-10140.821405,3907.087040
21073.798768,2368.659014,-6661.853478,3064.381992
21073.799101,1702.473667,-8290.306550,1072.533697
21073.799434,222.061783,-7772.162391,1915.238745
21073.799767,-666.185348,-10658.965565,1149.143247
21073.800100,-2368.659014,-7179.997637,1378.971896
21073.800433,-74.020594,-9474.636058,-76.609550
21073.800766,-74.020594,-8586.388927,-4519.963438
21073.801100,592.164754,-7772.162391,-1225.752797
21073.801433,2812.782580,-11843.295072,-76.609550
21073.801766,0.000000,-11325.150913,383.047749
21073.802099,1998.556043,-9400.615463,153.219100
21073.802432,3627.009116,-12435.459826,612.876398
21073.802765,3627.009116,-7179.997637,1225.752797
21073.803098,592.164754,-9844.739029,3217.601092
21073.803431,2294.638420,-8586.388927,306.438199
21073.803764,-666.185348,-7179.997637,0.000000
21073.804097,-444.123565,-11843.295072,4213.525239
21073.804431,-1850.514855,-5699.585753,-842.705048
21073.804764,-74.020594,-9474.636058,-1302.362347
21073.805097,814.226536,-6883.915261,0.000000
21073.805430,888.247130,-8808.450710,229.828649
21073.805763,0.000000,-8956.491898,0.000000
21073.806096,592.164754,-11621.233289,2987.772442
21073.806429,-1258.350101,-10140.821405,-2451.505594
21073.806762,1332.370696,-10214.842000,306.438199
21073.807095,-74.020594,-15396.283594,-76.609550
21073.807428,74.020594,-7179.997637,0.000000
21073.807761,-3404.947333,-9548.656652,1762.019645
21073.808095,-962.267725,-7624.121203,1455.581446
21073.808428,-296.082377,-6735.874072,3524.039291
21073.808761,1110.308913,-8290.306550,1455.581446
21073.809094,2738.761985,-5181.441594,2145.067394
21073.809427,-370.102971,-9992.780217,76.609550
21073.809760,2294.638420,-7994.224174,-689.485948
21073.810093,0.000000,-10140.821405,0.000000
21073.810426,1184.329507,-11325.150913,1455.581446
21073.810759,1110.308913,-10807.006753,-2298.286494
21073.811092,-1776.494261,-13693.809927,-2451.505594
21073.811426,-74.020594,-11251.130318,-2528.115143
21073.811759,-4145.153275,-9548.656652,0.000000
21073.812092,-666.185348,-7624.121203,2681.334243
21073.812425,-2960.823768,-6439.791695,3140.991542
21073.812758,444.123565,-5847.626942,3524.039291
21073.813091,2294.638420,-7698.141797,3600.648841
21073.813424,444.123565,-3627.009116,2068.457845
21073.813757,3478.967927,-4959.379811,-2145.067394
21073.814090,-1184.329507,-11325.150913,-76.609550
21073.814423,2294.638420,-12435.459826,-1302.362347
21073.814756,1702.473667,-14211.954086,-2068.457845
21073.815090,592.164754,-14211.954086,-3140.991542
21073.815423,-1480.411884,-12213.398043,-3830.477490
21073.815756,-740.205942,-10584.944971,-2528.115143
21073.816089,814.226536,-9474.636058,1302.362347
21073.816422,-1184.329507,-7772.162391,5898.935335
21073.816755,1480.411884,-2442.679609,3677.258390
21073.817088,3552.988522,-6291.750507,8810.098227
21073.817421,4367.215058,-4441.235652,3907.087040
21073.817754,2368.659014,-6291.750507,1455.581446
21073.818087,1554.432478,-11251.130318,-1302.362347
21073.818421,222.061783,-9770.718434,-2757.943793
21073.818754,-2960.823768,-13915.871710,-3753.867940
21073.819087,-814.226536,-11029.068536,-5669.106685
21073.819420,-2442.679609,-15396.283594,-4979.620737
21073.819753,-3552.988522,-10732.986159,-919.314598
21073.820086,592.164754,-8956.491898,2681.334243
21073.820419,-1258.350101,-7698.141797,1455.581446
21073.820752,0.000000,-4811.338623,4903.011187
21073.821085,3478.967927,-4959.379811,6588.421283
21073.821418,5551.544565,-5699.585753,6971.469032
21073.821751,3997.112087,-6069.688724,2987.772442
21073.822085,3627.009116,-8882.471304,153.219100
21073.822418,1332.370696,-8586.388927,-3983.696590
21073.822751,296.082377,-14063.912898,-76.609550
21073.823084,-74.020594,-11991.336260,-4979.620737
21073.823417,-370.102971,-11177.109724,-7354.516781
21073.823750,-4737.318029,-12509.480420,-3677.258390
21073.824083,-1406.391290,-8512.368333,-2757.943793
21073.824416,-2294.638420,-8512.368333,0.000000
21073.824749,-1702.473667,-8290.306550,2987.772442
21073.825082,1924.535449,-5403.503377,6818.249932
21073.825416,3923.091493,-3330.926739,5515.887586
21073.825749,3775.050304,-5625.565159,4826.401637
21073.826082,1406.391290,-7698.141797,1302.362347
21073.826415,0.000000,-9252.574275,-536.266849
21073.826748,-1258.350101,-12731.542202,-76.609550
21073.827081,-2442.679609,-11843.295072,-4903.011187
21073.827414,-3256.906145,-10732.986159,-8580.269578
21073.827747,-2368.659014,-15988.448347,-1302.362347
21073.828080,-370.102971,-9178.553681,-2911.162892
21073.828413,-2960.823768,-7772.162391,1225.752797
21073.828747,-814.226536,-6735.874072,1838.629195
21073.829080,74.020594,-7624.121203,5209.449386
21073.829413,3478.967927,-6513.812290,6665.030833
21073.829746,4663.297435,-4737.318029,4826.401637
21073.830079,2294.638420,-7698.141797,0.000000
21073.830412,296.082377,-8142.265362,1149.143247
21073.830745,-370.102971,-13027.624579,-76.609550
21073.831078,-1850.514855,-9548.656652,-3677.258390
21073.831411,-740.205942,-11843.295072,-2528.115143
21073.831744,-2220.617826,-11769.274478,-4136.915689
21073.832077,222.061783,-8956.491898,-2834.553343
21073.832411,-518.144159,-8290.306550,-1838.629195
21073.832744,0.000000,-6143.709319,-766.095498
21073.833077,-74.020594,-9548.656652,0.000000
21073.833410,3256.906145,-9178.553681,6052.154434
21073.833743,3478.967927,-6513.812290,1838.629195
21073.834076,2368.659014,-9548.656652,5669.106685
21073.834409,5255.462188,-7105.977043,2374.896044
21073.834742,740.205942,-10436.903782,3370.820191
21073.835075,1850.514855,-10436.903782,76.609550
21073.835408,-2146.597232,-11473.192101,-2068.457845
21073.835742,-74.020594,-11547.212695,-2528.115143
21073.836075,444.123565,-9548.656652,-3064.381992
21073.836408,-74.020594,-11843.295072,-76.609550
21073.836741,1110.308913,-4737.318029,-2451.505594
21073.837074,-1184.329507,-8364.327145,612.876398
21073.837407,2664.741391,-6587.832884,3830.477490
21073.837740,1702.473667,-6883.915261,3447.429741
21073.838073,962.267725,-9474.636058,2221.676944
21073.838406,-518.144159,-8438.347739,229.828649
21073.838739,-666.185348,-8882.471304,-76.609550
21073.839072,-4737.318029,-10732.986159,3600.648841
21073.839406,-1258.350101,-7105.977043,-2528.115143
21073.839739,-5625.565159,-9548.656652,-6128.763984
21073.840072,0.000000,-9252.574275,-383.047749
21073.840405,-1184.329507,-11917.315666,0.000000
21073.840738,1702.473667,-6957.935855,0.000000
21073.841071,1110.308913,-8808.450710,1838.629195
21073.841404,-592.164754,-9918.759623,919.314598
21073.841737,4663.297435,-9474.636058,4826.401637
21073.842070,1480.411884,-10140.821405,3524.039291
21073.842403,1776.494261,-8956.491898,1991.848295
21073.842737,-74.020594,-8734.430116,306.438199
21073.843070,0.000000,-9992.780217,1072.533697
21073.843403,-1258.350101,-9178.553681,1149.143247
21073.843736,-4737.318029,-8364.327145,0.000000
21073.844069,-2072.576638,-8216.285956,-76.609550
21073.844402,-2442.679609,-9474.636058,-2374.896044
21073.844735,0.000000,-3627.009116,-1838.629195
21073.845068,2886.803174,-7698.141797,1762.019645
21073.845401,1554.432478,-7994.224174,1685.410096
21073.845734,2220.617826,-9770.718434,2221.676944
21073.846067,1776.494261,-10955.047942,2068.457845
21073.846401,3182.885551,-9474.636058,-76.609550
21073.846734,1184.329507,-11325.150913,2757.943793
21073.847067,4663.297435,-11251.130318,-76.609550
21073.847400,-1628.453072,-7772.162391,0.000000
21073.847733,0.000000,-10288.862594,2681.334243
21073.848066,1110.308913,-6217.729913,-1685.410096
21073.848399,1850.514855,-8290.306550,229.828649
21073.848732,3552.988522,-7772.162391,0.000000
21073.849065,2960.823768,-9178.553681,2681.334243
21073.849398,1480.411884,-4811.338623,0.000000
21073.849732,592.164754,-13101.645173,2374.896044
21073.850065,1998.556043,-8216.285956,-1532.190996
21073.850398,592.164754,-9548.656652,-2451.505594
21073.850731,2886.803174,-13027.624579,-76.609550
21073.851064,-1184.329507,-11029.068536,-1838.629195
21073.851397,-2294.638420,-11103.089130,-1608.800546
21073.851730,-2072.576638,-8364.327145,919.314598
21073.852063,-1998.556043,-9770.718434,1838.629195
21073.852396,1184.329507,-7328.038826,3064.381992
21073.852729,-74.020594,-11843.295072,2374.896044
21073.853062,0.000000,-5995.668130,2757.943793
21073.853396,2294.638420,-7105.977043,4213.525239
21073.853729,3478.967927,-9474.636058,2374.896044
21073.854062,0.000000,-8660.409521,2451.505594
21073.854395,1554.432478,-9918.759623,-612.876398
21073.854728,-518.144159,-12731.542202,-1532.190996
21073.855061,-2960.823768,-11769.274478,-2911.162892
21073.855394,-2368.659014,-10288.862594,-3677.258390
21073.855727,-4811.338623,-10510.924376,-689.485948
21073.856060,-4293.194464,-7772.162391,1072.533697
21073.856393,-3775.050304,-6883.915261,1378.971896
21073.856727,-666.185348,-5921.647536,1762.019645
21073.857060,962.267725,-4367.215058,2757.943793
21073.857393,3108.864956,-6513.812290,6052.154434
21073.857726,2146.597232,-3701.029710,842.705048
21073.858059,0.000000,-10732.986159,1991.848295
21073.858392,2294.638420,-10066.800811,-1608.800546
21073.858725,-2294.638420,-12657.521608,-2987.772442
21073.859058,-1850.514855,-13323.706956,-4979.620737
21073.859391,-1850.514855,-11547.212695,-5132.839837
21073.859724,-3552.988522,-11325.150913,-2451.505594
21073.860058,-666.185348,-9474.636058,0.000000
21073.860391,1110.308913,-9474.636058,4213.525239
21073.860724,1702.473667,-5773.606348,3064.381992
21073.861057,4515.256246,-4219.173869,5209.449386
21073.861390,4737.318029,-4811.338623,5515.887586
21073.861723,2368.659014,-6883.915261,2987.772442
21073.862056,888.247130,-9474.636058,-842.705048
21073.862389,1776.494261,-11695.253884,-1915.238745
21073.862722,3775.050304,-13027.624579,-76.609550
21073.863055,814.226536,-11621.233289,-3677.258390
21073.863388,-74.020594,-13027.624579,-2528.115143
21073.863722,-1850.514855,-10214.842000,-4903.011187
21073.864055,-2368.659014,-9548.656652,0.000000
21073.864388,-74.020594,-10362.883188,3600.648841
21073.864721,-1776.494261,-7846.182985,2681.334243
21073.865054,3108.864956,-3478.967927,5132.839837
21073.865387,2368.659014,-4811.338623,4060.306139
21073.865720,7031.956449,-3552.988522,3907.087040
21073.866053,2368.659014,-9548.656652,2757.943793
21073.866386,4367.215058,-9844.739029,-1838.629195
21073.866719,0.000000,-11325.150913,-3370.820191
21073.867053,592.164754,-14211.954086,-4979.620737
21073.867386,-1554.432478,-15396.283594,-6818.249932
21073.867719,-1332.370696,-12731.542202,-4979.620737
21073.868052,-1924.535449,-11251.130318,-1302.362347
21073.868385,-2146.597232,-8290.306550,3447.429741
21073.868718,-962.267725,-6513.812290,5209.449386
21073.869051,2294.638420,-7105.977043,8503.660028
21073.869384,2368.659014,-2442.679609,7967.393179
21073.869717,3775.050304,-4441.235652,7890.783629
21073.870050,4663.297435,-6809.894666,1762.019645
21073.870383,-666.185348,-9326.594869,-995.924147
21073.870717,-1406.391290,-12731.542202,-3447.429741
21073.871050,-3108.864956,-12805.562797,-6665.030833
21073.871383,-4589.276840,-14359.995275,-8580.269578
21073.871716,-3108.864956,-14137.933492,-5362.668486
21073.872049,-370.102971,-12731.542202,-995.924147
21073.872382,0.000000,-7846.182985,2528.115143
21073.872715,-1850.514855,-7031.956449,4826.401637
21073.873048,2738.761985,-6143.709319,7660.954980
21073.873381,3997.112087,-1554.432478,8886.707777
21073.873714,4885.359217,-5181.441594,8810.098227
21073.874048,4663.297435,-4737.318029,1762.019645
21073.874381,592.164754,-7772.162391,1225.752797
21073.874714,1702.473667,-10955.047942,-2528.115143
21073.875047,1110.308913,-12731.542202,-5745.716235
21073.875380,-2664.741391,-13841.851115,-8733.488677
21073.875713,-3552.988522,-16358.551318,-8427.050478
21073.876046,-2960.823768,-12065.356855,-6128.763984
21073.876379,0.000000,-11325.150913,-919.314598
21073.876712,-1480.411884,-9474.636058,3600.648841
21073.877045,814.226536,-4219.173869,4903.011187
21073.877378,3256.906145,-3034.844362,9806.022374
21073.877712,7698.141797,-5403.503377,9729.412825
21073.878045,6069.688724,-5995.668130,6128.763984
21073.878378,3849.070898,-8364.327145,4749.792088
21073.878711,518.144159,-9474.636058,-76.609550
21073.879044,-592.164754,-10732.986159,-3294.210641
21073.879377,-1850.514855,-13323.706956,-6205.373534
21073.879710,-2442.679609,-15988.448347,-8656.879127
21073.880043,-5255.462188,-11917.315666,-7967.393179
21073.880376,-4737.318029,-11029.068536,-4903.011187
21073.880709,-3849.070898,-10066.800811,2068.457845
21073.881043,-1924.535449,-7550.100608,4826.401637
21073.881376,1998.556043,-5255.462188,7277.907231
21073.881709,3478.967927,-5033.400406,8197.221829
21073.882042,4441.235652,-5107.421000,6818.249932
21073.882375,2886.803174,-5329.482782,3447.429741
21073.882708,2886.803174,-8882.471304,2221.676944
21073.883041,0.000000,-8364.327145,2145.067394
21073.883374,-74.020594,-13027.624579,-2221.676944
21073.883707,-1554.432478,-13027.624579,-6511.811733
21073.884040,-3923.091493,-14211.954086,-6818.249932
21073.884374,-3552.988522,-12287.418637,-6435.202183
21073.884707,-2886.803174,-10658.965565,-3140.991542
21073.885040,-2812.782580,-9030.512492,2068.457845
21073.885373,0.000000,-5107.421000,6128.763984
21073.885706,444.123565,-4811.338623,6281.983084
21073.886039,4441.235652,-5921.647536,8427.050478
21073.886372,4663.297435,-7105.977043,6052.154434
21073.886705,2368.659014,-5403.503377,5515.887586
21073.887038,2664.741391,-9474.636058,3294.210641
21073.887371,-2368.659014,-12213.398043,-1838.629195
21073.887704,-370.102971,-11843.295072,-4979.620737
21073.888038,-3034.844362,-13249.686362,-7124.688131
21073.888371,-1184.329507,-12509.480420,-5822.325785
21073.888704,-3256.906145,-10732.986159,-4903.011187
21073.889037,-1480.411884,-9474.636058,-1532.190996
21073.889370,-444.123565,-8808.450710,3294.210641
21073.889703,2812.782580,-7402.059420,6894.859482
21073.890036,4145.153275,-5107.421000,5515.887586
21073.890369,4663.297435,-5329.482782,4826.401637
21073.890702,2368.659014,-5403.503377,6818.249932
21073.891035,1110.308913,-7105.977043,1149.143247
21073.891369,-74.020594,-10658.965565,-1915.238745
21073.891702,-1776.494261,-11917.315666,-3140.991542
21073.892035,-2220.617826,-12583.501014,-6128.763984
21073.892368,-2294.638420,-12139.377449,-7354.516781
21073.892701,-3627.009116,-13027.624579,-6435.202183
21073.893034,-740.205942,-12139.377449,-689.485948
21073.893367,-1406.391290,-7179.997637,1225.752797
21073.893700,296.082377,-7179.997637,7354.516781
21073.894033,4663.297435,-7698.141797,6665.030833
21073.894366,3552.988522,-2442.679609,6128.763984
21073.894699,4663.297435,-8882.471304,6052.154434
21073.895033,2368.659014,-7624.121203,4060.306139
21073.895366,-518.144159,-9104.533087,-76.609550
21073.895699,-2368.659014,-11547.212695,-2604.724693
21073.896032,-1258.350101,-11843.295072,-5592.497135
21073.896365,-4737.318029,-9548.656652,-4903.011187
21073.896698,-814.226536,-11843.295072,-2834.553343
21073.897031,-74.020594,-10658.965565,-3140.991542
21073.897364,-2368.659014,-7772.162391,612.876398
21073.897697,-74.020594,-8290.306550,1762.019645
21073.898030,2590.720797,-7698.141797,4213.525239
21073.898364,3849.070898,-8216.285956,6741.640382
21073.898697,4737.318029,-7328.038826,7048.078582
21073.899030,2960.823768,-4811.338623,2451.505594
21073.899363,0.000000,-8364.327145,2298.286494
21073.899696,-74.020594,-11251.130318,-1762.019645
21073.900029,-2960.823768,-8364.327145,-2757.943793
21073.900362,-2368.659014,-9548.656652,-919.314598
21073.900695,-666.185348,-9474.636058,-3370.820191
21073.901028,888.247130,-8660.409521,-2374.896044
21073.901361,0.000000,-7624.121203,-842.705048
21073.901694,-1628.453072,-8290.306550,-1302.362347
21073.902028,-2664.741391,-8364.327145,-2068.457845
21073.902361,888.247130,-11251.130318,2068.457845
21073.902694,2664.741391,-9844.739029,3217.601092
21073.903027,1332.370696,-8438.347739,1991.848295
21073.903360,2886.803174,-9178.553681,2374.896044
21073.903693,1110.308913,-9326.594869,-76.609550
21073.904026,0.000000,-9844.739029,2451.505594
21073.904359,4663.297435,-11843.295072,1762.019645
21073.904692,-1110.308913,-8660.409521,-3064.381992
21073.905025,1332.370696,-11547.212695,-383.047749
21073.905358,0.000000,-7772.162391,612.876398
21073.905691,1258.350101,-8586.388927,536.266849
21073.906024,0.000000,-9252.574275,-306.438199
21073.906357,814.226536,-9474.636058,-383.047749
21073.906690,1110.308913,-11843.295072,-76.609550
21073.907023,0.000000,-9548.656652,3524.039291
21073.907356,-74.020594,-9474.636058,3600.648841
21073.907689,-74.020594,-8290.306550,76.609550
21073.908022,-2442.679609,-7846.182985,1149.143247
21073.908356,-1998.556043,-9252.574275,0.000000
21073.908689,-1554.432478,-8808.450710,-1072.533697
21073.909022,-666.185348,-8734.430116,-995.924147
21073.909355,592.164754,-8068.244768,0.000000
21073.909688,4663.297435,-8290.306550,536.266849
21073.910021,0.000000,-9548.656652,1225.752797
21073.910354,4663.297435,-9474.636058,-536.266849
21073.910687,1184.329507,-11029.068536,0.000000
21073.911020,2368.659014,-11621.233289,1455.581446
21073.911353,0.000000,-8956.491898,0.000000
21073.911686,-814.226536,-9326.594869,-76.609550
21073.912019,-2516.700203,-7328.038826,1149.143247
21073.912352,-1850.514855,-9474.636058,1608.800546
21073.912685,-2146.597232,-6587.832884,0.000000
21073.913018,-74.020594,-8290.306550,2374.896044
21073.913351,1702.473667,-7698.141797,-995.924147
21073.913684,0.000000,-7772.162391,2374.896044
21073.914017,1776.494261,-9474.636058,-76.609550
21073.914350,74.020594,-10214.842000,-229.828649
21073.914684,1480.411884,-10288.862594,-842.705048
21073.915017,2220.617826,-11695.253884,76.609550
21073.915350,1702.473667,-10658.965565,-1072.533697
21073.915683,0.000000,-10140.821405,1991.848295
21073.916016,-666.185348,-9918.759623,-1225.752797
21073.916349,-2960.823768,-7179.997637,0.000000
21073.916682,-74.020594,-10658.965565,3600.648841
21073.917015,1850.514855,-6809.894666,1991.848295
21073.917348,1110.308913,-9178.553681,3600.648841
21073.917681,2886.803174,-4441.235652,1455.581446
21073.918014,1332.370696,-7179.997637,0.000000
21073.918347,1110.308913,-9474.636058,-995.924147
21073.918680,0.000000,-10732.986159,-1302.362347
21073.919013,-1184.329507,-13101.645173,-3600.648841
21073.919346,-518.144159,-13323.706956,-3983.696590
21073.919679,-1776.494261,-11843.295072,-2834.553343
21073.920012,-74.020594,-10362.883188,-76.609550
21073.920345,-1776.494261,-6587.832884,1991.848295
21073.920679,-2368.659014,-7476.080014,4903.011187
21073.921012,2294.638420,-7105.977043,3753.867940
21073.921345,2368.659014,-6143.709319,5515.887586
21073.921678,4663.297435,-6809.894666,3600.648841
21073.922011,2516.700203,-8068.244768,1685.410096
21073.922344,2072.576638,-7772.162391,-153.219100
