#time,accel_x,accel_y,accel_z
22505.229572,8216.285956,-9474.636058,2451.505594
22505.229905,9400.615463,-8882.471304,3447.429741
22505.230239,8882.471304,-8660.409521,2757.943793
22505.230572,9252.574275,-9326.594869,1685.410096
22505.230906,7328.038826,-9474.636058,-689.485948
22505.231239,7105.977043,-11547.212695,-76.609550
22505.231573,6439.791695,-9474.636058,-4903.011187
22505.231906,5329.482782,-9548.656652,-2145.067394
22505.232240,8142.265362,-10658.965565,-1532.190996
22505.232573,7402.059420,-7476.080014,306.438199
22505.232907,10436.903782,-8660.409521,3140.991542
22505.233240,11991.336260,-7920.203579,4979.620737
22505.233574,12213.398043,-8660.409521,4060.306139
22505.233907,10066.800811,-8364.327145,1225.752797
22505.234241,11177.109724,-11843.295072,1149.143247
22505.234574,3552.988522,-9548.656652,-2451.505594
22505.234908,592.164754,-11917.315666,-1991.848295
22505.235241,2294.638420,-11547.212695,-2528.115143
22505.235575,888.247130,-9992.780217,-76.609550
22505.235909,3552.988522,-7179.997637,1149.143247
22505.236242,4293.194464,-6143.709319,1302.362347
22505.236576,7105.977043,-5477.523971,2987.772442
22505.236909,11103.089130,-7698.141797,6971.469032
22505.237243,14137.933492,-5921.647536,2987.772442
22505.237576,10658.965565,-7772.162391,2451.505594
22505.237910,9474.636058,-9548.656652,1072.533697
22505.238243,9400.615463,-11843.295072,-3753.867940
22505.238577,7698.141797,-11917.315666,-2604.724693
22505.238910,6735.874072,-12509.480420,-4443.353888
22505.239244,4441.235652,-13101.645173,-3983.696590
22505.239577,4441.235652,-11547.212695,-1991.848295
22505.239911,9030.512492,-9474.636058,2374.896044
22505.240244,9770.718434,-6439.791695,3524.039291
22505.240578,11547.212695,-5255.462188,5898.935335
22505.240911,12879.583391,-5847.626942,7201.297681
22505.241245,11399.171507,-4811.338623,4903.011187
22505.241578,8290.306550,-8512.368333,3677.258390
22505.241912,8808.450710,-10066.800811,-689.485948
22505.242245,5847.626942,-7254.018232,-4903.011187
22505.242579,3849.070898,-10140.821405,-2528.115143
22505.242912,5255.462188,-9474.636058,-3753.867940
22505.243246,5033.400406,-9622.677246,-2757.943793
22505.243580,7254.018232,-9326.594869,-995.924147
22505.243913,9104.533087,-7994.224174,229.828649
22505.244247,9474.636058,-8734.430116,0.000000
22505.244580,7105.977043,-8364.327145,2451.505594
22505.244914,11177.109724,-7179.997637,0.000000
22505.245247,11843.295072,-6587.832884,153.219100
22505.245581,11251.130318,-10288.862594,4366.744339
22505.245914,10955.047942,-11621.233289,1838.629195
22505.246248,11695.253884,-9474.636058,3140.991542
22505.246581,12879.583391,-8808.450710,4519.963438
22505.246915,13989.892304,-6143.709319,2451.505594
22505.247248,13545.768739,-7105.977043,-76.609550
22505.247582,10066.800811,-8512.368333,-76.609550
22505.247915,10584.944971,-6291.750507,-4903.011187
22505.248249,7402.059420,-12509.480420,-3447.429741
22505.248582,4663.297435,-12731.542202,-7431.126331
22505.248916,7624.121203,-11547.212695,-3447.429741
22505.249249,10732.986159,-9770.718434,1302.362347
22505.249583,15174.221811,-6587.832884,4596.572988
22505.249916,15988.448347,-7550.100608,7507.735880
22505.250250,14359.995275,-4811.338623,6741.640382
22505.250583,16506.592507,-9474.636058,6052.154434
22505.250917,12435.459826,-7179.997637,0.000000
22505.251251,9474.636058,-10732.986159,1608.800546
22505.251584,9992.780217,-9474.636058,-3140.991542
22505.251918,8216.285956,-6217.729913,-5209.449386
22505.252251,8290.306550,-10362.883188,-4596.572988
22505.252585,7402.059420,-10732.986159,-4903.011187
22505.252918,7624.121203,-12879.583391,-2298.286494
22505.253252,8290.306550,-13027.624579,2145.067394
22505.253585,10584.944971,-5995.668130,0.000000
22505.253919,14211.954086,-8512.368333,8197.221829
22505.254252,16506.592507,-7105.977043,7890.783629
22505.254586,11843.295072,-5107.421000,7660.954980
22505.254919,10066.800811,-7476.080014,2911.162892
22505.255253,7105.977043,-10214.842000,-612.876398
22505.255586,6513.812290,-9548.656652,-3217.601092
22505.255920,7698.141797,-7402.059420,-4366.744339
22505.256253,8512.368333,-9474.636058,-4366.744339
22505.256587,5107.421000,-8808.450710,-6971.469032
22505.256920,7920.203579,-12065.356855,-2911.162892
22505.257254,8882.471304,-11177.109724,1762.019645
22505.257587,12361.439231,-7476.080014,4673.182538
22505.257921,13619.789333,-8808.450710,6435.202183
22505.258254,12361.439231,-6217.729913,3907.087040
22505.258588,8882.471304,-7179.997637,1532.190996
22505.258921,12657.521608,-10510.924376,3600.648841
22505.259255,10881.027347,-6217.729913,-689.485948
22505.259589,8290.306550,-11325.150913,1225.752797
22505.259922,5107.421000,-9326.594869,-4749.792088
22505.260256,2294.638420,-14656.077652,-6971.469032
22505.260589,5773.606348,-9474.636058,-4366.744339
22505.260923,11695.253884,-8290.306550,-76.609550
22505.261256,13545.768739,-4811.338623,3064.381992
22505.261590,12731.542202,-7179.997637,3677.258390
22505.261923,11843.295072,-12065.356855,6665.030833
22505.262257,12361.439231,-8290.306550,2068.457845
22505.262590,14730.098246,-9474.636058,4213.525239
22505.262924,10140.821405,-8512.368333,-459.657299
22505.263257,5551.544565,-12139.377449,-3064.381992
22505.263591,7179.997637,-9696.697840,-995.924147
22505.263924,7105.977043,-8364.327145,-1838.629195
22505.264258,9992.780217,-2442.679609,0.000000
22505.264591,9104.533087,-9474.636058,842.705048
22505.264925,9400.615463,-7105.977043,-2834.553343
22505.265258,9474.636058,-9844.739029,2451.505594
22505.265592,12361.439231,-6957.935855,-536.266849
22505.265925,13471.748144,-8068.244768,2681.334243
22505.266259,10066.800811,-8660.409521,689.485948
22505.266592,12139.377449,-10140.821405,1378.971896
22505.266926,5329.482782,-12213.398043,0.000000
22505.267260,11325.150913,-8290.306550,-76.609550
22505.267593,8808.450710,-14211.954086,-76.609550
22505.267927,11177.109724,-5107.421000,-1225.752797
22505.268260,9474.636058,-7179.997637,4213.525239
22505.268594,9400.615463,-5033.400406,-1685.410096
22505.268927,12213.398043,-11251.130318,-2298.286494
22505.269261,10584.944971,-11991.336260,1915.238745
22505.269594,13027.624579,-7402.059420,612.876398
22505.269928,9474.636058,-11473.192101,0.000000
22505.270261,12065.356855,-11621.233289,-76.609550
22505.270595,9770.718434,-8438.347739,1225.752797
22505.270928,12657.521608,-6957.935855,4060.306139
22505.271262,11917.315666,-7105.977043,2068.457845
22505.271595,7698.141797,-10658.965565,-76.609550
22505.271929,3256.906145,-6587.832884,-2451.505594
22505.272262,8216.285956,-11251.130318,-76.609550
22505.272596,5551.544565,-7105.977043,-3140.991542
22505.272929,6439.791695,-8142.265362,-3294.210641
22505.273263,9400.615463,-10658.965565,2374.896044
22505.273596,9770.718434,-4811.338623,-459.657299
22505.273930,10881.027347,-10955.047942,2987.772442
22505.274263,9992.780217,-8142.265362,2145.067394
22505.274597,11473.192101,-13027.624579,3600.648841
22505.274931,9474.636058,-9548.656652,6665.030833
22505.275264,9400.615463,-9474.636058,-1532.190996
22505.275598,6217.729913,-7179.997637,-3677.258390
22505.275931,2960.823768,-13101.645173,-1991.848295
22505.276265,2590.720797,-10658.965565,-612.876398
22505.276598,2738.761985,-10436.903782,-1915.238745
22505.276932,3627.009116,-6439.791695,2757.943793
22505.277265,4959.379811,-7254.018232,3830.477490
22505.277599,6217.729913,-666.185348,3753.867940
22505.277932,6735.874072,-7105.977043,2374.896044
22505.278266,6439.791695,-8290.306550,-76.609550
22505.278599,3849.070898,-7772.162391,1225.752797
22505.278933,1480.411884,-15396.283594,2221.676944
22505.279266,0.000000,-9548.656652,-4903.011187
22505.279600,888.247130,-10214.842000,-5209.449386
22505.279933,2146.597232,-11399.171507,-2374.896044
22505.280267,4293.194464,-7698.141797,76.609550
22505.280600,4145.153275,-10732.986159,612.876398
22505.280934,5255.462188,-11547.212695,1762.019645
22505.281267,6439.791695,-9474.636058,3600.648841
22505.281601,6809.894666,-5551.544565,5515.887586
22505.281934,10584.944971,-7105.977043,6052.154434
22505.282268,7402.059420,-7550.100608,3907.087040
22505.282601,7624.121203,-7846.182985,1378.971896
22505.282935,4811.338623,-11695.253884,-1762.019645
22505.283269,518.144159,-11399.171507,-1991.848295
22505.283602,-74.020594,-10658.965565,-4366.744339
22505.283936,-3034.844362,-13027.624579,-6971.469032
22505.284269,-1776.494261,-6883.915261,-1225.752797
22505.284603,0.000000,-8364.327145,-1685.410096
22505.284936,4663.297435,-8290.306550,3600.648841
22505.285270,3552.988522,-7772.162391,3140.991542
22505.285603,2664.741391,-8882.471304,4519.963438
22505.285937,4219.173869,-5921.647536,4213.525239
22505.286270,3775.050304,-9622.677246,2298.286494
22505.286604,8660.409521,-8290.306550,5439.278036
22505.286937,2664.741391,-8956.491898,1072.533697
22505.287271,3478.967927,-7402.059420,-1838.629195
22505.287604,1332.370696,-12731.542202,-2374.896044
22505.287938,2368.659014,-10732.986159,-1838.629195
22505.288271,-2072.576638,-11029.068536,-1838.629195
22505.288605,-666.185348,-10584.944971,-4979.620737
22505.288938,-74.020594,-8956.491898,-7354.516781
22505.289272,-4145.153275,-15026.180623,3294.210641
22505.289605,7476.080014,-592.164754,4213.525239
22505.289939,1628.453072,-9474.636058,8197.221829
22505.290272,5477.523971,-3997.112087,4366.744339
22505.290606,3552.988522,-9326.594869,4366.744339
22505.290940,7698.141797,-6365.771101,6665.030833
22505.291273,4145.153275,-7179.997637,2834.553343
22505.291607,-3627.009116,-10732.986159,-6128.763984
22505.291940,-2960.823768,-11917.315666,-9193.145976
22505.292274,-7105.977043,-13693.809927,-4673.182538
22505.292607,-1036.288319,-12065.356855,-5515.887586
22505.292941,-74.020594,-10510.924376,1149.143247
22505.293274,-1480.411884,-11695.253884,2221.676944
22505.293608,2590.720797,-3775.050304,6588.421283
22505.293941,1110.308913,-5921.647536,4826.401637
22505.294275,4737.318029,-5921.647536,4060.306139
22505.294608,3923.091493,-9548.656652,7354.516781
22505.294942,4145.153275,-4811.338623,4060.306139
22505.295275,5255.462188,-9474.636058,842.705048
22505.295609,-7254.018232,-10807.006753,-4979.620737
22505.295942,-5033.400406,-10510.924376,-9499.584175
22505.296276,-5181.441594,-13027.624579,-4673.182538
22505.296609,-3552.988522,-14211.954086,-3294.210641
22505.296943,-7105.977043,-9548.656652,-3064.381992
22505.297276,-1850.514855,-7698.141797,229.828649
22505.297610,-1184.329507,-8364.327145,1532.190996
22505.297943,3849.070898,-4219.173869,9729.412825
22505.298277,5551.544565,-5033.400406,5362.668486
22505.298611,1776.494261,-3627.009116,2757.943793
22505.298944,2516.700203,-7254.018232,-229.828649
22505.299278,-1776.494261,-11103.089130,0.000000
22505.299611,962.267725,-9918.759623,-1149.143247
22505.299945,-74.020594,-11251.130318,-3140.991542
22505.300278,-2590.720797,-11917.315666,-4903.011187
22505.300612,-2738.761985,-15396.283594,-6818.249932
22505.300945,-2146.597232,-9474.636058,-3140.991542
22505.301279,-5921.647536,-12213.398043,306.438199
22505.301612,2664.741391,-5995.668130,5669.106685
22505.301946,1776.494261,-4811.338623,5515.887586
22505.302279,3404.947333,-8142.265362,5822.325785
22505.302613,3182.885551,-7698.141797,4979.620737
22505.302946,2294.638420,-8882.471304,2987.772442
22505.303280,4145.153275,-4811.338623,2757.943793
22505.303613,-1924.535449,-7476.080014,1072.533697
22505.303947,-814.226536,-6587.832884,-5286.058936
22505.304280,-7254.018232,-13323.706956,-7890.783629
22505.304614,1554.432478,-14211.954086,-4060.306139
22505.304947,-2664.741391,-11917.315666,-3064.381992
22505.305281,2960.823768,-8364.327145,3677.258390
22505.305614,-370.102971,-14211.954086,2374.896044
22505.305948,3108.864956,-7772.162391,4903.011187
22505.306281,5329.482782,-10214.842000,7890.783629
22505.306615,6809.894666,-5995.668130,7814.174080
22505.306949,4071.132681,-3997.112087,3370.820191
22505.307282,-2664.741391,-7550.100608,-76.609550
22505.307616,518.144159,-7105.977043,-1762.019645
22505.307949,-4145.153275,-11325.150913,-2145.067394
22505.308283,-74.020594,-7105.977043,-2528.115143
22505.308616,-3627.009116,-10066.800811,-5745.716235
22505.308950,-5921.647536,-8364.327145,-7967.393179
22505.309283,1702.473667,-11843.295072,-4519.963438
22505.309616,-4589.276840,-17542.880825,2757.943793
22505.309949,7772.162391,-2146.597232,6435.202183
22505.310283,2368.659014,-13619.789333,4826.401637
22505.310616,5921.647536,-6291.750507,5515.887586
22505.310949,-4737.318029,-5995.668130,1838.629195
22505.311282,4663.297435,-8290.306550,-76.609550
22505.311615,1184.329507,-5403.503377,0.000000
22505.311948,-4737.318029,-11917.315666,-2451.505594
22505.312281,-3330.926739,-5107.421000,-2298.286494
22505.312614,-6661.853478,-11251.130318,-4979.620737
22505.312947,444.123565,-9030.512492,-3447.429741
22505.313281,-962.267725,-13619.789333,2374.896044
22505.313614,2294.638420,-7105.977043,4826.401637
22505.313947,-4737.318029,-4811.338623,4290.134789
22505.314280,518.144159,-8290.306550,2374.896044
22505.314613,518.144159,-6291.750507,0.000000
22505.314946,2368.659014,-10732.986159,6358.592633
22505.315279,7402.059420,-7772.162391,1762.019645
22505.315612,-4441.235652,-12065.356855,-919.314598
22505.315946,-2664.741391,-11251.130318,-1915.238745
22505.316279,-3034.844362,-9326.594869,-2451.505594
22505.316612,-1998.556043,-7402.059420,-1991.848295
22505.316945,-3627.009116,-9474.636058,-2681.334243
22505.317278,-3552.988522,-6291.750507,0.000000
22505.317611,-74.020594,-11547.212695,2374.896044
22505.317944,0.000000,-7179.997637,5515.887586
22505.318277,4071.132681,-6291.750507,7890.783629
22505.318610,444.123565,-9104.533087,3753.867940
22505.318944,2442.679609,-5107.421000,-2374.896044
22505.319277,3182.885551,-8586.388927,-995.924147
22505.319610,296.082377,-14285.974681,-1072.533697
22505.319943,1110.308913,-11991.336260,2757.943793
22505.320276,1702.473667,-7550.100608,-3983.696590
22505.320609,-74.020594,-15396.283594,-1455.581446
22505.320942,-3923.091493,-8734.430116,-5745.716235
22505.321275,-3182.885551,-10658.965565,-4366.744339
22505.321609,1702.473667,-12731.542202,4826.401637
22505.321942,2886.803174,-5181.441594,229.828649
22505.322275,2368.659014,-8956.491898,6435.202183
22505.322608,1776.494261,-9326.594869,5515.887586
22505.322941,1776.494261,-7179.997637,3677.258390
22505.323274,3775.050304,-3330.926739,2987.772442
22505.323607,4071.132681,-9844.739029,2451.505594
22505.323940,1184.329507,-5329.482782,-383.047749
22505.324274,-2368.659014,-10140.821405,-2451.505594
22505.324607,-1554.432478,-10362.883188,-7890.783629
22505.324940,814.226536,-11473.192101,-3677.258390
22505.325273,-2072.576638,-11029.068536,-2528.115143
22505.325606,1110.308913,-13915.871710,-2528.115143
22505.325939,0.000000,-10658.965565,3294.210641
22505.326272,1184.329507,-9400.615463,3294.210641
22505.326605,4663.297435,-6587.832884,6894.859482
22505.326938,7031.956449,-3701.029710,8350.440928
22505.327272,2590.720797,-10955.047942,4826.401637
22505.327605,74.020594,-2738.761985,1225.752797
22505.327938,-2368.659014,-11251.130318,-1915.238745
22505.328271,2294.638420,-6809.894666,-2528.115143
22505.328604,-5921.647536,-12509.480420,-3064.381992
22505.328937,1998.556043,-4145.153275,-6818.249932
22505.329270,-7994.224174,-16284.530724,-4979.620737
22505.329603,-4293.194464,-13323.706956,-4290.134789
22505.329937,4811.338623,-11103.089130,2757.943793
22505.330270,-1554.432478,-9474.636058,7890.783629
22505.330603,5921.647536,-2442.679609,4903.011187
22505.330936,2294.638420,-11843.295072,6665.030833
22505.331269,4145.153275,-3775.050304,1225.752797
22505.331602,-3552.988522,-9548.656652,612.876398
22505.331935,1110.308913,-8290.306550,-76.609550
22505.332268,-6513.812290,-7772.162391,-7967.393179
22505.332601,-7994.224174,-12805.562797,-3907.087040
22505.332935,-2368.659014,-7920.203579,-4366.744339
22505.333268,-6291.750507,-11843.295072,-2834.553343
22505.333601,740.205942,-7772.162391,2145.067394
22505.333934,1702.473667,-6069.688724,4826.401637
22505.334267,-1702.473667,-7179.997637,6511.811733
22505.334600,5921.647536,-4441.235652,4213.525239
22505.334933,2886.803174,-14804.118840,5439.278036
22505.335266,4737.318029,-3627.009116,1838.629195
22505.335600,0.000000,-12509.480420,919.314598
22505.335933,-1406.391290,-10066.800811,-4826.401637
22505.336266,-5921.647536,-13101.645173,-8580.269578
22505.336599,-2442.679609,-13545.768739,-4366.744339
22505.336932,1332.370696,-8512.368333,766.095498
22505.337265,-2664.741391,-9104.533087,-689.485948
22505.337598,-74.020594,-8882.471304,3600.648841
22505.337931,-962.267725,-7105.977043,2374.896044
22505.338264,2960.823768,-5403.503377,7660.954980
22505.338598,6291.750507,-4737.318029,9116.536426
22505.338931,4367.215058,-9474.636058,2834.553343
22505.339264,814.226536,-6217.729913,-1302.362347
22505.339597,-3108.864956,-13027.624579,-3447.429741
22505.339930,1702.473667,-11843.295072,-2987.772442
22505.340263,-2442.679609,-10955.047942,-1762.019645
22505.340596,1184.329507,-7179.997637,-7354.516781
22505.340929,-74.020594,-15396.283594,-3907.087040
22505.341263,-2368.659014,-11029.068536,-383.047749
22505.341596,2886.803174,-14063.912898,1302.362347
22505.341929,740.205942,-3627.009116,1225.752797
22505.342262,2516.700203,-7179.997637,2834.553343
22505.342595,2442.679609,-6587.832884,5439.278036
22505.342928,3478.967927,-8142.265362,4903.011187
22505.343261,2664.741391,-6587.832884,3217.601092
22505.343594,4663.297435,-8290.306550,4826.401637
22505.343927,-1702.473667,-7772.162391,0.000000
22505.344261,-1258.350101,-8290.306550,-1302.362347
22505.344594,-3034.844362,-6217.729913,-8273.831378
22505.344927,-5921.647536,-15766.386565,-6205.373534
22505.345260,1480.411884,-9844.739029,-76.609550
22505.345593,-2294.638420,-12879.583391,-2221.676944
22505.345926,1998.556043,-9178.553681,995.924147
22505.346259,-2590.720797,-11843.295072,1915.238745
22505.346592,1406.391290,-7994.224174,995.924147
22505.346926,4737.318029,-7476.080014,9729.412825
22505.347259,4663.297435,-5625.565159,1225.752797
22505.347592,2664.741391,-7846.182985,8580.269578
22505.347925,4071.132681,-7698.141797,2374.896044
22505.348258,-74.020594,-11251.130318,1762.019645
22505.348591,-2220.617826,-6735.874072,-995.924147
22505.348924,-4219.173869,-10214.842000,-5592.497135
22505.349257,-2738.761985,-7772.162391,-5669.106685
22505.349591,-8660.409521,-15396.283594,-5056.230287
22505.349924,-1776.494261,-10510.924376,-76.609550
22505.350257,0.000000,-8808.450710,5132.839837
22505.350590,3552.988522,-5255.462188,3217.601092
22505.350923,3478.967927,-9770.718434,6281.983084
22505.351256,2146.597232,-3256.906145,1991.848295
22505.351589,2368.659014,-12287.418637,1762.019645
22505.351922,7031.956449,-11251.130318,4213.525239
22505.352255,0.000000,-10732.986159,0.000000
22505.352589,-1702.473667,-11843.295072,-3140.991542
22505.352922,-2442.679609,-11251.130318,-6511.811733
22505.353255,-4589.276840,-11843.295072,-6894.859482
22505.353588,2886.803174,-7698.141797,1149.143247
22505.353921,2812.782580,-9178.553681,4903.011187
22505.354254,2960.823768,-4811.338623,4903.011187
22505.354587,-2368.659014,-10881.027347,4826.401637
22505.354920,-2146.597232,-9548.656652,2451.505594
22505.355254,4737.318029,-74.020594,4903.011187
22505.355587,4071.132681,-12731.542202,3294.210641
22505.355920,3330.926739,-2442.679609,-2451.505594
22505.356253,-4811.338623,-13767.830521,-5286.058936
22505.356586,-4293.194464,-13841.851115,-6052.154434
22505.356919,1110.308913,-10362.883188,-3064.381992
22505.357252,-370.102971,-14063.912898,-2528.115143
22505.357585,-666.185348,-14211.954086,-1302.362347
22505.357918,-888.247130,-5403.503377,0.000000
22505.358252,3923.091493,-11251.130318,8503.660028
22505.358585,10584.944971,-4145.153275,9422.974625
22505.358918,8290.306550,-1998.556043,9652.803275
22505.359251,5847.626942,-8438.347739,3524.039291
22505.359584,1184.329507,-12139.377449,1762.019645
22505.359917,-3330.926739,-8512.368333,-6588.421283
22505.360250,-4293.194464,-12731.542202,-4213.525239
22505.360583,-1258.350101,-11843.295072,-5898.935335
22505.360917,-4145.153275,-8364.327145,-3677.258390
22505.361250,-4737.318029,-10881.027347,-1608.800546
22505.361583,-74.020594,-10658.965565,-76.609550
22505.361916,814.226536,-9474.636058,2221.676944
22505.362249,3404.947333,-10066.800811,8350.440928
22505.362582,6735.874072,-1850.514855,6818.249932
22505.362915,1998.556043,-7402.059420,2068.457845
22505.363248,1184.329507,-11621.233289,3677.258390
22505.363581,2812.782580,-4811.338623,-2451.505594
22505.363915,1406.391290,-14211.954086,2374.896044
22505.364248,-74.020594,-9178.553681,-7124.688131
22505.364581,-7920.203579,-13693.809927,-7967.393179
22505.364914,-6809.894666,-10288.862594,-3064.381992
22505.365247,-2590.720797,-11029.068536,0.000000
22505.365580,-2960.823768,-10066.800811,2987.772442
22505.365913,4441.235652,-4145.153275,5362.668486
22505.366246,-1036.288319,-6587.832884,8120.612279
22505.366580,8216.285956,592.164754,8503.660028
22505.366913,1776.494261,-8364.327145,3140.991542
22505.367246,2886.803174,-7328.038826,2911.162892
22505.367579,1554.432478,-8734.430116,-5439.278036
22505.367912,-3034.844362,-12435.459826,-6818.249932
22505.368245,-1184.329507,-15396.283594,-4979.620737
22505.368578,-2442.679609,-13323.706956,-6205.373534
22505.368911,0.000000,-11621.233289,919.314598
22505.369244,1332.370696,-11695.253884,306.438199
22505.369578,-74.020594,-9844.739029,1225.752797
22505.369911,-1850.514855,-6217.729913,1149.143247
22505.370244,4293.194464,-5625.565159,6665.030833
22505.370577,1924.535449,-4811.338623,6205.373534
22505.370910,3552.988522,-4811.338623,4903.011187
22505.371243,2294.638420,-7105.977043,2374.896044
22505.371576,962.267725,-7698.141797,-2681.334243
22505.371909,0.000000,-7772.162391,-1532.190996
22505.372243,-74.020594,-14804.118840,-2528.115143
22505.372576,0.000000,-8956.491898,-5515.887586
22505.372909,-5033.400406,-18135.045579,-5515.887586
22505.373242,0.000000,-12583.501014,-1608.800546
22505.373575,-296.082377,-12287.418637,383.047749
22505.373908,3478.967927,-10362.883188,6665.030833
22505.374241,2886.803174,-3552.988522,842.705048
22505.374574,1776.494261,-1554.432478,3677.258390
22505.374907,0.000000,-13101.645173,8197.221829
22505.375241,5551.544565,-2590.720797,3370.820191
22505.375574,-2368.659014,-11103.089130,2987.772442
22505.375907,518.144159,-3627.009116,-2068.457845
22505.376240,962.267725,-10732.986159,-3983.696590
22505.376573,-2072.576638,-11917.315666,-2298.286494
22505.376906,1628.453072,-13397.727550,536.266849
22505.377239,-1702.473667,-7179.997637,-6128.763984
22505.377572,-2960.823768,-16062.468941,-995.924147
22505.377906,-1850.514855,-9474.636058,-2528.115143
22505.378239,-74.020594,-7328.038826,0.000000
22505.378572,2294.638420,-4145.153275,1149.143247
22505.378905,4663.297435,-6143.709319,3140.991542
22505.379238,2664.741391,-6143.709319,4136.915689
22505.379571,2072.576638,-8512.368333,2221.676944
22505.379904,2368.659014,-4441.235652,1302.362347
22505.380237,-1036.288319,-13397.727550,0.000000
22505.380571,962.267725,-10658.965565,-842.705048
22505.380904,-4737.318029,-10214.842000,-4443.353888
22505.381237,-4737.318029,-15396.283594,-2451.505594
22505.381570,-1332.370696,-9992.780217,-689.485948
22505.381903,1702.473667,-8882.471304,919.314598
22505.382236,1776.494261,-5995.668130,4903.011187
22505.382569,2368.659014,-6217.729913,4826.401637
22505.382902,3256.906145,-5403.503377,0.000000
22505.383235,-222.061783,-14952.160028,4213.525239
22505.383569,5995.668130,-3923.091493,4290.134789
22505.383902,-1776.494261,-10881.027347,2681.334243
22505.384235,962.267725,-7105.977043,-3753.867940
22505.384568,-5625.565159,-9548.656652,-7660.954980
22505.384901,-5995.668130,-10732.986159,-7354.516781
22505.385234,-296.082377,-13027.624579,-995.924147
22505.385567,-2442.679609,-15988.448347,-689.485948
22505.385900,1110.308913,-6809.894666,2374.896044
22505.386234,-1554.432478,-7698.141797,-229.828649
22505.386567,5033.400406,-6883.915261,6511.811733
22505.386900,6143.709319,-4885.359217,6665.030833
22505.387233,6735.874072,-9844.739029,8427.050478
22505.387566,5847.626942,-6513.812290,4826.401637
22505.387899,2368.659014,-10140.821405,612.876398
22505.388232,-962.267725,-14804.118840,-2528.115143
22505.388565,-666.185348,-11029.068536,-7354.516781
22505.388898,-3256.906145,-11917.315666,-6741.640382
22505.389232,-3330.926739,-11843.295072,-6435.202183
22505.389565,-3478.967927,-8216.285956,-4519.963438
22505.389898,-4219.173869,-11843.295072,76.609550
22505.390231,1702.473667,-5921.647536,4826.401637
22505.390564,3627.009116,-1258.350101,6665.030833
22505.390897,4145.153275,-6217.729913,8503.660028
22505.391230,7031.956449,-9474.636058,8503.660028
22505.391563,0.000000,-4811.338623,0.000000
22505.391897,5773.606348,-11695.253884,5362.668486
22505.392230,740.205942,-9548.656652,2145.067394
22505.392563,-444.123565,-8364.327145,-6894.859482
22505.392896,-3478.967927,-12509.480420,-11414.822920
22505.393229,-8364.327145,-21910.095883,-7277.907231
22505.393562,0.000000,-9548.656652,-4596.572988
22505.393895,3478.967927,-15396.283594,1149.143247
22505.394228,2664.741391,-3034.844362,6128.763984
22505.394561,0.000000,-5995.668130,7890.783629
22505.394895,5847.626942,-4737.318029,8350.440928
22505.395228,2368.659014,-6143.709319,5515.887586
22505.395561,4959.379811,-7476.080014,4979.620737
22505.395894,2516.700203,-7328.038826,5745.716235
22505.396227,-2738.761985,-8734.430116,-2528.115143
22505.396560,-8882.471304,-12509.480420,-3983.696590
22505.396893,-5995.668130,-11917.315666,-9193.145976
22505.397226,-2294.638420,-13471.748144,-3983.696590
22505.397560,-2294.638420,-7994.224174,-4366.744339
22505.397893,-2442.679609,-14211.954086,-76.609550
22505.398226,-4441.235652,-5995.668130,0.000000
22505.398559,4071.132681,-9326.594869,7277.907231
22505.398892,7031.956449,-6513.812290,6358.592633
22505.399225,7105.977043,-3923.091493,7354.516781
22505.399558,5551.544565,-6809.894666,4826.401637
22505.399891,-444.123565,-11769.274478,2374.896044
22505.400224,2886.803174,-7624.121203,-3064.381992
22505.400558,-4071.132681,-15914.427753,-842.705048
22505.400891,-4737.318029,-8364.327145,-4903.011187
22505.401224,-3552.988522,-9548.656652,-2451.505594
22505.401557,-2442.679609,-11843.295072,-3140.991542
22505.401890,-3256.906145,-6513.812290,-995.924147
22505.402223,-2368.659014,-8068.244768,7048.078582
22505.402556,-888.247130,-2960.823768,1762.019645
22505.402889,2590.720797,-5329.482782,1149.143247
22505.403223,-1554.432478,-12361.439231,383.047749
22505.403556,3108.864956,-4959.379811,0.000000
22505.403889,3478.967927,-11843.295072,-76.609550
22505.404222,3552.988522,-9844.739029,-76.609550
22505.404555,4071.132681,-9548.656652,0.000000
22505.404888,-3404.947333,-14285.974681,-3064.381992
22505.405221,5477.523971,-12435.459826,-2528.115143
22505.405554,-1258.350101,-15396.283594,2757.943793
22505.405888,0.000000,-7698.141797,-76.609550
22505.406221,0.000000,-7698.141797,5362.668486
22505.406554,-592.164754,-5847.626942,3983.696590
22505.406887,4367.215058,-1258.350101,4903.011187
22505.407220,4071.132681,-5921.647536,6665.030833
22505.407553,1184.329507,-5995.668130,2451.505594
22505.407886,-2442.679609,-7105.977043,-4673.182538
22505.408219,-3552.988522,-9548.656652,-8580.269578
22505.408552,-2368.659014,-13693.809927,-7201.297681
22505.408886,1480.411884,-13397.727550,-1225.752797
22505.409219,-1406.391290,-12435.459826,-3753.867940
22505.409555,-592.164754,-8734.430116,-3830.477490
22505.409888,-3034.844362,-17764.942608,-1302.362347
22505.410221,814.226536,-6587.832884,612.876398
22505.410554,4959.379811,-9474.636058,7890.783629
22505.410887,3552.988522,-3627.009116,4979.620737
22505.411220,4737.318029,-7476.080014,9729.412825
22505.411554,2368.659014,-2590.720797,6205.373534
22505.411887,6513.812290,-4959.379811,5669.106685
22505.412220,1110.308913,-12361.439231,4060.306139
22505.412553,1850.514855,-6069.688724,-1455.581446
22505.412886,-3627.009116,-11547.212695,-10495.508323
22505.413219,-7624.121203,-14878.139434,-7354.516781
22505.413552,-9104.533087,-11177.109724,-10572.117872
22505.413885,-3108.864956,-11917.315666,-4443.353888
22505.414218,-74.020594,-11695.253884,842.705048
22505.414551,-1184.329507,-8660.409521,612.876398
22505.414884,0.000000,-5995.668130,7584.345430
22505.415217,2590.720797,-5625.565159,8197.221829
22505.415551,5255.462188,-6217.729913,7124.688131
22505.415884,2368.659014,-6069.688724,7277.907231
22505.416217,4515.256246,-7624.121203,4060.306139
22505.416550,2590.720797,-7254.018232,-2451.505594
22505.416883,-2664.741391,-16506.592507,-4213.525239
22505.417216,2294.638420,-10140.821405,-1455.581446
22505.417549,-8364.327145,-15026.180623,-4673.182538
22505.417882,-4737.318029,-7179.997637,-4903.011187
22505.418215,-8068.244768,-11843.295072,-5592.497135
22505.418548,-74.020594,-8290.306550,-1302.362347
22505.418881,888.247130,-5995.668130,6281.983084
22505.419214,7402.059420,-6809.894666,9729.412825
22505.419547,5033.400406,-4515.256246,7048.078582
22505.419881,444.123565,-7920.203579,2145.067394
22505.420214,6217.729913,-7698.141797,3140.991542
22505.420547,-1850.514855,-11769.274478,-1915.238745
22505.420880,4367.215058,-9548.656652,-5745.716235
22505.421213,-5921.647536,-12657.521608,-3140.991542
22505.421546,-666.185348,-11547.212695,-3140.991542
22505.421879,-1850.514855,-12139.377449,-2681.334243
22505.422212,2146.597232,-8882.471304,1762.019645
22505.422545,370.102971,-10140.821405,4596.572988
22505.422878,1628.453072,-2590.720797,4826.401637
22505.423211,296.082377,-4811.338623,-1225.752797
22505.423544,592.164754,-13101.645173,1838.629195
22505.423878,6365.771101,-2442.679609,5515.887586
22505.424211,3478.967927,-12435.459826,6052.154434
22505.424544,4071.132681,-4811.338623,-2451.505594
22505.424877,-2960.823768,-11325.150913,-5822.325785
22505.425210,-2960.823768,-14582.057057,-6128.763984
22505.425543,3034.844362,-9030.512492,1225.752797
22505.425876,-4737.318029,-12361.439231,-2911.162892
22505.426209,-1258.350101,-7105.977043,-689.485948
22505.426542,-666.185348,-8882.471304,2374.896044
22505.426875,1776.494261,-7179.997637,3907.087040
22505.427208,3478.967927,-8438.347739,4903.011187
22505.427541,2664.741391,-5403.503377,4903.011187
22505.427875,3478.967927,-8882.471304,2987.772442
22505.428208,-1184.329507,-11621.233289,0.000000
22505.428541,444.123565,-10066.800811,-2681.334243
22505.428874,-2812.782580,-12213.398043,-4136.915689
22505.429207,1184.329507,-11399.171507,-1608.800546
22505.429540,-1258.350101,-9474.636058,-1302.362347
22505.429873,-2368.659014,-10140.821405,-689.485948
22505.430206,-4737.318029,-9400.615463,-2681.334243
22505.430539,-296.082377,-9400.615463,2911.162892
22505.430872,4219.173869,-6291.750507,6128.763984
22505.431205,3478.967927,-6513.812290,7277.907231
22505.431538,888.247130,-7179.997637,4290.134789
22505.431871,-74.020594,-11843.295072,1762.019645
22505.432205,2368.659014,-8068.244768,5132.839837
22505.432538,2368.659014,-9548.656652,2451.505594
22505.432871,-1258.350101,-8882.471304,-2068.457845
22505.433204,-4663.297435,-8290.306550,-11414.822920
22505.433537,-8956.491898,-17987.004391,-7507.735880
22505.433870,-740.205942,-8216.285956,-3140.991542
22505.434203,-3923.091493,-14285.974681,0.000000
22505.434536,1480.411884,-6513.812290,4826.401637
22505.434869,2294.638420,-5329.482782,2374.896044
22505.435202,592.164754,-8364.327145,9499.584175
22505.435535,9400.615463,-4737.318029,8503.660028
22505.435868,1332.370696,-8660.409521,4903.011187
22505.436202,3627.009116,-7031.956449,3140.991542
22505.436535,518.144159,-7698.141797,-1302.362347
22505.436868,-1480.411884,-12139.377449,-2757.943793
22505.437201,0.000000,-9548.656652,-4290.134789
22505.437534,1702.473667,-13619.789333,-3753.867940
22505.437867,-4071.132681,-11917.315666,-7354.516781
22505.438200,-1332.370696,-8364.327145,-2451.505594
22505.438533,-3923.091493,-15100.201217,-3140.991542
22505.438866,2960.823768,-4811.338623,2451.505594
22505.439199,2072.576638,-13545.768739,3064.381992
22505.439532,5329.482782,-8734.430116,6052.154434
22505.439865,6513.812290,-6587.832884,7660.954980
22505.440199,-74.020594,-8290.306550,3294.210641
22505.440532,3478.967927,-5329.482782,1149.143247
22505.440865,-2368.659014,-7179.997637,612.876398
22505.441198,2886.803174,-9474.636058,-76.609550
22505.441531,-74.020594,-7698.141797,-2528.115143
22505.441864,-2368.659014,-10732.986159,-2451.505594
22505.442197,-666.185348,-11251.130318,-689.485948
22505.442530,2368.659014,-10584.944971,459.657299
22505.442863,0.000000,-8216.285956,2528.115143
22505.443196,-74.020594,-5921.647536,-3753.867940
22505.443529,-3256.906145,-12805.562797,-4903.011187
22505.443862,-1924.535449,-14137.933492,1762.019645
22505.444195,-74.020594,-11251.130318,995.924147
22505.444529,1184.329507,-4811.338623,612.876398
22505.444862,-3552.988522,-10732.986159,2451.505594
22505.445195,2294.638420,-4737.318029,2374.896044
22505.445528,1776.494261,-2738.761985,1225.752797
22505.445861,2294.638420,-13027.624579,7277.907231
22505.446194,2368.659014,-3034.844362,-1838.629195
22505.446527,-1184.329507,-14211.954086,2757.943793
22505.446860,-1332.370696,-9844.739029,-1915.238745
22505.447193,-2664.741391,-9252.574275,-3524.039291
22505.447526,-1258.350101,-14211.954086,-1302.362347
22505.447859,-666.185348,-7179.997637,-1915.238745
22505.448192,-1258.350101,-9474.636058,-3983.696590
22505.448526,-4145.153275,-10436.903782,2451.505594
22505.448859,2368.659014,-8290.306550,2987.772442
22505.449192,4663.297435,-11843.295072,2374.896044
22505.449525,5255.462188,-7402.059420,7124.688131
22505.449858,1776.494261,-4885.359217,2757.943793
22505.450191,-2146.597232,-6957.935855,-1455.581446
22505.450524,-1776.494261,-10584.944971,-1608.800546
22505.450857,-74.020594,-10658.965565,-689.485948
22505.451190,0.000000,-10732.986159,2451.505594
22505.451523,3108.864956,-10362.883188,-995.924147
22505.451856,-1258.350101,-13323.706956,-1608.800546
22505.452189,-2368.659014,-8364.327145,0.000000
22505.452523,5255.462188,-10658.965565,2681.334243
22505.452856,2220.617826,-8216.285956,4596.572988
22505.453189,3034.844362,-5403.503377,1302.362347
22505.453522,-2294.638420,-5995.668130,-2911.162892
22505.453855,-370.102971,-9178.553681,-2528.115143
22505.454188,0.000000,-9474.636058,-689.485948
22505.454521,1110.308913,-7105.977043,-1915.238745
22505.454854,-5921.647536,-12509.480420,0.000000
22505.455187,3108.864956,-9178.553681,3217.601092
22505.455520,1924.535449,-7772.162391,2604.724693
22505.455853,6957.935855,-9252.574275,7814.174080
22505.456186,4145.153275,-5847.626942,2834.553343
22505.456520,3108.864956,-10955.047942,5362.668486
22505.456853,0.000000,-10732.986159,0.000000
22505.457186,-74.020594,-9474.636058,-5592.497135
22505.457519,-4441.235652,-12509.480420,-2451.505594
22505.457852,-4737.318029,-3627.009116,-5515.887586
22505.458185,-74.020594,-11843.295072,-689.485948
22505.458518,-3552.988522,-8956.491898,-1685.410096
22505.458851,1110.308913,-6809.894666,3600.648841
22505.459184,1998.556043,-4737.318029,2987.772442
22505.459517,2664.741391,-10658.965565,5286.058936
22505.459850,2664.741391,-8660.409521,6435.202183
22505.460183,4663.297435,-8882.471304,2757.943793
22505.460516,2886.803174,-10436.903782,2987.772442
22505.460850,3997.112087,-8512.368333,229.828649
22505.461183,-2442.679609,-11843.295072,-4060.306139
22505.461516,-3849.070898,-9696.697840,-3370.820191
22505.461849,-3330.926739,-12731.542202,-4979.620737
22505.462182,-3034.844362,-10140.821405,-4290.134789
22505.462515,-1184.329507,-6883.915261,-1225.752797
22505.462848,-74.020594,-10658.965565,4213.525239
22505.463181,0.000000,-4219.173869,3983.696590
22505.463514,222.061783,-6661.853478,842.705048
22505.463847,1184.329507,-9326.594869,4903.011187
22505.464180,4145.153275,-3034.844362,1838.629195
22505.464513,0.000000,-10140.821405,3064.381992
22505.464847,2294.638420,-8290.306550,-995.924147
22505.465180,-4737.318029,-11917.315666,-6741.640382
22505.465513,-1184.329507,-10288.862594,-1762.019645
22505.465846,1924.535449,-7328.038826,-2604.724693
22505.466179,-4959.379811,-15840.407159,-3140.991542
22505.466512,592.164754,-4959.379811,2298.286494
22505.466845,-962.267725,-10658.965565,1455.581446
22505.467178,8808.450710,-6365.771101,8963.317327
22505.467511,2960.823768,-6143.709319,10955.165621
22505.467844,4663.297435,-5921.647536,-1302.362347
22505.468177,-2368.659014,-8956.491898,1532.190996
22505.468510,-666.185348,-14211.954086,-3140.991542
22505.468844,-2146.597232,-11621.233289,0.000000
22505.469177,-4959.379811,-8068.244768,-4673.182538
22505.469510,0.000000,-8068.244768,-5669.106685
22505.469843,-444.123565,-9178.553681,-1378.971896
22505.470176,7031.956449,-8290.306550,612.876398
22505.470509,148.041188,-12435.459826,6052.154434
22505.470842,5329.482782,-3923.091493,0.000000
22505.471175,1184.329507,-14878.139434,3983.696590
22505.471508,6735.874072,-8290.306550,6052.154434
22505.471841,2886.803174,-8882.471304,842.705048
22505.472174,-2294.638420,-11325.150913,306.438199
22505.472507,3552.988522,-3627.009116,-1378.971896
22505.472840,-2368.659014,-14804.118840,536.266849
22505.473174,0.000000,-6291.750507,1838.629195
22505.473507,-4811.338623,-7105.977043,-7431.126331
22505.473840,-8290.306550,-13397.727550,-2834.553343
22505.474173,2294.638420,-7994.224174,-76.609550
22505.474506,-2294.638420,-7772.162391,0.000000
22505.474839,4219.173869,-5477.523971,3370.820191
22505.475172,296.082377,-7624.121203,766.095498
22505.475505,1332.370696,-11769.274478,0.000000
22505.475838,4737.318029,-8808.450710,2298.286494
22505.476171,2960.823768,-11917.315666,1532.190996
22505.476504,3775.050304,-9178.553681,0.000000
22505.476837,222.061783,-13101.645173,-2757.943793
22505.477171,0.000000,-9104.533087,0.000000
22505.477504,-2442.679609,-12065.356855,2451.505594
22505.477837,-2368.659014,-7476.080014,1838.629195
22505.478170,-2442.679609,-6513.812290,-1302.362347
22505.478503,-5847.626942,-4811.338623,-3370.820191
22505.478836,1850.514855,-5329.482782,4826.401637
22505.479169,-370.102971,-6513.812290,3600.648841
22505.479502,2368.659014,-5699.585753,3677.258390
22505.479835,-2146.597232,-8216.285956,919.314598
22505.480168,-1702.473667,-12731.542202,-2221.676944
22505.480501,-1406.391290,-11621.233289,-6205.373534
22505.480834,814.226536,-17690.922014,-3140.991542
22505.481168,-74.020594,-17468.860231,-2451.505594
22505.481501,5255.462188,-10362.883188,3600.648841
22505.481834,-74.020594,-11843.295072,1762.019645
22505.482167,0.000000,-5477.523971,1838.629195
22505.482500,-296.082377,-7105.977043,2374.896044
22505.482833,2960.823768,-4959.379811,4673.182538
22505.483166,1628.453072,-6365.771101,5515.887586
22505.483499,-740.205942,-5921.647536,2681.334243
22505.483832,-3034.844362,-7698.141797,1762.019645
22505.484165,1702.473667,-74.020594,0.000000
22505.484498,5847.626942,-11251.130318,-689.485948
22505.484831,-74.020594,-14211.954086,-1915.238745
22505.485164,-1554.432478,-11917.315666,-8656.879127
22505.485498,-7476.080014,-18061.024985,-8810.098227
22505.485831,74.020594,-13915.871710,-2298.286494
22505.486164,666.185348,-10955.047942,-536.266849
22505.486497,2294.638420,-8734.430116,3140.991542
22505.486830,3256.906145,-3034.844362,1838.629195
22505.487163,592.164754,-10658.965565,9116.536426
22505.487496,11769.274478,-4737.318029,10955.165621
22505.487829,5551.544565,-2738.761985,7967.393179
22505.488162,2960.823768,-8068.244768,6665.030833
22505.488495,1110.308913,-6809.894666,-2528.115143
22505.488828,-2960.823768,-10881.027347,-2757.943793
22505.489161,-2664.741391,-9992.780217,-6435.202183
22505.489495,-2368.659014,-13619.789333,-5975.544884
22505.489828,-3849.070898,-14285.974681,-4903.011187
22505.490161,-4885.359217,-10807.006753,-2911.162892
22505.490494,-4367.215058,-10658.965565,-4060.306139
22505.490827,1702.473667,-7328.038826,0.000000
22505.491160,3775.050304,-12731.542202,7890.783629
22505.491493,3552.988522,-2368.659014,9729.412825
22505.491826,0.000000,-4219.173869,2451.505594
22505.492159,6439.791695,-7994.224174,6665.030833
22505.492492,5255.462188,-8882.471304,2987.772442
22505.492825,4071.132681,-9178.553681,842.705048
22505.493158,-148.041188,-11695.253884,-2528.115143
22505.493492,-7105.977043,-11547.212695,-10342.289223
22505.493825,-3923.091493,-14952.160028,-5822.325785
22505.494158,-3997.112087,-13027.624579,-76.609550
22505.494491,1702.473667,-9474.636058,-76.609550
22505.494824,-7105.977043,-10732.986159,5209.449386
22505.495157,3330.926739,-4737.318029,5745.716235
22505.495490,0.000000,-592.164754,995.924147
22505.495823,0.000000,-6587.832884,4290.134789
22505.496156,5551.544565,-2812.782580,1762.019645
22505.496489,-1036.288319,-14211.954086,1302.362347
22505.496822,6439.791695,-7698.141797,2374.896044
22505.497155,-4737.318029,-15174.221811,-1608.800546
22505.497489,-1258.350101,-10066.800811,-6205.373534
22505.497822,-74.020594,-12731.542202,-1302.362347
22505.498155,-3627.009116,-14508.036463,-1532.190996
22505.498488,1184.329507,-4811.338623,1685.410096
22505.498821,-592.164754,-9474.636058,4290.134789
22505.499154,0.000000,-5995.668130,3370.820191
22505.499487,5107.421000,-3849.070898,6818.249932
22505.499820,1998.556043,-7105.977043,4519.963438
22505.500153,2664.741391,-3627.009116,383.047749
22505.500486,-3552.988522,-11917.315666,-4290.134789
22505.500819,-666.185348,-13619.789333,-5286.058936
22505.501152,-814.226536,-8364.327145,-5898.935335
22505.501485,-2368.659014,-14285.974681,-3677.258390
22505.501819,3478.967927,-12731.542202,-1302.362347
22505.502152,-1036.288319,-13767.830521,1915.238745
22505.502485,1628.453072,-9326.594869,4366.744339
22505.502818,-2072.576638,-8660.409521,5515.887586
22505.503151,4589.276840,-1406.391290,2374.896044
22505.503484,2886.803174,-7105.977043,7277.907231
22505.503817,3478.967927,-2590.720797,1225.752797
22505.504150,5033.400406,-5699.585753,4826.401637
22505.504483,2886.803174,-15988.448347,3600.648841
22505.504816,1406.391290,-8438.347739,-5209.449386
22505.505149,-296.082377,-9992.780217,-5362.668486
22505.505482,-4071.132681,-17542.880825,-8580.269578
22505.505816,-1628.453072,-13841.851115,-3294.210641
22505.506149,-2516.700203,-11399.171507,-3907.087040
22505.506482,-74.020594,-13915.871710,1762.019645
22505.506815,-1036.288319,-5403.503377,4903.011187
22505.507148,1628.453072,-2812.782580,2451.505594
22505.507481,3552.988522,-5995.668130,7584.345430
22505.507814,2960.823768,-3034.844362,3677.258390
22505.508147,1184.329507,-11621.233289,6665.030833
22505.508480,3182.885551,-2442.679609,0.000000
22505.508813,0.000000,-11917.315666,2604.724693
22505.509146,1998.556043,-12361.439231,-1302.362347
22505.509479,740.205942,-8364.327145,-3753.867940
22505.509813,-4441.235652,-16062.468941,-5669.106685
22505.510146,-3627.009116,-10732.986159,-5822.325785
22505.510479,-7624.121203,-13841.851115,-3217.601092
22505.510812,-1998.556043,-9326.594869,-153.219100
22505.511145,1184.329507,-8660.409521,6665.030833
22505.511478,-74.020594,-5107.421000,3677.258390
22505.511811,5329.482782,-74.020594,4903.011187
22505.512144,1110.308913,-12435.459826,3600.648841
22505.512477,6513.812290,-8068.244768,7354.516781
22505.512810,1924.535449,-7105.977043,2374.896044
22505.513143,2072.576638,-8068.244768,1225.752797
22505.513476,-5107.421000,-14508.036463,-7431.126331
22505.513809,-2442.679609,-12287.418637,-6971.469032
22505.514142,-4663.297435,-14656.077652,-2528.115143
22505.514475,962.267725,-9918.759623,-76.609550
22505.514808,0.000000,-7179.997637,1225.752797
22505.515141,-4737.318029,-9548.656652,2145.067394
22505.515474,-962.267725,-5107.421000,-3064.381992
22505.515807,-2368.659014,-9548.656652,612.876398
22505.516140,6513.812290,-9030.512492,7277.907231
22505.516472,3849.070898,-6365.771101,7124.688131
22505.516805,5921.647536,-8512.368333,7124.688131
22505.517138,1110.308913,-7772.162391,-1838.629195
22505.517471,3923.091493,-8882.471304,-76.609550
22505.517804,-1850.514855,-10658.965565,-7354.516781
22505.518137,-2960.823768,-12509.480420,-2757.943793
22505.518470,-6513.812290,-14211.954086,-7048.078582
22505.518803,-2220.617826,-12361.439231,-2528.115143
22505.519136,1110.308913,-9326.594869,6358.592633
22505.519469,6365.771101,-1776.494261,7584.345430
22505.519802,6439.791695,-3552.988522,7277.907231
22505.520135,592.164754,-3627.009116,5515.887586
22505.520468,3182.885551,-10658.965565,536.266849
22505.520801,-1776.494261,-8364.327145,0.000000
22505.521134,0.000000,-8808.450710,-1915.238745
22505.521467,-74.020594,-13323.706956,-3064.381992
22505.521799,888.247130,-10807.006753,-3753.867940
22505.522132,-3997.112087,-10881.027347,-7967.393179
22505.522465,-3182.885551,-13767.830521,-4979.620737
22505.522798,-1184.329507,-13027.624579,-2528.115143
22505.523131,-1480.411884,-11325.150913,6205.373534
22505.523464,2738.761985,-5995.668130,7277.907231
22505.523797,6143.709319,-4959.379811,10342.289223
22505.524130,3849.070898,-2368.659014,7201.297681
22505.524463,10584.944971,-2960.823768,6052.154434
22505.524796,1184.329507,-10288.862594,4443.353888
22505.525129,2294.638420,-11843.295072,-76.609550
22505.525462,-5995.668130,-12213.398043,-9193.145976
22505.525795,-10066.800811,-16210.510130,-8656.879127
22505.526128,-2442.679609,-11843.295072,-7737.564530
22505.526461,-6439.791695,-13471.748144,-5975.544884
22505.526794,2442.679609,-9918.759623,1532.190996
22505.527127,-1628.453072,-4663.297435,76.609550
22505.527459,-4737.318029,-9548.656652,2451.505594
22505.527792,3552.988522,-1554.432478,8044.002729
22505.528125,2886.803174,-8882.471304,7277.907231
22505.528458,5847.626942,-4811.338623,6128.763984
22505.528791,5329.482782,-4515.256246,6588.421283
22505.529124,-962.267725,-8956.491898,-2374.896044
22505.529457,6365.771101,-7550.100608,-1302.362347
22505.529790,-5847.626942,-14804.118840,-2681.334243
22505.530123,5255.462188,-5107.421000,-4519.963438
22505.530456,-6143.709319,-14285.974681,-4136.915689
22505.530789,-3256.906145,-14730.098246,-1302.362347
22505.531122,-5995.668130,-10362.883188,-5515.887586
22505.531455,-2368.659014,-9548.656652,612.876398
22505.531788,3849.070898,-2516.700203,6665.030833
22505.532121,592.164754,-2442.679609,6741.640382
22505.532454,4145.153275,-6069.688724,3907.087040
22505.532787,2072.576638,-7105.977043,3600.648841
22505.533119,1702.473667,-11621.233289,-689.485948
22505.533452,2294.638420,-11251.130318,3294.210641
22505.533785,-74.020594,-11843.295072,-2834.553343
22505.534118,3182.885551,-11029.068536,-5822.325785
22505.534451,-1776.494261,-13101.645173,1838.629195
22505.534784,2368.659014,-6291.750507,-4519.963438
22505.535117,1998.556043,-14211.954086,3600.648841
22505.535450,-2368.659014,-8956.491898,-536.266849
22505.535783,2516.700203,-6587.832884,1532.190996
22505.536116,-2664.741391,-9548.656652,3064.381992
22505.536449,4145.153275,-4811.338623,1225.752797
22505.536782,-3034.844362,-5995.668130,3677.258390
22505.537115,5625.565159,-4737.318029,-2145.067394
22505.537448,1702.473667,-14211.954086,-1915.238745
22505.537781,-5255.462188,-10140.821405,-4290.134789
22505.538114,-1258.350101,-14211.954086,-4060.306139
22505.538447,-4145.153275,-12065.356855,-536.266849
22505.538779,-74.020594,-12583.501014,-1302.362347
22505.539112,-1258.350101,-9474.636058,2221.676944
22505.539445,5921.647536,-4811.338623,3677.258390
22505.539778,3256.906145,-8438.347739,6818.249932
22505.540111,7328.038826,-5699.585753,10035.851024
22505.540444,1554.432478,-6513.812290,5745.716235
22505.540777,296.082377,-8586.388927,2451.505594
22505.541110,296.082377,-4811.338623,-2911.162892
22505.541443,-4219.173869,-9770.718434,-4979.620737
22505.541776,-3256.906145,-7179.997637,-6588.421283
22505.542109,-5995.668130,-14211.954086,-5592.497135
22505.542442,-4811.338623,-14211.954086,-6818.249932
22505.542775,-4441.235652,-9548.656652,-2834.553343
22505.543108,-3775.050304,-10807.006753,-1225.752797
22505.543441,518.144159,-8142.265362,4290.134789
22505.543774,1258.350101,-5329.482782,7660.954980
22505.544107,6735.874072,-7105.977043,9729.412825
22505.544439,4811.338623,-3627.009116,7354.516781
22505.544772,5921.647536,-5995.668130,2451.505594
22505.545105,7031.956449,-12287.418637,5132.839837
22505.545438,1184.329507,-4811.338623,-2451.505594
22505.545771,-1258.350101,-18357.107362,-6818.249932
22505.546104,-4589.276840,-11917.315666,-6281.983084
22505.546437,-5625.565159,-13101.645173,-9499.584175
22505.546770,-2368.659014,-10881.027347,0.000000
22505.547103,-3627.009116,-7105.977043,536.266849
22505.547436,-6809.894666,-5403.503377,-4290.134789
22505.547769,296.082377,-8290.306550,9422.974625
22505.548102,1702.473667,-4441.235652,4366.744339
22505.548435,3552.988522,-5699.585753,9193.145976
22505.548768,3182.885551,-3775.050304,3064.381992
22505.549101,148.041188,-10436.903782,-919.314598
22505.549434,3701.029710,-7105.977043,306.438199
22505.549767,3997.112087,-12953.603985,-1378.971896
22505.550099,0.000000,-11325.150913,-6128.763984
22505.550432,0.000000,-14285.974681,-1915.238745
22505.550765,-2738.761985,-14804.118840,-5745.716235
22505.551098,-1184.329507,-7476.080014,-4903.011187
22505.551431,2960.823768,-13397.727550,3217.601092
22505.551764,5255.462188,-2738.761985,6128.763984
22505.552097,3478.967927,-2368.659014,4673.182538
22505.552430,2590.720797,-6439.791695,4290.134789
22505.552763,-962.267725,-8364.327145,3064.381992
22505.553096,-2368.659014,-8660.409521,-2145.067394
22505.553429,-1554.432478,-9252.574275,-536.266849
22505.553762,-3034.844362,-10658.965565,-1838.629195
22505.554095,-2590.720797,-9770.718434,-3447.429741
22505.554428,-74.020594,-9474.636058,-76.609550
22505.554761,1110.308913,-7846.182985,-3677.258390
22505.555094,0.000000,-10140.821405,459.657299
22505.555426,-74.020594,-13619.789333,2374.896044
22505.555759,-74.020594,-7031.956449,-3370.820191
22505.556092,-666.185348,-12361.439231,2374.896044
22505.556425,3997.112087,-9474.636058,3600.648841
22505.556758,5181.441594,-7179.997637,5822.325785
22505.557091,6143.709319,-8290.306550,5132.839837
22505.557424,2664.741391,-4811.338623,3370.820191
22505.557757,-370.102971,-9548.656652,-6052.154434
22505.558090,-1184.329507,-13989.892304,-689.485948
22505.558423,-4811.338623,-12435.459826,-536.266849
22505.558756,-7179.997637,-9918.759623,-6971.469032
22505.559089,-5329.482782,-7476.080014,-2221.676944
22505.559422,-7179.997637,-10140.821405,-3217.601092
22505.559755,1924.535449,-4071.132681,3370.820191
22505.560088,1628.453072,-5181.441594,4826.401637
22505.560421,1184.329507,-6735.874072,2757.943793
22505.560754,-74.020594,-10140.821405,0.000000
22505.561086,3478.967927,-12731.542202,6665.030833
22505.561419,3478.967927,-3034.844362,0.000000
22505.561752,2146.597232,-13619.789333,0.000000
22505.562085,4145.153275,-8956.491898,-2145.067394
22505.562418,-2368.659014,-13101.645173,-5745.716235
22505.562751,1110.308913,-13175.665768,-766.095498
22505.563084,-1332.370696,-11769.274478,2298.286494
22505.563417,-2590.720797,-10658.965565,536.266849
22505.563750,0.000000,-5995.668130,7967.393179
22505.564083,1702.473667,-2590.720797,2757.943793
22505.564416,3701.029710,-666.185348,6128.763984
22505.564749,4071.132681,-4145.153275,6358.592633
22505.565082,1702.473667,-8290.306550,-689.485948
22505.565415,-666.185348,-11621.233289,-459.657299
22505.565748,-592.164754,-12583.501014,-4979.620737
22505.566081,-5329.482782,-13693.809927,-8503.660028
22505.566414,-296.082377,-9548.656652,-5286.058936
22505.566746,-1258.350101,-14211.954086,-3753.867940
22505.567079,0.000000,-8364.327145,0.000000
22505.567412,-888.247130,-9252.574275,1225.752797
22505.567745,4663.297435,-11251.130318,-1302.362347
22505.568078,7624.121203,-7698.141797,8810.098227
22505.568411,6513.812290,-10066.800811,9576.193725
22505.568744,6957.935855,-7698.141797,8197.221829
22505.569077,3256.906145,-2960.823768,4136.915689
22505.569410,-444.123565,-14211.954086,-2528.115143
22505.569743,4663.297435,-9178.553681,536.266849
22505.570076,-6661.853478,-15766.386565,-6818.249932
22505.570409,-3108.864956,-8142.265362,-7124.688131
22505.570742,-6069.688724,-11769.274478,-3140.991542
22505.571075,-5329.482782,-8364.327145,-3677.258390
22505.571408,-2664.741391,-9474.636058,4826.401637
22505.571741,814.226536,-6513.812290,2374.896044
22505.572074,2368.659014,-2442.679609,4596.572988
22505.572406,814.226536,-6735.874072,3600.648841
22505.572739,1702.473667,-7328.038826,0.000000
22505.573072,370.102971,-10658.965565,1762.019645
22505.573405,3182.885551,-13989.892304,2451.505594
22505.573738,666.185348,-13027.624579,459.657299
22505.574071,1184.329507,-10732.986159,-842.705048
22505.574404,-1332.370696,-13619.789333,-1915.238745
22505.574737,-3256.906145,-8660.409521,1838.629195
22505.575070,-2368.659014,-8364.327145,2451.505594
22505.575403,-74.020594,-6957.935855,2221.676944
22505.575736,-4737.318029,-5403.503377,612.876398
22505.576069,-1258.350101,-5773.606348,1915.238745
22505.576402,0.000000,-6069.688724,1149.143247
22505.576735,0.000000,-10288.862594,1455.581446
22505.577068,1110.308913,-8882.471304,842.705048
22505.577401,-1258.350101,-9474.636058,-4060.306139
22505.577734,-2960.823768,-11029.068536,-4596.572988
22505.578066,1998.556043,-10362.883188,-1915.238745
22505.578399,-2590.720797,-18357.107362,-1225.752797
22505.578732,5847.626942,-11251.130318,4213.525239
22505.579065,-1332.370696,-9252.574275,1685.410096
22505.579398,518.144159,-7402.059420,1608.800546
22505.579731,888.247130,-5625.565159,4979.620737
22505.580064,4145.153275,-3627.009116,2757.943793
22505.580397,5847.626942,-7328.038826,4903.011187
22505.580730,0.000000,-9548.656652,4213.525239
22505.581063,4071.132681,-10362.883188,-536.266849
22505.581396,-3256.906145,-10066.800811,229.828649
22505.581729,5329.482782,-7179.997637,-3447.429741
22505.582062,-1702.473667,-11843.295072,-5286.058936
22505.582395,-2590.720797,-11103.089130,-6511.811733
22505.582728,-4589.276840,-9548.656652,-7354.516781
22505.583061,-1850.514855,-13027.624579,-76.609550
22505.583394,2368.659014,-7476.080014,3064.381992
22505.583726,2294.638420,-8290.306550,4519.963438
22505.584059,4663.297435,-2442.679609,1532.190996
22505.584392,2664.741391,-9474.636058,5439.278036
22505.584725,8290.306550,-7772.162391,8197.221829
22505.585058,7624.121203,-6587.832884,4673.182538
22505.585391,2738.761985,-9030.512492,1991.848295
22505.585724,-2220.617826,-9696.697840,-3600.648841
22505.586057,-74.020594,-14211.954086,-4366.744339
22505.586390,-2072.576638,-9844.739029,-5132.839837
22505.586723,-3034.844362,-11103.089130,-5286.058936
22505.587056,-4145.153275,-11325.150913,-3830.477490
22505.587389,-6217.729913,-9622.677246,-2911.162892
22505.587722,-74.020594,-9474.636058,3600.648841
22505.588055,0.000000,-3034.844362,2451.505594
22505.588388,6439.791695,-7105.977043,6052.154434
22505.588721,888.247130,-10140.821405,9806.022374
22505.589054,2664.741391,-2442.679609,3983.696590
22505.589386,2294.638420,-11843.295072,2374.896044
22505.589719,3478.967927,-4589.276840,-76.609550
22505.590052,-1554.432478,-15322.262999,-4213.525239
22505.590385,-2886.803174,-11251.130318,-4673.182538
22505.590718,-5107.421000,-10955.047942,-7431.126331
22505.591051,-8290.306550,-16062.468941,-3753.867940
22505.591384,0.000000,-6883.915261,2374.896044
22505.591717,-2442.679609,-7105.977043,689.485948
22505.592050,1480.411884,-4811.338623,6128.763984
22505.592383,4071.132681,-1036.288319,3370.820191
22505.592716,-74.020594,-9178.553681,3140.991542
22505.593049,4293.194464,-5477.523971,4443.353888
22505.593382,1036.288319,-11769.274478,3370.820191
22505.593715,1184.329507,-9548.656652,0.000000
22505.594048,444.123565,-13619.789333,-76.609550
22505.594381,-2738.761985,-9548.656652,-7890.783629
22505.594713,-666.185348,-9548.656652,-6128.763984
22505.595046,-3923.091493,-17764.942608,-76.609550
22505.595379,-1480.411884,-6587.832884,3064.381992
22505.595712,-370.102971,-7031.956449,2681.334243
22505.596045,7550.100608,-666.185348,5132.839837
22505.596378,296.082377,-11399.171507,7124.688131
22505.596711,7031.956449,-1036.288319,4826.401637
22505.597044,-74.020594,-14211.954086,-2528.115143
22505.597377,-2072.576638,-7772.162391,-2145.067394
22505.597710,-148.041188,-12139.377449,-2834.553343
22505.598043,-5403.503377,-16580.613101,-5592.497135
22505.598376,-2368.659014,-9548.656652,-4826.401637
22505.598709,370.102971,-7846.182985,-3217.601092
22505.599042,3330.926739,-10066.800811,4903.011187
22505.599375,222.061783,-5107.421000,536.266849
22505.599708,7920.203579,-11103.089130,5439.278036
22505.600041,962.267725,-13471.748144,6665.030833
22505.600373,8586.388927,-5255.462188,4443.353888
22505.600706,2368.659014,-9844.739029,5132.839837
22505.601039,2442.679609,-3627.009116,0.000000
22505.601372,0.000000,-8364.327145,-2374.896044
22505.601705,1554.432478,-13027.624579,-76.609550
22505.602038,0.000000,-5995.668130,-4903.011187
22505.602371,-4145.153275,-7772.162391,-2451.505594
22505.602704,-4071.132681,-11547.212695,-6588.421283
22505.603037,-4145.153275,-10436.903782,0.000000
22505.603370,-5107.421000,-9770.718434,-2757.943793
22505.603703,666.185348,-7402.059420,2681.334243
22505.604036,-1184.329507,-8660.409521,7354.516781
22505.604369,3478.967927,-3330.926739,3677.258390
22505.604702,7031.956449,-7994.224174,6052.154434
22505.605035,4145.153275,-5403.503377,3677.258390
22505.605368,5329.482782,-9548.656652,5362.668486
22505.605701,3404.947333,-11843.295072,459.657299
22505.606033,-2072.576638,-15248.242405,-1072.533697
22505.606366,-2072.576638,-10510.924376,-4903.011187
22505.606699,-296.082377,-11991.336260,-3677.258390
22505.607032,-666.185348,-10658.965565,-1915.238745
22505.607365,-3552.988522,-5995.668130,0.000000
22505.607698,-7179.997637,-8882.471304,-2528.115143
22505.608031,-5181.441594,-6587.832884,0.000000
22505.608364,-1258.350101,-7698.141797,4213.525239
22505.608697,4663.297435,-6809.894666,7277.907231
22505.609030,518.144159,-3997.112087,4826.401637
22505.609363,-962.267725,-5477.523971,1378.971896
22505.609696,3256.906145,-8956.491898,306.438199
22505.610029,888.247130,-11103.089130,-766.095498
22505.610362,4663.297435,-14211.954086,-3753.867940
22505.610695,-4737.318029,-16062.468941,-3677.258390
22505.611028,-4737.318029,-12509.480420,-4290.134789
22505.611361,-2442.679609,-15396.283594,-2834.553343
22505.611693,0.000000,-4811.338623,0.000000
22505.612026,1406.391290,-6809.894666,1455.581446
22505.612359,4737.318029,-2294.638420,6435.202183
22505.612692,2368.659014,-6143.709319,5515.887586
22505.613025,0.000000,-7994.224174,7890.783629
22505.613358,-962.267725,-3256.906145,536.266849
22505.613691,1184.329507,-8956.491898,-76.609550
22505.614024,1110.308913,-11547.212695,-229.828649
22505.614357,-2442.679609,-4959.379811,-9499.584175
22505.614690,-4145.153275,-10732.986159,-4290.134789
22505.615023,-3923.091493,-13545.768739,-6741.640382
22505.615356,3256.906145,-12583.501014,-919.314598
22505.615689,-666.185348,-14211.954086,842.705048
22505.616022,3256.906145,-6883.915261,-612.876398
22505.616354,2294.638420,-9992.780217,5822.325785
22505.616687,7624.121203,-2664.741391,8427.050478
22505.617020,8808.450710,-8142.265362,6358.592633
22505.617353,6439.791695,-4737.318029,5745.716235
22505.617686,1850.514855,-10955.047942,-76.609550
22505.618019,814.226536,-6735.874072,-2145.067394
22505.618352,-4441.235652,-10140.821405,-6741.640382
22505.618685,-4811.338623,-16580.613101,-6511.811733
22505.619018,-4663.297435,-8956.491898,-4519.963438
22505.619351,-6513.812290,-7772.162391,-3983.696590
22505.619684,-1332.370696,-10362.883188,1838.629195
22505.620017,-1480.411884,-4515.256246,3600.648841
22505.620350,2442.679609,-6661.853478,3524.039291
22505.620682,1702.473667,-13027.624579,5439.278036
22505.621015,7031.956449,-5773.606348,2528.115143
22505.621348,0.000000,-9696.697840,3753.867940
22505.621681,6735.874072,-8290.306550,4519.963438
22505.622014,2294.638420,-13027.624579,-1608.800546
22505.622347,1998.556043,-9178.553681,-1915.238745
22505.622680,-3256.906145,-11621.233289,-6818.249932
22505.623013,-4737.318029,-12287.418637,-6511.811733
22505.623346,-2812.782580,-11621.233289,-1532.190996
22505.623679,-4737.318029,-11325.150913,306.438199
22505.624012,518.144159,-7328.038826,2451.505594
22505.624345,-74.020594,-9474.636058,7277.907231
22505.624678,4663.297435,-1184.329507,3064.381992
22505.625011,2368.659014,-370.102971,5515.887586
22505.625343,2960.823768,-6735.874072,2221.676944
22505.625676,2220.617826,-9030.512492,153.219100
22505.626009,1110.308913,-13101.645173,-1378.971896
22505.626342,-2442.679609,-12879.583391,-7048.078582
22505.626675,2886.803174,-10658.965565,-5132.839837
22505.627008,-4737.318029,-13101.645173,-3370.820191
22505.627341,2294.638420,-13027.624579,-76.609550
22505.627674,814.226536,-9696.697840,-3064.381992
22505.628007,592.164754,-10881.027347,5515.887586
22505.628340,1998.556043,-6365.771101,3370.820191
22505.628673,4367.215058,-5921.647536,8197.221829
22505.629006,1184.329507,-7624.121203,5515.887586
22505.629339,2886.803174,-3552.988522,2221.676944
22505.629671,0.000000,-9770.718434,0.000000
22505.630004,3478.967927,-8290.306550,-76.609550
22505.630337,-2368.659014,-8364.327145,-6128.763984
22505.630670,-2368.659014,-9548.656652,-3677.258390
22505.631003,-74.020594,-11547.212695,-5592.497135
22505.631336,-1258.350101,-20133.601622,-3524.039291
22505.631669,3108.864956,-10584.944971,2757.943793
22505.632002,-1406.391290,-7254.018232,-689.485948
22505.632335,5625.565159,-7105.977043,7814.174080
22505.632668,148.041188,-5403.503377,4060.306139
22505.633001,3997.112087,-9178.553681,4136.915689
22505.633334,1924.535449,-7031.956449,3677.258390
22505.633667,4367.215058,-6143.709319,2451.505594
22505.634000,-370.102971,-8068.244768,2068.457845
22505.634332,-2146.597232,-8290.306550,-2528.115143
22505.634665,-888.247130,-10955.047942,-2528.115143
22505.634998,-3627.009116,-10510.924376,-3677.258390
22505.635331,0.000000,-9326.594869,-383.047749
22505.635664,-4737.318029,-11325.150913,-1225.752797
22505.635997,-2442.679609,-5107.421000,-3677.258390
22505.636330,-1480.411884,-14434.015869,-919.314598
22505.636663,4293.194464,-9474.636058,5898.935335
22505.636996,2590.720797,-8882.471304,-995.924147
22505.637329,2368.659014,-8364.327145,3677.258390
22505.637662,7031.956449,-6513.812290,2987.772442
22505.637995,1184.329507,-7179.997637,0.000000
22505.638328,4737.318029,-7772.162391,4749.792088
22505.638661,-2442.679609,-11843.295072,-2528.115143
22505.638993,0.000000,-6143.709319,0.000000
22505.639326,-5847.626942,-8734.430116,-2528.115143
22505.639659,-4515.256246,-9844.739029,-3217.601092
22505.639992,-2664.741391,-7920.203579,-1455.581446
22505.640325,-74.020594,-11843.295072,2221.676944
22505.640658,4663.297435,-6513.812290,-76.609550
22505.640991,-3404.947333,-9548.656652,2145.067394
22505.641324,0.000000,-13693.809927,4366.744339
22505.641657,2886.803174,-5921.647536,5439.278036
22505.641990,4737.318029,-6217.729913,4519.963438
22505.642323,1184.329507,-9696.697840,612.876398
22505.642656,-1702.473667,-10140.821405,-4290.134789
22505.642989,-518.144159,-11177.109724,-3600.648841
22505.643321,-1406.391290,-11251.130318,-2221.676944
22505.643654,1184.329507,-7179.997637,-4290.134789
22505.643987,-2368.659014,-13101.645173,1608.800546
22505.644320,814.226536,-7994.224174,0.000000
22505.644653,814.226536,-6883.915261,0.000000
22505.644986,4885.359217,-8882.471304,4826.401637
22505.645319,4663.297435,-7179.997637,4903.011187
22505.645652,2442.679609,-7328.038826,3370.820191
22505.645985,0.000000,-7179.997637,4443.353888
22505.646318,1258.350101,-4737.318029,-1302.362347
22505.646651,888.247130,-7179.997637,-1991.848295
22505.646984,518.144159,-10066.800811,-2374.896044
22505.647317,-740.205942,-11917.315666,-6741.640382
22505.647650,-1776.494261,-14804.118840,-4596.572988
22505.647982,-5403.503377,-17172.777854,-1302.362347
22505.648315,-370.102971,-5551.544565,-1225.752797
22505.648648,2368.659014,-10732.986159,4903.011187
22505.648981,8290.306550,-9474.636058,11568.042020
22505.649314,3552.988522,-3627.009116,7967.393179
22505.649647,2738.761985,-5921.647536,5439.278036
22505.649980,1776.494261,-6365.771101,1762.019645
22505.650313,740.205942,-10584.944971,0.000000
22505.650646,1702.473667,-11843.295072,-1915.238745
22505.650979,-6513.812290,-8660.409521,-7354.516781
22505.651312,-7846.182985,-10140.821405,-11644.651570
22505.651645,-2442.679609,-13915.871710,-3753.867940
22505.651978,-74.020594,-10955.047942,-995.924147
22505.652310,4663.297435,-11251.130318,1762.019645
22505.652643,2294.638420,-9326.594869,7890.783629
22505.652976,1184.329507,-4145.153275,4519.963438
22505.653309,-370.102971,-8512.368333,6128.763984
22505.653642,3775.050304,-6661.853478,3907.087040
22505.653975,4663.297435,-9474.636058,6052.154434
22505.654308,0.000000,-4811.338623,6128.763984
22505.654641,-370.102971,-9474.636058,-3140.991542
22505.654974,-7105.977043,-12509.480420,-4903.011187
22505.655307,-4737.318029,-10732.986159,-7048.078582
22505.655640,-3627.009116,-15544.324782,-4903.011187
22505.655973,-2072.576638,-8216.285956,-2757.943793
22505.656306,-3923.091493,-12657.521608,-1762.019645
22505.656639,2294.638420,-7179.997637,2451.505594
22505.656971,2442.679609,-5995.668130,5132.839837
22505.657304,8438.347739,-8882.471304,7277.907231
22505.657637,5551.544565,-4737.318029,4213.525239
22505.657970,0.000000,-8364.327145,2068.457845
22505.658303,4663.297435,-9474.636058,-1302.362347
22505.658636,-4737.318029,-10732.986159,153.219100
22505.658969,-74.020594,-8512.368333,-2221.676944
22505.659302,-1258.350101,-6809.894666,-4979.620737
22505.659635,-3701.029710,-11103.089130,-2298.286494
22505.659968,-4737.318029,-7772.162391,-4290.134789
22505.660301,3478.967927,-9474.636058,2374.896044
22505.660634,518.144159,-7772.162391,612.876398
22505.660967,0.000000,-9548.656652,4903.011187
22505.661299,2294.638420,-14211.954086,4826.401637
22505.661632,2664.741391,-8364.327145,2757.943793
22505.661965,3182.885551,-7105.977043,2374.896044
22505.662298,2960.823768,-9178.553681,0.000000
22505.662631,1258.350101,-11399.171507,-2681.334243
22505.662964,592.164754,-8364.327145,-5515.887586
22505.663297,74.020594,-14582.057057,-1532.190996
22505.663630,1850.514855,-6661.853478,2451.505594
22505.663963,1998.556043,-9400.615463,76.609550
22505.664296,2294.638420,-7105.977043,4213.525239
22505.664629,-1628.453072,-7179.997637,1838.629195
22505.664962,2960.823768,-5921.647536,4826.401637
22505.665295,-74.020594,-4071.132681,0.000000
22505.665628,1776.494261,-9844.739029,1608.800546
22505.665960,-1850.514855,-13619.789333,3447.429741
22505.666293,-2368.659014,-8364.327145,-2604.724693
22505.666626,-4219.173869,-11251.130318,-5209.449386
22505.666959,-1480.411884,-11399.171507,-2298.286494
22505.667292,-1184.329507,-8364.327145,-2451.505594
22505.667625,-3404.947333,-7179.997637,0.000000
22505.667958,2886.803174,-11843.295072,-76.609550
22505.668291,518.144159,-9474.636058,-842.705048
22505.668624,4737.318029,-8660.409521,4903.011187
22505.668957,2664.741391,-7920.203579,7431.126331
22505.669290,5329.482782,-4219.173869,3907.087040
22505.669623,-1628.453072,-10140.821405,4213.525239
22505.669956,740.205942,-4589.276840,-1225.752797
22505.670288,-1554.432478,-11251.130318,-383.047749
22505.670621,0.000000,-7476.080014,1532.190996
22505.670954,-2442.679609,-9474.636058,-7737.564530
22505.671287,-7994.224174,-11325.150913,-3677.258390
22505.671620,-3552.988522,-10807.006753,-2834.553343
22505.671953,-2516.700203,-6587.832884,-1225.752797
22505.672286,1036.288319,-11843.295072,1455.581446
22505.672619,3330.926739,-11399.171507,6358.592633
22505.672952,5255.462188,-3478.967927,3294.210641
22505.673285,2886.803174,-11843.295072,2987.772442
22505.673618,6365.771101,-11695.253884,10955.165621
22505.673951,592.164754,-5995.668130,0.000000
22505.674284,1184.329507,-11325.150913,4903.011187
22505.674617,-74.020594,-9178.553681,-3140.991542
22505.674949,-3627.009116,-9474.636058,-6205.373534
22505.675282,-3849.070898,-9992.780217,-1378.971896
22505.675615,-370.102971,-6587.832884,-4366.744339
22505.675948,-3330.926739,-8808.450710,0.000000
22505.676281,0.000000,-5107.421000,-1838.629195
22505.676614,-1258.350101,-14804.118840,-1149.143247
22505.676947,1184.329507,-8068.244768,4673.182538
22505.677280,2368.659014,-9400.615463,3600.648841
22505.677613,1110.308913,-6735.874072,383.047749
22505.677946,2072.576638,-5847.626942,2451.505594
22505.678279,-296.082377,-8882.471304,1838.629195
22505.678612,3182.885551,-10362.883188,1149.143247
22505.678945,148.041188,-9992.780217,-612.876398
22505.679277,1184.329507,-9252.574275,0.000000
22505.679610,-222.061783,-6587.832884,-1838.629195
22505.679943,-1702.473667,-10881.027347,-1455.581446
22505.680276,666.185348,-8068.244768,1225.752797
22505.680609,1850.514855,-10881.027347,2068.457845
22505.680942,1776.494261,-8660.409521,2757.943793
22505.681275,-74.020594,-10658.965565,-689.485948
22505.681608,518.144159,-7179.997637,-4290.134789
22505.681941,444.123565,-12435.459826,2834.553343
22505.682274,-370.102971,-8290.306550,-689.485948
22505.682607,296.082377,-5403.503377,0.000000
22505.682940,-2368.659014,-12213.398043,-536.266849
22505.683273,1406.391290,-6735.874072,-383.047749
22505.683606,-2590.720797,-6439.791695,-1149.143247
22505.683938,1110.308913,-8882.471304,2987.772442
22505.684271,2294.638420,-2812.782580,-1838.629195
22505.684604,666.185348,-11843.295072,2451.505594
22505.684937,4663.297435,-15396.283594,-76.609550
22505.685270,1184.329507,-9548.656652,5669.106685
22505.685603,592.164754,-8956.491898,4443.353888
22505.685936,4589.276840,-8364.327145,4443.353888
22505.686269,-1258.350101,-7328.038826,-306.438199
22505.686602,-2220.617826,-9844.739029,-5822.325785
22505.686935,-1258.350101,-11843.295072,-1915.238745
22505.687268,-666.185348,-8364.327145,-4903.011187
22505.687601,-2368.659014,-14211.954086,1149.143247
22505.687934,-74.020594,-8290.306550,-76.609550
22505.688266,-4515.256246,-6883.915261,-3677.258390
22505.688599,1702.473667,-8586.388927,2681.334243
22505.688932,7105.977043,-5403.503377,5515.887586
22505.689265,1036.288319,-10436.903782,5362.668486
22505.689598,5181.441594,-3108.864956,2528.115143
22505.689931,-4145.153275,-11325.150913,306.438199
22505.690264,1776.494261,-10066.800811,4826.401637
22505.690597,4663.297435,-6513.812290,-2221.676944
22505.690930,-2368.659014,-11325.150913,-3677.258390
22505.691263,-2368.659014,-7179.997637,-1915.238745
22505.691596,-7179.997637,-17172.777854,-5286.058936
22505.691929,2368.659014,-8808.450710,1072.533697
22505.692262,-962.267725,-9918.759623,229.828649
22505.692595,2442.679609,-9178.553681,3830.477490
22505.692927,1184.329507,-5403.503377,3677.258390
22505.693260,1036.288319,-10881.027347,4060.306139
22505.693593,740.205942,-7550.100608,3907.087040
22505.693926,2738.761985,-6069.688724,1455.581446
22505.694259,5699.585753,-8290.306550,3600.648841
22505.694592,-1480.411884,-9474.636058,-76.609550
22505.694925,-4145.153275,-9548.656652,-6128.763984
22505.695258,-3997.112087,-10955.047942,-4290.134789
22505.695591,-74.020594,-13915.871710,-3753.867940
22505.695924,1702.473667,-11695.253884,995.924147
22505.696257,-2442.679609,-13915.871710,1149.143247
22505.696590,1554.432478,-5181.441594,76.609550
22505.696923,1480.411884,-7179.997637,1991.848295
22505.697255,5995.668130,-10288.862594,7354.516781
22505.697588,9400.615463,-7402.059420,7890.783629
22505.697921,0.000000,-7179.997637,3677.258390
22505.698254,-74.020594,-10658.965565,-3753.867940
22505.698587,-2368.659014,-10140.821405,-3217.601092
22505.698920,-3849.070898,-9548.656652,-2221.676944
22505.699253,-666.185348,-8142.265362,-2757.943793
22505.699586,-3330.926739,-8438.347739,-1762.019645
22505.699919,-3330.926739,-11917.315666,-306.438199
22505.700252,666.185348,-3849.070898,4366.744339
22505.700585,1406.391290,-74.020594,536.266849
22505.700918,4071.132681,-10658.965565,3600.648841
22505.701251,4663.297435,-6735.874072,1225.752797
22505.701584,-2072.576638,-13397.727550,-2528.115143
22505.701916,4663.297435,-13619.789333,-1915.238745
22505.702249,-1480.411884,-14582.057057,-2911.162892
22505.702582,4293.194464,-11103.089130,3600.648841
22505.702915,2072.576638,-5403.503377,0.000000
22505.703248,-2294.638420,-13101.645173,0.000000
22505.703581,-1480.411884,-4663.297435,-76.609550
22505.703914,-74.020594,-6809.894666,-76.609550
22505.704247,-2368.659014,-8364.327145,1225.752797
22505.704580,-2072.576638,-8216.285956,2987.772442
22505.704913,-814.226536,-5181.441594,1225.752797
22505.705246,518.144159,-8290.306550,1685.410096
22505.705579,2960.823768,-6439.791695,842.705048
22505.705912,-74.020594,-9548.656652,-2451.505594
22505.706244,-740.205942,-11399.171507,-1455.581446
22505.706577,-4367.215058,-11251.130318,-6052.154434
22505.706910,-7105.977043,-11917.315666,-6128.763984
22505.707243,3923.091493,-11547.212695,-229.828649
22505.707576,1702.473667,-8882.471304,536.266849
22505.707909,3552.988522,-6587.832884,2451.505594
22505.708242,1110.308913,-8290.306550,3294.210641
22505.708575,-148.041188,-7031.956449,-1072.533697
22505.708908,2516.700203,-8364.327145,5898.935335
22505.709241,-1184.329507,-10140.821405,2604.724693
22505.709574,2516.700203,-5995.668130,4673.182538
22505.709907,-2442.679609,-9474.636058,2681.334243
22505.710240,3775.050304,-4737.318029,2221.676944
22505.710573,-2368.659014,-5847.626942,1608.800546
22505.710905,3330.926739,-9474.636058,-4979.620737
22505.711238,-370.102971,-11843.295072,-6818.249932
22505.711571,-8142.265362,-12509.480420,-9193.145976
22505.711904,0.000000,-11917.315666,-1762.019645
22505.712237,-3034.844362,-14211.954086,-1302.362347
22505.712570,5329.482782,-7772.162391,2451.505594
22505.712903,1998.556043,-10436.903782,5669.106685
22505.713236,8808.450710,-2886.803174,7124.688131
22505.713569,5625.565159,-7031.956449,3524.039291
22505.713902,4441.235652,-10140.821405,6741.640382
22505.714235,5699.585753,-8364.327145,3983.696590
22505.714568,0.000000,-9918.759623,2987.772442
22505.714901,2294.638420,-7698.141797,-1915.238745
22505.715233,-6069.688724,-6587.832884,-6741.640382
22505.715566,-444.123565,-6661.853478,-4673.182538
22505.715899,-5107.421000,-11769.274478,-4903.011187
22505.716232,-7254.018232,-9548.656652,-6435.202183
22505.716565,-7476.080014,-12139.377449,-2834.553343
22505.716898,-4737.318029,-12805.562797,3064.381992
22505.717231,3923.091493,-1850.514855,76.609550
22505.717564,6439.791695,-9474.636058,4826.401637
22505.717897,6883.915261,-8956.491898,4903.011187
22505.718230,8290.306550,-7105.977043,7967.393179
22505.718563,4663.297435,-10955.047942,2681.334243
22505.718896,3256.906145,-11473.192101,0.000000
22505.719229,0.000000,-11177.109724,-383.047749
22505.719562,-2516.700203,-9548.656652,-4903.011187
22505.719895,-2442.679609,-9992.780217,-995.924147
22505.720227,-4145.153275,-8364.327145,-459.657299
22505.720560,-1258.350101,-7920.203579,0.000000
22505.720893,0.000000,-4811.338623,4903.011187
22505.721226,-592.164754,-7105.977043,4826.401637
22505.721559,-1554.432478,-6513.812290,-1378.971896
22505.721892,518.144159,-10066.800811,1608.800546
22505.722225,0.000000,-8882.471304,995.924147
22505.722558,2590.720797,-6735.874072,0.000000
22505.722891,1110.308913,-10510.924376,-2528.115143
22505.723224,-74.020594,-9474.636058,-6511.811733
22505.723557,-5921.647536,-11917.315666,-2451.505594
22505.723890,-370.102971,-10510.924376,-3753.867940
22505.724223,-74.020594,-13619.789333,-919.314598
22505.724556,0.000000,-10732.986159,7967.393179
22505.724889,5255.462188,-5921.647536,6971.469032
22505.725222,7031.956449,-4737.318029,10265.679673
22505.725555,6735.874072,-5033.400406,8886.707777
22505.725888,3182.885551,-6587.832884,2451.505594
22505.726221,-74.020594,-9474.636058,-995.924147
22505.726554,-5847.626942,-10807.006753,-8580.269578
22505.726887,-6735.874072,-14434.015869,-5822.325785
22505.727219,-3330.926739,-8586.388927,-7507.735880
22505.727552,-2368.659014,-9844.739029,-4903.011187
22505.727885,-1258.350101,-9474.636058,-2528.115143
22505.728218,740.205942,-4811.338623,-6128.763984
22505.728551,-3552.988522,-15618.345376,2987.772442
22505.728884,7476.080014,-6217.729913,6052.154434
22505.729217,3182.885551,-9548.656652,7354.516781
22505.729550,7920.203579,-7105.977043,12793.794817
22505.729883,2664.741391,-7550.100608,2987.772442
22505.730216,4885.359217,-7031.956449,5286.058936
22505.730549,2590.720797,-10066.800811,1762.019645
22505.730882,4367.215058,-8882.471304,-1608.800546
22505.731215,-5921.647536,-11917.315666,-1685.410096
22505.731548,-4737.318029,-6587.832884,-7124.688131
22505.731881,-7772.162391,-16580.613101,-8810.098227
22505.732214,-1184.329507,-7179.997637,-1532.190996
22505.732547,-2294.638420,-11547.212695,459.657299
22505.732880,962.267725,-7698.141797,1149.143247
22505.733213,4145.153275,-8438.347739,6665.030833
22505.733546,-2146.597232,-8586.388927,3370.820191
22505.733879,8808.450710,-3849.070898,3907.087040
22505.734211,0.000000,-12213.398043,6971.469032
22505.734544,8216.285956,-8290.306550,4826.401637
22505.734877,-2146.597232,-9474.636058,-2068.457845
22505.735210,518.144159,-8882.471304,-4366.744339
22505.735543,-1702.473667,-12213.398043,-1455.581446
22505.735876,1184.329507,-8808.450710,536.266849
22505.736209,74.020594,-7402.059420,383.047749
22505.736542,-9474.636058,-9548.656652,-3677.258390
22505.736875,-4959.379811,-11325.150913,-4596.572988
22505.737208,-2368.659014,-11029.068536,4826.401637
22505.737541,5847.626942,-5551.544565,1532.190996
22505.737874,-1184.329507,-8956.491898,4903.011187
22505.738207,592.164754,-3923.091493,306.438199
22505.738540,-1258.350101,-7920.203579,-3370.820191
22505.738873,148.041188,-10881.027347,842.705048
22505.739206,3701.029710,-8142.265362,-2451.505594
22505.739539,-74.020594,-15396.283594,3600.648841
22505.739872,1184.329507,-5995.668130,842.705048
22505.740205,-4811.338623,-12731.542202,-4903.011187
22505.740538,0.000000,-4811.338623,3677.258390
22505.740870,740.205942,-9474.636058,-76.609550
22505.741203,5181.441594,-7772.162391,2528.115143
22505.741536,-1702.473667,-11917.315666,2834.553343
22505.741869,-148.041188,-13619.789333,3600.648841
22505.742202,-1554.432478,-7698.141797,2528.115143
22505.742535,4663.297435,-4737.318029,1149.143247
22505.742868,4885.359217,-9178.553681,1838.629195
22505.743201,888.247130,-6217.729913,-2221.676944
22505.743534,-3182.885551,-12731.542202,-5898.935335
22505.743867,-5477.523971,-9030.512492,-8580.269578
22505.744200,2294.638420,-14211.954086,-2528.115143
22505.744533,-1184.329507,-10732.986159,612.876398
22505.744866,4663.297435,-9474.636058,2987.772442
22505.745199,0.000000,-8956.491898,4290.134789
22505.745532,5033.400406,-9548.656652,11951.089769
22505.745865,9104.533087,-4737.318029,8197.221829
22505.746198,7105.977043,-9252.574275,7737.564530
22505.746531,74.020594,-7624.121203,0.000000
22505.746864,-2664.741391,-10732.986159,-5515.887586
22505.747197,-4515.256246,-10807.006753,-7431.126331
22505.747530,-2368.659014,-8438.347739,-6971.469032
22505.747862,-5403.503377,-11843.295072,-6205.373534
22505.748195,-4441.235652,-7179.997637,-3370.820191
22505.748528,-2960.823768,-11251.130318,-1915.238745
22505.748861,-3330.926739,-6735.874072,-1225.752797
22505.749194,0.000000,-10732.986159,7507.735880
22505.749527,4367.215058,-5033.400406,8733.488677
22505.749860,3775.050304,-13027.624579,10342.289223
22505.750193,4737.318029,-5995.668130,6741.640382
22505.750526,5329.482782,-11843.295072,4826.401637
22505.750859,1924.535449,-6291.750507,-2451.505594
22505.751192,-1776.494261,-9548.656652,-3064.381992
22505.751525,-9696.697840,-11843.295072,-11108.384721
22505.751858,-2812.782580,-13249.686362,-5822.325785
22505.752191,-6809.894666,-11917.315666,-5515.887586
22505.752524,592.164754,-9178.553681,689.485948
22505.752857,-1258.350101,-6069.688724,3600.648841
22505.753190,5255.462188,-4737.318029,8503.660028
22505.753523,5847.626942,-1776.494261,2987.772442
22505.753856,-2960.823768,-11325.150913,4903.011187
22505.754189,3775.050304,-7698.141797,-76.609550
22505.754522,-1850.514855,-13027.624579,-2068.457845
22505.754854,2368.659014,-11621.233289,4826.401637
22505.755187,-2442.679609,-9548.656652,-1838.629195
22505.755520,0.000000,-7179.997637,-3447.429741
22505.755853,1406.391290,-7698.141797,-4213.525239
22505.756186,1702.473667,-13027.624579,-689.485948
22505.756519,1776.494261,-8512.368333,2068.457845
22505.756852,-1554.432478,-9178.553681,536.266849
22505.757185,2664.741391,-7254.018232,4826.401637
22505.757518,0.000000,-7179.997637,3064.381992
22505.757851,2960.823768,-7772.162391,4903.011187
22505.758184,2294.638420,-8882.471304,-76.609550
22505.758517,-3849.070898,-9548.656652,-3983.696590
22505.758850,-4589.276840,-9548.656652,-2451.505594
22505.759183,-3849.070898,-9548.656652,-2987.772442
22505.759516,-888.247130,-8364.327145,-1302.362347
22505.759849,-666.185348,-8512.368333,1072.533697
22505.760182,-1554.432478,-8882.471304,-1378.971896
22505.760515,1332.370696,-10288.862594,4826.401637
22505.760848,2886.803174,-4367.215058,2451.505594
22505.761181,7624.121203,-10658.965565,1762.019645
22505.761513,1184.329507,-12509.480420,7354.516781
22505.761846,-74.020594,-11843.295072,-76.609550
22505.762179,1924.535449,-10436.903782,1991.848295
22505.762512,-1332.370696,-11769.274478,-1915.238745
22505.762845,4515.256246,-9252.574275,306.438199
22505.763178,-4145.153275,-9178.553681,-919.314598
22505.763511,-3108.864956,-6661.853478,-6052.154434
22505.763844,-5625.565159,-6587.832884,536.266849
22505.764177,-2072.576638,-1258.350101,1838.629195
22505.764510,3552.988522,-2442.679609,3677.258390
22505.764843,-3627.009116,-14211.954086,2987.772442
22505.765176,-1850.514855,-10066.800811,-4443.353888
22505.765509,-74.020594,-12879.583391,-689.485948
22505.765842,4811.338623,-12583.501014,2834.553343
22505.766175,6735.874072,-12213.398043,2068.457845
22505.766508,1776.494261,-13323.706956,6435.202183
22505.766841,5847.626942,-6809.894666,3600.648841
22505.767174,0.000000,-7179.997637,2145.067394
22505.767507,5921.647536,-4959.379811,6052.154434
22505.767840,-2442.679609,-7550.100608,-1991.848295
22505.768173,0.000000,-2442.679609,-2451.505594
22505.768505,-6069.688724,-12361.439231,-3677.258390
22505.768838,-5551.544565,-9030.512492,-5515.887586
22505.769171,-2368.659014,-8216.285956,-689.485948
22505.769504,-296.082377,-12435.459826,-536.266849
22505.769837,4071.132681,-8364.327145,1225.752797
22505.770170,-2220.617826,-13397.727550,3600.648841
22505.770503,6439.791695,-11843.295072,1149.143247
22505.770836,2294.638420,-7254.018232,4903.011187
22505.771169,4737.318029,-7179.997637,3064.381992
22505.771502,4367.215058,-5551.544565,1915.238745
22505.771835,-1184.329507,-8660.409521,-689.485948
22505.772168,-1776.494261,-8068.244768,-5362.668486
22505.772501,-740.205942,-11251.130318,-76.609550
22505.772834,-4515.256246,-8068.244768,-7354.516781
22505.773167,-2220.617826,-15174.221811,0.000000
22505.773500,-222.061783,-7105.977043,1915.238745
22505.773833,518.144159,-5551.544565,536.266849
22505.774166,2294.638420,-15988.448347,8197.221829
22505.774499,4071.132681,2146.597232,2757.943793
22505.774832,1184.329507,-10288.862594,7354.516781
22505.775165,-4589.276840,-26055.249158,-76.609550
22505.775497,3182.885551,-3034.844362,-2757.943793
22505.775830,2368.659014,8808.450710,-7660.954980
22505.776163,5107.421000,-7179.997637,1532.190996
22505.776496,-7846.182985,-19393.395680,-383.047749
22505.776829,-7328.038826,-15692.365970,-2528.115143
22505.777162,-5551.544565,-15100.201217,-1915.238745
22505.777495,3478.967927,-11029.068536,-1225.752797
22505.777828,8290.306550,-6513.812290,4826.401637
22505.778161,9400.615463,-8882.471304,2987.772442
22505.778494,10584.944971,-3923.091493,4903.011187
22505.778827,-666.185348,-10658.965565,1762.019645
22505.779160,296.082377,-7031.956449,2528.115143
22505.779493,-6365.771101,-4367.215058,-842.705048
22505.779826,-2220.617826,-4071.132681,-3677.258390
22505.780159,-5329.482782,-7328.038826,306.438199
22505.780492,-4959.379811,-5403.503377,-1225.752797
22505.780825,1702.473667,-4145.153275,-383.047749
22505.781158,-74.020594,-13397.727550,612.876398
22505.781491,1332.370696,-16654.633695,7354.516781
22505.781824,2664.741391,-9548.656652,5056.230287
22505.782156,1258.350101,-17764.942608,-1378.971896
22505.782489,2738.761985,-12953.603985,2451.505594
22505.782822,-444.123565,-11917.315666,-1072.533697
22505.783155,4663.297435,-11843.295072,-76.609550
22505.783488,-2368.659014,-9548.656652,-1225.752797
22505.783821,-2442.679609,-11843.295072,-8656.879127
22505.784154,-2886.803174,-3775.050304,-4290.134789
22505.784487,-1332.370696,-8734.430116,-6741.640382
22505.784820,-1258.350101,-11251.130318,-2604.724693
22505.785153,1110.308913,-7031.956449,-995.924147
22505.785486,296.082377,-12657.521608,2298.286494
22505.785819,4071.132681,-6513.812290,2987.772442
22505.786152,2664.741391,-8660.409521,2451.505594
22505.786485,6735.874072,-6513.812290,-76.609550
22505.786818,-1554.432478,-10732.986159,-1838.629195
22505.787151,0.000000,-10732.986159,-1991.848295
22505.787484,-2442.679609,-11843.295072,-6511.811733
22505.787817,-3034.844362,-11103.089130,-3753.867940
22505.788150,-1554.432478,-5773.606348,0.000000
22505.788483,-814.226536,-3034.844362,1991.848295
22505.788816,2590.720797,-2812.782580,6205.373534
22505.789148,-2368.659014,-3923.091493,3677.258390
22505.789481,5847.626942,-9178.553681,8963.317327
22505.789814,1924.535449,-9622.677246,7660.954980
22505.790147,3552.988522,-9622.677246,5975.544884
22505.790480,592.164754,-12509.480420,4443.353888
22505.790813,1554.432478,-7179.997637,-1225.752797
22505.791146,3404.947333,-9474.636058,3600.648841
22505.791479,3478.967927,-7105.977043,-3753.867940
22505.791812,-1776.494261,-4219.173869,-7354.516781
22505.792145,-3552.988522,-12657.521608,-2298.286494
22505.792478,-2886.803174,-7179.997637,-3677.258390
22505.792811,-2146.597232,-6069.688724,306.438199
22505.793144,0.000000,-8808.450710,4903.011187
22505.793477,296.082377,-10658.965565,3524.039291
22505.793810,3552.988522,-9548.656652,7354.516781
22505.794143,2294.638420,-11843.295072,2068.457845
22505.794476,2368.659014,-10732.986159,0.000000
22505.794809,-3849.070898,-13989.892304,-153.219100
22505.795142,1110.308913,-7994.224174,-3753.867940
22505.795475,0.000000,-13101.645173,2451.505594
22505.795808,296.082377,-3923.091493,-2298.286494
22505.796140,592.164754,-7402.059420,-2528.115143
22505.796473,-2442.679609,-8586.388927,-3294.210641
22505.796806,3478.967927,-9474.636058,-2528.115143
22505.797139,-2442.679609,-14211.954086,-5286.058936
22505.797472,1776.494261,-11917.315666,3370.820191
22505.797805,-1258.350101,-16580.613101,2374.896044
22505.798138,3552.988522,-7179.997637,6741.640382
22505.798471,4367.215058,-7105.977043,-76.609550
22505.798804,2516.700203,-11325.150913,4903.011187
22505.799137,1480.411884,-3701.029710,-2451.505594
22505.799470,0.000000,-7624.121203,-689.485948
22505.799803,-4737.318029,-9030.512492,-3140.991542
22505.800136,-5329.482782,-6587.832884,-4903.011187
22505.800469,-4737.318029,-9474.636058,-76.609550
22505.800802,-962.267725,-3849.070898,-1838.629195
22505.801135,296.082377,-5995.668130,3677.258390
22505.801468,5847.626942,-7105.977043,4826.401637
22505.801801,2442.679609,-7550.100608,2374.896044
22505.802134,3256.906145,-12287.418637,-383.047749
22505.802467,2294.638420,-16876.695478,7737.564530
22505.802799,3627.009116,-5181.441594,1455.581446
22505.803132,2368.659014,-11917.315666,4213.525239
22505.803465,222.061783,-8290.306550,-536.266849
22505.803798,-2812.782580,-6957.935855,-3447.429741
22505.804131,-2368.659014,-9474.636058,2604.724693
22505.804464,-74.020594,-7105.977043,-689.485948
22505.804797,-8068.244768,-9548.656652,-2451.505594
22505.805130,-5329.482782,-10807.006753,2374.896044
22505.805463,-1924.535449,-8586.388927,1149.143247
22505.805796,1184.329507,-9548.656652,6741.640382
22505.806129,10881.027347,-4145.153275,7277.907231
22505.806462,4737.318029,-10510.924376,4673.182538
22505.806795,5625.565159,-7994.224174,0.000000
22505.807128,222.061783,-13027.624579,-4366.744339
22505.807461,-2072.576638,-14878.139434,-3217.601092
22505.807794,-1110.308913,-11917.315666,-4903.011187
22505.808127,-370.102971,-15396.283594,-689.485948
22505.808460,-1258.350101,-7105.977043,-2528.115143
22505.808793,-1850.514855,-4071.132681,-5898.935335
22505.809126,-2442.679609,-11547.212695,2068.457845
22505.809459,2368.659014,-2294.638420,2681.334243
22505.809791,2516.700203,-10955.047942,5056.230287
22505.810124,2442.679609,-9178.553681,6205.373534
22505.810457,-74.020594,-12435.459826,2068.457845
22505.810790,740.205942,-7920.203579,4903.011187
22505.811123,7031.956449,-9474.636058,-76.609550
22505.811456,0.000000,-9548.656652,-1838.629195
22505.811789,-1776.494261,-7772.162391,-4903.011187
22505.812122,-6291.750507,-10732.986159,-11031.775171
22505.812455,-3923.091493,-11251.130318,-5898.935335
22505.812788,-3034.844362,-10436.903782,-2298.286494
22505.813121,4071.132681,-7105.977043,2374.896044
22505.813454,2368.659014,-7179.997637,4903.011187
22505.813787,4145.153275,-8882.471304,7277.907231
22505.814120,5847.626942,-8290.306550,7890.783629
22505.814453,0.000000,-11917.315666,8580.269578
22505.814786,4663.297435,-8290.306550,6052.154434
22505.815119,-1184.329507,-5403.503377,-2068.457845
22505.815452,-3034.844362,-12139.377449,-4060.306139
22505.815785,-2442.679609,-8586.388927,-3600.648841
22505.816118,-1776.494261,-8364.327145,-3370.820191
22505.816451,0.000000,-8364.327145,0.000000
22505.816783,-74.020594,-8882.471304,-4979.620737
22505.817116,-3701.029710,-9548.656652,-1225.752797
22505.817449,-4737.318029,-12213.398043,2068.457845
22505.817782,6439.791695,-8882.471304,4826.401637
22505.818115,1184.329507,-12805.562797,7967.393179
22505.818448,8364.327145,-7031.956449,9346.365076
22505.818781,2294.638420,-6809.894666,7431.126331
22505.819114,1850.514855,-3923.091493,1225.752797
22505.819447,1184.329507,-6291.750507,-2451.505594
22505.819780,-1258.350101,-11843.295072,-6281.983084
22505.820112,-3627.009116,-14656.077652,-3907.087040
22505.820445,-4515.256246,-11695.253884,-2374.896044
22505.820778,-3182.885551,-11547.212695,-3140.991542
22505.821111,0.000000,-6883.915261,1838.629195
22505.821444,2294.638420,-5329.482782,995.924147
22505.821776,2368.659014,-1850.514855,2451.505594
22505.822109,1184.329507,-10214.842000,2681.334243
22505.822442,1998.556043,-12731.542202,1149.143247
22505.822775,1332.370696,-13027.624579,2451.505594
22505.823108,3182.885551,-12435.459826,3600.648841
22505.823441,2664.741391,-7476.080014,1225.752797
22505.823773,-1480.411884,-10140.821405,-3064.381992
22505.824106,-3552.988522,-7179.997637,-5822.325785
22505.824439,-2442.679609,-8290.306550,-7201.297681
22505.824772,-4145.153275,-9548.656652,-2681.334243
22505.825105,-2368.659014,-6587.832884,3677.258390
22505.825437,-1184.329507,-5403.503377,0.000000
22505.825770,592.164754,-9844.739029,5439.278036
22505.826103,1480.411884,-4663.297435,4060.306139
22505.826436,5995.668130,-6957.935855,2604.724693
22505.826769,7031.956449,-13027.624579,6665.030833
22505.827102,148.041188,-9548.656652,-689.485948
22505.827434,-3627.009116,-12805.562797,-7048.078582
22505.827767,-2368.659014,-11177.109724,-5286.058936
22505.828100,-370.102971,-15396.283594,-1915.238745
22505.828433,1110.308913,-5329.482782,-1532.190996
22505.828766,74.020594,-7550.100608,0.000000
22505.829098,-3701.029710,-6513.812290,2068.457845
22505.829431,888.247130,-3478.967927,3294.210641
22505.829764,-2590.720797,-7994.224174,2604.724693
22505.830097,3849.070898,-12731.542202,6052.154434
22505.830430,-2368.659014,-10732.986159,0.000000
22505.830762,3552.988522,-9844.739029,5439.278036
22505.831095,2294.638420,-8290.306550,-76.609550
22505.831428,8808.450710,-8290.306550,76.609550
22505.831761,1332.370696,-8956.491898,2451.505594
22505.832094,1036.288319,-6513.812290,-4826.401637
22505.832427,-6883.915261,-15396.283594,-3600.648841
22505.832759,-3849.070898,-8364.327145,-3370.820191
22505.833092,-1850.514855,-10658.965565,-3064.381992
22505.833425,0.000000,-8364.327145,4826.401637
22505.833758,4663.297435,-9178.553681,6665.030833
22505.834091,-2442.679609,-4219.173869,306.438199
22505.834423,2368.659014,-5625.565159,2221.676944
22505.834756,-3256.906145,-11769.274478,1762.019645
22505.835089,2368.659014,-11843.295072,2374.896044
22505.835422,2664.741391,-6439.791695,0.000000
22505.835755,1776.494261,-15692.365970,1838.629195
22505.836088,4071.132681,-5107.421000,2451.505594
22505.836420,4071.132681,-4959.379811,-766.095498
22505.836753,888.247130,-9326.594869,-689.485948
22505.837086,-74.020594,-8290.306550,-5362.668486
22505.837419,-4737.318029,-11917.315666,-4903.011187
22505.837752,-1850.514855,-15396.283594,-2528.115143
22505.838084,2072.576638,-7179.997637,2451.505594
22505.838417,1554.432478,-13619.789333,6052.154434
22505.838750,5033.400406,-5329.482782,3600.648841
22505.839083,1332.370696,-7772.162391,6435.202183
22505.839416,1628.453072,-5699.585753,1532.190996
22505.839748,2294.638420,-3701.029710,-766.095498
22505.840081,-7328.038826,-12065.356855,-7277.907231
22505.840414,-666.185348,-11547.212695,-2528.115143
22505.840747,-7476.080014,-11917.315666,-5515.887586
22505.841080,3034.844362,-6809.894666,-153.219100
22505.841413,-74.020594,-11843.295072,-76.609550
22505.841745,1776.494261,-7179.997637,2451.505594
22505.842078,3701.029710,-8882.471304,2987.772442
22505.842411,-888.247130,-11917.315666,0.000000
22505.842744,2886.803174,-12879.583391,306.438199
22505.843077,0.000000,-13915.871710,8197.221829
22505.843409,6365.771101,-6661.853478,7584.345430
22505.843742,2294.638420,-2442.679609,1838.629195
22505.844075,1110.308913,-8290.306550,-689.485948
22505.844408,-4959.379811,-5921.647536,-7737.564530
22505.844741,-4219.173869,-8956.491898,-6128.763984
22505.845073,-5403.503377,-12139.377449,-5439.278036
22505.845406,-7846.182985,-11917.315666,-2221.676944
22505.845739,-4219.173869,-9474.636058,1838.629195
22505.846072,-222.061783,-8438.347739,3140.991542
22505.846405,6513.812290,-4811.338623,6281.983084
22505.846738,5625.565159,-8290.306550,9729.412825
22505.847070,8216.285956,-7994.224174,842.705048
22505.847403,1776.494261,-10732.986159,1838.629195
22505.847736,1480.411884,-13397.727550,4213.525239
22505.848069,4071.132681,-7402.059420,-4290.134789
22505.848402,666.185348,-10881.027347,-995.924147
22505.848734,1332.370696,-7698.141797,-2528.115143
22505.849067,-2738.761985,-9252.574275,-4366.744339
22505.849400,-3256.906145,-11325.150913,-1225.752797
22505.849733,-962.267725,-9178.553681,2451.505594
22505.850066,2664.741391,-4811.338623,5132.839837
22505.850399,0.000000,-9844.739029,3830.477490
22505.850731,1110.308913,-9178.553681,2374.896044
22505.851064,0.000000,-9474.636058,536.266849
22505.851397,4737.318029,-7772.162391,6741.640382
22505.851730,3478.967927,-8142.265362,995.924147
22505.852063,-74.020594,-6661.853478,-6128.763984
22505.852395,-962.267725,-7698.141797,-4366.744339
22505.852728,-2738.761985,-11547.212695,-8810.098227
22505.853061,296.082377,-9992.780217,-2681.334243
22505.853394,-592.164754,-12805.562797,1685.410096
22505.853727,4959.379811,-7846.182985,5286.058936
22505.854059,4367.215058,-9474.636058,6052.154434
22505.854392,2368.659014,-8364.327145,9039.926876
22505.854725,2738.761985,-7105.977043,1378.971896
22505.855058,1184.329507,-9548.656652,2451.505594
22505.855391,-2590.720797,-13397.727550,383.047749
22505.855724,-5995.668130,-10066.800811,-3677.258390
22505.856056,-5477.523971,-9030.512492,-2528.115143
22505.856389,-5477.523971,-7920.203579,-3064.381992
22505.856722,-4885.359217,-7624.121203,-1915.238745
22505.857055,-4515.256246,-2442.679609,-4903.011187
22505.857388,-5107.421000,-9474.636058,-1915.238745
22505.857720,-2442.679609,-11843.295072,-2528.115143
22505.858053,-5329.482782,-11917.315666,4903.011187
22505.858386,-2072.576638,-12731.542202,6971.469032
22505.858719,-1776.494261,-12213.398043,4596.572988
22505.859052,-3701.029710,-8364.327145,2757.943793
22505.859385,-5847.626942,-10658.965565,1072.533697
22505.859717,-6957.935855,-7624.121203,3064.381992
22505.860050,-7105.977043,-6735.874072,1225.752797
22505.860383,-6587.832884,-5921.647536,-3753.867940
22505.860716,-9474.636058,-5995.668130,-3370.820191
22505.861049,-9474.636058,-5699.585753,-3370.820191
22505.861381,-8660.409521,-11251.130318,-4366.744339
22505.861714,-5699.585753,-10362.883188,-1302.362347
22505.862047,-6661.853478,-13545.768739,1072.533697
22505.862380,-5403.503377,-10584.944971,383.047749
22505.862713,-4737.318029,-11029.068536,2757.943793
22505.863045,-3627.009116,-10658.965565,1762.019645
22505.863378,-666.185348,-7179.997637,4903.011187
22505.863711,-3552.988522,-8290.306550,6052.154434
22505.864044,-3627.009116,-9474.636058,-1302.362347
22505.864377,-8068.244768,-6069.688724,0.000000
22505.864710,-3478.967927,-6513.812290,842.705048
22505.865042,-4441.235652,-4811.338623,-1302.362347
22505.865375,-7994.224174,-7846.182985,-2451.505594
22505.865708,-10658.965565,-11103.089130,-5898.935335
22505.866041,-5995.668130,-14211.954086,-76.609550
22505.866374,-5773.606348,-11917.315666,612.876398
22505.866706,-6809.894666,-14878.139434,3217.601092
22505.867039,-5181.441594,-8586.388927,2987.772442
22505.867372,-8586.388927,-8364.327145,0.000000
22505.867705,-3849.070898,-10066.800811,2987.772442
22505.868038,-6883.915261,-5847.626942,1378.971896
22505.868370,-10584.944971,-7179.997637,0.000000
22505.868703,-6809.894666,-6513.812290,2374.896044
22505.869036,-11843.295072,-6735.874072,-4366.744339
22505.869369,-6513.812290,-5551.544565,-1608.800546
22505.869702,-7402.059420,-10658.965565,-1608.800546
22505.870035,-5403.503377,-13027.624579,536.266849
22505.870367,-4811.338623,-12435.459826,4826.401637
22505.870700,-6735.874072,-14211.954086,1149.143247
22505.871033,-6217.729913,-9548.656652,2757.943793
22505.871366,-8882.471304,-10881.027347,0.000000
22505.871699,-4811.338623,-9474.636058,1762.019645
22505.872031,-11843.295072,-9918.759623,0.000000
22505.872364,-9104.533087,-8142.265362,-2221.676944
22505.872697,-13175.665768,-7179.997637,842.705048
22505.873030,-11251.130318,-3627.009116,-2068.457845
22505.873363,-13027.624579,-6069.688724,-5515.887586
22505.873696,-11325.150913,-11547.212695,-76.609550
22505.874028,-12435.459826,-7179.997637,-1225.752797
22505.874361,-8586.388927,-13027.624579,2987.772442
22505.874694,-5995.668130,-14211.954086,2374.896044
22505.875027,-6883.915261,-8734.430116,2681.334243
22505.875360,-9548.656652,-11029.068536,2298.286494
22505.875692,-7031.956449,-9548.656652,1455.581446
22505.876025,-11547.212695,-10140.821405,0.000000
22505.876358,-11843.295072,-10140.821405,612.876398
22505.876691,-11325.150913,-8290.306550,-1302.362347
22505.877024,-13027.624579,-8586.388927,-2834.553343
22505.877356,-9548.656652,-9474.636058,-689.485948
22505.877689,-13767.830521,-4959.379811,612.876398
22505.878022,-9474.636058,-7179.997637,3064.381992
22505.878355,-9104.533087,-9178.553681,4060.306139
22505.878688,-9178.553681,-8586.388927,536.266849
22505.879021,-9622.677246,-8290.306550,2374.896044
22505.879353,-11325.150913,-11843.295072,-76.609550
22505.879686,-11547.212695,-8364.327145,0.000000
22505.880019,-11917.315666,-14211.954086,-1608.800546
22505.880352,-11843.295072,-10658.965565,-1915.238745
22505.880685,-15100.201217,-7772.162391,-3677.258390
22505.881017,-11251.130318,-5995.668130,0.000000
22505.881350,-8142.265362,-4145.153275,1915.238745
22505.881683,-9622.677246,-8734.430116,1762.019645
22505.882016,-5033.400406,-9548.656652,4903.011187
22505.882349,-7328.038826,-10658.965565,4213.525239
22505.882681,-4145.153275,-7476.080014,4903.011187
22505.883014,-6661.853478,-10732.986159,1455.581446
22505.883347,-5921.647536,-10362.883188,-153.219100
22505.883680,-8438.347739,-13693.809927,229.828649
22505.884013,-7920.203579,-12435.459826,-76.609550
22505.884346,-12435.459826,-11621.233289,-1838.629195
22505.884678,-11325.150913,-11843.295072,-2528.115143
22505.885011,-11103.089130,-4811.338623,-3677.258390
22505.885344,-11251.130318,-8290.306550,-1302.362347
22505.885677,-6513.812290,-7994.224174,2374.896044
22505.886010,-8586.388927,-8142.265362,4213.525239
22505.886342,-6143.709319,-9474.636058,4673.182538
22505.886675,-7031.956449,-8364.327145,2757.943793
22505.887008,-6587.832884,-8068.244768,229.828649
22505.887341,-7105.977043,-8364.327145,1838.629195
22505.887674,-6291.750507,-11251.130318,-689.485948
22505.888007,-9548.656652,-13027.624579,-4903.011187
22505.888339,-12435.459826,-11917.315666,-2145.067394
22505.888672,-9548.656652,-9474.636058,-3524.039291
22505.889005,-9918.759623,-8290.306550,76.609550
22505.889338,-9992.780217,-5551.544565,766.095498
22505.889671,-10510.924376,-6365.771101,995.924147
22505.890003,-9178.553681,-7179.997637,2451.505594
22505.890336,-9474.636058,-8364.327145,6894.859482
22505.890669,-7179.997637,-9474.636058,2068.457845
22505.891002,-8882.471304,-7476.080014,0.000000
22505.891335,-10362.883188,-10881.027347,-842.705048
22505.891667,-10955.047942,-9548.656652,-1838.629195
22505.892000,-9326.594869,-10955.047942,-229.828649
22505.892333,-12509.480420,-10955.047942,-1915.238745
22505.892666,-13323.706956,-9844.739029,-2221.676944
22505.892999,-12509.480420,-8882.471304,-689.485948
22505.893332,-9844.739029,-6809.894666,1762.019645
22505.893664,-8364.327145,-5699.585753,2451.505594
22505.893997,-5921.647536,-5995.668130,6281.983084
22505.894330,-5403.503377,-8290.306550,3600.648841
22505.894663,-8660.409521,-11473.192101,2987.772442
22505.894996,-11251.130318,-12435.459826,-3677.258390
22505.895328,-10807.006753,-15248.242405,-2374.896044
22505.895661,-8438.347739,-13619.789333,-383.047749
22505.895994,-10362.883188,-8364.327145,0.000000
22505.896327,-7179.997637,-6439.791695,-1532.190996
22505.896660,-10066.800811,-4811.338623,-2451.505594
22505.896993,-11843.295072,-6587.832884,766.095498
22505.897325,-11917.315666,-8586.388927,-1608.800546
22505.897658,-14285.974681,-12879.583391,-76.609550
22505.897991,-14804.118840,-11621.233289,766.095498
22505.898324,-9474.636058,-9474.636058,3447.429741
22505.898657,-6587.832884,-7624.121203,4903.011187
22505.898989,-5329.482782,-4811.338623,3064.381992
22505.899322,-3923.091493,-7624.121203,1532.190996
22505.899655,-6143.709319,-9844.739029,-689.485948
22505.899988,-7550.100608,-10881.027347,-2298.286494
22505.900321,-10066.800811,-13027.624579,-4213.525239
22505.900653,-12139.377449,-10140.821405,-5898.935335
22505.900986,-11325.150913,-13915.871710,-3753.867940
22505.901319,-14359.995275,-8364.327145,-4903.011187
22505.901652,-13693.809927,-11843.295072,-76.609550
22505.901985,-10732.986159,-10658.965565,2374.896044
22505.902318,-9474.636058,-8956.491898,8656.879127
22505.902650,-4367.215058,-6661.853478,11108.384721
22505.902983,-444.123565,-3849.070898,10648.727422
22505.903316,0.000000,-2664.741391,7354.516781
22505.903649,296.082377,-4515.256246,3064.381992
22505.903982,-3034.844362,-5995.668130,-5975.544884
22505.904314,-8068.244768,-11325.150913,-9806.022374
22505.904647,-10658.965565,-16876.695478,-11414.822920
22505.904980,-11029.068536,-16284.530724,-11721.261119
22505.905313,-8734.430116,-13619.789333,-5898.935335
22505.905646,-6365.771101,-10658.965565,-536.266849
22505.905978,-3627.009116,-7994.224174,4673.182538
22505.906311,0.000000,-6439.791695,9806.022374
22505.906644,3478.967927,-6957.935855,13406.671215
22505.906977,0.000000,-4811.338623,12257.527968
22505.907310,2220.617826,-8882.471304,10955.165621
22505.907643,-74.020594,-7254.018232,1225.752797
22505.907975,-2368.659014,-9548.656652,306.438199
22505.908308,-2442.679609,-10066.800811,-4136.915689
22505.908641,-6735.874072,-12213.398043,-6588.421283
22505.908974,-9548.656652,-12657.521608,-7660.954980
22505.909307,-9992.780217,-10732.986159,-5209.449386
22505.909639,-8586.388927,-7772.162391,-2451.505594
22505.909972,-8882.471304,-8364.327145,6128.763984
22505.910305,-1850.514855,-8882.471304,8503.660028
22505.910638,-2960.823768,-4811.338623,7967.393179
22505.910971,0.000000,-7476.080014,12257.527968
22505.911304,1110.308913,-8068.244768,8044.002729
22505.911636,148.041188,-10066.800811,8656.879127
22505.911969,-814.226536,-11029.068536,6358.592633
22505.912302,-2812.782580,-9474.636058,2221.676944
22505.912635,-6513.812290,-8068.244768,-1149.143247
22505.912968,-5995.668130,-10658.965565,689.485948
22505.913300,-5995.668130,-9992.780217,2987.772442
22505.913633,-6809.894666,-9400.615463,6588.421283
22505.913966,-5403.503377,-11251.130318,10955.165621
22505.914299,-4811.338623,-8586.388927,11031.775171
22505.914632,-3404.947333,-7179.997637,17466.977354
22505.914964,0.000000,-7476.080014,21374.064394
22505.915297,1702.473667,-7994.224174,18003.244203
22505.915630,0.000000,-8734.430116,19612.044749
22505.915963,-666.185348,-7920.203579,15781.567259
22505.916296,-1554.432478,-8290.306550,13406.671215
22505.916629,-4737.318029,-8586.388927,12257.527968
22505.916961,-5107.421000,-7402.059420,10955.165621
22505.917294,-2590.720797,-6439.791695,14019.547613
22505.917627,-2368.659014,-6291.750507,20607.968896
22505.917960,1628.453072,-4737.318029,21986.940793
22505.918293,3478.967927,-7105.977043,21374.064394
22505.918625,1702.473667,-9178.553681,22599.817191
22505.918958,444.123565,-10140.821405,22216.769442
22505.919291,1332.370696,-11621.233289,22063.550342
22505.919624,1702.473667,-10658.965565,23136.084040
22505.919957,1332.370696,-8660.409521,24515.055936
22505.920290,2294.638420,-5477.523971,20454.749797
22505.920622,2294.638420,-6217.729913,24438.446386
22505.920955,3330.926739,-666.185348,20837.797546
22505.921288,1776.494261,-1850.514855,21450.673944
22505.921621,1184.329507,-1850.514855,19918.482948
22505.921954,-888.247130,-3997.112087,15858.176809
22505.922286,-1480.411884,-5551.544565,13789.718964
22505.922619,444.123565,-10288.862594,14938.862211
22505.922952,1110.308913,-13027.624579,16471.053207
22505.923285,-2368.659014,-10732.986159,15934.786358
22505.923618,-74.020594,-10214.842000,17007.320056
22505.923951,3182.885551,-11843.295072,20761.187996
22505.924283,2072.576638,-4811.338623,19612.044749
22505.924616,3330.926739,-2960.823768,19535.435199
22505.924949,1998.556043,-3552.988522,12793.794817
22505.925282,-1554.432478,-4737.318029,9729.412825
22505.925615,-4737.318029,-10140.821405,8963.317327
22505.925948,-5477.523971,-9770.718434,6358.592633
22505.926280,-1850.514855,-9474.636058,6665.030833
22505.926613,0.000000,-5995.668130,7354.516781
22505.926946,3552.988522,-10436.903782,9806.022374
22505.927279,3627.009116,-13545.768739,10955.165621
22505.927612,1702.473667,-11547.212695,7277.907231
22505.927945,-74.020594,-11843.295072,7431.126331
22505.928277,296.082377,-11473.192101,7124.688131
22505.928610,814.226536,-9474.636058,7507.735880
22505.928943,-888.247130,-7105.977043,4826.401637
22505.929276,-518.144159,-7105.977043,1149.143247
22505.929609,-3256.906145,-10214.842000,612.876398
22505.929942,-2516.700203,-11695.253884,2068.457845
22505.930274,962.267725,-11399.171507,5745.716235
22505.930607,2368.659014,-7772.162391,4903.011187
22505.930940,5107.421000,-7994.224174,5132.839837
22505.931273,4367.215058,-10658.965565,2374.896044
22505.931606,2368.659014,-10732.986159,5515.887586
22505.931938,1776.494261,-11399.171507,4826.401637
22505.932271,3182.885551,-8734.430116,1378.971896
22505.932604,-296.082377,-10510.924376,2681.334243
22505.932937,-1776.494261,-8808.450710,2145.067394
22505.933270,-888.247130,-7031.956449,1225.752797
22505.933603,-592.164754,-7920.203579,1915.238745
22505.933935,740.205942,-9474.636058,2068.457845
22505.934268,-2368.659014,-7179.997637,612.876398
22505.934601,-1776.494261,-8364.327145,3064.381992
22505.934934,-296.082377,-12731.542202,4826.401637
22505.935267,0.000000,-7772.162391,5209.449386
22505.935600,3034.844362,-7698.141797,4903.011187
22505.935932,4441.235652,-5625.565159,5209.449386
22505.936265,4145.153275,-7772.162391,5439.278036
22505.936598,-74.020594,-13027.624579,4826.401637
22505.936931,1702.473667,-14211.954086,2987.772442
22505.937264,-5625.565159,-9548.656652,3983.696590
22505.937597,-2442.679609,-4737.318029,-76.609550
22505.937929,-3034.844362,-9252.574275,0.000000
22505.938262,-74.020594,-11103.089130,7277.907231
22505.938595,0.000000,-13397.727550,7354.516781
22505.938928,1036.288319,-10436.903782,9806.022374
22505.939261,888.247130,-10066.800811,7660.954980
22505.939594,592.164754,-9548.656652,11338.213370
22505.939926,1110.308913,-5921.647536,8733.488677
22505.940259,592.164754,-10288.862594,10955.165621
22505.940592,-74.020594,-9474.636058,5515.887586
22505.940925,-1776.494261,-9548.656652,5515.887586
22505.941258,0.000000,-10288.862594,11874.480219
22505.941591,370.102971,-6513.812290,12180.918418
22505.941923,-1776.494261,-7920.203579,13330.061665
22505.942256,-3182.885551,-4737.318029,10725.336972
22505.942589,2886.803174,-9474.636058,15781.567259
22505.942922,2368.659014,-10732.986159,21144.235745
22505.943255,4663.297435,-7994.224174,19535.435199
22505.943588,3478.967927,-7698.141797,18156.463303
22505.943920,592.164754,-4219.173869,18079.853753
22505.944253,1184.329507,-5403.503377,15704.957709
22505.944586,1110.308913,-9474.636058,18616.120601
22505.944919,1406.391290,-7179.997637,19228.997000
22505.945252,-1702.473667,-5329.482782,16854.100956
22505.945585,2146.597232,-3849.070898,18309.682402
22505.945917,0.000000,-4737.318029,18309.682402
22505.946250,-2368.659014,-6217.729913,15475.129060
22505.946583,-370.102971,-5329.482782,16164.615008
22505.946916,740.205942,-7476.080014,20378.140247
22505.947249,2812.782580,-8290.306550,22369.988542
22505.947582,888.247130,-3627.009116,17160.539155
22505.947914,1184.329507,-9844.739029,21986.940793
22505.948247,2294.638420,-10658.965565,19075.777900
22505.948580,-1258.350101,-5995.668130,15934.786358
22505.948913,-2442.679609,-4737.318029,10955.165621
22505.949246,-2442.679609,-4959.379811,9116.536426
22505.949579,-370.102971,-8290.306550,12334.137518
22505.949911,-1850.514855,-11325.150913,14172.766713
22505.950244,-1554.432478,-7105.977043,10342.289223
22505.950577,-1776.494261,-6291.750507,13713.109414
22505.950910,3182.885551,-10807.006753,19535.435199
22505.951243,1702.473667,-6143.709319,16777.491406
22505.951576,0.000000,-9548.656652,17773.415554
22505.951908,3478.967927,-8290.306550,14632.424012
22505.952241,3256.906145,-11325.150913,20148.311597
22505.952574,2590.720797,-6957.935855,14325.985813
22505.952907,-888.247130,-1332.370696,9652.803275
22505.953240,-4737.318029,1110.308913,0.000000
22505.953572,0.000000,-8290.306550,2068.457845
22505.953905,-962.267725,-12509.480420,6128.763984
22505.954238,-4071.132681,-14285.974681,2451.505594
22505.954571,0.000000,-10658.965565,7277.907231
22505.954904,740.205942,-5995.668130,2145.067394
22505.955237,4367.215058,-8586.388927,4903.011187
22505.955569,4885.359217,-10881.027347,7277.907231
22505.955902,2368.659014,-15692.365970,3600.648841
22505.956235,3256.906145,-10881.027347,6435.202183
22505.956568,2294.638420,-9474.636058,-1302.362347
22505.956901,1110.308913,-5255.462188,-2298.286494
22505.957234,740.205942,-9474.636058,-76.609550
22505.957566,2294.638420,-11843.295072,-5592.497135
22505.957899,-4737.318029,-11917.315666,-2757.943793
22505.958232,-1850.514855,-10436.903782,-3600.648841
22505.958565,-814.226536,-11917.315666,2451.505594
22505.958898,-962.267725,-4885.359217,-1838.629195
22505.959231,-74.020594,-4071.132681,-8580.269578
22505.959563,1406.391290,-14063.912898,-1838.629195
22505.959896,6587.832884,-10362.883188,2528.115143
22505.960229,3182.885551,-10510.924376,1532.190996
22505.960562,1702.473667,-6069.688724,-3907.087040
22505.960895,-2960.823768,-9548.656652,-9806.022374
22505.961228,1702.473667,-14730.098246,-5592.497135
22505.961560,1998.556043,-9474.636058,-7431.126331
22505.961893,-4145.153275,-3627.009116,-13483.280765
22505.962226,-1850.514855,-9178.553681,-15092.081311
22505.962559,-1850.514855,-14878.139434,-7048.078582
22505.962892,-814.226536,-16728.654289,-2451.505594
22505.963225,370.102971,-10584.944971,-2451.505594
22505.963557,592.164754,-8068.244768,-3370.820191
22505.963890,2886.803174,-7402.059420,-3677.258390
22505.964223,6735.874072,-9474.636058,-3140.991542
22505.964556,1702.473667,-11325.150913,-2451.505594
22505.964889,-2960.823768,-4811.338623,-9499.584175
22505.965222,-4737.318029,-9548.656652,-9806.022374
22505.965554,-1628.453072,-13101.645173,-6665.030833
22505.965887,-814.226536,-11769.274478,-7124.688131
22505.966220,444.123565,-7105.977043,-5132.839837
22505.966553,1406.391290,-9474.636058,-6205.373534
22505.966886,296.082377,-13101.645173,3064.381992
22505.967219,4663.297435,-5921.647536,1149.143247
22505.967551,2368.659014,-7476.080014,-2451.505594
22505.967884,4663.297435,-12287.418637,-306.438199
22505.968217,2886.803174,-14211.954086,-1302.362347
22505.968550,740.205942,-10584.944971,-76.609550
22505.968883,-518.144159,-370.102971,-6894.859482
22505.969216,-1258.350101,-9178.553681,-6511.811733
22505.969548,-814.226536,-15100.201217,-1455.581446
22505.969881,-1258.350101,-12361.439231,-76.609550
22505.970214,-4737.318029,-7179.997637,-2451.505594
22505.970547,0.000000,-3627.009116,612.876398
22505.970880,2738.761985,-11843.295072,6665.030833
22505.971213,-1776.494261,-9548.656652,7660.954980
22505.971545,-222.061783,-11843.295072,7890.783629
22505.971878,2664.741391,-5477.523971,5822.325785
22505.972211,5255.462188,-6513.812290,6971.469032
22505.972544,4071.132681,-12435.459826,12104.308868
22505.972877,-814.226536,-4441.235652,2987.772442
22505.973210,-4737.318029,-3182.885551,-1225.752797
22505.973542,-74.020594,-9474.636058,2068.457845
22505.973875,-74.020594,-12139.377449,536.266849
22505.974208,-2368.659014,-10732.986159,2604.724693
22505.974541,-666.185348,-8290.306550,2068.457845
22505.974874,-2442.679609,-9252.574275,5362.668486
22505.975206,0.000000,-6587.832884,7660.954980
22505.975539,814.226536,-5699.585753,6588.421283
22505.975872,3478.967927,-10510.924376,7737.564530
22505.976205,3256.906145,-10288.862594,12870.404366
22505.976538,3182.885551,-9326.594869,13100.233016
22505.976871,296.082377,-4737.318029,9346.365076
22505.977203,-888.247130,-1850.514855,4903.011187
22505.977536,-1258.350101,-7105.977043,3294.210641
22505.977869,-4441.235652,-7698.141797,-76.609550
22505.978202,-4737.318029,-11473.192101,4826.401637
22505.978535,-74.020594,-5921.647536,1762.019645
22505.978868,-1776.494261,-6291.750507,3983.696590
22505.979200,4515.256246,-13027.624579,13713.109414
22505.979533,3701.029710,-12805.562797,15168.690860
22505.979866,2368.659014,-2146.597232,9422.974625
22505.980199,3182.885551,-5329.482782,2374.896044
22505.980532,4663.297435,-11843.295072,6052.154434
22505.980865,592.164754,-10140.821405,8580.269578
22505.981197,-2368.659014,-8956.491898,7277.907231
22505.981530,-962.267725,1480.411884,-3064.381992
22505.981863,-2960.823768,-7476.080014,-3753.867940
22505.982196,3034.844362,-8512.368333,1838.629195
22505.982529,-1628.453072,-11621.233289,0.000000
22505.982862,74.020594,-11473.192101,-383.047749
22505.983194,-2072.576638,-9548.656652,-842.705048
22505.983527,-1258.350101,-6957.935855,-7124.688131
22505.983860,1184.329507,-11917.315666,3907.087040
22505.984193,3923.091493,-13915.871710,7890.783629
22505.984526,-74.020594,-7994.224174,2145.067394
22505.984859,-962.267725,-4737.318029,-4060.306139
22505.985191,370.102971,-5699.585753,-5056.230287
22505.985524,1776.494261,-11177.109724,2374.896044
22505.985857,592.164754,-13767.830521,2374.896044
22505.986190,-5033.400406,-12953.603985,-1532.190996
22505.986523,-5847.626942,-1258.350101,-9193.145976
22505.986856,7031.956449,-4737.318029,-7431.126331
22505.987188,6143.709319,-14878.139434,0.000000
22505.987521,4441.235652,-14285.974681,0.000000
22505.987854,-1480.411884,-17838.963202,-4596.572988
22505.988187,222.061783,-11769.274478,-5898.935335
22505.988520,740.205942,-11177.109724,-2604.724693
22505.988853,1554.432478,-5995.668130,-3370.820191
22505.989185,-1258.350101,-4441.235652,-11108.384721
22505.989518,-4441.235652,-8290.306550,-12334.137518
22505.989851,-74.020594,-10732.986159,-10418.898773
22505.990184,-1850.514855,-18357.107362,0.000000
22505.990517,592.164754,-10362.883188,-689.485948
22505.990850,-1480.411884,-2368.659014,-7354.516781
22505.991182,3923.091493,-12435.459826,-842.705048
22505.991515,4663.297435,-9474.636058,842.705048
22505.991848,2886.803174,-11991.336260,-229.828649
22505.992181,-74.020594,-14211.954086,-4366.744339
22505.992514,740.205942,-9474.636058,-3140.991542
22505.992847,74.020594,-9104.533087,-2911.162892
22505.993179,3923.091493,-9770.718434,995.924147
22505.993512,1258.350101,-5921.647536,-2221.676944
22505.993845,-666.185348,-1184.329507,-10495.508323
22505.994178,-1480.411884,-13397.727550,-4903.011187
22505.994511,-74.020594,-16580.613101,-76.609550
22505.994843,-2220.617826,-7179.997637,0.000000
22505.995176,-3552.988522,-9548.656652,-1225.752797
22505.995509,-1258.350101,-5773.606348,-4826.401637
22505.995842,1258.350101,-3552.988522,-4443.353888
22505.996175,1776.494261,-15396.283594,2987.772442
22505.996508,6143.709319,-14952.160028,9269.755526
22505.996840,-3775.050304,-5107.421000,3064.381992
22505.997173,-888.247130,-11251.130318,2374.896044
22505.997506,-1258.350101,-5921.647536,-2528.115143
22505.997839,-3552.988522,-3627.009116,-3064.381992
22505.998172,5551.544565,-8290.306550,-76.609550
22505.998505,-2368.659014,-17838.963202,4290.134789
22505.998837,1406.391290,-7698.141797,5439.278036
22505.999170,814.226536,-4441.235652,5286.058936
22505.999503,740.205942,-11473.192101,7354.516781
22505.999836,4145.153275,-7772.162391,6588.421283
22506.000169,2738.761985,-14211.954086,8503.660028
22506.000502,1110.308913,-10436.903782,7660.954980
22506.000834,-2072.576638,-11325.150913,8580.269578
22506.001167,-888.247130,-6513.812290,6052.154434
22506.001500,-3256.906145,-3256.906145,-153.219100
22506.001833,-3849.070898,-74.020594,-4290.134789
22506.002166,-1850.514855,-3404.947333,-2221.676944
22506.002499,-3330.926739,-15840.407159,842.705048
22506.002831,518.144159,-16580.613101,7277.907231
22506.003164,2368.659014,-10807.006753,8733.488677
22506.003497,5329.482782,-12509.480420,18999.168350
22506.003830,7031.956449,-3256.906145,13406.671215
22506.004163,3478.967927,-1406.391290,3217.601092
22506.004496,4885.359217,-6809.894666,5898.935335
22506.004828,3034.844362,-14211.954086,8044.002729
22506.005161,1332.370696,-9400.615463,10648.727422
22506.005494,-2368.659014,-1628.453072,2681.334243
22506.005827,-5403.503377,-2072.576638,-5362.668486
22506.006160,-6217.729913,-1258.350101,-8886.707777
22506.006493,-6291.750507,-21836.075289,842.705048
22506.006825,-3256.906145,-17320.819043,2374.896044
22506.007158,0.000000,-5995.668130,1378.971896
22506.007491,5625.565159,-3478.967927,4826.401637
22506.007824,5847.626942,-7698.141797,2987.772442
22506.008157,2368.659014,-7772.162391,1532.190996
22506.008490,2368.659014,-12805.562797,3677.258390
22506.008822,2664.741391,-14285.974681,3830.477490
22506.009155,0.000000,-14137.933492,5592.497135
22506.009488,1480.411884,-962.267725,1378.971896
22506.009821,-2072.576638,-4737.318029,536.266849
22506.010154,-3775.050304,-8290.306550,-6205.373534
22506.010487,-7105.977043,-8364.327145,-7048.078582
22506.010819,-74.020594,-7179.997637,-4903.011187
22506.011152,4145.153275,-10436.903782,2451.505594
22506.011485,2960.823768,-15174.221811,9039.926876
22506.011818,-74.020594,-4441.235652,-4979.620737
22506.012151,2294.638420,-12435.459826,-2528.115143
22506.012484,4219.173869,-8734.430116,995.924147
22506.012816,0.000000,-11399.171507,-1302.362347
22506.013149,-5625.565159,-14582.057057,-3677.258390
22506.013482,-3627.009116,-11251.130318,-8044.002729
22506.013815,-1776.494261,-7105.977043,-6128.763984
22506.014148,5699.585753,-7698.141797,-1302.362347
22506.014481,1110.308913,-7550.100608,-6128.763984
22506.014813,0.000000,-7179.997637,-6128.763984
22506.015146,1036.288319,-13101.645173,-2451.505594
22506.015479,3404.947333,-10881.027347,6128.763984
22506.015812,3923.091493,-5625.565159,7660.954980
22506.016145,-2220.617826,-9918.759623,-1685.410096
22506.016477,-3552.988522,-8364.327145,-9806.022374
22506.016810,-74.020594,-11843.295072,-13559.890315
