#time,accel_x,accel_y,accel_z
20782.775915,2294.638420,-8808.450710,-6741.640382
20782.776248,1184.329507,-10140.821405,-2757.943793
20782.776582,6587.832884,-10732.986159,1455.581446
20782.776915,8068.244768,-7476.080014,1225.752797
20782.777249,9844.739029,-8364.327145,5362.668486
20782.777582,11769.274478,-9030.512492,4673.182538
20782.777915,13027.624579,-9178.553681,5515.887586
20782.778249,11843.295072,-8364.327145,7277.907231
20782.778582,10881.027347,-6291.750507,0.000000
20782.778916,9622.677246,-9918.759623,-76.609550
20782.779249,9400.615463,-9474.636058,-4366.744339
20782.779583,5921.647536,-8364.327145,-2451.505594
20782.779916,6661.853478,-10881.027347,-4290.134789
20782.780249,4663.297435,-11843.295072,-3294.210641
20782.780583,4367.215058,-11843.295072,-689.485948
20782.780916,6439.791695,-10658.965565,3600.648841
20782.781250,8142.265362,-9474.636058,7277.907231
20782.781583,9400.615463,-5107.421000,5209.449386
20782.781917,10658.965565,-5995.668130,9729.412825
20782.782250,11769.274478,-7105.977043,7277.907231
20782.782584,10584.944971,-5551.544565,4826.401637
20782.782917,7031.956449,-7031.956449,-2145.067394
20782.783250,6291.750507,-8290.306550,-5286.058936
20782.783584,5329.482782,-9696.697840,-7048.078582
20782.783917,4737.318029,-9844.739029,-8580.269578
20782.784251,7031.956449,-11843.295072,-8503.660028
20782.784584,7105.977043,-11325.150913,-6128.763984
20782.784918,10066.800811,-13619.789333,2987.772442
20782.785251,11177.109724,-10362.883188,2451.505594
20782.785584,11177.109724,-11177.109724,7124.688131
20782.785918,11251.130318,-7624.121203,6128.763984
20782.786251,11843.295072,-6661.853478,7277.907231
20782.786585,11843.295072,-4293.194464,6281.983084
20782.786918,9770.718434,-4811.338623,2757.943793
20782.787252,8068.244768,-7624.121203,-1225.752797
20782.787585,3849.070898,-10658.965565,-2681.334243
20782.787918,296.082377,-10140.821405,-6588.421283
20782.788252,-1850.514855,-11843.295072,-7660.954980
20782.788585,-1480.411884,-12879.583391,-5286.058936
20782.788919,2664.741391,-12805.562797,2068.457845
20782.789252,4663.297435,-8882.471304,1455.581446
20782.789586,6513.812290,-7994.224174,6281.983084
20782.789919,8882.471304,-7254.018232,7967.393179
20782.790253,7698.141797,-3997.112087,3677.258390
20782.790586,6439.791695,-6809.894666,2374.896044
20782.790919,4663.297435,-6217.729913,-2068.457845
20782.791253,2886.803174,-9474.636058,-3677.258390
20782.791586,1184.329507,-8956.491898,-4903.011187
20782.791920,-666.185348,-13619.789333,-5745.716235
20782.792253,-3034.844362,-11325.150913,-6128.763984
20782.792587,740.205942,-13249.686362,-76.609550
20782.792920,5847.626942,-9474.636058,4826.401637
20782.793253,10362.883188,-4219.173869,8503.660028
20782.793587,10807.006753,-5477.523971,7048.078582
20782.793920,11177.109724,-5995.668130,5669.106685
20782.794254,9104.533087,-6661.853478,2374.896044
20782.794587,9400.615463,-9474.636058,-76.609550
20782.794921,4367.215058,-9474.636058,-7354.516781
20782.795254,-296.082377,-13989.892304,-8580.269578
20782.795587,-2664.741391,-13915.871710,-6971.469032
20782.795921,-2368.659014,-9548.656652,-7354.516781
20782.796254,5847.626942,-9474.636058,536.266849
20782.796588,8586.388927,-8364.327145,8503.660028
20782.796921,12065.356855,-6735.874072,9806.022374
20782.797255,10807.006753,-7179.997637,7967.393179
20782.797588,10436.903782,-7698.141797,4060.306139
20782.797922,8512.368333,-6587.832884,0.000000
20782.798255,5921.647536,-9918.759623,-76.609550
20782.798588,1998.556043,-13027.624579,-4979.620737
20782.798922,-4737.318029,-10732.986159,-7354.516781
20782.799255,-74.020594,-13619.789333,-5286.058936
20782.799589,-592.164754,-10658.965565,-689.485948
20782.799922,2664.741391,-7105.977043,919.314598
20782.800256,2516.700203,-8068.244768,2451.505594
20782.800589,4663.297435,-9474.636058,4519.963438
20782.800922,3034.844362,-8956.491898,5822.325785
20782.801256,2886.803174,-8586.388927,6665.030833
20782.801589,2294.638420,-7476.080014,1225.752797
20782.801923,592.164754,-10732.986159,1225.752797
20782.802256,1480.411884,-8364.327145,1302.362347
20782.802590,1110.308913,-6957.935855,-2451.505594
20782.802923,-2220.617826,-5403.503377,-4903.011187
20782.803256,-1628.453072,-11547.212695,-4366.744339
20782.803590,-4737.318029,-9548.656652,-4443.353888
20782.803923,-1628.453072,-9474.636058,-2221.676944
20782.804257,-888.247130,-9770.718434,612.876398
20782.804590,1998.556043,-9252.574275,3064.381992
20782.804924,5255.462188,-10658.965565,8503.660028
20782.805257,4441.235652,-8660.409521,9729.412825
20782.805591,1480.411884,-5403.503377,1838.629195
20782.805924,-888.247130,-10436.903782,2451.505594
20782.806257,-666.185348,-11547.212695,-1915.238745
20782.806591,-5921.647536,-7179.997637,-4290.134789
20782.806924,-3256.906145,-8882.471304,-1915.238745
20782.807258,-2220.617826,-8808.450710,-1149.143247
20782.807591,-1480.411884,-8068.244768,76.609550
20782.807925,-74.020594,-9474.636058,-76.609550
20782.808258,-3034.844362,-7179.997637,-1532.190996
20782.808591,-74.020594,-12731.542202,-76.609550
20782.808925,-2146.597232,-10140.821405,0.000000
20782.809258,1776.494261,-10066.800811,3983.696590
20782.809592,2072.576638,-10362.883188,4136.915689
20782.809925,1776.494261,-10807.006753,4749.792088
20782.810259,2294.638420,-7624.121203,3370.820191
20782.810592,2590.720797,-6587.832884,2681.334243
20782.810925,518.144159,-7772.162391,0.000000
20782.811259,-4145.153275,-7476.080014,-1378.971896
20782.811592,-4219.173869,-9030.512492,-6052.154434
20782.811926,-3330.926739,-7179.997637,-4290.134789
20782.812259,444.123565,-11103.089130,-76.609550
20782.812593,2294.638420,-9326.594869,536.266849
20782.812926,3182.885551,-10658.965565,2374.896044
20782.813260,1924.535449,-8290.306550,1225.752797
20782.813593,2664.741391,-9474.636058,842.705048
20782.813926,3404.947333,-9178.553681,1455.581446
20782.814260,4663.297435,-10658.965565,2987.772442
20782.814593,2738.761985,-6291.750507,0.000000
20782.814927,3256.906145,-10436.903782,1225.752797
20782.815260,2812.782580,-11843.295072,-76.609550
20782.815594,1110.308913,-9178.553681,-1608.800546
20782.815927,1850.514855,-10066.800811,-2221.676944
20782.816260,-1776.494261,-9252.574275,-2451.505594
20782.816594,-2072.576638,-9030.512492,-3447.429741
20782.816927,-370.102971,-10658.965565,536.266849
20782.817261,3923.091493,-9474.636058,4826.401637
20782.817594,4293.194464,-7920.203579,5209.449386
20782.817928,4515.256246,-9178.553681,5286.058936
20782.818261,3849.070898,-7624.121203,3294.210641
20782.818594,148.041188,-7179.997637,0.000000
20782.818928,-1036.288319,-10288.862594,-1608.800546
20782.819261,-4515.256246,-9474.636058,-5286.058936
20782.819595,-6957.935855,-8364.327145,-3370.820191
20782.819928,-3256.906145,-10288.862594,-2528.115143
20782.820262,-1850.514855,-9178.553681,-2987.772442
20782.820595,-222.061783,-9474.636058,1149.143247
20782.820929,666.185348,-7994.224174,4060.306139
20782.821262,2368.659014,-5921.647536,4826.401637
20782.821595,0.000000,-7772.162391,3677.258390
20782.821929,1480.411884,-10881.027347,4826.401637
20782.822262,222.061783,-7179.997637,1225.752797
20782.822596,0.000000,-8364.327145,2451.505594
20782.822929,1406.391290,-11251.130318,-689.485948
20782.823263,-4441.235652,-9548.656652,-3064.381992
20782.823596,-3923.091493,-9992.780217,-4903.011187
20782.823929,-4293.194464,-9252.574275,-4366.744339
20782.824263,-4367.215058,-8660.409521,-4366.744339
20782.824596,-2442.679609,-10362.883188,-689.485948
20782.824930,-74.020594,-12731.542202,3600.648841
20782.825263,1924.535449,-7179.997637,4903.011187
20782.825597,5699.585753,-9178.553681,9116.536426
20782.825930,5847.626942,-7772.162391,5362.668486
20782.826263,4885.359217,-8068.244768,6511.811733
20782.826597,-1406.391290,-8882.471304,-612.876398
20782.826930,-2442.679609,-9474.636058,-3983.696590
20782.827264,-4219.173869,-11769.274478,-3140.991542
20782.827597,-2220.617826,-8438.347739,-2757.943793
20782.827931,1110.308913,-9178.553681,-1302.362347
20782.828264,-222.061783,-7328.038826,-2451.505594
20782.828598,0.000000,-8364.327145,536.266849
20782.828931,2294.638420,-10955.047942,2374.896044
20782.829264,2886.803174,-7105.977043,995.924147
20782.829598,740.205942,-8956.491898,2451.505594
20782.829931,2368.659014,-9178.553681,2987.772442
20782.830265,3775.050304,-8734.430116,3830.477490
20782.830598,4145.153275,-8660.409521,4443.353888
20782.830932,4811.338623,-7476.080014,1838.629195
20782.831265,1480.411884,-9844.739029,306.438199
20782.831598,-1480.411884,-11547.212695,-3140.991542
20782.831932,-4515.256246,-9548.656652,-6741.640382
20782.832265,-2812.782580,-10066.800811,-4366.744339
20782.832599,-888.247130,-10881.027347,-1302.362347
20782.832932,3182.885551,-10510.924376,2604.724693
20782.833266,5181.441594,-9696.697840,5975.544884
20782.833599,4441.235652,-8734.430116,5515.887586
20782.833932,3627.009116,-7846.182985,3064.381992
20782.834266,1406.391290,-10214.842000,1455.581446
20782.834599,-1554.432478,-7994.224174,-76.609550
20782.834933,-2220.617826,-8216.285956,-2528.115143
20782.835266,-3404.947333,-8364.327145,-1532.190996
20782.835600,-74.020594,-10658.965565,-76.609550
20782.835933,-2960.823768,-8364.327145,0.000000
20782.836267,-1036.288319,-9474.636058,0.000000
20782.836600,-2960.823768,-10436.903782,-76.609550
20782.836933,-2072.576638,-9992.780217,-383.047749
20782.837267,-1480.411884,-9104.533087,536.266849
20782.837600,518.144159,-9178.553681,2221.676944
20782.837934,2516.700203,-10066.800811,4826.401637
20782.838267,4441.235652,-9548.656652,5515.887586
20782.838601,2886.803174,-7179.997637,2451.505594
20782.838934,592.164754,-6587.832884,1532.190996
20782.839267,-2220.617826,-11251.130318,-1302.362347
20782.839601,-5403.503377,-7105.977043,-5898.935335
20782.839934,-3330.926739,-9326.594869,-2528.115143
20782.840268,-1998.556043,-9178.553681,-1378.971896
20782.840601,-1332.370696,-10288.862594,689.485948
20782.840935,296.082377,-9548.656652,1302.362347
20782.841268,3478.967927,-9474.636058,4213.525239
20782.841602,2146.597232,-4811.338623,1225.752797
20782.841935,2368.659014,-9770.718434,3983.696590
20782.842268,3182.885551,-9474.636058,-76.609550
20782.842602,0.000000,-8364.327145,1225.752797
20782.842935,2886.803174,-9770.718434,536.266849
20782.843269,2368.659014,-9844.739029,1838.629195
20782.843602,888.247130,-9992.780217,229.828649
20782.843936,-888.247130,-9326.594869,-1455.581446
20782.844269,-1998.556043,-7698.141797,-4366.744339
20782.844602,-3256.906145,-6291.750507,-3064.381992
20782.844936,0.000000,-10584.944971,-76.609550
20782.845269,1702.473667,-7105.977043,842.705048
20782.845603,0.000000,-7772.162391,3677.258390
20782.845936,4663.297435,-9474.636058,2374.896044
20782.846270,4737.318029,-9178.553681,4749.792088
20782.846603,3627.009116,-7994.224174,2681.334243
20782.846936,2072.576638,-7846.182985,-229.828649
20782.847270,-3478.967927,-10066.800811,-4060.306139
20782.847603,-4293.194464,-10807.006753,-4673.182538
20782.847937,-3552.988522,-10214.842000,-2451.505594
20782.848270,148.041188,-9548.656652,76.609550
20782.848604,0.000000,-10807.006753,2834.553343
20782.848937,2294.638420,-8882.471304,1149.143247
20782.849271,592.164754,-6587.832884,2451.505594
20782.849604,0.000000,-7179.997637,2451.505594
20782.849937,1998.556043,-10658.965565,1149.143247
20782.850271,888.247130,-7328.038826,2451.505594
20782.850604,814.226536,-9474.636058,2681.334243
20782.850938,296.082377,-9252.574275,1225.752797
20782.851271,-222.061783,-9622.677246,-383.047749
20782.851605,-74.020594,-9178.553681,-383.047749
20782.851938,-888.247130,-9474.636058,-1302.362347
20782.852271,-6513.812290,-8956.491898,-2451.505594
20782.852605,-4811.338623,-10955.047942,-1302.362347
20782.852938,-1850.514855,-8586.388927,-2374.896044
20782.853272,1998.556043,-10658.965565,4519.963438
20782.853605,3775.050304,-8068.244768,4290.134789
20782.853939,3404.947333,-9252.574275,5592.497135
20782.854272,3182.885551,-7031.956449,3524.039291
20782.854605,0.000000,-7179.997637,153.219100
20782.854939,1110.308913,-8882.471304,-2068.457845
20782.855272,-4737.318029,-10732.986159,-383.047749
20782.855606,-3034.844362,-9548.656652,-4903.011187
20782.855939,-2072.576638,-9844.739029,-3064.381992
20782.856273,-1036.288319,-10140.821405,-536.266849
20782.856606,148.041188,-9104.533087,1225.752797
20782.856940,1702.473667,-7994.224174,1762.019645
20782.857273,1406.391290,-8216.285956,2221.676944
20782.857606,1184.329507,-9918.759623,3370.820191
20782.857940,-74.020594,-8512.368333,0.000000
20782.858273,2294.638420,-10510.924376,4826.401637
20782.858607,3552.988522,-6587.832884,5056.230287
20782.858940,4663.297435,-9474.636058,2681.334243
20782.859274,2072.576638,-7994.224174,2221.676944
20782.859607,-3552.988522,-10732.986159,-2757.943793
20782.859940,-3330.926739,-9474.636058,-6205.373534
20782.860274,-4367.215058,-11251.130318,-5592.497135
20782.860607,-4071.132681,-10658.965565,-2757.943793
20782.860941,888.247130,-9844.739029,4213.525239
20782.861274,2294.638420,-9326.594869,2911.162892
20782.861608,4737.318029,-7476.080014,4903.011187
20782.861941,7031.956449,-9474.636058,4826.401637
20782.862274,4663.297435,-8882.471304,4213.525239
20782.862608,1850.514855,-8512.368333,1762.019645
20782.862941,-1628.453072,-8734.430116,-1532.190996
20782.863275,-1258.350101,-10288.862594,-2221.676944
20782.863608,-1776.494261,-9622.677246,-2451.505594
20782.863942,0.000000,-11621.233289,-76.609550
20782.864275,0.000000,-10140.821405,-995.924147
20782.864609,-1776.494261,-9548.656652,-1991.848295
20782.864942,-1702.473667,-9696.697840,-1762.019645
20782.865275,-666.185348,-8290.306550,-689.485948
20782.865609,1184.329507,-7772.162391,3600.648841
20782.865942,4663.297435,-10955.047942,7890.783629
20782.866276,4071.132681,-7179.997637,3983.696590
20782.866609,2664.741391,-9030.512492,4826.401637
20782.866942,3182.885551,-9474.636058,1762.019645
20782.867276,-1998.556043,-8216.285956,-1915.238745
20782.867609,-2960.823768,-8364.327145,-4596.572988
20782.867942,-4515.256246,-10362.883188,-4213.525239
20782.868276,-4441.235652,-7772.162391,-4903.011187
20782.868609,-2368.659014,-11325.150913,2068.457845
20782.868942,1110.308913,-8364.327145,0.000000
20782.869276,3034.844362,-7476.080014,2757.943793
20782.869609,2960.823768,-9030.512492,5132.839837
20782.869942,4071.132681,-7254.018232,153.219100
20782.870276,1924.535449,-10362.883188,2068.457845
20782.870609,444.123565,-8586.388927,995.924147
20782.870942,2590.720797,-9474.636058,1149.143247
20782.871276,148.041188,-10362.883188,2451.505594
20782.871609,0.000000,-9548.656652,2298.286494
20782.871942,-1258.350101,-10066.800811,-689.485948
20782.872276,-74.020594,-7994.224174,-3140.991542
20782.872609,-5921.647536,-8956.491898,-2451.505594
20782.872942,-5329.482782,-8364.327145,-2451.505594
20782.873276,-3627.009116,-10066.800811,-2221.676944
20782.873609,222.061783,-7994.224174,1455.581446
20782.873942,2220.617826,-9622.677246,3907.087040
20782.874276,5847.626942,-7698.141797,6052.154434
20782.874609,4515.256246,-9474.636058,4826.401637
20782.874942,370.102971,-4811.338623,0.000000
20782.875275,1036.288319,-11843.295072,-689.485948
20782.875609,-1258.350101,-9474.636058,-3140.991542
20782.875942,-370.102971,-12361.439231,-1302.362347
20782.876275,-1036.288319,-9992.780217,-2451.505594
20782.876609,148.041188,-10732.986159,-689.485948
20782.876942,814.226536,-9696.697840,306.438199
20782.877275,3552.988522,-7179.997637,2451.505594
20782.877609,3775.050304,-6513.812290,1072.533697
20782.877942,3552.988522,-9104.533087,2451.505594
20782.878275,4663.297435,-9474.636058,2374.896044
20782.878609,0.000000,-8660.409521,3217.601092
20782.878942,4663.297435,-9104.533087,4213.525239
20782.879275,2368.659014,-9030.512492,612.876398
20782.879609,1184.329507,-9770.718434,-689.485948
20782.879942,-2812.782580,-8956.491898,-3294.210641
20782.880275,-3108.864956,-7772.162391,-5975.544884
20782.880609,-2886.803174,-9548.656652,-5362.668486
20782.880942,-962.267725,-9696.697840,-2451.505594
20782.881275,1036.288319,-10066.800811,1608.800546
20782.881609,4589.276840,-8882.471304,5056.230287
20782.881942,4737.318029,-7994.224174,5286.058936
20782.882275,8808.450710,-11843.295072,6052.154434
20782.882609,4737.318029,-5995.668130,3677.258390
20782.882942,1702.473667,-10658.965565,1149.143247
20782.883275,-1554.432478,-9548.656652,-2451.505594
20782.883609,-6365.771101,-10732.986159,-4903.011187
20782.883942,-4441.235652,-10807.006753,-3370.820191
20782.884275,-2442.679609,-8882.471304,-1455.581446
20782.884608,-2738.761985,-10066.800811,-689.485948
20782.884942,-2960.823768,-7772.162391,0.000000
20782.885275,-74.020594,-6513.812290,0.000000
20782.885608,-74.020594,-6143.709319,153.219100
20782.885942,0.000000,-8660.409521,3294.210641
20782.886275,-74.020594,-10658.965565,1149.143247
20782.886608,0.000000,-9474.636058,3217.601092
20782.886942,666.185348,-8438.347739,1378.971896
20782.887275,666.185348,-10436.903782,1072.533697
20782.887608,-148.041188,-8660.409521,-689.485948
20782.887942,-2442.679609,-10658.965565,-1915.238745
20782.888275,-4811.338623,-8068.244768,-6128.763984
20782.888608,-6513.812290,-11325.150913,-4903.011187
20782.888942,-1554.432478,-11251.130318,-76.609550
20782.889275,0.000000,-7179.997637,2451.505594
20782.889608,4663.297435,-7698.141797,5745.716235
20782.889942,2442.679609,-7920.203579,5592.497135
20782.890275,1628.453072,-7328.038826,2911.162892
20782.890608,1184.329507,-7698.141797,1455.581446
20782.890942,-74.020594,-7994.224174,-1915.238745
20782.891275,-3552.988522,-7476.080014,0.000000
20782.891608,-1258.350101,-11251.130318,-3753.867940
20782.891942,-1776.494261,-9548.656652,-3217.601092
20782.892275,-2960.823768,-8364.327145,-2451.505594
20782.892608,4071.132681,-10658.965565,-76.609550
20782.892942,592.164754,-8956.491898,76.609550
20782.893275,1184.329507,-9696.697840,1149.143247
20782.893608,1628.453072,-8068.244768,1838.629195
20782.893941,3478.967927,-9178.553681,3600.648841
20782.894275,5329.482782,-9104.533087,5286.058936
20782.894608,6735.874072,-7920.203579,4826.401637
20782.894941,5329.482782,-8586.388927,2987.772442
20782.895275,2960.823768,-9104.533087,306.438199
20782.895608,1702.473667,-11547.212695,-3753.867940
20782.895941,-4737.318029,-10140.821405,-5822.325785
20782.896275,-4737.318029,-9548.656652,-3983.696590
20782.896608,-1258.350101,-12435.459826,-3753.867940
20782.896941,0.000000,-9548.656652,-1838.629195
20782.897275,3404.947333,-10658.965565,3600.648841
20782.897608,4441.235652,-7920.203579,5822.325785
20782.897941,4145.153275,-7254.018232,4903.011187
20782.898275,2294.638420,-9474.636058,3600.648841
20782.898608,1702.473667,-9474.636058,2374.896044
20782.898941,-4071.132681,-7476.080014,0.000000
20782.899275,-74.020594,-9474.636058,-76.609550
20782.899608,-814.226536,-10510.924376,-1302.362347
20782.899941,-74.020594,-9400.615463,383.047749
20782.900275,-962.267725,-9474.636058,-1838.629195
20782.900608,-2146.597232,-9992.780217,-1455.581446
20782.900941,-3627.009116,-9400.615463,-3524.039291
20782.901275,-4663.297435,-9178.553681,-2374.896044
20782.901608,1998.556043,-9178.553681,2987.772442
20782.901941,0.000000,-9548.656652,7660.954980
20782.902275,4071.132681,-9474.636058,5439.278036
20782.902608,592.164754,-7476.080014,3677.258390
20782.902941,222.061783,-7550.100608,1762.019645
20782.903274,-1924.535449,-7179.997637,0.000000
20782.903608,-5329.482782,-9252.574275,-3983.696590
20782.903941,-4145.153275,-9770.718434,-2911.162892
20782.904274,-4737.318029,-8364.327145,-1532.190996
20782.904608,-666.185348,-8586.388927,-3064.381992
20782.904941,296.082377,-9474.636058,612.876398
20782.905274,1110.308913,-12435.459826,-76.609550
20782.905608,148.041188,-7476.080014,612.876398
20782.905941,-1776.494261,-8956.491898,1532.190996
20782.906274,370.102971,-9252.574275,1149.143247
20782.906608,2812.782580,-7624.121203,2681.334243
20782.906941,3256.906145,-7624.121203,3677.258390
20782.907274,4663.297435,-11251.130318,3600.648841
20782.907608,0.000000,-8364.327145,1225.752797
20782.907941,2886.803174,-10658.965565,-1302.362347
20782.908274,74.020594,-6217.729913,-4213.525239
20782.908608,0.000000,-10140.821405,-689.485948
20782.908941,-1184.329507,-9548.656652,-3064.381992
20782.909274,0.000000,-11029.068536,-383.047749
20782.909608,3849.070898,-9844.739029,3140.991542
20782.909941,5995.668130,-8142.265362,4596.572988
20782.910274,5847.626942,-11843.295072,4826.401637
20782.910608,3849.070898,-6883.915261,4136.915689
20782.910941,1258.350101,-8068.244768,459.657299
20782.911274,2590.720797,-6217.729913,-2681.334243
20782.911608,-888.247130,-10140.821405,-2604.724693
20782.911941,1998.556043,-11251.130318,-1302.362347
20782.912274,1036.288319,-10288.862594,-919.314598
20782.912608,1480.411884,-13101.645173,2374.896044
20782.912941,3775.050304,-7846.182985,-995.924147
20782.913274,1776.494261,-8956.491898,2451.505594
20782.913607,5921.647536,-8290.306550,3600.648841
20782.913941,1184.329507,-8808.450710,2145.067394
20782.914274,444.123565,-11177.109724,1915.238745
20782.914607,1554.432478,-8882.471304,1838.629195
20782.914941,2294.638420,-9178.553681,2374.896044
20782.915274,1628.453072,-7179.997637,1532.190996
20782.915607,-74.020594,-10362.883188,-76.609550
20782.915941,-1258.350101,-8290.306550,-4979.620737
20782.916274,-5921.647536,-7772.162391,-4596.572988
20782.916607,-4219.173869,-11251.130318,-4060.306139
20782.916941,-5477.523971,-9252.574275,-1915.238745
20782.917274,-2960.823768,-9252.574275,306.438199
20782.917607,888.247130,-9326.594869,4136.915689
20782.917941,1480.411884,-7179.997637,5515.887586
20782.918274,0.000000,-6587.832884,7354.516781
20782.918607,4367.215058,-7105.977043,2451.505594
20782.918941,-2368.659014,-8956.491898,0.000000
20782.919274,-2590.720797,-11547.212695,-1608.800546
20782.919607,-6291.750507,-8512.368333,-4903.011187
20782.919941,-5107.421000,-10807.006753,-3600.648841
20782.920274,-2516.700203,-7254.018232,-1149.143247
20782.920607,-2738.761985,-9844.739029,459.657299
20782.920941,-74.020594,-7402.059420,1072.533697
20782.921274,-2664.741391,-9474.636058,3600.648841
20782.921607,-74.020594,-5921.647536,-1149.143247
20782.921941,-1776.494261,-10140.821405,3830.477490
20782.922274,-74.020594,-8290.306550,1149.143247
20782.922607,0.000000,-9548.656652,5515.887586
20782.922940,1850.514855,-7920.203579,1225.752797
20782.923274,3849.070898,-8956.491898,2068.457845
20782.923607,0.000000,-9326.594869,-1302.362347
20782.923940,962.267725,-9474.636058,-2681.334243
20782.924274,-2738.761985,-11843.295072,-5286.058936
20782.924607,-3552.988522,-9548.656652,-6741.640382
20782.924940,296.082377,-11695.253884,-76.609550
20782.925274,2886.803174,-9252.574275,2145.067394
20782.925607,4737.318029,-7179.997637,5669.106685
20782.925940,4367.215058,-8290.306550,4519.963438
20782.926274,5107.421000,-7402.059420,2681.334243
20782.926607,4219.173869,-7476.080014,1608.800546
20782.926940,3182.885551,-8882.471304,229.828649
20782.927274,2294.638420,-9474.636058,-2221.676944
20782.927607,0.000000,-11621.233289,-1991.848295
20782.927940,592.164754,-10658.965565,-2068.457845
20782.928274,0.000000,-10732.986159,-919.314598
20782.928607,3478.967927,-8290.306550,-76.609550
20782.928940,0.000000,-10436.903782,1455.581446
20782.929274,-74.020594,-8290.306550,-2681.334243
20782.929607,-1184.329507,-9548.656652,0.000000
20782.929940,1184.329507,-7476.080014,3677.258390
20782.930274,4663.297435,-7031.956449,4903.011187
20782.930607,3552.988522,-9104.533087,5669.106685
20782.930940,3627.009116,-7624.121203,2834.553343
20782.931274,1036.288319,-8808.450710,0.000000
20782.931607,-2072.576638,-8956.491898,-4903.011187
20782.931940,-1258.350101,-11843.295072,-5286.058936
20782.932273,-4811.338623,-9548.656652,-5822.325785
20782.932607,-3256.906145,-11473.192101,-1915.238745
20782.932940,-370.102971,-13027.624579,1762.019645
20782.933273,-1776.494261,-8956.491898,2757.943793
20782.933607,962.267725,-8512.368333,4443.353888
20782.933940,-296.082377,-7105.977043,4749.792088
20782.934273,222.061783,-5847.626942,2451.505594
20782.934607,0.000000,-8068.244768,4903.011187
20782.934940,-74.020594,-7105.977043,229.828649
20782.935273,-1184.329507,-7920.203579,0.000000
20782.935607,-74.020594,-11251.130318,-1302.362347
20782.935940,-3330.926739,-9474.636058,-4903.011187
20782.936273,-5181.441594,-11399.171507,-3447.429741
20782.936607,-5181.441594,-9548.656652,-4903.011187
20782.936940,-6069.688724,-11399.171507,-4136.915689
20782.937273,-2664.741391,-7846.182985,-1685.410096
20782.937607,2294.638420,-10362.883188,4213.525239
20782.937940,3478.967927,-6143.709319,3677.258390
20782.938273,5921.647536,-9474.636058,7277.907231
20782.938607,2294.638420,-7254.018232,2681.334243
20782.938940,2368.659014,-4219.173869,612.876398
20782.939273,1406.391290,-10658.965565,1149.143247
20782.939607,-1776.494261,-10140.821405,-2834.553343
20782.939940,-2812.782580,-9992.780217,-4060.306139
20782.940273,-2220.617826,-10732.986159,-2374.896044
20782.940607,2294.638420,-9474.636058,-76.609550
20782.940940,1036.288319,-9548.656652,1225.752797
20782.941273,1702.473667,-9770.718434,689.485948
20782.941606,2146.597232,-7624.121203,536.266849
20782.941940,1184.329507,-4811.338623,0.000000
20782.942273,3997.112087,-11251.130318,1149.143247
20782.942606,5255.462188,-8586.388927,1149.143247
20782.942940,1480.411884,-7772.162391,612.876398
20782.943273,7328.038826,-10362.883188,2987.772442
20782.943606,4959.379811,-10362.883188,1149.143247
20782.943940,5921.647536,-8808.450710,1072.533697
20782.944273,2812.782580,-9400.615463,-1149.143247
20782.944606,1332.370696,-9770.718434,-4596.572988
20782.944940,0.000000,-12953.603985,-1838.629195
20782.945273,1184.329507,-10881.027347,2987.772442
20782.945606,3775.050304,-8068.244768,1838.629195
20782.945940,4441.235652,-10066.800811,6435.202183
20782.946273,6439.791695,-8586.388927,3600.648841
20782.946606,1480.411884,-7772.162391,2451.505594
20782.946940,2886.803174,-7698.141797,842.705048
20782.947273,-1850.514855,-8290.306550,-1762.019645
20782.947606,-3478.967927,-10436.903782,-2911.162892
20782.947940,-4219.173869,-11251.130318,-2528.115143
20782.948273,-5329.482782,-12657.521608,-76.609550
20782.948606,-4737.318029,-7179.997637,-2451.505594
20782.948940,-3552.988522,-9992.780217,842.705048
20782.949273,-74.020594,-8882.471304,1762.019645
20782.949606,-1998.556043,-8142.265362,2374.896044
20782.949940,-2664.741391,-7846.182985,1455.581446
20782.950273,-3034.844362,-9696.697840,2528.115143
20782.950606,-370.102971,-8808.450710,4060.306139
20782.950939,0.000000,-6587.832884,3677.258390
20782.951273,-74.020594,-10362.883188,2068.457845
20782.951606,-1776.494261,-6587.832884,0.000000
20782.951939,-6513.812290,-12435.459826,-2068.457845
20782.952273,-5403.503377,-8586.388927,-6128.763984
20782.952606,-8734.430116,-10732.986159,-4749.792088
20782.952939,-6883.915261,-9696.697840,-3217.601092
20782.953273,-3108.864956,-9474.636058,766.095498
20782.953606,1110.308913,-7550.100608,4673.182538
20782.953939,5477.523971,-7031.956449,8886.707777
20782.954273,4071.132681,-3775.050304,3677.258390
20782.954606,4885.359217,-8290.306550,4826.401637
20782.954939,1110.308913,-9474.636058,-689.485948
20782.955273,0.000000,-7179.997637,-1685.410096
20782.955606,0.000000,-9548.656652,-3064.381992
20782.955939,1628.453072,-11621.233289,-2757.943793
20782.956273,3404.947333,-11843.295072,-2528.115143
20782.956606,2738.761985,-12213.398043,-995.924147
20782.956939,2072.576638,-11843.295072,919.314598
20782.957273,370.102971,-8364.327145,-1225.752797
20782.957606,3108.864956,-8586.388927,1072.533697
20782.957939,4367.215058,-6069.688724,4290.134789
20782.958273,4959.379811,-6217.729913,5056.230287
20782.958606,5921.647536,-8364.327145,6435.202183
20782.958939,7624.121203,-7105.977043,3907.087040
20782.959273,2664.741391,-5995.668130,2451.505594
20782.959606,4071.132681,-9474.636058,-2681.334243
20782.959939,-4071.132681,-10955.047942,-8656.879127
20782.960272,-7105.977043,-12509.480420,-7354.516781
20782.960606,-3997.112087,-11325.150913,-4903.011187
20782.960939,-370.102971,-11547.212695,-383.047749
20782.961272,2516.700203,-9400.615463,3447.429741
20782.961606,4071.132681,-9474.636058,6052.154434
20782.961939,4663.297435,-5107.421000,4290.134789
20782.962272,3552.988522,-7624.121203,4903.011187
20782.962606,2294.638420,-11251.130318,-76.609550
20782.962939,0.000000,-6587.832884,612.876398
20782.963272,-2442.679609,-12435.459826,-76.609550
20782.963606,-1628.453072,-9326.594869,-536.266849
20782.963939,-3034.844362,-10658.965565,-1378.971896
20782.964272,-3775.050304,-10584.944971,-1991.848295
20782.964606,-2146.597232,-7105.977043,-2528.115143
20782.964939,-5995.668130,-7476.080014,-3677.258390
20782.965272,-3404.947333,-10066.800811,-1302.362347
20782.965606,-3034.844362,-12435.459826,-76.609550
20782.965939,-1776.494261,-5995.668130,3983.696590
20782.966272,2886.803174,-6809.894666,4826.401637
20782.966606,1480.411884,-9992.780217,5669.106685
20782.966939,1628.453072,-6291.750507,2757.943793
20782.967272,-2516.700203,-9178.553681,-76.609550
20782.967605,-2368.659014,-7179.997637,-3370.820191
20782.967938,-5329.482782,-10732.986159,-1302.362347
20782.968271,-1258.350101,-9474.636058,-4366.744339
20782.968604,-518.144159,-7920.203579,-1838.629195
20782.968937,-1184.329507,-10732.986159,2145.067394
20782.969270,4663.297435,-8290.306550,689.485948
20782.969603,1184.329507,-9474.636058,3294.210641
20782.969936,1628.453072,-7328.038826,459.657299
20782.970269,1628.453072,-7328.038826,306.438199
20782.970602,0.000000,-10732.986159,1225.752797
20782.970935,3849.070898,-8216.285956,3524.039291
20782.971268,4145.153275,-6809.894666,4060.306139
20782.971602,5921.647536,-8586.388927,3370.820191
20782.971935,3552.988522,-8512.368333,3830.477490
20782.972268,1110.308913,-7476.080014,-4903.011187
20782.972601,0.000000,-7179.997637,-8580.269578
20782.972934,0.000000,-11325.150913,-3753.867940
20782.973267,814.226536,-11103.089130,-5362.668486
20782.973600,3256.906145,-12731.542202,995.924147
20782.973933,5329.482782,-10732.986159,4290.134789
20782.974266,7772.162391,-8882.471304,5056.230287
20782.974599,8808.450710,-8216.285956,6435.202183
20782.974932,10732.986159,-5033.400406,5132.839837
20782.975265,7254.018232,-9104.533087,4673.182538
20782.975598,0.000000,-7772.162391,459.657299
20782.975931,-74.020594,-11843.295072,-3907.087040
20782.976264,-2368.659014,-9548.656652,-4596.572988
20782.976597,0.000000,-10658.965565,-2221.676944
20782.976930,-1850.514855,-11103.089130,-3294.210641
20782.977264,-1628.453072,-10362.883188,-1762.019645
20782.977597,-2220.617826,-7846.182985,153.219100
20782.977930,666.185348,-8290.306550,3753.867940
20782.978263,-74.020594,-6513.812290,2987.772442
20782.978596,-1628.453072,-10658.965565,6052.154434
20782.978929,-74.020594,-9474.636058,2374.896044
20782.979262,-3478.967927,-8808.450710,2451.505594
20782.979595,-2960.823768,-8364.327145,1532.190996
20782.979928,-4293.194464,-6735.874072,-1072.533697
20782.980261,-5699.585753,-7179.997637,-4213.525239
20782.980594,-6661.853478,-9400.615463,-4443.353888
20782.980927,-8364.327145,-11399.171507,-4060.306139
20782.981260,-8290.306550,-9548.656652,-4290.134789
20782.981593,-1258.350101,-11843.295072,1149.143247
20782.981926,888.247130,-9178.553681,4826.401637
20782.982259,0.000000,-5995.668130,7660.954980
20782.982592,3478.967927,-7105.977043,6052.154434
20782.982926,0.000000,-8216.285956,3447.429741
20782.983259,-2368.659014,-8216.285956,0.000000
20782.983592,-2516.700203,-10436.903782,-995.924147
20782.983925,-5551.544565,-10881.027347,-3370.820191
20782.984258,-2072.576638,-10436.903782,-1072.533697
20782.984591,-1258.350101,-9474.636058,-3447.429741
20782.984924,0.000000,-7772.162391,1991.848295
20782.985257,-2368.659014,-7179.997637,612.876398
20782.985590,3478.967927,-10658.965565,-76.609550
20782.985923,1776.494261,-9252.574275,3830.477490
20782.986256,3182.885551,-8438.347739,3830.477490
20782.986589,6291.750507,-8956.491898,4366.744339
20782.986922,5921.647536,-9400.615463,4596.572988
20782.987255,6513.812290,-7476.080014,3677.258390
20782.987588,4293.194464,-8586.388927,0.000000
20782.987921,3923.091493,-8586.388927,-4060.306139
20782.988254,-592.164754,-10955.047942,-5362.668486
20782.988588,-74.020594,-10658.965565,-5592.497135
20782.988921,296.082377,-11325.150913,-2145.067394
20782.989254,3182.885551,-13471.748144,2298.286494
20782.989587,8808.450710,-9474.636058,2987.772442
20782.989920,6513.812290,-7328.038826,8580.269578
20782.990253,8216.285956,-5921.647536,6665.030833
20782.990586,3701.029710,-6587.832884,2757.943793
20782.990919,2368.659014,-8956.491898,919.314598
20782.991252,-370.102971,-9696.697840,-689.485948
20782.991585,0.000000,-8660.409521,-2451.505594
20782.991918,-3552.988522,-9548.656652,-1225.752797
20782.992251,-666.185348,-9474.636058,-4443.353888
20782.992584,-2960.823768,-9548.656652,-3677.258390
20782.992917,-1332.370696,-10658.965565,-2834.553343
20782.993250,-3256.906145,-9548.656652,-3677.258390
20782.993583,-1702.473667,-11399.171507,229.828649
20782.993917,0.000000,-9104.533087,3064.381992
20782.994250,370.102971,-9918.759623,4826.401637
20782.994583,5847.626942,-9474.636058,7277.907231
20782.994916,1776.494261,-8364.327145,9729.412825
20782.995249,2886.803174,-6513.812290,1455.581446
20782.995582,-2960.823768,-7772.162391,689.485948
20782.995915,-6809.894666,-11843.295072,-2834.553343
20782.996248,-7624.121203,-11103.089130,-4903.011187
20782.996581,-7476.080014,-10510.924376,-2757.943793
20782.996914,-4367.215058,-10066.800811,-689.485948
20782.997247,-4737.318029,-8512.368333,1302.362347
20782.997580,-4811.338623,-8586.388927,1149.143247
20782.997913,-1776.494261,-7994.224174,4213.525239
20782.998246,-2738.761985,-5329.482782,1149.143247
20782.998579,-2368.659014,-8364.327145,4673.182538
20782.998912,-74.020594,-6291.750507,1991.848295
20782.999245,-74.020594,-7105.977043,1149.143247
20782.999579,1110.308913,-9548.656652,1685.410096
20782.999912,888.247130,-9400.615463,76.609550
20783.000245,222.061783,-11177.109724,-842.705048
20783.000578,-2072.576638,-7476.080014,-3677.258390
20783.000911,-74.020594,-10658.965565,-5745.716235
20783.001244,-2960.823768,-10732.986159,-2757.943793
20783.001577,4071.132681,-11843.295072,2374.896044
20783.001910,4663.297435,-8290.306550,3064.381992
20783.002243,8216.285956,-7772.162391,6205.373534
20783.002576,9178.553681,-7031.956449,4979.620737
20783.002909,6661.853478,-7624.121203,3830.477490
20783.003242,5995.668130,-6291.750507,689.485948
20783.003575,2368.659014,-8956.491898,-1838.629195
20783.003908,1702.473667,-10066.800811,-6894.859482
20783.004241,1110.308913,-11843.295072,-4826.401637
20783.004574,592.164754,-12953.603985,-2834.553343
20783.004907,3849.070898,-11325.150913,-689.485948
20783.005241,3552.988522,-8364.327145,1225.752797
20783.005574,9400.615463,-8290.306550,2987.772442
20783.005907,9400.615463,-4811.338623,2451.505594
20783.006240,5625.565159,-10584.944971,4060.306139
20783.006573,4663.297435,-11843.295072,1762.019645
20783.006906,0.000000,-10140.821405,1225.752797
20783.007239,4071.132681,-9326.594869,1455.581446
20783.007572,3849.070898,-9548.656652,2298.286494
20783.007905,1036.288319,-9696.697840,-459.657299
20783.008238,-2368.659014,-9548.656652,-919.314598
20783.008571,-3627.009116,-9474.636058,-4366.744339
20783.008904,-4737.318029,-9548.656652,-4903.011187
20783.009237,-7105.977043,-10436.903782,-153.219100
20783.009570,-3627.009116,-9474.636058,-76.609550
20783.009903,-4441.235652,-8956.491898,4749.792088
20783.010236,-1110.308913,-7402.059420,5132.839837
20783.010570,1332.370696,-5921.647536,5286.058936
20783.010903,-148.041188,-6439.791695,4290.134789
20783.011236,-2442.679609,-9474.636058,-76.609550
20783.011569,-5995.668130,-9474.636058,-5822.325785
20783.011902,-9474.636058,-11621.233289,-3753.867940
20783.012235,-5403.503377,-12435.459826,-1915.238745
20783.012568,-5107.421000,-8956.491898,-3064.381992
20783.012901,-1850.514855,-10658.965565,-76.609550
20783.013234,-2960.823768,-7328.038826,766.095498
20783.013567,-3182.885551,-8808.450710,-76.609550
20783.013900,-1110.308913,-7031.956449,689.485948
20783.014233,-3552.988522,-9030.512492,1915.238745
20783.014566,0.000000,-5995.668130,1225.752797
20783.014899,1184.329507,-11843.295072,6052.154434
20783.015232,1110.308913,-6587.832884,1225.752797
20783.015565,2072.576638,-5995.668130,2451.505594
20783.015898,1110.308913,-10658.965565,-689.485948
20783.016232,148.041188,-8142.265362,-3524.039291
20783.016565,-4219.173869,-11843.295072,-4673.182538
20783.016898,-1332.370696,-11103.089130,-3753.867940
20783.017231,-2368.659014,-8808.450710,-2451.505594
20783.017564,2664.741391,-9844.739029,1685.410096
20783.017897,5551.544565,-7920.203579,3907.087040
20783.018230,6143.709319,-7550.100608,4749.792088
20783.018563,7994.224174,-7846.182985,4749.792088
20783.018896,6439.791695,-8882.471304,3600.648841
20783.019229,5699.585753,-5995.668130,0.000000
20783.019562,4145.153275,-10362.883188,2911.162892
20783.019895,4663.297435,-12731.542202,-2068.457845
20783.020228,3552.988522,-10732.986159,-1532.190996
20783.020561,4071.132681,-13027.624579,-536.266849
20783.020894,4441.235652,-9326.594869,-919.314598
20783.021227,740.205942,-9548.656652,-2145.067394
20783.021560,1110.308913,-9474.636058,-2528.115143
20783.021894,0.000000,-10140.821405,2681.334243
20783.022227,2294.638420,-5995.668130,1225.752797
20783.022560,4145.153275,-7179.997637,5515.887586
20783.022893,5773.606348,-10066.800811,7890.783629
20783.023226,4071.132681,-5921.647536,2987.772442
20783.023559,2146.597232,-8290.306550,-76.609550
20783.023892,-370.102971,-10066.800811,-2528.115143
20783.024225,-4293.194464,-11399.171507,-5132.839837
20783.024558,-5847.626942,-11917.315666,-4903.011187
20783.024891,-3627.009116,-13915.871710,-4979.620737
20783.025224,-5329.482782,-12065.356855,-2451.505594
20783.025557,148.041188,-11843.295072,3600.648841
20783.025890,1110.308913,-6809.894666,5822.325785
20783.026223,0.000000,-4811.338623,5822.325785
20783.026556,-666.185348,-6809.894666,3524.039291
20783.026889,-3701.029710,-8438.347739,2451.505594
20783.027223,-3923.091493,-8364.327145,1532.190996
20783.027556,-3478.967927,-7105.977043,995.924147
20783.027889,-4367.215058,-7994.224174,-1915.238745
20783.028222,-6217.729913,-9844.739029,-76.609550
20783.028555,-8364.327145,-9474.636058,-4979.620737
20783.028888,-8290.306550,-6587.832884,-6128.763984
20783.029221,-6809.894666,-10288.862594,-2145.067394
20783.029554,-5329.482782,-9548.656652,-1225.752797
20783.029887,-666.185348,-8068.244768,2068.457845
20783.030220,1406.391290,-7846.182985,4519.963438
20783.030553,3256.906145,-8734.430116,5592.497135
20783.030886,2960.823768,-7772.162391,4903.011187
20783.031219,8734.430116,-7698.141797,4213.525239
20783.031552,1850.514855,-7179.997637,1225.752797
20783.031885,0.000000,-7179.997637,-3064.381992
20783.032218,-74.020594,-13619.789333,-4979.620737
20783.032551,-2368.659014,-10732.986159,-3677.258390
20783.032885,2294.638420,-10140.821405,-2528.115143
20783.033218,3775.050304,-9326.594869,76.609550
20783.033551,5995.668130,-7698.141797,995.924147
20783.033884,3552.988522,-5995.668130,1838.629195
20783.034217,7105.977043,-7254.018232,2604.724693
20783.034550,6143.709319,-7846.182985,1225.752797
20783.034883,5625.565159,-11843.295072,1149.143247
20783.035216,6439.791695,-10510.924376,1762.019645
20783.035549,5699.585753,-9548.656652,1838.629195
20783.035882,7698.141797,-10066.800811,4213.525239
20783.036215,5847.626942,-8586.388927,-2298.286494
20783.036548,4737.318029,-7772.162391,-1072.533697
20783.036881,5329.482782,-11991.336260,-76.609550
20783.037214,296.082377,-9696.697840,-2451.505594
20783.037547,-740.205942,-12583.501014,-2068.457845
20783.037880,592.164754,-10288.862594,383.047749
20783.038213,4219.173869,-7179.997637,2681.334243
20783.038547,4367.215058,-5995.668130,3983.696590
20783.038880,5847.626942,-8882.471304,4213.525239
20783.039213,148.041188,-5403.503377,0.000000
20783.039546,-4737.318029,-10140.821405,-919.314598
20783.039879,-4811.338623,-10658.965565,-2528.115143
20783.040212,-6957.935855,-10510.924376,-3753.867940
20783.040545,-6291.750507,-12065.356855,-1302.362347
20783.040878,-3923.091493,-9030.512492,0.000000
20783.041211,-5329.482782,-9104.533087,1838.629195
20783.041544,-2960.823768,-4811.338623,2451.505594
20783.041877,-1850.514855,-8290.306550,1149.143247
20783.042210,-5995.668130,-8364.327145,0.000000
20783.042543,-8142.265362,-8364.327145,0.000000
20783.042876,-6217.729913,-9622.677246,76.609550
20783.043209,-3108.864956,-8660.409521,2374.896044
20783.043542,-2294.638420,-7254.018232,1685.410096
20783.043876,-1998.556043,-7994.224174,689.485948
20783.044209,-2442.679609,-9474.636058,-689.485948
20783.044542,-5921.647536,-8660.409521,-2221.676944
20783.044875,-4811.338623,-13027.624579,-3753.867940
20783.045208,-5181.441594,-7772.162391,-3064.381992
20783.045541,-2886.803174,-10658.965565,306.438199
20783.045874,4663.297435,-9474.636058,4826.401637
20783.046207,3034.844362,-8290.306550,5209.449386
20783.046540,6143.709319,-6513.812290,5286.058936
20783.046873,3849.070898,-7772.162391,4213.525239
20783.047206,1184.329507,-6291.750507,0.000000
20783.047539,3478.967927,-11251.130318,-76.609550
20783.047872,-1776.494261,-9548.656652,-1838.629195
20783.048205,3552.988522,-11029.068536,1455.581446
20783.048538,-74.020594,-10066.800811,-3983.696590
20783.048871,4071.132681,-10362.883188,-842.705048
20783.049204,1110.308913,-9178.553681,-2604.724693
20783.049538,2664.741391,-9918.759623,-1608.800546
20783.049871,3775.050304,-7550.100608,76.609550
20783.050204,2960.823768,-6587.832884,1838.629195
20783.050537,7920.203579,-7698.141797,3447.429741
20783.050870,6809.894666,-10584.944971,4826.401637
20783.051203,9548.656652,-7994.224174,4366.744339
20783.051536,6513.812290,-9400.615463,3983.696590
20783.051869,5551.544565,-7402.059420,-995.924147
20783.052202,740.205942,-12139.377449,-2528.115143
20783.052535,-1258.350101,-11843.295072,-7124.688131
20783.052868,-3552.988522,-11325.150913,-3294.210641
20783.053201,-1184.329507,-11917.315666,0.000000
20783.053534,-74.020594,-9178.553681,0.000000
20783.053867,148.041188,-8734.430116,3753.867940
20783.054200,2368.659014,-5403.503377,4136.915689
20783.054533,3182.885551,-5403.503377,4060.306139
20783.054866,2368.659014,-7179.997637,2451.505594
20783.055200,3182.885551,-9474.636058,1762.019645
20783.055533,-2368.659014,-7772.162391,-1838.629195
20783.055866,-2368.659014,-12509.480420,-76.609550
20783.056199,-2442.679609,-11843.295072,-2528.115143
20783.056532,-5921.647536,-11325.150913,-2145.067394
20783.056865,-4663.297435,-8142.265362,-3370.820191
20783.057198,-6587.832884,-10140.821405,-3140.991542
20783.057531,-7698.141797,-9400.615463,-2298.286494
20783.057864,-3552.988522,-9474.636058,3907.087040
20783.058197,-74.020594,-8290.306550,4826.401637
20783.058530,0.000000,-6587.832884,9039.926876
20783.058863,-74.020594,-9474.636058,7277.907231
20783.059196,-1480.411884,-4959.379811,2451.505594
20783.059529,-2960.823768,-7550.100608,1149.143247
20783.059862,-5033.400406,-9030.512492,-3677.258390
20783.060195,-6217.729913,-10732.986159,-5439.278036
20783.060529,-6661.853478,-11029.068536,-3983.696590
20783.060862,-4219.173869,-11251.130318,-2528.115143
20783.061195,-3552.988522,-9548.656652,-2451.505594
20783.061528,-1776.494261,-9844.739029,3217.601092
20783.061861,3478.967927,-7550.100608,2374.896044
20783.062194,3404.947333,-2442.679609,2451.505594
20783.062527,5403.503377,-8290.306550,4826.401637
20783.062860,1554.432478,-9548.656652,2757.943793
20783.063193,3849.070898,-7772.162391,2374.896044
20783.063526,4663.297435,-8882.471304,1608.800546
20783.063859,5847.626942,-10362.883188,1149.143247
20783.064192,3701.029710,-8068.244768,-1991.848295
20783.064525,2368.659014,-10362.883188,-3524.039291
20783.064858,3775.050304,-8438.347739,-3907.087040
20783.065191,1776.494261,-10732.986159,-3370.820191
20783.065524,1184.329507,-11917.315666,-1685.410096
20783.065857,4663.297435,-11843.295072,-1608.800546
20783.066191,4737.318029,-9622.677246,1608.800546
20783.066524,7105.977043,-7920.203579,6741.640382
20783.066857,9474.636058,-6735.874072,6741.640382
20783.067190,11251.130318,-5181.441594,7277.907231
20783.067523,8068.244768,-7328.038826,4519.963438
20783.067856,4811.338623,-8142.265362,383.047749
20783.068189,-74.020594,-13027.624579,-2528.115143
20783.068522,-4071.132681,-11325.150913,-5286.058936
20783.068855,-1258.350101,-9548.656652,-6741.640382
20783.069188,-2072.576638,-12213.398043,-1608.800546
20783.069521,1924.535449,-9104.533087,1149.143247
20783.069854,-370.102971,-9474.636058,842.705048
20783.070187,2072.576638,-7698.141797,3294.210641
20783.070521,-1332.370696,-8956.491898,4060.306139
20783.070854,-1776.494261,-7402.059420,2451.505594
20783.071187,-666.185348,-9400.615463,3907.087040
20783.071520,-2368.659014,-9104.533087,4519.963438
20783.071854,0.000000,-5995.668130,0.000000
20783.072187,-4737.318029,-8956.491898,1608.800546
20783.072520,-3330.926739,-7550.100608,-2528.115143
20783.072853,-8660.409521,-9622.677246,-6588.421283
20783.073187,-8512.368333,-12065.356855,-6128.763984
20783.073520,-9178.553681,-12361.439231,-842.705048
20783.073853,-5181.441594,-10362.883188,995.924147
20783.074186,1036.288319,-6883.915261,6511.811733
20783.074520,-74.020594,-5921.647536,6971.469032
20783.074853,2368.659014,-5329.482782,6665.030833
20783.075186,-1850.514855,-9474.636058,2374.896044
20783.075519,-5625.565159,-6883.915261,-1838.629195
20783.075852,-3775.050304,-11843.295072,-842.705048
20783.076186,-7105.977043,-9548.656652,-3677.258390
20783.076519,-3330.926739,-9548.656652,-2987.772442
20783.076852,-4367.215058,-10066.800811,-1608.800546
20783.077185,444.123565,-8586.388927,536.266849
20783.077519,-2368.659014,-7179.997637,0.000000
20783.077852,4367.215058,-9474.636058,-76.609550
20783.078185,1110.308913,-8660.409521,1532.190996
20783.078518,0.000000,-7179.997637,3677.258390
20783.078852,6513.812290,-10658.965565,5822.325785
20783.079185,5625.565159,-8364.327145,4903.011187
20783.079518,6513.812290,-8882.471304,3447.429741
20783.079851,3849.070898,-8882.471304,0.000000
20783.080185,1258.350101,-9622.677246,-4060.306139
20783.080518,-2368.659014,-9548.656652,-5822.325785
20783.080851,-74.020594,-10362.883188,-3447.429741
20783.081184,222.061783,-9548.656652,-2145.067394
20783.081518,2812.782580,-9992.780217,383.047749
20783.081851,7031.956449,-9178.553681,3600.648841
20783.082184,6883.915261,-7920.203579,4903.011187
20783.082517,7772.162391,-6217.729913,7277.907231
20783.082850,8216.285956,-8142.265362,0.000000
20783.083184,4737.318029,-9548.656652,1532.190996
20783.083517,3404.947333,-12953.603985,1149.143247
20783.083850,2294.638420,-10214.842000,-2374.896044
20783.084183,1110.308913,-12805.562797,-1991.848295
20783.084517,1850.514855,-10807.006753,-1762.019645
20783.084850,0.000000,-7476.080014,-1378.971896
20783.085183,-666.185348,-5403.503377,-4290.134789
20783.085516,1110.308913,-11251.130318,-1302.362347
20783.085850,0.000000,-9474.636058,-76.609550
20783.086183,740.205942,-8364.327145,4903.011187
20783.086516,814.226536,-9474.636058,4213.525239
20783.086849,1332.370696,-8660.409521,3064.381992
20783.087183,592.164754,-10214.842000,3677.258390
20783.087516,518.144159,-7254.018232,1915.238745
20783.087849,-1628.453072,-7772.162391,-306.438199
20783.088182,-7476.080014,-10140.821405,-4903.011187
20783.088516,-5551.544565,-13027.624579,-4366.744339
20783.088849,-7772.162391,-10658.965565,-3677.258390
20783.089182,-4811.338623,-8068.244768,-2451.505594
20783.089515,-5921.647536,-8364.327145,306.438199
20783.089849,-3701.029710,-8438.347739,1608.800546
20783.090182,-3701.029710,-6291.750507,2681.334243
20783.090515,-4071.132681,-6143.709319,2834.553343
20783.090848,-1850.514855,-7105.977043,1149.143247
20783.091181,-1776.494261,-9548.656652,4826.401637
20783.091515,-74.020594,-8290.306550,1149.143247
20783.091848,-2960.823768,-9548.656652,2451.505594
20783.092181,-74.020594,-10362.883188,-689.485948
20783.092514,-1258.350101,-10658.965565,-3753.867940
20783.092848,-1480.411884,-8882.471304,-2681.334243
20783.093181,-2590.720797,-9992.780217,-3907.087040
20783.093514,-4145.153275,-9252.574275,-3217.601092
20783.093847,-1776.494261,-8956.491898,0.000000
20783.094181,5551.544565,-9474.636058,2834.553343
20783.094514,7105.977043,-7179.997637,8733.488677
20783.094847,5329.482782,-8956.491898,8503.660028
20783.095180,8216.285956,-5625.565159,2451.505594
20783.095514,3478.967927,-5921.647536,-1455.581446
20783.095847,4145.153275,-8438.347739,-1225.752797
20783.096180,1480.411884,-10066.800811,-2681.334243
20783.096513,2442.679609,-11843.295072,-4060.306139
20783.096847,1776.494261,-13249.686362,-2451.505594
20783.097180,6291.750507,-10732.986159,-2298.286494
20783.097513,5403.503377,-11177.109724,-76.609550
20783.097846,6513.812290,-7920.203579,1532.190996
20783.098179,6587.832884,-8068.244768,1762.019645
20783.098513,5329.482782,-8364.327145,4903.011187
20783.098846,5847.626942,-8734.430116,2528.115143
20783.099179,592.164754,-9548.656652,5515.887586
20783.099512,6143.709319,-9178.553681,3294.210641
20783.099846,4663.297435,-10658.965565,2374.896044
20783.100179,1184.329507,-7772.162391,0.000000
20783.100512,-666.185348,-8290.306550,-3753.867940
20783.100845,-4071.132681,-10732.986159,-5515.887586
20783.101179,-4811.338623,-10807.006753,-5439.278036
20783.101512,-4811.338623,-13027.624579,-2834.553343
20783.101845,-4811.338623,-8364.327145,-3064.381992
20783.102178,-2368.659014,-11029.068536,2451.505594
20783.102512,740.205942,-8586.388927,6358.592633
20783.102845,2294.638420,-5551.544565,5592.497135
20783.103178,1628.453072,-7105.977043,6052.154434
20783.103511,888.247130,-7179.997637,2834.553343
20783.103845,-4663.297435,-10955.047942,-919.314598
20783.104178,-6661.853478,-11917.315666,-3140.991542
20783.104511,-8142.265362,-8364.327145,-4903.011187
20783.104844,-8290.306550,-9548.656652,-2451.505594
20783.105177,-2738.761985,-8882.471304,-1915.238745
20783.105511,-5107.421000,-7105.977043,-2528.115143
20783.105844,-5329.482782,-6587.832884,-919.314598
20783.106177,-4219.173869,-8586.388927,-612.876398
20783.106510,-2516.700203,-8290.306550,0.000000
20783.106844,-1924.535449,-9474.636058,3447.429741
20783.107177,-444.123565,-8808.450710,4060.306139
20783.107510,1184.329507,-7624.121203,4903.011187
20783.107843,1036.288319,-9178.553681,4519.963438
20783.108177,3478.967927,-4737.318029,-2451.505594
20783.108510,-3256.906145,-10140.821405,-2298.286494
20783.108843,-1628.453072,-11843.295072,-2528.115143
20783.109176,-2442.679609,-10140.821405,-4903.011187
20783.109510,-370.102971,-10584.944971,-995.924147
20783.109843,4885.359217,-8882.471304,2374.896044
20783.110176,4663.297435,-8660.409521,4136.915689
20783.110509,6809.894666,-7402.059420,3983.696590
20783.110843,4367.215058,-7846.182985,1762.019645
20783.111176,5773.606348,-8068.244768,2068.457845
20783.111509,3701.029710,-8734.430116,1302.362347
20783.111842,4367.215058,-9474.636058,-76.609550
20783.112175,2368.659014,-8586.388927,-2528.115143
20783.112509,592.164754,-10288.862594,0.000000
20783.112842,4663.297435,-9474.636058,-1455.581446
20783.113175,3923.091493,-8586.388927,-2298.286494
20783.113508,3478.967927,-8290.306550,-2528.115143
20783.113842,1702.473667,-10658.965565,-3140.991542
20783.114175,2146.597232,-11251.130318,76.609550
20783.114508,3256.906145,-8882.471304,2987.772442
20783.114841,5625.565159,-8438.347739,4826.401637
20783.115175,7031.956449,-10658.965565,6052.154434
20783.115508,5921.647536,-8364.327145,7277.907231
20783.115841,3478.967927,-7105.977043,0.000000
20783.116174,592.164754,-8956.491898,-2451.505594
20783.116508,-3404.947333,-10510.924376,-5669.106685
20783.116841,-4959.379811,-11621.233289,-5209.449386
20783.117174,-3330.926739,-11029.068536,-3753.867940
20783.117507,-3552.988522,-12361.439231,-1608.800546
20783.117841,-740.205942,-10288.862594,1455.581446
20783.118174,-1184.329507,-5995.668130,4213.525239
20783.118507,2294.638420,-6513.812290,4826.401637
20783.118840,-1258.350101,-4885.359217,612.876398
20783.119174,-3256.906145,-9178.553681,3294.210641
20783.119507,-3034.844362,-9178.553681,2374.896044
20783.119840,-4737.318029,-8068.244768,1378.971896
20783.120173,-2368.659014,-8068.244768,306.438199
20783.120506,-5403.503377,-10658.965565,-1915.238745
20783.120840,-6587.832884,-8216.285956,-4366.744339
20783.121173,-9178.553681,-10288.862594,-6128.763984
20783.121506,-3923.091493,-10658.965565,-4979.620737
20783.121839,-5995.668130,-9474.636058,-1915.238745
20783.122173,-3552.988522,-7772.162391,3064.381992
20783.122506,4071.132681,-7105.977043,6052.154434
20783.122839,2664.741391,-8068.244768,8044.002729
20783.123172,4737.318029,-6291.750507,5592.497135
20783.123506,3552.988522,-6661.853478,3294.210641
20783.123839,2368.659014,-6809.894666,-306.438199
20783.124172,-74.020594,-12435.459826,-2528.115143
20783.124505,-2442.679609,-10658.965565,-8580.269578
20783.124839,-2072.576638,-12213.398043,-2834.553343
20783.125172,2368.659014,-12509.480420,1149.143247
20783.125505,4663.297435,-9474.636058,536.266849
20783.125838,1184.329507,-10066.800811,2221.676944
20783.126172,2960.823768,-4811.338623,612.876398
20783.126505,4663.297435,-6735.874072,3294.210641
20783.126838,5551.544565,-6143.709319,4213.525239
20783.127171,6439.791695,-9252.574275,5745.716235
20783.127504,4145.153275,-7624.121203,2451.505594
20783.127838,5773.606348,-10214.842000,1685.410096
20783.128171,5699.585753,-10732.986159,306.438199
20783.128504,3108.864956,-8956.491898,-2757.943793
20783.128837,2664.741391,-9326.594869,-2681.334243
20783.129171,2294.638420,-11843.295072,-5592.497135
20783.129504,-1184.329507,-10732.986159,-2451.505594
20783.129837,444.123565,-12731.542202,-76.609550
20783.130170,1850.514855,-11547.212695,2374.896044
20783.130504,5847.626942,-7402.059420,5515.887586
20783.130837,4663.297435,-7105.977043,6205.373534
20783.131170,4959.379811,-5773.606348,5362.668486
20783.131503,1480.411884,-5403.503377,2757.943793
20783.131837,0.000000,-8660.409521,2528.115143
20783.132170,-2442.679609,-9474.636058,-3677.258390
20783.132503,-5329.482782,-11917.315666,-4903.011187
20783.132836,-5921.647536,-10881.027347,-2528.115143
20783.133170,-5329.482782,-11621.233289,-3524.039291
20783.133503,-3034.844362,-9474.636058,-1455.581446
20783.133836,-4071.132681,-8586.388927,-1149.143247
20783.134169,-1110.308913,-8290.306550,1915.238745
20783.134502,-666.185348,-8586.388927,2374.896044
20783.134836,-1776.494261,-9474.636058,4826.401637
20783.135169,-2368.659014,-6587.832884,2451.505594
20783.135502,0.000000,-10140.821405,7277.907231
20783.135835,518.144159,-7105.977043,1608.800546
20783.136169,-814.226536,-8290.306550,1762.019645
20783.136502,-3627.009116,-8956.491898,-3983.696590
20783.136835,-5329.482782,-9548.656652,-4903.011187
20783.137168,-6291.750507,-11325.150913,-3907.087040
20783.137502,-8290.306550,-9696.697840,-3677.258390
20783.137835,-3627.009116,-11843.295072,-1302.362347
20783.138168,-2368.659014,-8364.327145,0.000000
20783.138501,2368.659014,-6883.915261,7277.907231
20783.138835,3182.885551,-3627.009116,3983.696590
20783.139168,2960.823768,-3775.050304,3677.258390
20783.139501,2368.659014,-7550.100608,2911.162892
20783.139834,814.226536,-11251.130318,536.266849
20783.140168,1406.391290,-9770.718434,-766.095498
20783.140501,-74.020594,-13323.706956,-229.828649
20783.140834,1998.556043,-7772.162391,-3677.258390
20783.141167,1702.473667,-12435.459826,-1608.800546
20783.141500,0.000000,-6587.832884,-4903.011187
20783.141834,0.000000,-9548.656652,-766.095498
20783.142167,1480.411884,-9548.656652,153.219100
20783.142500,3552.988522,-7476.080014,4136.915689
20783.142833,3923.091493,-6735.874072,3370.820191
20783.143167,5329.482782,-9104.533087,4213.525239
20783.143500,7476.080014,-9474.636058,6358.592633
20783.143833,6883.915261,-5995.668130,3064.381992
20783.144166,4959.379811,-7994.224174,153.219100
20783.144500,814.226536,-11177.109724,-3830.477490
20783.144833,-2738.761985,-13101.645173,-5975.544884
20783.145166,-2072.576638,-13915.871710,-2528.115143
20783.145499,-1258.350101,-9844.739029,-4596.572988
20783.145833,-1776.494261,-9548.656652,306.438199
20783.146166,3478.967927,-10362.883188,3600.648841
20783.146499,4663.297435,-3552.988522,2681.334243
20783.146832,4145.153275,-6883.915261,7507.735880
20783.147166,3775.050304,-6217.729913,3140.991542
20783.147499,2368.659014,-9696.697840,3217.601092
20783.147832,-814.226536,-9548.656652,-459.657299
20783.148165,2294.638420,-11843.295072,-689.485948
20783.148499,-1850.514855,-11547.212695,-3370.820191
20783.148832,-222.061783,-13619.789333,0.000000
20783.149165,-666.185348,-11843.295072,-76.609550
20783.149498,-4441.235652,-8068.244768,-3064.381992
20783.149831,-3923.091493,-10362.883188,-1302.362347
20783.150165,-6957.935855,-9844.739029,689.485948
20783.150498,-2368.659014,-6291.750507,3217.601092
20783.150831,-444.123565,-6957.935855,6894.859482
20783.151164,1406.391290,-4293.194464,3907.087040
20783.151498,-2664.741391,-4811.338623,2451.505594
20783.151831,-1332.370696,-7105.977043,-383.047749
20783.152164,-5403.503377,-9474.636058,-5592.497135
20783.152497,-7105.977043,-9548.656652,-5362.668486
20783.152831,-5403.503377,-12287.418637,-4903.011187
20783.153164,-4737.318029,-11177.109724,-1915.238745
20783.153497,444.123565,-10288.862594,1608.800546
20783.153830,-74.020594,-9770.718434,3294.210641
20783.154164,4145.153275,-5995.668130,4903.011187
20783.154497,2368.659014,-7624.121203,6052.154434
20783.154830,4071.132681,-7698.141797,2374.896044
20783.155163,-222.061783,-8660.409521,0.000000
20783.155497,296.082377,-7179.997637,2834.553343
20783.155830,4071.132681,-8734.430116,153.219100
20783.156163,4219.173869,-10362.883188,1378.971896
20783.156496,3330.926739,-9400.615463,-1149.143247
20783.156829,-666.185348,-10658.965565,-3677.258390
20783.157163,592.164754,-8956.491898,-4749.792088
20783.157496,-2146.597232,-12213.398043,-4213.525239
20783.157829,-444.123565,-10288.862594,-2681.334243
20783.158162,2886.803174,-7105.977043,689.485948
20783.158496,6069.688724,-9474.636058,4826.401637
20783.158829,7698.141797,-7105.977043,6052.154434
20783.159162,4737.318029,-8364.327145,6741.640382
20783.159495,10584.944971,-7105.977043,3600.648841
20783.159829,5255.462188,-7772.162391,0.000000
20783.160162,5255.462188,-10658.965565,-229.828649
20783.160495,814.226536,-14211.954086,-2528.115143
20783.160828,-1332.370696,-11917.315666,-4213.525239
20783.161162,888.247130,-12361.439231,-1072.533697
20783.161495,222.061783,-10584.944971,-612.876398
20783.161828,3478.967927,-8660.409521,1762.019645
20783.162161,0.000000,-6587.832884,2451.505594
20783.162495,3108.864956,-8290.306550,2374.896044
20783.162828,-444.123565,-5921.647536,1455.581446
20783.163161,-1702.473667,-6735.874072,2451.505594
20783.163494,1406.391290,-8734.430116,1838.629195
20783.163827,296.082377,-9474.636058,2987.772442
20783.164161,740.205942,-9030.512492,1608.800546
20783.164494,-3330.926739,-9474.636058,-1072.533697
20783.164827,-3034.844362,-8882.471304,-4060.306139
20783.165160,-4811.338623,-12435.459826,-2528.115143
20783.165494,-3627.009116,-11843.295072,-4060.306139
20783.165827,-7105.977043,-10288.862594,-1838.629195
20783.166160,-2960.823768,-11991.336260,1532.190996
20783.166493,-1184.329507,-7328.038826,3983.696590
20783.166827,-1036.288319,-7179.997637,3677.258390
20783.167160,148.041188,-5107.421000,2911.162892
20783.167493,0.000000,-7254.018232,2757.943793
20783.167826,0.000000,-5995.668130,612.876398
20783.168160,-666.185348,-11843.295072,-76.609550
20783.168493,-5625.565159,-9548.656652,-4903.011187
20783.168826,-4737.318029,-11917.315666,-689.485948
20783.169159,-3034.844362,-11843.295072,-1915.238745
20783.169493,-2368.659014,-8512.368333,-995.924147
20783.169826,-4737.318029,-7476.080014,-1991.848295
20783.170159,-1258.350101,-6439.791695,-1608.800546
20783.170492,-1702.473667,-8586.388927,1532.190996
20783.170825,2368.659014,-9992.780217,4826.401637
20783.171159,5847.626942,-5921.647536,2451.505594
20783.171492,5329.482782,-10362.883188,7277.907231
20783.171825,5847.626942,-8290.306550,1149.143247
20783.172158,2294.638420,-7772.162391,-76.609550
20783.172491,2516.700203,-9918.759623,-2374.896044
20783.172825,3478.967927,-13619.789333,-3753.867940
20783.173158,-74.020594,-13027.624579,-4060.306139
20783.173491,-814.226536,-11695.253884,-2757.943793
20783.173824,-888.247130,-10214.842000,-76.609550
20783.174157,4071.132681,-7772.162391,1378.971896
20783.174491,4811.338623,-8364.327145,6128.763984
20783.174824,7772.162391,-3552.988522,4903.011187
20783.175157,4959.379811,-5107.421000,2145.067394
20783.175490,3552.988522,-8660.409521,2451.505594
20783.175823,4071.132681,-11547.212695,1149.143247
20783.176157,1110.308913,-10362.883188,-2451.505594
20783.176490,296.082377,-11325.150913,-2451.505594
20783.176823,-74.020594,-13619.789333,-1915.238745
20783.177156,-888.247130,-9622.677246,-3064.381992
20783.177489,518.144159,-8808.450710,-2451.505594
20783.177823,-592.164754,-8660.409521,-1915.238745
20783.178156,592.164754,-9548.656652,919.314598
20783.178489,0.000000,-8364.327145,5515.887586
20783.178822,4663.297435,-8290.306550,3600.648841
20783.179156,3923.091493,-7179.997637,2757.943793
20783.179489,3552.988522,-8512.368333,5056.230287
20783.179822,2960.823768,-7179.997637,2528.115143
20783.180155,74.020594,-6809.894666,459.657299
20783.180488,-3775.050304,-11325.150913,-4290.134789
20783.180822,-7772.162391,-12139.377449,-4979.620737
20783.181155,-6587.832884,-12731.542202,-3140.991542
20783.181488,-7105.977043,-9696.697840,-689.485948
20783.181821,-5403.503377,-8142.265362,-2757.943793
20783.182154,-3552.988522,-7772.162391,2374.896044
20783.182488,-296.082377,-8290.306550,5745.716235
20783.182821,-74.020594,-5329.482782,3677.258390
20783.183154,-1850.514855,-8586.388927,1455.581446
20783.183487,-1850.514855,-8956.491898,1608.800546
20783.183820,-1628.453072,-8364.327145,1685.410096
20783.184154,-666.185348,-8142.265362,76.609550
20783.184487,2220.617826,-11843.295072,1149.143247
20783.184820,-2368.659014,-7772.162391,-3677.258390
20783.185153,-1776.494261,-7772.162391,-1072.533697
20783.185486,-74.020594,-10362.883188,-3140.991542
20783.185820,-4663.297435,-10955.047942,-4673.182538
20783.186153,-1332.370696,-9770.718434,-1072.533697
20783.186486,1110.308913,-8882.471304,2298.286494
20783.186819,5255.462188,-7105.977043,5439.278036
20783.187152,4145.153275,-6291.750507,4903.011187
20783.187486,6439.791695,-6809.894666,2068.457845
20783.187819,2960.823768,-6291.750507,1915.238745
20783.188152,4663.297435,-10658.965565,-76.609550
20783.188485,518.144159,-8068.244768,-4903.011187
20783.188818,0.000000,-8290.306550,-6128.763984
20783.189152,0.000000,-13397.727550,-3983.696590
20783.189485,2590.720797,-11103.089130,-2221.676944
20783.189818,1850.514855,-13545.768739,-383.047749
20783.190151,4737.318029,-6587.832884,1225.752797
20783.190484,6439.791695,-9400.615463,2528.115143
20783.190818,5625.565159,-7624.121203,4060.306139
20783.191151,4959.379811,-8882.471304,4903.011187
20783.191484,3627.009116,-9548.656652,4903.011187
20783.191817,5033.400406,-7179.997637,4903.011187
20783.192151,4663.297435,-9474.636058,2987.772442
20783.192484,0.000000,-8364.327145,1532.190996
20783.192817,-1258.350101,-8290.306550,-6205.373534
20783.193150,-3627.009116,-11843.295072,-5286.058936
20783.193483,-5773.606348,-10140.821405,-5515.887586
20783.193817,-5107.421000,-11029.068536,-3983.696590
20783.194150,-3775.050304,-10362.883188,-1532.190996
20783.194483,-1258.350101,-10066.800811,2681.334243
20783.194816,2886.803174,-8882.471304,7277.907231
20783.195149,4071.132681,-4885.359217,4979.620737
20783.195483,2368.659014,-5699.585753,4903.011187
20783.195816,2294.638420,-9474.636058,2068.457845
20783.196149,-4145.153275,-8956.491898,0.000000
20783.196482,-3552.988522,-12583.501014,-76.609550
20783.196815,-4367.215058,-11325.150913,-2681.334243
20783.197149,-2886.803174,-10881.027347,-2298.286494
20783.197482,-3034.844362,-10584.944971,-2528.115143
20783.197815,-3627.009116,-9474.636058,-1608.800546
20783.198148,-2442.679609,-6365.771101,-5515.887586
20783.198481,-3552.988522,-8364.327145,919.314598
20783.198815,-2368.659014,-8364.327145,6052.154434
20783.199148,1110.308913,-6809.894666,3677.258390
20783.199481,1628.453072,-9474.636058,4826.401637
20783.199814,1332.370696,-6439.791695,2604.724693
20783.200147,444.123565,-9030.512492,1685.410096
20783.200481,814.226536,-7254.018232,-1378.971896
20783.200814,-3552.988522,-7772.162391,-5209.449386
20783.201147,-6513.812290,-11325.150913,-6741.640382
20783.201480,-3997.112087,-12879.583391,-3294.210641
20783.201813,-2442.679609,-10066.800811,-2834.553343
20783.202147,2590.720797,-8068.244768,1225.752797
20783.202480,6143.709319,-9474.636058,4826.401637
20783.202813,5181.441594,-7254.018232,5669.106685
20783.203146,3775.050304,-5699.585753,2451.505594
20783.203479,3552.988522,-8512.368333,1991.848295
20783.203813,2960.823768,-7772.162391,919.314598
20783.204146,2368.659014,-10140.821405,1225.752797
20783.204479,1702.473667,-10658.965565,-1455.581446
20783.204812,0.000000,-11251.130318,-2834.553343
20783.205146,962.267725,-12435.459826,-76.609550
20783.205479,3478.967927,-8882.471304,-1302.362347
20783.205812,1702.473667,-5995.668130,-3370.820191
20783.206145,1184.329507,-8956.491898,-2451.505594
20783.206478,296.082377,-10436.903782,2068.457845
20783.206812,2812.782580,-9400.615463,3217.601092
20783.207145,4145.153275,-8660.409521,3447.429741
20783.207478,5625.565159,-9400.615463,4673.182538
20783.207811,4737.318029,-8512.368333,3447.429741
20783.208144,2960.823768,-7105.977043,-383.047749
20783.208478,0.000000,-9548.656652,-2451.505594
20783.208811,-4737.318029,-9548.656652,-4596.572988
20783.209144,-962.267725,-13915.871710,-2528.115143
20783.209477,-1258.350101,-11843.295072,-1302.362347
20783.209810,-2442.679609,-9918.759623,-383.047749
20783.210144,-74.020594,-8882.471304,1149.143247
20783.210477,2220.617826,-7994.224174,4826.401637
20783.210810,2368.659014,-4515.256246,4290.134789
20783.211143,2442.679609,-6957.935855,2374.896044
20783.211476,-74.020594,-13027.624579,1762.019645
20783.211810,-2368.659014,-11029.068536,0.000000
20783.212143,-74.020594,-11843.295072,-76.609550
20783.212476,-1776.494261,-8956.491898,306.438199
20783.212809,-2368.659014,-7772.162391,0.000000
20783.213142,-3627.009116,-7920.203579,-2911.162892
20783.213476,-2738.761985,-7179.997637,-3140.991542
20783.213809,-4959.379811,-10362.883188,-2604.724693
20783.214142,-4219.173869,-9474.636058,-1762.019645
20783.214475,-4367.215058,-7476.080014,0.000000
20783.214808,148.041188,-8734.430116,4213.525239
20783.215142,2886.803174,-9474.636058,3600.648841
20783.215475,1184.329507,-6587.832884,6128.763984
20783.215808,7031.956449,-7105.977043,4826.401637
20783.216141,0.000000,-7772.162391,612.876398
20783.216474,-592.164754,-10881.027347,-2757.943793
20783.216808,-4515.256246,-12953.603985,-4749.792088
20783.217141,-3182.885551,-12509.480420,-3753.867940
20783.217474,-2368.659014,-10140.821405,-1225.752797
20783.217807,2294.638420,-11251.130318,-76.609550
20783.218141,0.000000,-6587.832884,1532.190996
20783.218474,0.000000,-5995.668130,3677.258390
20783.218807,4663.297435,-7105.977043,2987.772442
20783.219140,740.205942,-7772.162391,3677.258390
20783.219473,1702.473667,-8660.409521,2451.505594
20783.219807,1258.350101,-8882.471304,1915.238745
20783.220140,1406.391290,-9696.697840,306.438199
20783.220473,2368.659014,-8364.327145,0.000000
20783.220806,2590.720797,-10140.821405,-306.438199
20783.221139,1628.453072,-8586.388927,-2681.334243
20783.221473,-2738.761985,-12583.501014,-4366.744339
20783.221806,-1258.350101,-10955.047942,-4519.963438
20783.222139,-1184.329507,-10732.986159,0.000000
20783.222472,3552.988522,-8512.368333,4903.011187
20783.222805,8216.285956,-8882.471304,6052.154434
20783.223139,2368.659014,-6587.832884,5056.230287
20783.223472,6439.791695,-8586.388927,5439.278036
20783.223805,2072.576638,-6809.894666,1302.362347
20783.224138,2294.638420,-8438.347739,0.000000
20783.224471,-592.164754,-10584.944971,-2298.286494
20783.224805,-2368.659014,-9548.656652,-4596.572988
20783.225138,-2442.679609,-9548.656652,-4290.134789
20783.225471,2294.638420,-11843.295072,-689.485948
20783.225804,0.000000,-10658.965565,-689.485948
20783.226137,-1480.411884,-6587.832884,0.000000
20783.226471,0.000000,-8290.306550,-76.609550
20783.226804,0.000000,-8142.265362,2604.724693
20783.227137,814.226536,-8364.327145,3677.258390
20783.227470,1850.514855,-8290.306550,4213.525239
20783.227803,4885.359217,-8438.347739,5822.325785
20783.228137,1332.370696,-7772.162391,4903.011187
20783.228470,2294.638420,-8290.306550,-2221.676944
20783.228803,-5921.647536,-8956.491898,-4136.915689
20783.229136,-4145.153275,-11695.253884,-3753.867940
20783.229469,-5625.565159,-10436.903782,-5822.325785
20783.229803,-5181.441594,-11843.295072,-2068.457845
20783.230136,-4441.235652,-9252.574275,-842.705048
20783.230469,-1258.350101,-9992.780217,2757.943793
20783.230802,4071.132681,-7698.141797,7277.907231
20783.231136,2368.659014,-4663.297435,8503.660028
20783.231469,2886.803174,-6513.812290,2221.676944
20783.231802,0.000000,-7179.997637,3064.381992
20783.232135,-1258.350101,-11843.295072,-689.485948
20783.232468,-74.020594,-10066.800811,-995.924147
20783.232802,-2072.576638,-11917.315666,-2451.505594
20783.233135,814.226536,-11177.109724,-1608.800546
20783.233468,-666.185348,-10807.006753,-1608.800546
20783.233801,-3256.906145,-7476.080014,-2911.162892
20783.234134,-74.020594,-9474.636058,-1915.238745
20783.234468,-2960.823768,-7772.162391,306.438199
20783.234801,0.000000,-7179.997637,4290.134789
20783.235134,1702.473667,-8290.306550,2221.676944
20783.235467,3478.967927,-7698.141797,3600.648841
20783.235800,3478.967927,-7476.080014,3677.258390
20783.236134,4885.359217,-7105.977043,2911.162892
20783.236467,5255.462188,-6513.812290,459.657299
20783.236800,-1776.494261,-9548.656652,-4290.134789
20783.237133,-1258.350101,-13027.624579,-5286.058936
20783.237466,-3849.070898,-13841.851115,-4290.134789
20783.237800,666.185348,-11177.109724,-1991.848295
20783.238133,3034.844362,-10584.944971,2221.676944
20783.238466,4071.132681,-6735.874072,2757.943793
20783.238799,6069.688724,-7698.141797,6665.030833
20783.239132,4663.297435,-5921.647536,1302.362347
20783.239466,3552.988522,-9030.512492,4060.306139
20783.239799,3701.029710,-10362.883188,4060.306139
20783.240132,1110.308913,-8068.244768,612.876398
20783.240465,592.164754,-9918.759623,-229.828649
20783.240798,0.000000,-10510.924376,-1149.143247
20783.241132,-740.205942,-10288.862594,-2068.457845
20783.241465,0.000000,-7179.997637,-1838.629195
20783.241798,-74.020594,-9474.636058,-2834.553343
20783.242131,-3552.988522,-9474.636058,-3140.991542
20783.242464,-2960.823768,-9548.656652,612.876398
20783.242798,1776.494261,-8882.471304,3600.648841
20783.243131,2664.741391,-7476.080014,5592.497135
20783.243464,3034.844362,-7846.182985,4826.401637
20783.243797,3182.885551,-8068.244768,2911.162892
20783.244131,592.164754,-7179.997637,1149.143247
20783.244464,1110.308913,-11103.089130,-76.609550
20783.244797,-1258.350101,-11843.295072,-4366.744339
20783.245130,-5625.565159,-11917.315666,-1225.752797
20783.245463,-4737.318029,-10732.986159,689.485948
20783.245797,-1850.514855,-10066.800811,-1302.362347
20783.246130,-2072.576638,-10288.862594,1762.019645
20783.246463,-1480.411884,-7328.038826,2374.896044
20783.246796,962.267725,-4145.153275,2604.724693
20783.247129,-444.123565,-7179.997637,1455.581446
20783.247463,-1258.350101,-9474.636058,1149.143247
20783.247796,-1480.411884,-7772.162391,0.000000
20783.248129,0.000000,-11177.109724,4060.306139
20783.248462,1998.556043,-7920.203579,0.000000
20783.248795,-2368.659014,-9548.656652,-3677.258390
20783.249129,-296.082377,-10658.965565,-2528.115143
20783.249462,-1850.514855,-10066.800811,-4519.963438
20783.249795,-2072.576638,-11177.109724,-2451.505594
20783.250128,-2590.720797,-10584.944971,-383.047749
20783.250461,-370.102971,-9178.553681,1762.019645
20783.250795,1850.514855,-7179.997637,4290.134789
20783.251128,4219.173869,-7402.059420,6128.763984
20783.251461,5033.400406,-6217.729913,6128.763984
20783.251794,4737.318029,-4811.338623,4903.011187
20783.252127,2368.659014,-8068.244768,2911.162892
20783.252461,-74.020594,-9474.636058,-3524.039291
20783.252794,-3552.988522,-13101.645173,-4903.011187
20783.253127,-740.205942,-13619.789333,-3753.867940
20783.253460,-1480.411884,-11325.150913,-3370.820191
20783.253793,0.000000,-10436.903782,-306.438199
20783.254127,888.247130,-8068.244768,76.609550
20783.254460,2442.679609,-6809.894666,766.095498
20783.254793,4663.297435,-8290.306550,4519.963438
20783.255126,2368.659014,-7476.080014,5132.839837
20783.255459,3182.885551,-7550.100608,919.314598
20783.255793,2664.741391,-9548.656652,4519.963438
20783.256126,3478.967927,-11251.130318,1762.019645
20783.256459,4663.297435,-9474.636058,2374.896044
20783.256792,1850.514855,-10510.924376,-995.924147
20783.257125,370.102971,-9622.677246,-4213.525239
20783.257459,-2368.659014,-11621.233289,-4213.525239
20783.257792,-3552.988522,-13027.624579,-3753.867940
20783.258125,-2960.823768,-12657.521608,-76.609550
20783.258458,-2368.659014,-7179.997637,0.000000
20783.258792,4145.153275,-6291.750507,8197.221829
20783.259125,4663.297435,-4959.379811,5209.449386
20783.259458,1702.473667,-4367.215058,2911.162892
20783.259791,1702.473667,-7550.100608,1149.143247
20783.260124,-1332.370696,-10288.862594,-1762.019645
20783.260458,-2294.638420,-11843.295072,-1149.143247
20783.260791,-5625.565159,-11843.295072,-3140.991542
20783.261124,-3627.009116,-13619.789333,-3753.867940
20783.261457,-5625.565159,-9844.739029,-1685.410096
20783.261790,-296.082377,-10436.903782,1455.581446
20783.262124,-74.020594,-5181.441594,229.828649
20783.262457,0.000000,-7179.997637,3064.381992
20783.262790,-444.123565,-8660.409521,2451.505594
20783.263123,148.041188,-9178.553681,3600.648841
20783.263456,2220.617826,-8364.327145,3140.991542
20783.263790,4663.297435,-8586.388927,5515.887586
20783.264123,2220.617826,-7476.080014,306.438199
20783.264456,592.164754,-9844.739029,2068.457845
20783.264789,-2442.679609,-8882.471304,-5592.497135
20783.265122,-3034.844362,-10658.965565,-8044.002729
20783.265456,-5921.647536,-11325.150913,-3370.820191
20783.265789,-4219.173869,-11103.089130,-3064.381992
20783.266122,-3256.906145,-9252.574275,0.000000
20783.266455,1184.329507,-7105.977043,2451.505594
20783.266788,4885.359217,-5403.503377,6435.202183
20783.267122,5699.585753,-3034.844362,4903.011187
20783.267455,4515.256246,-6809.894666,2528.115143
20783.267788,962.267725,-9548.656652,306.438199
20783.268121,-518.144159,-11843.295072,-1149.143247
20783.268454,2886.803174,-12435.459826,-76.609550
20783.268788,1406.391290,-11843.295072,-1762.019645
20783.269121,1776.494261,-10584.944971,0.000000
20783.269454,1998.556043,-12731.542202,-383.047749
20783.269787,148.041188,-7328.038826,-3370.820191
20783.270120,0.000000,-7476.080014,-1685.410096
20783.270454,-592.164754,-9326.594869,-612.876398
20783.270787,1036.288319,-8512.368333,2298.286494
20783.271120,1998.556043,-8586.388927,3907.087040
20783.271453,3997.112087,-7698.141797,3294.210641
20783.271787,4663.297435,-5773.606348,1225.752797
20783.272120,3552.988522,-9104.533087,4060.306139
20783.272453,3478.967927,-11251.130318,-76.609550
20783.272786,-2442.679609,-12139.377449,-5822.325785
20783.273119,-3330.926739,-13619.789333,-3753.867940
20783.273452,-4737.318029,-13471.748144,-2374.896044
20783.273785,-962.267725,-9918.759623,-459.657299
20783.274119,-518.144159,-9474.636058,1838.629195
20783.274452,592.164754,-6587.832884,2451.505594
20783.274785,3330.926739,-3034.844362,1225.752797
20783.275118,4663.297435,-8290.306550,4519.963438
20783.275451,1110.308913,-6883.915261,306.438199
20783.275784,222.061783,-10658.965565,1149.143247
20783.276117,-2368.659014,-10732.986159,-2451.505594
20783.276450,2664.741391,-12361.439231,2374.896044
20783.276783,-74.020594,-11547.212695,-689.485948
20783.277116,0.000000,-9992.780217,-995.924147
20783.277449,-370.102971,-9474.636058,-689.485948
20783.277782,-2368.659014,-9104.533087,-459.657299
20783.278116,-2442.679609,-10658.965565,-1302.362347
20783.278449,-3701.029710,-8364.327145,0.000000
20783.278782,1554.432478,-9178.553681,4519.963438
20783.279115,2886.803174,-7698.141797,4826.401637
20783.279448,3330.926739,-7402.059420,4673.182538
20783.279781,3330.926739,-5921.647536,3524.039291
20783.280114,814.226536,-7179.997637,612.876398
20783.280447,-1480.411884,-7179.997637,-3677.258390
20783.280780,-1850.514855,-14211.954086,-3753.867940
20783.281113,-4737.318029,-10732.986159,-4213.525239
20783.281446,-4737.318029,-11917.315666,-612.876398
20783.281779,-74.020594,-10955.047942,-1608.800546
20783.282113,-74.020594,-8660.409521,1149.143247
20783.282446,2294.638420,-5773.606348,1991.848295
20783.282779,3552.988522,-4959.379811,2604.724693
20783.283112,1554.432478,-8808.450710,3447.429741
20783.283445,0.000000,-7179.997637,1838.629195
20783.283778,2294.638420,-10066.800811,2528.115143
20783.284111,3478.967927,-9474.636058,2374.896044
20783.284444,2516.700203,-9474.636058,1149.143247
20783.284777,-1110.308913,-10732.986159,-2298.286494
20783.285110,-1850.514855,-8068.244768,-6128.763984
20783.285443,-2294.638420,-13027.624579,-3140.991542
20783.285776,-1406.391290,-9918.759623,-4903.011187
20783.286110,-4145.153275,-11029.068536,229.828649
20783.286443,-1628.453072,-10066.800811,1608.800546
20783.286776,2294.638420,-6143.709319,2757.943793
20783.287109,4959.379811,-6883.915261,6281.983084
20783.287442,6587.832884,-5773.606348,6358.592633
20783.287775,4145.153275,-6217.729913,3830.477490
20783.288108,1776.494261,-7179.997637,1225.752797
20783.288441,2294.638420,-11251.130318,-1302.362347
20783.288774,-2368.659014,-12509.480420,-3677.258390
20783.289107,-370.102971,-14211.954086,-3140.991542
20783.289440,-222.061783,-12435.459826,-2834.553343
20783.289773,0.000000,-9548.656652,-1225.752797
20783.290106,-444.123565,-8438.347739,-1225.752797
20783.290440,666.185348,-7698.141797,-229.828649
20783.290773,1702.473667,-8290.306550,2528.115143
20783.291106,3997.112087,-8586.388927,5745.716235
20783.291439,4663.297435,-8290.306550,3294.210641
20783.291772,148.041188,-8364.327145,4290.134789
20783.292105,3552.988522,-9474.636058,6665.030833
20783.292438,1110.308913,-8808.450710,612.876398
20783.292771,296.082377,-8734.430116,-383.047749
20783.293104,-3108.864956,-8956.491898,-4136.915689
20783.293437,-4885.359217,-10658.965565,-4519.963438
20783.293770,-4219.173869,-11325.150913,-3447.429741
20783.294103,-2442.679609,-10658.965565,-995.924147
20783.294437,0.000000,-7772.162391,0.000000
20783.294770,1184.329507,-8364.327145,4826.401637
20783.295103,4071.132681,-7994.224174,3600.648841
20783.295436,1258.350101,-4811.338623,0.000000
20783.295769,3923.091493,-9474.636058,3600.648841
20783.296102,0.000000,-8808.450710,0.000000
20783.296435,518.144159,-10658.965565,383.047749
20783.296768,-1554.432478,-11325.150913,-1685.410096
20783.297101,-962.267725,-10658.965565,-1302.362347
20783.297434,-1924.535449,-9252.574275,-1455.581446
20783.297767,-740.205942,-8290.306550,-1915.238745
20783.298100,-1036.288319,-7105.977043,-2528.115143
20783.298434,-3552.988522,-9844.739029,-1225.752797
20783.298767,-1258.350101,-11843.295072,2374.896044
20783.299100,-370.102971,-8290.306550,995.924147
20783.299433,2368.659014,-8142.265362,6741.640382
20783.299766,6735.874072,-8290.306550,6971.469032
20783.300099,4737.318029,-5995.668130,4290.134789
20783.300432,3552.988522,-6883.915261,2451.505594
20783.300765,148.041188,-9548.656652,-2681.334243
20783.301098,-1924.535449,-11251.130318,-6205.373534
20783.301431,-3627.009116,-14211.954086,-4979.620737
20783.301764,-4589.276840,-10732.986159,-4903.011187
20783.302097,-1258.350101,-9770.718434,-4519.963438
20783.302431,0.000000,-8956.491898,1838.629195
20783.302764,7031.956449,-8882.471304,7277.907231
20783.303097,7031.956449,-4441.235652,7277.907231
20783.303430,5329.482782,-7846.182985,6052.154434
20783.303763,1332.370696,-9548.656652,3140.991542
20783.304096,1184.329507,-9548.656652,1225.752797
20783.304429,1184.329507,-10362.883188,842.705048
20783.304762,1776.494261,-10732.986159,1455.581446
20783.305095,0.000000,-9548.656652,-4903.011187
20783.305428,-888.247130,-12435.459826,-2528.115143
20783.305761,-962.267725,-7031.956449,-5515.887586
20783.306094,-4145.153275,-9548.656652,-3677.258390
20783.306427,-1850.514855,-9474.636058,-2681.334243
20783.306761,-666.185348,-9770.718434,1149.143247
20783.307094,2738.761985,-8290.306550,3753.867940
20783.307427,4737.318029,-7476.080014,6511.811733
20783.307760,5847.626942,-9474.636058,6052.154434
20783.308093,4737.318029,-7476.080014,6052.154434
20783.308426,2886.803174,-11103.089130,2374.896044
20783.308759,-1258.350101,-9548.656652,-4596.572988
20783.309092,-5921.647536,-11917.315666,-3983.696590
20783.309425,-4811.338623,-12583.501014,-3983.696590
20783.309758,-2368.659014,-10955.047942,-1149.143247
20783.310091,-1628.453072,-9178.553681,229.828649
20783.310424,-814.226536,-7328.038826,459.657299
20783.310758,-666.185348,-4219.173869,0.000000
20783.311091,1480.411884,-8290.306550,4213.525239
20783.311424,-74.020594,-7698.141797,919.314598
20783.311757,-3552.988522,-9548.656652,2451.505594
20783.312090,0.000000,-9548.656652,3677.258390
20783.312423,518.144159,-7920.203579,1225.752797
20783.312756,1628.453072,-8660.409521,306.438199
20783.313089,0.000000,-9696.697840,536.266849
20783.313422,-1702.473667,-7179.997637,-3600.648841
20783.313755,-2146.597232,-8956.491898,-4903.011187
20783.314088,-4145.153275,-11843.295072,-3753.867940
20783.314421,-1776.494261,-11029.068536,-306.438199
20783.314755,0.000000,-9474.636058,3217.601092
20783.315088,5403.503377,-9326.594869,7277.907231
20783.315421,3478.967927,-5699.585753,3677.258390
20783.315754,3552.988522,-5847.626942,4903.011187
20783.316087,5847.626942,-6513.812290,-76.609550
20783.316420,1184.329507,-8512.368333,0.000000
20783.316753,0.000000,-11621.233289,-766.095498
20783.317086,-2738.761985,-11177.109724,-4443.353888
20783.317419,-2368.659014,-12213.398043,-4213.525239
20783.317752,444.123565,-10362.883188,-1378.971896
20783.318085,1110.308913,-9178.553681,-1302.362347
20783.318418,2294.638420,-5625.565159,-1838.629195
20783.318752,2368.659014,-8734.430116,3294.210641
20783.319085,4071.132681,-10658.965565,3600.648841
20783.319418,1554.432478,-7772.162391,2604.724693
20783.319751,3478.967927,-10658.965565,4826.401637
20783.320084,4589.276840,-7698.141797,3907.087040
20783.320417,4071.132681,-8364.327145,2604.724693
20783.320750,2590.720797,-9474.636058,0.000000
20783.321083,-2220.617826,-7179.997637,-5515.887586
20783.321416,-2442.679609,-10732.986159,-9806.022374
20783.321749,-3552.988522,-12583.501014,-3753.867940
20783.322082,-2738.761985,-12435.459826,-3753.867940
20783.322415,-2442.679609,-10658.965565,-2068.457845
20783.322748,592.164754,-7254.018232,2221.676944
20783.323082,4441.235652,-6735.874072,7201.297681
20783.323415,5107.421000,-4737.318029,7354.516781
20783.323748,3108.864956,-5255.462188,4749.792088
20783.324081,1776.494261,-9030.512492,2834.553343
20783.324414,-4737.318029,-10436.903782,0.000000
20783.324747,-1258.350101,-13619.789333,-1302.362347
20783.325080,-9474.636058,-11325.150913,-3677.258390
20783.325413,-814.226536,-8142.265362,-2451.505594
20783.325746,-1480.411884,-10436.903782,0.000000
20783.326079,1554.432478,-5773.606348,-383.047749
20783.326412,0.000000,-8068.244768,306.438199
20783.326745,-2072.576638,-9400.615463,-842.705048
20783.327079,2886.803174,-9474.636058,1762.019645
20783.327412,0.000000,-12139.377449,3600.648841
20783.327745,3552.988522,-7772.162391,2451.505594
20783.328078,1184.329507,-7772.162391,4749.792088
20783.328411,5255.462188,-8290.306550,1149.143247
20783.328744,2960.823768,-6587.832884,0.000000
20783.329077,518.144159,-9474.636058,-1608.800546
20783.329410,-2960.823768,-9844.739029,-3217.601092
20783.329743,-5033.400406,-12065.356855,-3217.601092
20783.330076,-2442.679609,-10658.965565,-3753.867940
20783.330409,-444.123565,-9474.636058,536.266849
20783.330742,2886.803174,-7105.977043,3064.381992
20783.331076,3108.864956,-5995.668130,3294.210641
20783.331409,2812.782580,-6587.832884,2374.896044
20783.331742,4071.132681,-8290.306550,1762.019645
20783.332075,296.082377,-11325.150913,3370.820191
20783.332408,1702.473667,-12435.459826,-689.485948
20783.332741,-2368.659014,-11325.150913,-919.314598
20783.333074,-444.123565,-10140.821405,-1149.143247
20783.333407,2294.638420,-9178.553681,-1149.143247
20783.333740,740.205942,-6439.791695,-306.438199
20783.334073,296.082377,-7624.121203,-766.095498
20783.334406,-1258.350101,-8734.430116,-1072.533697
20783.334739,-2664.741391,-9696.697840,0.000000
20783.335072,1332.370696,-10066.800811,4826.401637
20783.335406,3478.967927,-8882.471304,3600.648841
20783.335739,2368.659014,-7179.997637,6128.763984
20783.336072,6291.750507,-9474.636058,6665.030833
20783.336405,2146.597232,-5995.668130,0.000000
20783.336738,518.144159,-9252.574275,-3294.210641
20783.337071,-3997.112087,-11843.295072,-5132.839837
20783.337404,-4589.276840,-12879.583391,-4979.620737
20783.337737,-4737.318029,-10140.821405,-4290.134789
20783.338070,-666.185348,-13027.624579,-1302.362347
20783.338403,148.041188,-7179.997637,306.438199
20783.338736,1924.535449,-5107.421000,6128.763984
20783.339069,6883.915261,-4737.318029,6665.030833
20783.339403,3552.988522,-6883.915261,5515.887586
20783.339736,2294.638420,-9326.594869,2374.896044
20783.340069,1406.391290,-10362.883188,1072.533697
20783.340402,148.041188,-11399.171507,995.924147
20783.340735,2886.803174,-10955.047942,842.705048
20783.341068,-1258.350101,-11843.295072,-3753.867940
20783.341401,-4145.153275,-8364.327145,-3983.696590
20783.341734,-3108.864956,-10362.883188,-2451.505594
20783.342067,-2442.679609,-11843.295072,-2834.553343
20783.342400,-4737.318029,-9548.656652,766.095498
20783.342733,-2442.679609,-8586.388927,2528.115143
20783.343066,2442.679609,-5773.606348,5669.106685
20783.343400,3997.112087,-5329.482782,7201.297681
20783.343733,5255.462188,-7105.977043,5745.716235
20783.344066,3552.988522,-4959.379811,1838.629195
20783.344399,814.226536,-8956.491898,-1378.971896
20783.344732,-370.102971,-11843.295072,-4290.134789
20783.345065,-5921.647536,-11917.315666,-6741.640382
20783.345398,-6513.812290,-11917.315666,-4903.011187
20783.345731,-1258.350101,-13619.789333,-1302.362347
20783.346064,-518.144159,-9474.636058,-995.924147
20783.346397,0.000000,-5995.668130,2451.505594
20783.346730,2886.803174,-4441.235652,3294.210641
20783.347063,4145.153275,-6143.709319,4903.011187
20783.347397,2960.823768,-7772.162391,4366.744339
20783.347730,1480.411884,-10807.006753,4060.306139
20783.348063,1184.329507,-9548.656652,3064.381992
20783.348396,2294.638420,-8290.306550,1838.629195
20783.348729,2294.638420,-10658.965565,-1302.362347
20783.349062,-2368.659014,-6587.832884,-3677.258390
20783.349395,-4145.153275,-9548.656652,-3524.039291
20783.349728,-3182.885551,-9696.697840,-5515.887586
20783.350061,-2886.803174,-11843.295072,-1991.848295
20783.350394,-3701.029710,-12213.398043,-153.219100
20783.350727,1406.391290,-8142.265362,3294.210641
20783.351060,3923.091493,-8290.306550,5439.278036
20783.351393,2368.659014,-4811.338623,6128.763984
20783.351727,4071.132681,-5921.647536,2987.772442
20783.352060,1184.329507,-5995.668130,3677.258390
20783.352393,2294.638420,-9178.553681,-76.609550
20783.352726,-370.102971,-11843.295072,-2298.286494
20783.353059,-1702.473667,-12879.583391,-3753.867940
20783.353392,-2072.576638,-12509.480420,-2604.724693
20783.353725,-148.041188,-10658.965565,-1608.800546
20783.354058,-592.164754,-9252.574275,-1149.143247
20783.354391,2516.700203,-8068.244768,2068.457845
20783.354724,0.000000,-5403.503377,0.000000
20783.355057,0.000000,-7772.162391,3064.381992
20783.355390,-74.020594,-9474.636058,2221.676944
20783.355724,0.000000,-6587.832884,2451.505594
20783.356057,3923.091493,-8586.388927,4596.572988
20783.356390,4663.297435,-7105.977043,4060.306139
20783.356723,3256.906145,-7550.100608,612.876398
20783.357056,-1554.432478,-8734.430116,-3370.820191
20783.357389,-1554.432478,-10658.965565,-6205.373534
20783.357722,-7105.977043,-12509.480420,-4290.134789
20783.358055,-2442.679609,-13619.789333,-1915.238745
20783.358388,-2442.679609,-10510.924376,-3064.381992
20783.358721,0.000000,-7179.997637,2757.943793
20783.359054,4663.297435,-5329.482782,4673.182538
20783.359387,4811.338623,-5403.503377,7277.907231
20783.359721,4515.256246,-5477.523971,4443.353888
20783.360054,1258.350101,-7772.162391,2451.505594
20783.360387,-1554.432478,-11843.295072,-1302.362347
20783.360720,-1998.556043,-10955.047942,-1608.800546
20783.361053,-2368.659014,-11103.089130,-2451.505594
20783.361386,-1036.288319,-9548.656652,-1072.533697
20783.361719,-2368.659014,-8956.491898,-2145.067394
20783.362052,-1258.350101,-8290.306550,-3140.991542
20783.362385,-4737.318029,-8364.327145,-4903.011187
20783.362718,-2368.659014,-10066.800811,2374.896044
20783.363051,-666.185348,-10066.800811,2451.505594
20783.363384,-1332.370696,-6587.832884,3677.258390
20783.363718,3923.091493,-6809.894666,6128.763984
20783.364051,4737.318029,-6883.915261,6894.859482
20783.364384,5403.503377,-5255.462188,4596.572988
20783.364717,2886.803174,-8882.471304,1455.581446
20783.365050,-74.020594,-11843.295072,-4979.620737
20783.365383,-5921.647536,-12509.480420,-5209.449386
20783.365716,-4737.318029,-13693.809927,-2528.115143
20783.366049,-74.020594,-11547.212695,-2987.772442
20783.366382,1184.329507,-9548.656652,3907.087040
20783.366715,3182.885551,-7994.224174,2451.505594
20783.367048,4737.318029,-5551.544565,5209.449386
20783.367381,5699.585753,-4293.194464,3753.867940
20783.367714,4071.132681,-8290.306550,2681.334243
20783.368048,5847.626942,-7698.141797,1455.581446
20783.368381,0.000000,-9548.656652,2145.067394
20783.368714,4071.132681,-10955.047942,-1608.800546
20783.369047,962.267725,-9918.759623,-3677.258390
20783.369380,2294.638420,-14063.912898,-2528.115143
20783.369713,2368.659014,-8216.285956,-2911.162892
20783.370046,444.123565,-12139.377449,-3064.381992
20783.370379,1110.308913,-9918.759623,-1378.971896
20783.370712,296.082377,-10140.821405,3677.258390
20783.371045,5847.626942,-5329.482782,5515.887586
20783.371378,9474.636058,-7772.162391,12180.918418
20783.371711,5847.626942,-6957.935855,5132.839837
20783.372045,2812.782580,-5995.668130,1225.752797
20783.372378,-3108.864956,-8364.327145,-2681.334243
20783.372711,-2294.638420,-9474.636058,-5515.887586
20783.373044,-7402.059420,-11917.315666,-6511.811733
20783.373377,-7105.977043,-12805.562797,-5822.325785
20783.373710,-3923.091493,-11843.295072,-2528.115143
20783.374043,-6809.894666,-10732.986159,0.000000
20783.374376,-1258.350101,-7550.100608,995.924147
20783.374709,-74.020594,-6513.812290,3294.210641
20783.375042,2960.823768,-5255.462188,7277.907231
20783.375375,296.082377,-6143.709319,4213.525239
20783.375708,-444.123565,-9400.615463,3907.087040
20783.376041,1702.473667,-8290.306550,995.924147
20783.376374,-592.164754,-11621.233289,1225.752797
20783.376707,1998.556043,-11621.233289,-76.609550
20783.377040,-5625.565159,-11843.295072,-3677.258390
20783.377373,-5181.441594,-9622.677246,-6665.030833
20783.377706,-6661.853478,-11029.068536,-4366.744339
20783.378039,-2812.782580,-7920.203579,-2221.676944
20783.378372,-1776.494261,-12361.439231,3064.381992
20783.378706,0.000000,-4811.338623,1225.752797
20783.379039,1480.411884,-7476.080014,7890.783629
20783.379372,3478.967927,-5181.441594,4673.182538
20783.379705,2442.679609,-5699.585753,2757.943793
20783.380038,3775.050304,-7105.977043,1762.019645
20783.380371,1480.411884,-8512.368333,-1838.629195
20783.380704,-1184.329507,-11695.253884,-3983.696590
20783.381037,-2664.741391,-13545.768739,-4136.915689
20783.381370,-74.020594,-13027.624579,-2528.115143
20783.381703,1184.329507,-11325.150913,2911.162892
20783.382036,4071.132681,-11547.212695,2987.772442
20783.382369,3478.967927,-7698.141797,842.705048
20783.382702,592.164754,-5995.668130,2451.505594
20783.383035,5255.462188,-6513.812290,2374.896044
20783.383368,3108.864956,-7179.997637,4519.963438
20783.383701,2960.823768,-8660.409521,3830.477490
20783.384034,2960.823768,-8956.491898,2145.067394
20783.384367,1776.494261,-7772.162391,0.000000
20783.384700,2368.659014,-10288.862594,2374.896044
20783.385033,814.226536,-8512.368333,-3753.867940
20783.385366,222.061783,-7179.997637,-6128.763984
20783.385699,-74.020594,-13619.789333,-2528.115143
20783.386032,-1776.494261,-12213.398043,-3064.381992
20783.386366,-1924.535449,-11399.171507,-459.657299
20783.386699,148.041188,-9326.594869,2374.896044
20783.387032,3849.070898,-5699.585753,4290.134789
20783.387365,3108.864956,-5403.503377,4903.011187
20783.387698,4663.297435,-8290.306550,4826.401637
20783.388031,518.144159,-5995.668130,153.219100
20783.388364,444.123565,-9474.636058,-76.609550
20783.388697,-74.020594,-15396.283594,-689.485948
20783.389030,-4737.318029,-10732.986159,-3064.381992
20783.389363,-2738.761985,-11547.212695,-3677.258390
20783.389696,-2220.617826,-9474.636058,-1762.019645
20783.390029,-444.123565,-9178.553681,229.828649
20783.390362,-2368.659014,-5995.668130,0.000000
20783.390695,-1036.288319,-8586.388927,1302.362347
20783.391028,-3034.844362,-8216.285956,1608.800546
20783.391361,-2368.659014,-10584.944971,4213.525239
20783.391694,-74.020594,-7105.977043,2374.896044
20783.392027,74.020594,-5995.668130,4903.011187
20783.392360,740.205942,-7105.977043,2987.772442
20783.392693,-1332.370696,-5403.503377,-3294.210641
20783.393026,-4737.318029,-8956.491898,-3294.210641
20783.393359,-3627.009116,-13619.789333,-3140.991542
20783.393692,-5403.503377,-11843.295072,-4366.744339
20783.394026,-5181.441594,-12065.356855,-1915.238745
20783.394359,-3849.070898,-9918.759623,153.219100
20783.394692,296.082377,-4811.338623,4903.011187
20783.395025,6439.791695,-4811.338623,4903.011187
20783.395358,8438.347739,-5625.565159,7277.907231
20783.395691,3775.050304,-7179.997637,2604.724693
20783.396024,0.000000,-8364.327145,1225.752797
20783.396357,74.020594,-11843.295072,-1302.362347
20783.396690,0.000000,-11621.233289,-2145.067394
20783.397023,1036.288319,-11029.068536,-2451.505594
20783.397356,3997.112087,-9622.677246,-995.924147
20783.397689,3552.988522,-10362.883188,612.876398
20783.398022,1110.308913,-5995.668130,-3983.696590
20783.398355,2294.638420,-11103.089130,-689.485948
20783.398688,1998.556043,-9474.636058,-536.266849
20783.399021,3256.906145,-9252.574275,3064.381992
20783.399354,5921.647536,-7105.977043,4519.963438
20783.399687,6291.750507,-9474.636058,5132.839837
20783.400020,7105.977043,-7328.038826,4903.011187
20783.400353,7402.059420,-8512.368333,3983.696590
20783.400686,6217.729913,-7105.977043,-1302.362347
20783.401019,0.000000,-11917.315666,-3524.039291
20783.401352,-2442.679609,-10732.986159,-7048.078582
20783.401686,-4737.318029,-11325.150913,-4903.011187
20783.402019,2294.638420,-11843.295072,-1915.238745
20783.402352,2294.638420,-8290.306550,536.266849
20783.402685,3478.967927,-9104.533087,2987.772442
20783.403018,4145.153275,-4959.379811,4213.525239
20783.403351,814.226536,-8068.244768,2221.676944
20783.403684,1702.473667,-8290.306550,842.705048
20783.404017,-666.185348,-12435.459826,2374.896044
20783.404350,-2368.659014,-7179.997637,2451.505594
20783.404683,1702.473667,-10658.965565,3600.648841
20783.405016,-370.102971,-7105.977043,-1532.190996
20783.405349,-4145.153275,-7624.121203,-3294.210641
20783.405682,-3627.009116,-9326.594869,-2987.772442
20783.406015,-4515.256246,-10140.821405,-3217.601092
20783.406348,-8586.388927,-11325.150913,-3370.820191
20783.406681,-7105.977043,-10732.986159,459.657299
20783.407014,-2442.679609,-7994.224174,1762.019645
20783.407347,1184.329507,-7031.956449,6435.202183
20783.407680,2072.576638,-5921.647536,5975.544884
20783.408013,592.164754,-6291.750507,3677.258390
20783.408346,-2368.659014,-7179.997637,0.000000
20783.408679,-1258.350101,-10066.800811,-2834.553343
20783.409012,-6513.812290,-10732.986159,-6741.640382
20783.409345,-5625.565159,-12657.521608,-689.485948
20783.409679,-3701.029710,-10881.027347,-1915.238745
20783.410012,-3330.926739,-7476.080014,0.000000
20783.410345,-1628.453072,-8586.388927,995.924147
20783.410678,0.000000,-6291.750507,2911.162892
20783.411011,1406.391290,-6217.729913,2681.334243
20783.411344,2294.638420,-10658.965565,4213.525239
20783.411677,2294.638420,-9474.636058,2374.896044
20783.412010,0.000000,-8956.491898,4903.011187
20783.412343,7031.956449,-9474.636058,4826.401637
20783.412676,3034.844362,-8734.430116,0.000000
20783.413009,1776.494261,-8364.327145,-459.657299
20783.413342,148.041188,-8216.285956,-5439.278036
20783.413675,-296.082377,-11399.171507,-5898.935335
20783.414008,-888.247130,-11325.150913,-3907.087040
20783.414341,-1406.391290,-11843.295072,-2451.505594
20783.414674,4071.132681,-9178.553681,-689.485948
20783.415007,5921.647536,-9770.718434,8503.660028
20783.415340,8216.285956,-5921.647536,5592.497135
20783.415673,5033.400406,-4811.338623,6128.763984
20783.416006,8216.285956,-7105.977043,3600.648841
20783.416339,4737.318029,-8660.409521,1225.752797
20783.416672,2516.700203,-11473.192101,-1378.971896
20783.417005,-296.082377,-12805.562797,-3753.867940
20783.417339,-3256.906145,-12213.398043,-2911.162892
20783.417672,518.144159,-8068.244768,-3677.258390
20783.418005,2072.576638,-11547.212695,-76.609550
20783.418338,1110.308913,-7105.977043,-2068.457845
20783.418671,148.041188,-5995.668130,0.000000
20783.419004,1184.329507,-6587.832884,2298.286494
20783.419337,2294.638420,-9918.759623,4519.963438
20783.419670,518.144159,-10066.800811,2834.553343
20783.420003,2294.638420,-9252.574275,2911.162892
20783.420336,3775.050304,-9178.553681,3600.648841
20783.420669,0.000000,-8364.327145,2145.067394
20783.421002,-666.185348,-9178.553681,-2528.115143
20783.421335,-1258.350101,-9474.636058,-4519.963438
20783.421668,-7105.977043,-10732.986159,-2451.505594
20783.422001,-6957.935855,-11473.192101,-1685.410096
20783.422334,-4811.338623,-10436.903782,383.047749
20783.422667,-1480.411884,-8882.471304,3907.087040
20783.423000,1702.473667,-5329.482782,5132.839837
20783.423333,2294.638420,-5921.647536,6052.154434
20783.423666,-1184.329507,-5699.585753,1991.848295
20783.423999,-2812.782580,-9252.574275,-689.485948
20783.424332,-4885.359217,-11399.171507,-1608.800546
20783.424665,-5403.503377,-11917.315666,-2451.505594
20783.424999,-5477.523971,-11843.295072,-1838.629195
20783.425332,-4441.235652,-9548.656652,-3677.258390
20783.425665,-74.020594,-10658.965565,2068.457845
20783.425998,-370.102971,-5403.503377,612.876398
20783.426331,-1998.556043,-4811.338623,0.000000
20783.426664,666.185348,-9326.594869,1762.019645
20783.426997,-888.247130,-10066.800811,2374.896044
20783.427330,1406.391290,-8586.388927,2911.162892
20783.427663,2960.823768,-9844.739029,2911.162892
20783.427996,6735.874072,-9474.636058,2374.896044
20783.428329,4145.153275,-8364.327145,3524.039291
20783.428662,5847.626942,-10658.965565,-76.609550
20783.428995,1110.308913,-8068.244768,-4903.011187
20783.429328,-2368.659014,-11917.315666,-3677.258390
20783.429661,-74.020594,-11103.089130,-3983.696590
20783.429994,0.000000,-10140.821405,-2145.067394
20783.430327,2590.720797,-10288.862594,1762.019645
20783.430660,5329.482782,-5699.585753,4290.134789
20783.430993,6217.729913,-5107.421000,4903.011187
20783.431326,11103.089130,-7105.977043,5745.716235
20783.431659,4737.318029,-8364.327145,2757.943793
20783.431992,3552.988522,-9548.656652,2451.505594
20783.432325,4071.132681,-14211.954086,-76.609550
20783.432659,2368.659014,-11029.068536,0.000000
20783.432992,2664.741391,-10807.006753,-1225.752797
20783.433325,962.267725,-11251.130318,-1762.019645
20783.433658,888.247130,-8068.244768,-1991.848295
20783.433991,-74.020594,-8882.471304,-689.485948
20783.434324,-74.020594,-8882.471304,-2528.115143
20783.434657,-2368.659014,-8364.327145,2451.505594
20783.434990,1998.556043,-9474.636058,4826.401637
20783.435323,1110.308913,-5625.565159,689.485948
20783.435656,1480.411884,-8364.327145,5362.668486
20783.435989,2442.679609,-7476.080014,3907.087040
20783.436322,1110.308913,-7179.997637,2451.505594
20783.436655,1480.411884,-8586.388927,-76.609550
20783.436988,-4811.338623,-11843.295072,-3753.867940
20783.437321,-5699.585753,-13101.645173,-4290.134789
20783.437654,-6883.915261,-11917.315666,-3447.429741
20783.437987,-4811.338623,-11473.192101,-1532.190996
20783.438320,-5625.565159,-6587.832884,0.000000
20783.438653,-5625.565159,-7772.162391,1532.190996
20783.438986,1110.308913,-4145.153275,2068.457845
20783.439319,-2368.659014,-4811.338623,0.000000
20783.439652,0.000000,-8660.409521,3600.648841
20783.439985,-2220.617826,-9548.656652,1838.629195
20783.440319,-2812.782580,-11029.068536,2374.896044
20783.440652,-888.247130,-9770.718434,1378.971896
20783.440985,-2664.741391,-9326.594869,-1302.362347
20783.441318,-1184.329507,-10881.027347,-76.609550
20783.441651,-2738.761985,-5699.585753,-2911.162892
20783.441984,-3627.009116,-10066.800811,-6128.763984
20783.442317,-5921.647536,-11325.150913,-1685.410096
20783.442650,-2960.823768,-10140.821405,3294.210641
20783.442983,1480.411884,-9326.594869,5515.887586
20783.443316,5625.565159,-7105.977043,7890.783629
20783.443649,4959.379811,-5699.585753,4903.011187
20783.443982,4737.318029,-4589.276840,3524.039291
20783.444315,3182.885551,-7105.977043,-76.609550
20783.444648,592.164754,-9548.656652,-459.657299
20783.444981,-2886.803174,-10362.883188,-5898.935335
20783.445314,-3552.988522,-12509.480420,-3600.648841
20783.445647,1406.391290,-11695.253884,-3140.991542
20783.445980,1702.473667,-8882.471304,-1915.238745
20783.446313,5255.462188,-8882.471304,1149.143247
20783.446646,4589.276840,-6439.791695,2987.772442
20783.446979,5847.626942,-7179.997637,2681.334243
20783.447312,4071.132681,-8586.388927,3294.210641
20783.447645,4663.297435,-12435.459826,4213.525239
20783.447979,2664.741391,-8364.327145,3677.258390
20783.448312,7105.977043,-9844.739029,6665.030833
20783.448645,6439.791695,-7105.977043,229.828649
20783.448978,888.247130,-7476.080014,-3677.258390
20783.449311,296.082377,-10807.006753,-5209.449386
20783.449644,-2146.597232,-11843.295072,-4366.744339
20783.449977,-2368.659014,-11325.150913,-3064.381992
20783.450310,-2738.761985,-11695.253884,-1762.019645
20783.450643,-1554.432478,-9326.594869,-689.485948
20783.450976,1184.329507,-8438.347739,7277.907231
20783.451309,3478.967927,-6809.894666,5745.716235
20783.451642,2886.803174,-3034.844362,3983.696590
20783.451975,592.164754,-5403.503377,3677.258390
20783.452308,-1258.350101,-8586.388927,0.000000
20783.452641,-4589.276840,-11251.130318,-1225.752797
20783.452974,-5921.647536,-11917.315666,-3370.820191
20783.453307,-3330.926739,-10140.821405,-2451.505594
20783.453640,-1554.432478,-9400.615463,-2451.505594
20783.453973,-2738.761985,-9326.594869,-2221.676944
20783.454306,-4737.318029,-8216.285956,-2068.457845
20783.454639,-3108.864956,-9474.636058,-229.828649
20783.454972,-2220.617826,-9844.739029,4596.572988
20783.455305,-1258.350101,-7994.224174,2911.162892
20783.455638,-2960.823768,-7179.997637,1378.971896
20783.455972,0.000000,-8364.327145,6052.154434
20783.456305,3034.844362,-6217.729913,3600.648841
20783.456638,0.000000,-5403.503377,1532.190996
20783.456971,518.144159,-6809.894666,-1915.238745
20783.457304,-4219.173869,-11843.295072,-5515.887586
20783.457637,-5255.462188,-12509.480420,-6205.373534
20783.457970,-3034.844362,-14211.954086,-3753.867940
20783.458303,-74.020594,-11547.212695,-1915.238745
20783.458636,4145.153275,-9104.533087,5898.935335
20783.458969,7031.956449,-9326.594869,7890.783629
20783.459302,6439.791695,-4737.318029,4673.182538
20783.459635,5699.585753,-7624.121203,4826.401637
20783.459968,4515.256246,-7179.997637,1378.971896
20783.460301,2664.741391,-9770.718434,1455.581446
20783.460634,2442.679609,-9622.677246,-995.924147
20783.460967,0.000000,-9548.656652,-4443.353888
20783.461300,1998.556043,-10436.903782,-6128.763984
20783.461633,2664.741391,-13545.768739,-1302.362347
20783.461966,3182.885551,-8882.471304,-2528.115143
20783.462299,2886.803174,-10214.842000,-1838.629195
20783.462632,2812.782580,-9474.636058,1149.143247
20783.462965,3108.864956,-11177.109724,4290.134789
20783.463298,5551.544565,-7624.121203,4366.744339
20783.463632,6735.874072,-9696.697840,6128.763984
20783.463965,5921.647536,-7920.203579,5132.839837
20783.464298,2368.659014,-7179.997637,1225.752797
20783.464631,3478.967927,-10658.965565,-76.609550
20783.464964,-2146.597232,-9548.656652,-6128.763984
20783.465297,-4145.153275,-12509.480420,-4903.011187
20783.465630,-4145.153275,-11325.150913,-2451.505594
20783.465963,-3627.009116,-9770.718434,-2221.676944
20783.466296,-2738.761985,-10066.800811,689.485948
20783.466629,0.000000,-7550.100608,3370.820191
20783.466962,2886.803174,-7698.141797,6665.030833
20783.467295,592.164754,-5995.668130,6665.030833
20783.467628,-74.020594,-6735.874072,612.876398
20783.467961,-4441.235652,-9548.656652,0.000000
20783.468294,-666.185348,-12435.459826,-383.047749
20783.468627,-3552.988522,-11029.068536,-3524.039291
20783.468960,-2220.617826,-10732.986159,-1762.019645
20783.469293,-2072.576638,-9474.636058,-1302.362347
20783.469626,-2294.638420,-8586.388927,-689.485948
20783.469959,-1554.432478,-8290.306550,-76.609550
20783.470292,-4737.318029,-9252.574275,-459.657299
20783.470625,-3627.009116,-10584.944971,1225.752797
20783.470958,-2368.659014,-7179.997637,3600.648841
20783.471292,-370.102971,-7846.182985,4519.963438
20783.471625,1702.473667,-6513.812290,2987.772442
20783.471958,0.000000,-7179.997637,1225.752797
20783.472291,3478.967927,-7698.141797,-76.609550
20783.472624,-1628.453072,-8660.409521,-1685.410096
20783.472957,-5921.647536,-10140.821405,-4903.011187
20783.473290,-3627.009116,-14211.954086,-4366.744339
20783.473623,-2960.823768,-12139.377449,-2528.115143
20783.473956,2220.617826,-9548.656652,1149.143247
20783.474289,1924.535449,-8364.327145,2451.505594
20783.474622,4589.276840,-4811.338623,1302.362347
20783.474955,3849.070898,-7179.997637,5439.278036
20783.475288,4071.132681,-9178.553681,1762.019645
20783.475621,2294.638420,-8364.327145,612.876398
20783.475954,4441.235652,-11843.295072,4519.963438
20783.476287,2590.720797,-8956.491898,76.609550
20783.476620,4293.194464,-9474.636058,1455.581446
20783.476953,1184.329507,-8364.327145,-919.314598
20783.477286,2812.782580,-9474.636058,-2068.457845
20783.477619,296.082377,-8364.327145,-3370.820191
20783.477952,0.000000,-13619.789333,-689.485948
20783.478285,-1406.391290,-10658.965565,-2528.115143
20783.478618,-3404.947333,-9548.656652,1225.752797
20783.478951,4367.215058,-9474.636058,4826.401637
20783.479284,3849.070898,-4811.338623,6741.640382
20783.479617,4885.359217,-6809.894666,3907.087040
20783.479950,4737.318029,-5107.421000,2757.943793
20783.480283,2072.576638,-9326.594869,995.924147
20783.480616,2812.782580,-9992.780217,-76.609550
20783.480949,-1258.350101,-15988.448347,-3753.867940
20783.481282,-3552.988522,-11917.315666,-3677.258390
20783.481615,-296.082377,-13915.871710,-76.609550
20783.481948,1110.308913,-11843.295072,-1915.238745
20783.482281,-2368.659014,-7179.997637,612.876398
20783.482614,-666.185348,-7550.100608,306.438199
20783.482947,0.000000,-7772.162391,3064.381992
20783.483280,-2590.720797,-7846.182985,3524.039291
20783.483613,-518.144159,-9474.636058,5515.887586
20783.483946,-592.164754,-6735.874072,4519.963438
20783.484279,1998.556043,-6661.853478,3983.696590
20783.484612,444.123565,-6513.812290,1302.362347
20783.484945,-4071.132681,-7254.018232,-4443.353888
20783.485278,-7105.977043,-9548.656652,-6128.763984
20783.485611,-5995.668130,-15396.283594,-6358.592633
20783.485944,-7105.977043,-10658.965565,-6205.373534
20783.486277,-7698.141797,-11473.192101,-2451.505594
20783.486610,-666.185348,-8882.471304,2374.896044
20783.486943,1776.494261,-5403.503377,7660.954980
20783.487276,5551.544565,-5255.462188,8350.440928
20783.487609,4071.132681,-4589.276840,5822.325785
20783.487942,1184.329507,-6587.832884,3064.381992
20783.488275,-74.020594,-9918.759623,0.000000
20783.488608,-74.020594,-11843.295072,-2528.115143
20783.488941,-3552.988522,-10732.986159,-4596.572988
20783.489274,-2960.823768,-11325.150913,-2757.943793
20783.489607,-740.205942,-10732.986159,-3217.601092
20783.489940,-1480.411884,-9178.553681,-2681.334243
20783.490273,-74.020594,-7698.141797,-1532.190996
20783.490606,518.144159,-9326.594869,-383.047749
20783.490939,4071.132681,-9474.636058,4213.525239
20783.491272,2516.700203,-6587.832884,4903.011187
20783.491606,4367.215058,-7105.977043,2068.457845
20783.491939,4145.153275,-6587.832884,3677.258390
20783.492272,6439.791695,-9474.636058,2374.896044
20783.492605,7031.956449,-8586.388927,1072.533697
20783.492938,3108.864956,-10288.862594,-3140.991542
20783.493271,1850.514855,-13175.665768,-5209.449386
20783.493604,0.000000,-13841.851115,-3140.991542
20783.493937,296.082377,-12509.480420,-1455.581446
20783.494270,2368.659014,-11029.068536,3524.039291
20783.494603,3775.050304,-7179.997637,2451.505594
20783.494936,3256.906145,-4811.338623,4903.011187
20783.495269,6439.791695,-7105.977043,4826.401637
20783.495602,2886.803174,-4737.318029,383.047749
20783.495935,2516.700203,-8734.430116,995.924147
20783.496268,-666.185348,-11103.089130,766.095498
20783.496601,-1850.514855,-9104.533087,-1378.971896
20783.496934,-4145.153275,-11325.150913,-3217.601092
20783.497267,-666.185348,-11843.295072,-2528.115143
20783.497600,-4737.318029,-9548.656652,0.000000
20783.497933,-962.267725,-8882.471304,-76.609550
20783.498266,-1258.350101,-8882.471304,-2528.115143
20783.498599,-5921.647536,-8660.409521,-1838.629195
20783.498932,-666.185348,-10362.883188,2068.457845
20783.499265,0.000000,-8586.388927,4673.182538
20783.499598,2442.679609,-8068.244768,5362.668486
20783.499931,1998.556043,-7179.997637,4903.011187
20783.500264,2294.638420,-8290.306550,2681.334243
20783.500597,-444.123565,-7105.977043,-76.609550
20783.500930,-4515.256246,-11103.089130,-3753.867940
20783.501263,-4219.173869,-11177.109724,-4443.353888
20783.501596,-8882.471304,-13101.645173,-4290.134789
20783.501929,-4219.173869,-11251.130318,-3140.991542
20783.502262,-6439.791695,-9178.553681,-2068.457845
20783.502595,-3552.988522,-6587.832884,2757.943793
20783.502928,1998.556043,-4737.318029,3600.648841
20783.503261,1110.308913,-4515.256246,2451.505594
20783.503594,1110.308913,-8290.306550,2221.676944
20783.503927,-1332.370696,-10436.903782,1838.629195
20783.504260,1184.329507,-9326.594869,1991.848295
20783.504593,2664.741391,-11325.150913,3600.648841
20783.504926,5551.544565,-9474.636058,-76.609550
20783.505259,0.000000,-10732.986159,-995.924147
20783.505592,1184.329507,-11177.109724,-1608.800546
20783.505925,-74.020594,-11251.130318,-4519.963438
20783.506258,-2368.659014,-10732.986159,-2145.067394
20783.506591,370.102971,-10214.842000,459.657299
20783.506924,1776.494261,-8364.327145,3524.039291
20783.507257,6143.709319,-6587.832884,6435.202183
20783.507590,5255.462188,-6513.812290,5439.278036
20783.507923,8808.450710,-7105.977043,4213.525239
20783.508256,4737.318029,-5107.421000,4060.306139
20783.508589,6291.750507,-9474.636058,-76.609550
20783.508922,962.267725,-13619.789333,-4366.744339
20783.509255,-1554.432478,-14804.118840,-4979.620737
20783.509588,-1554.432478,-12583.501014,-4673.182538
20783.509921,814.226536,-10732.986159,-1532.190996
20783.510254,1184.329507,-8364.327145,0.000000
20783.510587,1480.411884,-5699.585753,1225.752797
20783.510920,4071.132681,-6217.729913,1685.410096
20783.511253,2368.659014,-7179.997637,6358.592633
20783.511586,4367.215058,-9474.636058,3600.648841
20783.511919,2072.576638,-8364.327145,2451.505594
20783.512252,2368.659014,-8956.491898,2374.896044
20783.512585,2590.720797,-10362.883188,1149.143247
20783.512918,-1258.350101,-12139.377449,-2528.115143
20783.513251,-2072.576638,-8882.471304,-4519.963438
20783.513584,-3182.885551,-11843.295072,-3907.087040
20783.513917,-5921.647536,-10140.821405,-2451.505594
20783.514250,-5403.503377,-11843.295072,-1302.362347
20783.514583,-4811.338623,-9474.636058,-842.705048
20783.514916,-1184.329507,-6587.832884,6052.154434
20783.515249,1702.473667,-5033.400406,6052.154434
20783.515582,1184.329507,-5995.668130,5745.716235
20783.515916,-740.205942,-4811.338623,2374.896044
20783.516249,-3701.029710,-10214.842000,-2757.943793
20783.516582,-2812.782580,-11473.192101,-1532.190996
20783.516915,-7402.059420,-13101.645173,-3064.381992
20783.517248,-4071.132681,-11029.068536,-2681.334243
20783.517581,-3849.070898,-9992.780217,-1149.143247
20783.517914,-2220.617826,-9178.553681,0.000000
20783.518247,296.082377,-7031.956449,2451.505594
20783.518580,-1110.308913,-5107.421000,0.000000
20783.518913,1184.329507,-6143.709319,3600.648841
20783.519246,-74.020594,-8586.388927,2987.772442
20783.519579,814.226536,-9178.553681,995.924147
20783.519912,3849.070898,-9178.553681,4519.963438
20783.520245,3552.988522,-9252.574275,2604.724693
20783.520578,3478.967927,-8290.306550,0.000000
20783.520911,888.247130,-8586.388927,-3294.210641
20783.521244,1998.556043,-11547.212695,-4979.620737
20783.521577,-1776.494261,-10732.986159,-2757.943793
20783.521910,-2072.576638,-11325.150913,-1072.533697
20783.522243,2294.638420,-10658.965565,-689.485948
20783.522576,296.082377,-5995.668130,612.876398
20783.522909,8808.450710,-7105.977043,4213.525239
20783.523242,8068.244768,-7105.977043,5362.668486
20783.523575,8512.368333,-6365.771101,3140.991542
20783.523908,6735.874072,-9474.636058,1762.019645
20783.524241,5255.462188,-9326.594869,0.000000
20783.524574,3552.988522,-11917.315666,2757.943793
20783.524907,2886.803174,-11843.295072,-2834.553343
20783.525240,1554.432478,-9548.656652,-4290.134789
20783.525573,888.247130,-14508.036463,-76.609550
20783.525906,1998.556043,-7476.080014,-1838.629195
20783.526239,-518.144159,-7550.100608,-2528.115143
20783.526572,1036.288319,-8956.491898,383.047749
20783.526905,-888.247130,-7772.162391,2528.115143
20783.527238,0.000000,-8660.409521,3677.258390
20783.527571,3404.947333,-8882.471304,6665.030833
20783.527904,1110.308913,-6587.832884,2451.505594
20783.528237,2368.659014,-8734.430116,4826.401637
20783.528570,-74.020594,-11843.295072,1762.019645
20783.528903,-4589.276840,-8364.327145,-4903.011187
20783.529236,-6365.771101,-12287.418637,-4826.401637
20783.529569,-6883.915261,-13323.706956,-3753.867940
20783.529902,-5255.462188,-10658.965565,-2374.896044
20783.530235,-5921.647536,-11325.150913,0.000000
20783.530568,-74.020594,-7031.956449,3294.210641
20783.530901,-740.205942,-7105.977043,5515.887586
20783.531234,1998.556043,-4367.215058,5056.230287
20783.531567,-74.020594,-7994.224174,2374.896044
20783.531900,-1850.514855,-9326.594869,-1072.533697
20783.532233,-2368.659014,-10732.986159,1149.143247
20783.532566,-4811.338623,-14211.954086,-1915.238745
20783.532899,-3552.988522,-8512.368333,-1225.752797
20783.533232,-3627.009116,-12435.459826,-1608.800546
20783.533565,-2442.679609,-6587.832884,-3217.601092
20783.533898,-2442.679609,-8734.430116,-1608.800546
20783.534231,-2442.679609,-8882.471304,-1149.143247
20783.534564,-2812.782580,-7179.997637,0.000000
20783.534897,-74.020594,-9474.636058,0.000000
20783.535230,5329.482782,-8142.265362,7890.783629
20783.535563,4071.132681,-7476.080014,4903.011187
20783.535896,5477.523971,-4219.173869,3064.381992
20783.536229,3034.844362,-7254.018232,76.609550
20783.536562,2368.659014,-9548.656652,-2298.286494
20783.536895,814.226536,-11695.253884,-5209.449386
20783.537228,-2294.638420,-13915.871710,-5362.668486
20783.537561,-888.247130,-12361.439231,-2451.505594
20783.537894,1110.308913,-9548.656652,-2451.505594
20783.538227,3552.988522,-9030.512492,3600.648841
20783.538560,4663.297435,-5551.544565,2145.067394
20783.538893,6513.812290,-4219.173869,4903.011187
20783.539226,6809.894666,-5995.668130,4136.915689
20783.539559,3849.070898,-9770.718434,2221.676944
20783.539892,2516.700203,-10881.027347,995.924147
20783.540226,2368.659014,-10732.986159,-76.609550
20783.540559,4885.359217,-9474.636058,-76.609550
20783.540892,0.000000,-11029.068536,-2451.505594
20783.541225,-74.020594,-10066.800811,-5286.058936
20783.541558,-1258.350101,-9770.718434,-5515.887586
20783.541891,-1184.329507,-11473.192101,-1991.848295
20783.542224,-74.020594,-11251.130318,-76.609550
20783.542557,222.061783,-9474.636058,2068.457845
20783.542890,2516.700203,-8068.244768,5209.449386
20783.543223,4663.297435,-7550.100608,7201.297681
20783.543556,4219.173869,-7402.059420,6128.763984
20783.543889,2442.679609,-8660.409521,6052.154434
20783.544222,222.061783,-5107.421000,-2145.067394
20783.544555,-3404.947333,-12065.356855,-2451.505594
20783.544888,-3627.009116,-14211.954086,-4979.620737
20783.545221,-5403.503377,-11547.212695,-4060.306139
20783.545554,-4589.276840,-12879.583391,-1608.800546
20783.545887,-2294.638420,-8216.285956,459.657299
20783.546220,-4293.194464,-8364.327145,1762.019645
20783.546553,-2294.638420,-4219.173869,612.876398
20783.546886,-1628.453072,-8142.265362,1762.019645
20783.547219,-1480.411884,-6587.832884,2451.505594
20783.547552,-1850.514855,-10362.883188,2068.457845
20783.547885,-814.226536,-8808.450710,2298.286494
20783.548218,-1110.308913,-7328.038826,612.876398
20783.548551,296.082377,-9178.553681,1149.143247
20783.548884,2294.638420,-10658.965565,-689.485948
20783.549217,-2368.659014,-8364.327145,-3677.258390
20783.549550,-1036.288319,-9326.594869,-2221.676944
20783.549883,-3627.009116,-13323.706956,-4136.915689
20783.550216,-2146.597232,-9844.739029,-1378.971896
20783.550549,-1258.350101,-9326.594869,306.438199
20783.550882,3627.009116,-7105.977043,3447.429741
20783.551215,3552.988522,-5551.544565,4903.011187
20783.551548,2368.659014,-8364.327145,4519.963438
20783.551881,5847.626942,-6069.688724,766.095498
20783.552214,1110.308913,-8364.327145,-2451.505594
20783.552547,1184.329507,-11325.150913,-689.485948
20783.552880,-1406.391290,-8956.491898,-4290.134789
20783.553213,1776.494261,-11399.171507,-2068.457845
20783.553546,3627.009116,-8216.285956,0.000000
20783.553879,3849.070898,-10436.903782,689.485948
20783.554212,4663.297435,-8586.388927,-76.609550
20783.554545,4071.132681,-13027.624579,-76.609550
20783.554878,4663.297435,-9548.656652,0.000000
20783.555211,3849.070898,-10955.047942,6128.763984
20783.555544,5995.668130,-10658.965565,3294.210641
20783.555877,5921.647536,-7772.162391,4903.011187
20783.556210,5773.606348,-9104.533087,3907.087040
20783.556543,5329.482782,-8512.368333,2068.457845
20783.556876,74.020594,-8956.491898,-2451.505594
20783.557209,-1850.514855,-9252.574275,-6435.202183
20783.557542,-2442.679609,-12435.459826,-4979.620737
20783.557875,-3330.926739,-10140.821405,-3677.258390
20783.558208,-2516.700203,-10658.965565,-76.609550
20783.558541,-1850.514855,-7105.977043,-76.609550
20783.558874,1110.308913,-9474.636058,4826.401637
20783.559207,2664.741391,-5255.462188,6052.154434
20783.559540,1406.391290,-6883.915261,2911.162892
20783.559873,-1258.350101,-8956.491898,842.705048
20783.560206,-3552.988522,-9548.656652,612.876398
20783.560539,-2738.761985,-10288.862594,0.000000
20783.560872,-74.020594,-11843.295072,1762.019645
20783.561205,-2442.679609,-10658.965565,-3140.991542
20783.561538,-5329.482782,-9548.656652,-2451.505594
20783.561871,-3923.091493,-9474.636058,-689.485948
20783.562204,-4441.235652,-7254.018232,-1685.410096
20783.562537,-3923.091493,-8438.347739,-1532.190996
20783.562870,-4071.132681,-9104.533087,1149.143247
20783.563203,-4737.318029,-8364.327145,2451.505594
20783.563536,-2368.659014,-6587.832884,3677.258390
20783.563869,148.041188,-6365.771101,3524.039291
20783.564202,-444.123565,-7476.080014,1302.362347
20783.564536,592.164754,-6365.771101,-76.609550
20783.564869,-2368.659014,-9548.656652,-3370.820191
20783.565202,-3627.009116,-11251.130318,-5592.497135
20783.565535,-5773.606348,-11917.315666,-2451.505594
20783.565868,-2442.679609,-11843.295072,-1302.362347
20783.566201,2886.803174,-9474.636058,2374.896044
20783.566534,2368.659014,-8364.327145,4290.134789
