#time,accel_x,accel_y,accel_z
22342.064468,2590.720797,-8882.471304,-3140.991542
22342.064802,1628.453072,-10140.821405,-3294.210641
22342.065136,1850.514855,-9252.574275,-4136.915689
22342.065469,3552.988522,-10140.821405,-995.924147
22342.065803,8808.450710,-9918.759623,3600.648841
22342.066137,7105.977043,-7179.997637,1225.752797
22342.066471,9474.636058,-9548.656652,5975.544884
22342.066804,11769.274478,-8290.306550,4519.963438
22342.067138,9474.636058,-5995.668130,2451.505594
22342.067472,10584.944971,-8290.306550,229.828649
22342.067806,7476.080014,-9400.615463,-919.314598
22342.068140,7105.977043,-9474.636058,-2911.162892
22342.068473,7105.977043,-9178.553681,-2604.724693
22342.068807,7031.956449,-9474.636058,-3753.867940
22342.069141,5921.647536,-10140.821405,-459.657299
22342.069475,7105.977043,-9548.656652,2834.553343
22342.069808,11177.109724,-10658.965565,2681.334243
22342.070142,7105.977043,-10436.903782,3677.258390
22342.070476,5033.400406,-10732.986159,2528.115143
22342.070810,5329.482782,-9770.718434,2911.162892
22342.071143,5403.503377,-8364.327145,3370.820191
22342.071477,6439.791695,-6809.894666,3524.039291
22342.071811,2960.823768,-5995.668130,0.000000
22342.072145,5773.606348,-8734.430116,2068.457845
22342.072479,5551.544565,-5107.421000,-2068.457845
22342.072812,4737.318029,-5107.421000,-1838.629195
22342.073146,8586.388927,-9104.533087,-1072.533697
22342.073480,7698.141797,-9548.656652,-2451.505594
22342.073814,9770.718434,-10140.821405,-1072.533697
22342.074147,9918.759623,-12139.377449,-689.485948
22342.074481,10584.944971,-12065.356855,-459.657299
22342.074815,8438.347739,-10140.821405,612.876398
22342.075149,9474.636058,-11177.109724,1762.019645
22342.075482,8290.306550,-8956.491898,1532.190996
22342.075816,9474.636058,-7402.059420,2604.724693
22342.076150,11769.274478,-7698.141797,4213.525239
22342.076484,11177.109724,-5477.523971,2374.896044
22342.076818,8290.306550,-7179.997637,1225.752797
22342.077151,8216.285956,-10658.965565,-76.609550
22342.077485,5847.626942,-9918.759623,-2911.162892
22342.077819,5625.565159,-10140.821405,536.266849
22342.078153,5329.482782,-9622.677246,-1455.581446
22342.078486,6365.771101,-10436.903782,0.000000
22342.078820,9326.594869,-8734.430116,2374.896044
22342.079154,9770.718434,-6809.894666,2451.505594
22342.079488,12953.603985,-5477.523971,0.000000
22342.079822,10066.800811,-9474.636058,1455.581446
22342.080155,11769.274478,-11843.295072,-76.609550
22342.080489,9400.615463,-7476.080014,-4136.915689
22342.080823,8882.471304,-11251.130318,-2528.115143
22342.081157,7550.100608,-11103.089130,-2834.553343
22342.081490,7994.224174,-13027.624579,-383.047749
22342.081824,8142.265362,-11991.336260,3217.601092
22342.082158,11547.212695,-7920.203579,5056.230287
22342.082492,13915.871710,-4811.338623,4903.011187
22342.082825,18875.251521,-6513.812290,7277.907231
22342.083159,14952.160028,-3627.009116,4903.011187
22342.083493,12435.459826,-7328.038826,1149.143247
22342.083827,9474.636058,-9548.656652,-5898.935335
22342.084161,6587.832884,-13471.748144,-6818.249932
22342.084494,3923.091493,-13027.624579,-7737.564530
22342.084828,4441.235652,-12213.398043,-6741.640382
22342.085162,7920.203579,-12435.459826,-2528.115143
22342.085496,11843.295072,-8068.244768,4136.915689
22342.085829,17690.922014,-8882.471304,9116.536426
22342.086163,17394.839637,-6513.812290,8273.831378
22342.086497,14211.954086,-8956.491898,7354.516781
22342.086831,14137.933492,-11251.130318,4826.401637
22342.087165,13249.686362,-6143.709319,1838.629195
22342.087498,13545.768739,-7105.977043,1149.143247
22342.087832,11769.274478,-8512.368333,-2604.724693
22342.088166,6365.771101,-9548.656652,-6128.763984
22342.088500,5847.626942,-14211.954086,-6205.373534
22342.088833,2146.597232,-11325.150913,-6128.763984
22342.089167,4293.194464,-7179.997637,-3677.258390
22342.089501,8882.471304,-11843.295072,3907.087040
22342.089835,14137.933492,-7105.977043,7277.907231
22342.090168,12879.583391,-6217.729913,6741.640382
22342.090502,12583.501014,-6291.750507,6435.202183
22342.090836,12361.439231,-10658.965565,6052.154434
22342.091170,12435.459826,-4811.338623,2451.505594
22342.091504,12657.521608,-9474.636058,536.266849
22342.091837,8438.347739,-6439.791695,-6128.763984
22342.092171,5625.565159,-8660.409521,-8733.488677
22342.092505,4145.153275,-13693.809927,-6128.763984
22342.092839,8068.244768,-8956.491898,-4903.011187
22342.093172,7402.059420,-13027.624579,-76.609550
22342.093506,13545.768739,-9326.594869,1149.143247
22342.093840,9474.636058,-9548.656652,2451.505594
22342.094174,13323.706956,-10066.800811,8120.612279
22342.094508,13841.851115,-7846.182985,6741.640382
22342.094841,14730.098246,-6143.709319,6588.421283
22342.095175,14582.057057,-7105.977043,5745.716235
22342.095509,5921.647536,-7920.203579,-153.219100
22342.095843,2368.659014,-8364.327145,-7354.516781
22342.096176,3478.967927,-13027.624579,-7431.126331
22342.096510,6143.709319,-7698.141797,-5592.497135
22342.096844,5921.647536,-7179.997637,612.876398
22342.097178,9400.615463,-6513.812290,-76.609550
22342.097511,7105.977043,-9548.656652,612.876398
22342.097845,11621.233289,-9474.636058,0.000000
22342.098179,15026.180623,-11843.295072,4673.182538
22342.098513,15174.221811,-7105.977043,4136.915689
22342.098847,15322.262999,-10214.842000,4826.401637
22342.099180,15914.427753,-9474.636058,3600.648841
22342.099514,11695.253884,-10140.821405,1838.629195
22342.099848,9474.636058,-7179.997637,1532.190996
22342.100182,10584.944971,-10955.047942,-76.609550
22342.100515,8586.388927,-9474.636058,-1302.362347
22342.100849,6365.771101,-9548.656652,-1685.410096
22342.101183,8660.409521,-7476.080014,-4366.744339
22342.101517,6957.935855,-11917.315666,-1378.971896
22342.101851,8512.368333,-7402.059420,-229.828649
22342.102184,10362.883188,-5995.668130,153.219100
22342.102518,11843.295072,-8364.327145,5975.544884
22342.102852,14137.933492,-8734.430116,6665.030833
22342.103186,11473.192101,-8956.491898,2451.505594
22342.103519,11547.212695,-10658.965565,2374.896044
22342.103853,9474.636058,-8290.306550,-2451.505594
22342.104187,8586.388927,-9844.739029,-1149.143247
22342.104521,7550.100608,-9030.512492,-2757.943793
22342.104854,7179.997637,-9918.759623,-4060.306139
22342.105188,2516.700203,-10584.944971,-4826.401637
22342.105522,9770.718434,-8956.491898,-2374.896044
22342.105856,8290.306550,-11177.109724,5898.935335
22342.106190,9474.636058,-8660.409521,3677.258390
22342.106523,5921.647536,-8660.409521,4290.134789
22342.106857,8808.450710,-7105.977043,1149.143247
22342.107191,8882.471304,-8364.327145,2451.505594
22342.107525,7402.059420,-4959.379811,6052.154434
22342.107858,4145.153275,-11917.315666,0.000000
22342.108192,0.000000,-10955.047942,-3294.210641
22342.108526,1998.556043,-8438.347739,-2757.943793
22342.108860,-740.205942,-11325.150913,-1225.752797
22342.109193,5847.626942,-3552.988522,-76.609550
22342.109527,-1480.411884,-9844.739029,-76.609550
22342.109861,3478.967927,-7698.141797,-995.924147
22342.110195,4145.153275,-4219.173869,612.876398
22342.110529,2368.659014,-12953.603985,5439.278036
22342.110862,9400.615463,-3552.988522,3600.648841
22342.111196,1924.535449,-10807.006753,-2221.676944
22342.111530,6809.894666,-7772.162391,1302.362347
22342.111864,2368.659014,-10732.986159,-995.924147
22342.112197,5921.647536,-10881.027347,76.609550
22342.112531,3256.906145,-11621.233289,2374.896044
22342.112865,4737.318029,-7772.162391,0.000000
22342.113199,5329.482782,-9474.636058,2987.772442
22342.113533,5847.626942,-8512.368333,-1762.019645
22342.113866,10066.800811,-7772.162391,689.485948
22342.114200,6883.915261,-9474.636058,5132.839837
22342.114534,9696.697840,-9844.739029,2987.772442
22342.114868,2516.700203,-11399.171507,2374.896044
22342.115201,4293.194464,-8956.491898,-536.266849
22342.115535,6439.791695,-5921.647536,-76.609550
22342.115869,0.000000,-9844.739029,612.876398
22342.116203,3256.906145,-9918.759623,-383.047749
22342.116536,-3627.009116,-8808.450710,-3677.258390
22342.116870,-3552.988522,-12213.398043,-1225.752797
22342.117204,0.000000,-5403.503377,-2451.505594
22342.117538,0.000000,-10362.883188,1149.143247
22342.117872,3701.029710,-4959.379811,3524.039291
22342.118205,1036.288319,-6883.915261,2757.943793
22342.118539,5329.482782,-5995.668130,612.876398
22342.118873,2960.823768,-13471.748144,4826.401637
22342.119207,8512.368333,-7402.059420,2374.896044
22342.119540,222.061783,-7920.203579,-2451.505594
22342.119874,0.000000,-12657.521608,-2451.505594
22342.120208,-2664.741391,-11029.068536,-3983.696590
22342.120542,-2294.638420,-13101.645173,153.219100
22342.120876,3034.844362,-6069.688724,1838.629195
22342.121209,-1850.514855,-9252.574275,2068.457845
22342.121543,-1554.432478,-5995.668130,919.314598
22342.121877,-962.267725,-6365.771101,766.095498
22342.122211,222.061783,-9548.656652,4596.572988
22342.122544,4441.235652,-3108.864956,4136.915689
22342.122878,2294.638420,-9474.636058,2068.457845
22342.123212,3478.967927,-8290.306550,76.609550
22342.123546,0.000000,-8364.327145,-4290.134789
22342.123879,2294.638420,-15396.283594,-1915.238745
22342.124213,-444.123565,-10732.986159,-4290.134789
22342.124547,-1184.329507,-12805.562797,-1302.362347
22342.124881,0.000000,-10436.903782,-3677.258390
22342.125215,-3627.009116,-15174.221811,-1225.752797
22342.125548,1110.308913,-9326.594869,3370.820191
22342.125882,-3701.029710,-10066.800811,3600.648841
22342.126216,9400.615463,1332.370696,5669.106685
22342.126550,1480.411884,-9400.615463,10955.165621
22342.126883,9400.615463,0.000000,6052.154434
22342.127217,2072.576638,-6587.832884,5515.887586
22342.127551,-2738.761985,-10658.965565,-3140.991542
22342.127885,740.205942,-10732.986159,-4060.306139
22342.128219,-9104.533087,-12731.542202,-8580.269578
22342.128552,-3775.050304,-12139.377449,-8810.098227
22342.128886,-9474.636058,-11325.150913,-5822.325785
22342.129220,-4811.338623,-12509.480420,-7354.516781
22342.129554,-666.185348,-9474.636058,1149.143247
22342.129887,1998.556043,-7994.224174,2911.162892
22342.130221,5625.565159,-7179.997637,7354.516781
22342.130555,4737.318029,-6587.832884,9806.022374
22342.130889,8068.244768,-4737.318029,6665.030833
22342.131222,1924.535449,-7920.203579,6052.154434
22342.131556,5107.421000,-4663.297435,-612.876398
22342.131890,5847.626942,-9474.636058,2374.896044
22342.132224,-2368.659014,-11917.315666,-3983.696590
22342.132558,-74.020594,-15396.283594,-6205.373534
22342.132891,-6291.750507,-11621.233289,-6435.202183
22342.133225,-2664.741391,-11029.068536,-4596.572988
22342.133559,-74.020594,-11547.212695,3064.381992
22342.133893,814.226536,-5107.421000,0.000000
22342.134226,-888.247130,-10066.800811,1838.629195
22342.134560,814.226536,-6291.750507,2604.724693
22342.134894,-2294.638420,-11103.089130,2451.505594
22342.135228,3478.967927,-8290.306550,4213.525239
22342.135561,3849.070898,-2442.679609,4903.011187
22342.135895,0.000000,-9548.656652,4519.963438
22342.136229,5847.626942,-4441.235652,-1685.410096
22342.136563,-962.267725,-12879.583391,-995.924147
22342.136897,-2442.679609,-12435.459826,-3217.601092
22342.137230,-1554.432478,-11621.233289,-2834.553343
22342.137564,-3256.906145,-13767.830521,-2451.505594
22342.137894,1776.494261,-7846.182985,-3064.381992
22342.138227,1554.432478,-11695.253884,4826.401637
22342.138560,1628.453072,-9326.594869,1685.410096
22342.138894,2368.659014,-6735.874072,3907.087040
22342.139227,2738.761985,-7994.224174,4826.401637
22342.139560,222.061783,-7402.059420,3140.991542
22342.139894,3034.844362,-4441.235652,6052.154434
22342.140227,-666.185348,-8290.306550,-2834.553343
22342.140560,-2960.823768,-8364.327145,-2374.896044
22342.140894,-1184.329507,-8216.285956,-3064.381992
22342.141227,-4219.173869,-16136.489536,-5745.716235
22342.141560,666.185348,-9474.636058,-2528.115143
22342.141893,-370.102971,-16580.613101,-2528.115143
22342.142227,2072.576638,-8808.450710,2528.115143
22342.142560,2368.659014,-5995.668130,1225.752797
22342.142893,7031.956449,-9474.636058,6052.154434
22342.143227,5033.400406,-5995.668130,4903.011187
22342.143560,2960.823768,-8364.327145,4519.963438
22342.143893,1406.391290,-11251.130318,2374.896044
22342.144227,-5921.647536,-8364.327145,-3370.820191
22342.144560,-888.247130,-10140.821405,-612.876398
22342.144893,-3849.070898,-3330.926739,-1915.238745
22342.145226,-1554.432478,-9844.739029,-2145.067394
22342.145560,-2220.617826,-9474.636058,-76.609550
22342.145893,-666.185348,-15396.283594,-2528.115143
22342.146226,-3552.988522,-7179.997637,-766.095498
22342.146560,2368.659014,-10658.965565,6052.154434
22342.146893,1702.473667,-7772.162391,0.000000
22342.147226,4811.338623,-9178.553681,6052.154434
22342.147560,1776.494261,-8660.409521,1608.800546
22342.147893,0.000000,-10436.903782,919.314598
22342.148226,296.082377,-8882.471304,-1838.629195
22342.148560,74.020594,-10658.965565,-1532.190996
22342.148893,-2072.576638,-4811.338623,-4903.011187
22342.149226,0.000000,-8660.409521,-1149.143247
22342.149559,-1258.350101,-13027.624579,-4060.306139
22342.149893,-74.020594,-10140.821405,0.000000
22342.150226,4441.235652,-9178.553681,4826.401637
22342.150559,2072.576638,-8660.409521,6894.859482
22342.150893,3034.844362,-5329.482782,2987.772442
22342.151226,-2442.679609,-10288.862594,2451.505594
22342.151559,444.123565,-2812.782580,919.314598
22342.151893,444.123565,-6809.894666,-2298.286494
22342.152226,-2220.617826,-13693.809927,-3294.210641
22342.152559,-814.226536,-7402.059420,-2911.162892
22342.152892,-7105.977043,-12953.603985,-4903.011187
22342.153226,2294.638420,-11251.130318,-1915.238745
22342.153559,-1554.432478,-8142.265362,-4290.134789
22342.153892,740.205942,-12213.398043,1838.629195
22342.154226,6143.709319,-8290.306550,4826.401637
22342.154559,3256.906145,-8956.491898,4903.011187
22342.154892,4663.297435,-8882.471304,5439.278036
22342.155226,2072.576638,-10214.842000,5362.668486
22342.155559,3034.844362,-10140.821405,2528.115143
22342.155892,444.123565,-8290.306550,4826.401637
22342.156226,148.041188,-5403.503377,-919.314598
22342.156559,-370.102971,-7179.997637,-3677.258390
22342.156892,-5329.482782,-10436.903782,-3064.381992
22342.157225,-3552.988522,-7624.121203,-4366.744339
22342.157559,-7179.997637,-14804.118840,-3753.867940
22342.157892,-3034.844362,-10658.965565,-3907.087040
22342.158225,-1110.308913,-9326.594869,2298.286494
22342.158559,1332.370696,-7624.121203,4979.620737
22342.158892,4737.318029,-2886.803174,4903.011187
22342.159225,2294.638420,-10881.027347,4826.401637
22342.159559,3552.988522,-5403.503377,3677.258390
22342.159892,740.205942,-12731.542202,3600.648841
22342.160225,4663.297435,-7179.997637,0.000000
22342.160558,-2960.823768,-12213.398043,-6128.763984
22342.160892,-3330.926739,-12879.583391,-3447.429741
22342.161225,-148.041188,-8882.471304,-2834.553343
22342.161558,-3108.864956,-14285.974681,-306.438199
22342.161892,5551.544565,-1110.308913,1532.190996
22342.162225,-6587.832884,-11547.212695,536.266849
22342.162558,2960.823768,-4145.153275,6052.154434
22342.162892,-74.020594,-9474.636058,-689.485948
22342.163225,3256.906145,-8660.409521,4903.011187
22342.163558,3256.906145,-5995.668130,5515.887586
22342.163891,-2812.782580,-10288.862594,-2145.067394
22342.164225,-74.020594,-11843.295072,-2681.334243
22342.164558,-7476.080014,-12657.521608,-4903.011187
22342.164891,-370.102971,-8660.409521,-3983.696590
22342.165225,-3552.988522,-9548.656652,0.000000
22342.165558,7031.956449,-9474.636058,-76.609550
22342.165891,888.247130,-7179.997637,3677.258390
22342.166225,1184.329507,-7179.997637,5209.449386
22342.166558,5847.626942,-9474.636058,6358.592633
22342.166891,592.164754,-7179.997637,3677.258390
22342.167225,4589.276840,-7920.203579,0.000000
22342.167558,1480.411884,-8660.409521,3294.210641
22342.167891,1628.453072,-7254.018232,-1378.971896
22342.168224,-4441.235652,-8512.368333,-2451.505594
22342.168558,-3034.844362,-13027.624579,-3907.087040
22342.168891,-3182.885551,-12435.459826,-4213.525239
22342.169224,-1184.329507,-8882.471304,-1378.971896
22342.169558,-74.020594,-8290.306550,-1302.362347
22342.169891,-2664.741391,-8660.409521,0.000000
22342.170224,3849.070898,-6439.791695,6052.154434
22342.170558,5847.626942,-8882.471304,3294.210641
22342.170891,2960.823768,-8364.327145,4749.792088
22342.171224,4663.297435,-11399.171507,4826.401637
22342.171557,-1406.391290,-8734.430116,-1072.533697
22342.171891,2294.638420,-7698.141797,-2374.896044
22342.172224,740.205942,-12731.542202,1762.019645
22342.172557,1258.350101,-7179.997637,-2451.505594
22342.172891,-2738.761985,-8364.327145,0.000000
22342.173224,-666.185348,-9474.636058,-2528.115143
22342.173557,-5995.668130,-14211.954086,-3447.429741
22342.173891,-2368.659014,-6291.750507,612.876398
22342.174224,-5107.421000,-10658.965565,-76.609550
22342.174557,-1110.308913,-2294.638420,3600.648841
22342.174890,-518.144159,-5033.400406,229.828649
22342.175224,2442.679609,-9844.739029,3677.258390
22342.175557,2516.700203,-7179.997637,5056.230287
22342.175890,-3552.988522,-10436.903782,-153.219100
22342.176224,2886.803174,-9474.636058,-2221.676944
22342.176557,-7105.977043,-10140.821405,-6741.640382
22342.176890,0.000000,-10732.986159,-76.609550
22342.177224,-3552.988522,-12065.356855,-2298.286494
22342.177557,3478.967927,-7846.182985,-689.485948
22342.177890,0.000000,-11325.150913,2911.162892
22342.178224,814.226536,-10214.842000,3830.477490
22342.178557,6735.874072,-4145.153275,3600.648841
22342.178890,-2072.576638,-11399.171507,7277.907231
22342.179223,4367.215058,-6513.812290,1762.019645
22342.179557,-2368.659014,-5995.668130,2451.505594
22342.179890,4663.297435,-10066.800811,1838.629195
22342.180223,-74.020594,-9474.636058,-1302.362347
22342.180557,-1850.514855,-11473.192101,-2451.505594
22342.180890,-2516.700203,-12287.418637,-4979.620737
22342.181223,-2664.741391,-9622.677246,-2221.676944
22342.181557,-3552.988522,-9548.656652,-2451.505594
22342.181890,-74.020594,-11843.295072,-1302.362347
22342.182223,1184.329507,-6587.832884,3217.601092
22342.182556,5329.482782,-6883.915261,7277.907231
22342.182890,6439.791695,-7994.224174,5515.887586
22342.183223,2886.803174,-7772.162391,3907.087040
22342.183556,4663.297435,-8586.388927,0.000000
22342.183890,2812.782580,-11473.192101,76.609550
22342.184223,3701.029710,-8734.430116,1838.629195
22342.184556,-2960.823768,-11917.315666,-4290.134789
22342.184890,1110.308913,-9918.759623,-1915.238745
22342.185223,-5403.503377,-11843.295072,-4136.915689
22342.185556,-3701.029710,-11547.212695,-689.485948
22342.185890,-1406.391290,-4071.132681,-1762.019645
22342.186223,-5921.647536,-9844.739029,-2451.505594
22342.186556,3478.967927,-5625.565159,3600.648841
22342.186889,-2442.679609,-6143.709319,612.876398
22342.187223,5921.647536,-8586.388927,2987.772442
22342.187556,-74.020594,-11843.295072,4826.401637
22342.187889,888.247130,-7179.997637,-2145.067394
22342.188223,-962.267725,-11473.192101,76.609550
22342.188556,-2146.597232,-11621.233289,-2068.457845
22342.188889,1110.308913,-9622.677246,-842.705048
22342.189223,-3256.906145,-13249.686362,2911.162892
22342.189556,4663.297435,-5921.647536,-689.485948
22342.189889,-3256.906145,-8364.327145,2451.505594
22342.190222,592.164754,-8660.409521,-1378.971896
22342.190556,1110.308913,-6661.853478,3140.991542
22342.190889,-2368.659014,-8956.491898,2298.286494
22342.191222,5403.503377,-7254.018232,1991.848295
22342.191556,-740.205942,-9992.780217,5286.058936
22342.191889,2590.720797,-7994.224174,-2221.676944
22342.192222,1110.308913,-12879.583391,3600.648841
22342.192556,2886.803174,-6217.729913,-5439.278036
22342.192889,0.000000,-13693.809927,-689.485948
22342.193222,-2368.659014,-10881.027347,1149.143247
22342.193555,2294.638420,-8290.306550,-5898.935335
22342.193889,-4219.173869,-14211.954086,536.266849
22342.194222,3627.009116,-7402.059420,1072.533697
22342.194555,-1184.329507,-9992.780217,3370.820191
22342.194889,1702.473667,-5773.606348,1838.629195
22342.195222,740.205942,-8364.327145,1915.238745
22342.195555,592.164754,-8068.244768,3677.258390
22342.195889,6883.915261,-6809.894666,3600.648841
22342.196222,1406.391290,-10362.883188,2298.286494
22342.196555,1998.556043,-7402.059420,-2451.505594
22342.196889,1110.308913,-13027.624579,-2528.115143
22342.197222,-1110.308913,-11843.295072,-2834.553343
22342.197555,-1332.370696,-11251.130318,-6818.249932
22342.197888,-5847.626942,-15470.304188,-4826.401637
22342.198222,-2368.659014,-9548.656652,1378.971896
22342.198555,444.123565,-4219.173869,229.828649
22342.198888,1850.514855,-7179.997637,7048.078582
22342.199222,-444.123565,-8216.285956,1838.629195
22342.199555,6735.874072,-6809.894666,7890.783629
22342.199888,-74.020594,-13027.624579,3600.648841
22342.200222,5551.544565,-2812.782580,-2757.943793
22342.200555,444.123565,-7994.224174,-76.609550
22342.200888,2294.638420,-11251.130318,-3753.867940
22342.201221,-296.082377,-12361.439231,-3064.381992
22342.201555,-3034.844362,-13767.830521,-4826.401637
22342.201888,-740.205942,-14063.912898,-2451.505594
22342.202221,-2368.659014,-6587.832884,-1149.143247
22342.202555,2368.659014,-11917.315666,7277.907231
22342.202888,4737.318029,518.144159,8427.050478
22342.203221,2442.679609,-7179.997637,2451.505594
22342.203555,7031.956449,-8290.306550,5745.716235
22342.203888,518.144159,-11843.295072,-689.485948
22342.204221,1184.329507,-5773.606348,-612.876398
22342.204555,-666.185348,-15396.283594,-5898.935335
22342.204888,-3775.050304,-11695.253884,-3907.087040
22342.205221,-2368.659014,-8586.388927,-2221.676944
22342.205554,-592.164754,-8808.450710,-1838.629195
22342.205888,3478.967927,-7105.977043,2374.896044
22342.206221,-148.041188,-10658.965565,3217.601092
22342.206554,7031.956449,-11251.130318,7124.688131
22342.206888,-3552.988522,-5995.668130,0.000000
22342.207221,0.000000,-10732.986159,1225.752797
22342.207554,518.144159,-7105.977043,2068.457845
22342.207888,1480.411884,-9548.656652,1685.410096
22342.208221,2220.617826,-6069.688724,919.314598
22342.208554,-3552.988522,-12287.418637,-1838.629195
22342.208887,-3182.885551,-8364.327145,-4903.011187
22342.209221,-740.205942,-13619.789333,-689.485948
22342.209554,2590.720797,-11251.130318,-1302.362347
22342.209887,-4145.153275,-7476.080014,3677.258390
22342.210221,1998.556043,-7105.977043,-689.485948
22342.210554,1184.329507,-8512.368333,1149.143247
22342.210887,1406.391290,-8808.450710,612.876398
22342.211221,1628.453072,-11843.295072,1608.800546
22342.211554,740.205942,-8364.327145,2451.505594
22342.211887,740.205942,-10955.047942,536.266849
22342.212220,-1258.350101,-11251.130318,-1608.800546
22342.212554,0.000000,-8956.491898,1838.629195
22342.212887,-2368.659014,-7772.162391,1455.581446
22342.213220,2294.638420,-9474.636058,-76.609550
22342.213554,0.000000,-10066.800811,1455.581446
22342.213887,592.164754,-7920.203579,536.266849
22342.214220,-814.226536,-6735.874072,-1225.752797
22342.214554,3182.885551,-8142.265362,766.095498
22342.214887,888.247130,-7328.038826,536.266849
22342.215220,1628.453072,-8068.244768,-689.485948
22342.215554,148.041188,-10881.027347,0.000000
22342.215887,222.061783,-12509.480420,612.876398
22342.216220,296.082377,-5403.503377,2451.505594
22342.216553,888.247130,-9918.759623,-76.609550
22342.216887,2146.597232,-9030.512492,842.705048
22342.217220,-2886.803174,-5995.668130,0.000000
22342.217553,0.000000,-10732.986159,1455.581446
22342.217887,-74.020594,-8290.306550,-2221.676944
22342.218220,0.000000,-11547.212695,-1302.362347
22342.218553,592.164754,-7254.018232,2987.772442
22342.218887,2368.659014,-4219.173869,306.438199
22342.219220,3849.070898,-9252.574275,2911.162892
22342.219553,3478.967927,-10436.903782,5745.716235
22342.219886,3478.967927,-5403.503377,0.000000
22342.220220,888.247130,-13915.871710,4826.401637
22342.220553,3478.967927,-8882.471304,-2528.115143
22342.220886,-2960.823768,-13693.809927,-2451.505594
22342.221220,-1998.556043,-10955.047942,-2528.115143
22342.221553,-3330.926739,-10658.965565,-2681.334243
22342.221886,-4293.194464,-7550.100608,-3447.429741
22342.222220,-666.185348,-8882.471304,-383.047749
22342.222553,2960.823768,-7031.956449,5439.278036
22342.222886,3034.844362,-6587.832884,7354.516781
22342.223220,1480.411884,-8142.265362,5439.278036
22342.223553,2294.638420,-8290.306550,2987.772442
22342.223886,2294.638420,-6809.894666,1455.581446
22342.224219,1036.288319,-10436.903782,-689.485948
22342.224553,1850.514855,-10584.944971,-1762.019645
22342.224886,-3108.864956,-13915.871710,-4290.134789
22342.225219,-5921.647536,-10732.986159,-4903.011187
22342.225553,-3627.009116,-13027.624579,-4366.744339
22342.225886,-4145.153275,-9548.656652,0.000000
22342.226219,-2960.823768,-9770.718434,1762.019645
22342.226553,1406.391290,-3701.029710,1915.238745
22342.226886,0.000000,-5403.503377,4903.011187
22342.227219,2960.823768,-3775.050304,6894.859482
22342.227552,4145.153275,-8290.306550,5669.106685
22342.227886,1702.473667,-9770.718434,5132.839837
22342.228219,4367.215058,-7550.100608,2374.896044
22342.228552,-2442.679609,-7179.997637,-11031.775171
22342.228886,-2442.679609,-18357.107362,-4979.620737
22342.229219,444.123565,-7105.977043,-8656.879127
22342.229552,-4737.318029,-17246.798449,306.438199
22342.229886,148.041188,-4219.173869,-1532.190996
22342.230219,-3256.906145,-14359.995275,-919.314598
22342.230552,666.185348,-11177.109724,5439.278036
22342.230885,4515.256246,-2072.576638,4443.353888
22342.231219,2886.803174,-8290.306550,8503.660028
22342.231552,5551.544565,-2442.679609,6435.202183
22342.231885,2738.761985,-6957.935855,3600.648841
22342.232219,3849.070898,-8586.388927,2374.896044
22342.232552,518.144159,-10584.944971,-919.314598
22342.232885,-2294.638420,-12361.439231,-3753.867940
22342.233219,-3330.926739,-11325.150913,-8580.269578
22342.233552,-7105.977043,-13693.809927,-1072.533697
22342.233885,-370.102971,-8290.306550,-3753.867940
22342.234219,-2072.576638,-10510.924376,0.000000
22342.234552,2368.659014,-7402.059420,2374.896044
22342.234885,4885.359217,-8956.491898,9269.755526
22342.235218,3849.070898,-5403.503377,6511.811733
22342.235552,7179.997637,-4515.256246,6128.763984
22342.235885,1110.308913,-11547.212695,2374.896044
22342.236218,-444.123565,-9548.656652,0.000000
22342.236552,1998.556043,-7698.141797,-689.485948
22342.236885,1110.308913,-10584.944971,-4290.134789
22342.237218,592.164754,-7179.997637,-1685.410096
22342.237552,-1554.432478,-11843.295072,-2834.553343
22342.237885,-592.164754,-11103.089130,-4213.525239
22342.238218,-1924.535449,-10732.986159,-1532.190996
22342.238551,518.144159,-11769.274478,1072.533697
22342.238885,592.164754,-3923.091493,0.000000
22342.239218,0.000000,-7179.997637,3677.258390
22342.239551,2294.638420,-9474.636058,-842.705048
22342.239885,592.164754,-7179.997637,2451.505594
22342.240218,3552.988522,-6291.750507,4826.401637
22342.240551,1702.473667,-7179.997637,2604.724693
22342.240885,-1998.556043,-8438.347739,-842.705048
22342.241218,-1924.535449,-10066.800811,-2068.457845
22342.241551,-1850.514855,-13323.706956,536.266849
22342.241884,-2590.720797,-5921.647536,-2681.334243
22342.242217,-3849.070898,-8068.244768,-3753.867940
22342.242550,-1258.350101,-9548.656652,-3677.258390
22342.242884,0.000000,-9548.656652,919.314598
22342.243217,0.000000,-8364.327145,3830.477490
22342.243550,4663.297435,-11251.130318,1762.019645
22342.243883,592.164754,-10732.986159,2451.505594
22342.244216,5329.482782,-10658.965565,6052.154434
22342.244550,3701.029710,-8956.491898,3600.648841
22342.244883,0.000000,-9548.656652,1532.190996
22342.245216,-1258.350101,-7920.203579,-3064.381992
22342.245549,-74.020594,-10362.883188,-1838.629195
22342.245882,-2294.638420,-11251.130318,-1302.362347
22342.246215,-370.102971,-6883.915261,-1532.190996
22342.246549,-666.185348,-7698.141797,1762.019645
22342.246882,1184.329507,-6439.791695,919.314598
22342.247215,-370.102971,-10214.842000,2298.286494
22342.247548,-1554.432478,-11843.295072,612.876398
22342.247881,4737.318029,-7105.977043,2374.896044
22342.248215,-1036.288319,-10881.027347,2681.334243
22342.248548,5107.421000,-6439.791695,536.266849
22342.248881,-2516.700203,-14878.139434,-76.609550
22342.249214,222.061783,-10955.047942,459.657299
22342.249547,-2368.659014,-8660.409521,-2451.505594
22342.249880,-370.102971,-7772.162391,-4596.572988
22342.250214,2368.659014,-5403.503377,2221.676944
22342.250547,1702.473667,-11843.295072,842.705048
22342.250880,4663.297435,-6809.894666,3600.648841
22342.251213,1776.494261,-8586.388927,4826.401637
22342.251546,4441.235652,-9474.636058,4443.353888
22342.251880,3923.091493,-6809.894666,2987.772442
22342.252213,222.061783,-11843.295072,-1302.362347
22342.252546,-74.020594,-11251.130318,-76.609550
22342.252879,-7105.977043,-7772.162391,-5515.887586
22342.253212,-2368.659014,-9548.656652,-3294.210641
22342.253545,-5107.421000,-11103.089130,-5132.839837
22342.253879,-3552.988522,-8364.327145,0.000000
22342.254212,-1850.514855,-8882.471304,-1915.238745
22342.254545,-888.247130,-10436.903782,536.266849
22342.254878,1776.494261,-6957.935855,2451.505594
22342.255211,6217.729913,-6069.688724,5745.716235
22342.255544,6143.709319,-9030.512492,4519.963438
22342.255878,5921.647536,-8364.327145,9729.412825
22342.256211,2886.803174,-9030.512492,-1838.629195
22342.256544,-2368.659014,-10732.986159,-1838.629195
22342.256877,-74.020594,-10658.965565,-1915.238745
22342.257210,-2590.720797,-13249.686362,-3524.039291
22342.257544,-962.267725,-6439.791695,-2604.724693
22342.257877,-2220.617826,-11103.089130,-1378.971896
22342.258210,-5477.523971,-10881.027347,-76.609550
22342.258543,-3849.070898,-7476.080014,1225.752797
22342.258876,-2442.679609,-9474.636058,6052.154434
22342.259209,1702.473667,-2812.782580,1608.800546
22342.259543,2960.823768,-4811.338623,4903.011187
22342.259876,7920.203579,-9474.636058,4826.401637
22342.260209,2738.761985,-9548.656652,3753.867940
22342.260542,1110.308913,-9326.594869,-1378.971896
22342.260875,1406.391290,-10955.047942,-4366.744339
22342.261209,-2368.659014,-14730.098246,-5592.497135
22342.261542,592.164754,-12805.562797,-7048.078582
22342.261875,-3849.070898,-13545.768739,-1225.752797
22342.262208,-2368.659014,-8956.491898,-1225.752797
22342.262541,2368.659014,-7179.997637,3370.820191
22342.262874,2294.638420,-8882.471304,7277.907231
22342.263208,4367.215058,-1258.350101,4903.011187
22342.263541,148.041188,-7476.080014,7354.516781
22342.263874,-74.020594,-7105.977043,-76.609550
22342.264207,-3404.947333,-6291.750507,0.000000
22342.264540,-74.020594,-7105.977043,-2528.115143
22342.264874,0.000000,-11325.150913,-3294.210641
22342.265207,-740.205942,-9030.512492,-5592.497135
22342.265540,-4663.297435,-16654.633695,-5362.668486
22342.265873,-4737.318029,-9548.656652,-4903.011187
22342.266206,2886.803174,-11251.130318,-3677.258390
22342.266539,1776.494261,-13915.871710,2374.896044
22342.266873,5551.544565,-10140.821405,3677.258390
22342.267206,2368.659014,-7179.997637,8580.269578
22342.267539,1184.329507,-8068.244768,6511.811733
22342.267872,2368.659014,-1406.391290,7048.078582
22342.268205,1258.350101,-7402.059420,1378.971896
22342.268538,3404.947333,-3849.070898,1991.848295
22342.268872,1332.370696,-11251.130318,1762.019645
22342.269205,-4811.338623,-7772.162391,-7354.516781
22342.269538,-2442.679609,-9474.636058,-4979.620737
22342.269871,-8290.306550,-10140.821405,-6588.421283
22342.270204,-1258.350101,-12879.583391,-1915.238745
22342.270538,-3256.906145,-9992.780217,-2451.505594
22342.270871,2146.597232,-9622.677246,-1378.971896
22342.271204,148.041188,-9992.780217,4749.792088
22342.271537,9400.615463,-5181.441594,6511.811733
22342.271870,4219.173869,-11843.295072,6818.249932
22342.272203,5921.647536,-4811.338623,6741.640382
22342.272537,2294.638420,-8068.244768,0.000000
22342.272870,-1628.453072,-9844.739029,-1838.629195
22342.273203,1406.391290,-9474.636058,-2834.553343
22342.273536,-4219.173869,-11843.295072,-2528.115143
22342.273869,2886.803174,-8586.388927,-1608.800546
22342.274203,-5329.482782,-12953.603985,-3677.258390
22342.274536,0.000000,-6661.853478,1225.752797
22342.274869,518.144159,-6365.771101,3753.867940
22342.275202,3478.967927,-8290.306550,7890.783629
22342.275535,1184.329507,-74.020594,612.876398
22342.275868,-2812.782580,-14804.118840,-76.609550
22342.276202,4663.297435,-3701.029710,0.000000
22342.276535,-1406.391290,-12731.542202,-2528.115143
22342.276868,2294.638420,-10658.965565,-1302.362347
22342.277201,-4145.153275,-10066.800811,-4596.572988
22342.277534,-6661.853478,-16284.530724,-4903.011187
22342.277868,3552.988522,-4811.338623,-1149.143247
22342.278201,-74.020594,-15988.448347,2987.772442
22342.278534,4145.153275,-7179.997637,4213.525239
22342.278867,1554.432478,-5107.421000,2145.067394
22342.279200,666.185348,-14804.118840,2911.162892
22342.279533,7105.977043,-74.020594,5515.887586
22342.279867,-74.020594,-11547.212695,4060.306139
22342.280200,1776.494261,-1850.514855,-3677.258390
22342.280533,-2960.823768,-12139.377449,-689.485948
22342.280866,1110.308913,-9770.718434,-2451.505594
22342.281199,-962.267725,-7772.162391,-1838.629195
22342.281533,-3330.926739,-11177.109724,-3140.991542
22342.281866,-4145.153275,-8882.471304,-3294.210641
22342.282199,-11251.130318,-14878.139434,-5515.887586
22342.282532,2368.659014,-10436.903782,1685.410096
22342.282865,2738.761985,-9474.636058,5439.278036
22342.283198,3108.864956,-5107.421000,5209.449386
22342.283532,2368.659014,-3034.844362,7584.345430
22342.283865,4663.297435,-9178.553681,1149.143247
22342.284198,5921.647536,-7179.997637,5669.106685
22342.284531,3997.112087,-8512.368333,1838.629195
22342.284864,-888.247130,-14285.974681,-3370.820191
22342.285197,-2368.659014,-10881.027347,-5286.058936
22342.285531,-1554.432478,-11843.295072,-3140.991542
22342.285864,-74.020594,-11843.295072,-1915.238745
22342.286197,-3256.906145,-8660.409521,2145.067394
22342.286530,-2220.617826,-7105.977043,-2528.115143
22342.286863,-1850.514855,-11103.089130,2987.772442
22342.287197,5847.626942,-4145.153275,7890.783629
22342.287530,4071.132681,-7994.224174,5745.716235
22342.287863,3256.906145,-7105.977043,5745.716235
22342.288196,2294.638420,-7402.059420,919.314598
22342.288529,1480.411884,-9548.656652,1225.752797
22342.288862,2294.638420,-6883.915261,-3677.258390
22342.289196,-3552.988522,-14730.098246,-3753.867940
22342.289529,-3627.009116,-13471.748144,-8197.221829
22342.289862,-5773.606348,-11325.150913,-7354.516781
22342.290195,1184.329507,-8660.409521,-1225.752797
22342.290528,2812.782580,-8512.368333,5439.278036
22342.290862,1776.494261,-7105.977043,3830.477490
22342.291195,3108.864956,-6291.750507,3753.867940
22342.291528,-74.020594,-11547.212695,7277.907231
22342.291861,3552.988522,-4219.173869,8580.269578
22342.292194,6439.791695,-5329.482782,6665.030833
22342.292527,0.000000,-5403.503377,1225.752797
22342.292861,2812.782580,-6217.729913,-689.485948
22342.293194,-6513.812290,-13101.645173,-8580.269578
22342.293527,-296.082377,-10658.965565,-8273.831378
22342.293860,-6365.771101,-17098.757260,-3983.696590
22342.294193,-5773.606348,-13471.748144,-6205.373534
22342.294527,-666.185348,-10066.800811,-1302.362347
22342.294860,-2960.823768,-13397.727550,2068.457845
22342.295193,6217.729913,-2516.700203,7354.516781
22342.295526,-296.082377,-6957.935855,7354.516781
22342.295859,6143.709319,-5181.441594,5745.716235
22342.296192,5847.626942,-7698.141797,9729.412825
22342.296526,2368.659014,-5107.421000,2451.505594
22342.296859,4071.132681,-11251.130318,1762.019645
22342.297192,-6513.812290,-9548.656652,-4903.011187
22342.297525,-1184.329507,-7179.997637,-11338.213370
22342.297858,-5773.606348,-16580.613101,-2528.115143
22342.298191,0.000000,-9696.697840,-3447.429741
22342.298525,-5847.626942,-12361.439231,-4060.306139
22342.298858,-1406.391290,-10658.965565,-995.924147
22342.299191,-74.020594,-7105.977043,536.266849
22342.299524,4737.318029,-6291.750507,12180.918418
22342.299857,7105.977043,-2738.761985,8503.660028
22342.300191,1110.308913,-7994.224174,3983.696590
22342.300524,-4737.318029,-11029.068536,1838.629195
22342.300857,-2146.597232,-7550.100608,-4213.525239
22342.301190,1480.411884,-10066.800811,-1838.629195
22342.301523,1850.514855,-10214.842000,-612.876398
22342.301856,888.247130,-7920.203579,-2145.067394
22342.302190,1480.411884,-9548.656652,-6128.763984
22342.302523,-3552.988522,-18653.189738,2374.896044
22342.302856,2294.638420,-7179.997637,-2145.067394
22342.303189,-1924.535449,-11325.150913,612.876398
22342.303522,2960.823768,-6513.812290,3600.648841
22342.303856,1184.329507,-6587.832884,4903.011187
22342.304189,2738.761985,-5921.647536,7354.516781
22342.304522,3182.885551,-4145.153275,1455.581446
22342.304855,-1110.308913,-9474.636058,-306.438199
22342.305188,-74.020594,-12065.356855,919.314598
22342.305521,-74.020594,-11843.295072,-2528.115143
22342.305855,-2442.679609,-9844.739029,-3677.258390
22342.306188,-4737.318029,-10288.862594,-4903.011187
22342.306521,-3627.009116,-14211.954086,-2528.115143
22342.306854,1184.329507,-7179.997637,0.000000
22342.307187,2664.741391,-8142.265362,4366.744339
22342.307521,3923.091493,-6883.915261,4903.011187
22342.307854,2146.597232,-7402.059420,1685.410096
22342.308187,3182.885551,-11103.089130,5669.106685
22342.308520,6439.791695,-4293.194464,1838.629195
22342.308853,3108.864956,-11843.295072,2757.943793
22342.309186,296.082377,-8290.306550,842.705048
22342.309520,-4737.318029,-6809.894666,-8886.707777
22342.309853,-9326.594869,-14582.057057,-4903.011187
22342.310186,-666.185348,-10658.965565,-4366.744339
22342.310519,-3478.967927,-8882.471304,-842.705048
22342.310852,0.000000,-4219.173869,2757.943793
22342.311185,2294.638420,-6809.894666,2987.772442
22342.311519,1406.391290,-7920.203579,4290.134789
22342.311852,4071.132681,-7328.038826,3447.429741
22342.312185,1258.350101,-10066.800811,1149.143247
22342.312518,1776.494261,-9252.574275,-1838.629195
22342.312851,-666.185348,-12065.356855,-2451.505594
22342.313185,2886.803174,-11251.130318,-5286.058936
22342.313518,-3552.988522,-14582.057057,-3064.381992
22342.313851,-1776.494261,-10140.821405,2834.553343
22342.314184,0.000000,-7772.162391,-1225.752797
22342.314517,0.000000,-8808.450710,5439.278036
22342.314850,0.000000,-7031.956449,612.876398
22342.315184,592.164754,-7772.162391,5669.106685
22342.315517,-1554.432478,-7698.141797,4826.401637
22342.315850,0.000000,-4219.173869,153.219100
22342.316183,3478.967927,-8882.471304,1149.143247
22342.316516,296.082377,-5995.668130,-1838.629195
22342.316850,2146.597232,-12731.542202,-306.438199
22342.317183,-4811.338623,-13619.789333,-7431.126331
22342.317516,0.000000,-13323.706956,-4366.744339
22342.317849,-3478.967927,-13767.830521,-2451.505594
22342.318182,3849.070898,-8956.491898,459.657299
22342.318515,-3404.947333,-11695.253884,1455.581446
22342.318849,2294.638420,-6439.791695,3294.210641
22342.319182,1628.453072,-7772.162391,7354.516781
22342.319515,4737.318029,-4811.338623,12180.918418
22342.319848,7031.956449,-4737.318029,5669.106685
22342.320181,-2368.659014,-5403.503377,766.095498
22342.320515,3182.885551,-5625.565159,-995.924147
22342.320848,-2960.823768,-12879.583391,-2145.067394
22342.321181,2146.597232,-10066.800811,-1378.971896
22342.321514,-6217.729913,-8956.491898,-9576.193725
22342.321847,-2442.679609,-14804.118840,-5592.497135
22342.322180,-2368.659014,-10732.986159,919.314598
22342.322514,-962.267725,-10881.027347,-2221.676944
22342.322847,2294.638420,-5329.482782,0.000000
22342.323180,-2368.659014,-5995.668130,3064.381992
22342.323513,4663.297435,-7105.977043,3907.087040
22342.323846,2516.700203,-6217.729913,6588.421283
22342.324180,5403.503377,-6809.894666,4290.134789
22342.324513,2072.576638,-7920.203579,1991.848295
22342.324846,3478.967927,-8882.471304,-1302.362347
22342.325179,4071.132681,-11399.171507,-3370.820191
22342.325512,-1480.411884,-13767.830521,-919.314598
22342.325845,1110.308913,-10436.903782,-3983.696590
22342.326179,-4737.318029,-13101.645173,-2451.505594
22342.326512,-3330.926739,-13027.624579,-2834.553343
22342.326845,-2812.782580,-3627.009116,-4596.572988
22342.327178,-2368.659014,-9548.656652,4213.525239
22342.327511,5255.462188,-2072.576638,2068.457845
22342.327844,-2886.803174,-8364.327145,6128.763984
22342.328178,296.082377,-7105.977043,2374.896044
22342.328511,1924.535449,-7402.059420,4060.306139
22342.328844,296.082377,-8142.265362,919.314598
22342.329177,5847.626942,-11251.130318,2834.553343
22342.329510,-1258.350101,-10658.965565,-3753.867940
22342.329844,-1776.494261,-12805.562797,-2451.505594
22342.330177,-4737.318029,-12213.398043,-919.314598
22342.330510,-74.020594,-9474.636058,-2987.772442
22342.330843,-888.247130,-10732.986159,-76.609550
22342.331176,-518.144159,-10658.965565,2145.067394
22342.331509,1998.556043,-4293.194464,5209.449386
22342.331843,1998.556043,-5625.565159,2298.286494
22342.332176,2072.576638,-7550.100608,4673.182538
22342.332509,2294.638420,-2812.782580,-1608.800546
22342.332842,3108.864956,-11843.295072,3600.648841
22342.333175,1258.350101,-8808.450710,306.438199
22342.333509,-3182.885551,-10288.862594,-4903.011187
22342.333842,-4219.173869,-13027.624579,-3753.867940
22342.334175,-2368.659014,-9548.656652,-3447.429741
22342.334508,-1110.308913,-10584.944971,-2298.286494
22342.334841,4219.173869,-7031.956449,2068.457845
22342.335174,1332.370696,-9252.574275,4290.134789
22342.335508,-740.205942,-5995.668130,0.000000
22342.335841,2368.659014,-9252.574275,4826.401637
22342.336174,3478.967927,-8734.430116,1915.238745
22342.336507,5921.647536,-4811.338623,1378.971896
22342.336840,2664.741391,-11325.150913,766.095498
22342.337174,-962.267725,-12509.480420,-1532.190996
22342.337507,-3182.885551,-11251.130318,-4060.306139
22342.337840,-1480.411884,-11621.233289,-383.047749
22342.338173,-74.020594,-8290.306550,-1608.800546
22342.338506,-2368.659014,-9548.656652,1608.800546
22342.338839,-3034.844362,-8290.306550,-1532.190996
22342.339173,-2146.597232,-5699.585753,0.000000
22342.339506,-2146.597232,-9474.636058,3600.648841
22342.339839,5921.647536,-814.226536,3064.381992
22342.340172,962.267725,-10955.047942,2374.896044
22342.340505,5329.482782,-9326.594869,3370.820191
22342.340838,592.164754,-10510.924376,1532.190996
22342.341172,-74.020594,-11843.295072,-3140.991542
22342.341505,0.000000,-11325.150913,-3600.648841
22342.341838,-2442.679609,-13619.789333,-3217.601092
22342.342171,222.061783,-10807.006753,-689.485948
22342.342505,814.226536,-7328.038826,1608.800546
22342.342838,-74.020594,-13619.789333,2374.896044
22342.343171,0.000000,-3627.009116,2451.505594
22342.343504,3256.906145,-7105.977043,6665.030833
22342.343838,2960.823768,-7328.038826,6052.154434
22342.344171,3478.967927,-5921.647536,7354.516781
22342.344504,2294.638420,-3552.988522,-5132.839837
22342.344837,592.164754,-13397.727550,2374.896044
22342.345170,-2664.741391,-7624.121203,-5669.106685
22342.345504,-148.041188,-13989.892304,-3753.867940
22342.345837,-2442.679609,-11843.295072,-2221.676944
22342.346170,-2368.659014,-10732.986159,-3217.601092
22342.346503,-2442.679609,-14211.954086,-76.609550
22342.346837,-74.020594,-7105.977043,0.000000
22342.347170,1184.329507,-7179.997637,5209.449386
22342.347503,4663.297435,-6069.688724,5056.230287
22342.347836,4515.256246,-6365.771101,5975.544884
22342.348169,2738.761985,-7402.059420,3064.381992
22342.348503,2146.597232,-9622.677246,1762.019645
22342.348836,592.164754,-7179.997637,0.000000
22342.349169,1184.329507,-12731.542202,-76.609550
22342.349502,-1258.350101,-11325.150913,-3983.696590
22342.349836,-2146.597232,-9548.656652,-4903.011187
22342.350169,-3627.009116,-15988.448347,-689.485948
22342.350502,-4737.318029,-8364.327145,-3677.258390
22342.350835,-962.267725,-7031.956449,-3524.039291
22342.351168,0.000000,-14878.139434,919.314598
22342.351502,4219.173869,-4293.194464,10801.946522
22342.351835,-296.082377,-5107.421000,8580.269578
22342.352168,4663.297435,0.000000,2374.896044
22342.352501,-666.185348,-9252.574275,0.000000
22342.352835,2368.659014,-11251.130318,4826.401637
22342.353168,7031.956449,-9474.636058,-76.609550
22342.353501,-4737.318029,-14285.974681,-3064.381992
22342.353834,-2146.597232,-8882.471304,-7431.126331
22342.354168,-7402.059420,-11621.233289,-6894.859482
22342.354501,222.061783,-10066.800811,-2987.772442
22342.354834,-592.164754,-12953.603985,612.876398
22342.355167,1258.350101,-10214.842000,4443.353888
22342.355500,2590.720797,-5699.585753,6588.421283
22342.355834,518.144159,-7105.977043,6818.249932
22342.356167,6291.750507,3256.906145,5056.230287
22342.356500,0.000000,-8364.327145,306.438199
22342.356833,6809.894666,-9104.533087,2068.457845
22342.357167,-3997.112087,-7179.997637,-7354.516781
22342.357500,-592.164754,-15840.407159,-5898.935335
22342.357833,-2146.597232,-13027.624579,-5745.716235
22342.358166,-1184.329507,-12361.439231,-1072.533697
22342.358499,1776.494261,-8660.409521,-612.876398
22342.358833,-2738.761985,-10214.842000,2221.676944
22342.359166,2368.659014,-5995.668130,612.876398
22342.359499,-74.020594,-7105.977043,4903.011187
22342.359832,4663.297435,-4737.318029,7277.907231
22342.360166,2294.638420,-2442.679609,919.314598
22342.360499,0.000000,-8956.491898,4903.011187
22342.360832,3997.112087,-4811.338623,1532.190996
22342.361165,-2960.823768,-12213.398043,-2298.286494
22342.361498,-740.205942,-9548.656652,-6511.811733
22342.361832,-4367.215058,-13619.789333,-6358.592633
22342.362165,-74.020594,-15396.283594,-4366.744339
22342.362498,1776.494261,-11917.315666,1838.629195
22342.362831,-666.185348,-11843.295072,-76.609550
22342.363165,888.247130,-5995.668130,1838.629195
22342.363498,4367.215058,-6513.812290,6052.154434
22342.363831,4663.297435,-5625.565159,2681.334243
22342.364164,1850.514855,-10658.965565,6052.154434
22342.364498,-962.267725,-8586.388927,689.485948
22342.364831,-3627.009116,-11029.068536,-2604.724693
22342.365164,-1184.329507,-10214.842000,-612.876398
22342.365497,1184.329507,-8364.327145,2374.896044
22342.365830,-3552.988522,-9548.656652,-1838.629195
22342.366164,-4145.153275,-7772.162391,-2451.505594
22342.366497,-666.185348,-15100.201217,-1915.238745
22342.366830,-4293.194464,-7772.162391,-4596.572988
22342.367163,-962.267725,-9474.636058,2374.896044
22342.367497,-1480.411884,-6069.688724,3677.258390
22342.367830,5625.565159,-1554.432478,1532.190996
22342.368163,2590.720797,-10362.883188,3830.477490
22342.368496,2294.638420,-9474.636058,-76.609550
22342.368829,0.000000,-9548.656652,766.095498
22342.369163,2886.803174,-11843.295072,1149.143247
22342.369496,814.226536,-8512.368333,-4903.011187
22342.369829,-1776.494261,-9548.656652,0.000000
22342.370162,1110.308913,-9474.636058,-2681.334243
22342.370496,-3404.947333,-13249.686362,-3677.258390
22342.370829,518.144159,-8142.265362,2451.505594
22342.371162,1554.432478,-6439.791695,1915.238745
22342.371495,4071.132681,-6513.812290,2987.772442
22342.371828,-1628.453072,-6883.915261,2911.162892
22342.372162,0.000000,-8512.368333,766.095498
22342.372495,-1258.350101,-9770.718434,2221.676944
22342.372828,1184.329507,-6587.832884,1225.752797
22342.373161,-74.020594,-10955.047942,-383.047749
22342.373495,0.000000,-5995.668130,-4903.011187
22342.373828,-2368.659014,-13249.686362,-1915.238745
22342.374161,-370.102971,-11843.295072,-2374.896044
22342.374494,-1332.370696,-9548.656652,0.000000
22342.374828,2886.803174,-7994.224174,-536.266849
22342.375161,74.020594,-13767.830521,3907.087040
22342.375494,1406.391290,-5329.482782,2451.505594
22342.375827,5847.626942,-9178.553681,1762.019645
22342.376160,4663.297435,-7994.224174,2374.896044
22342.376494,2368.659014,-8956.491898,4290.134789
22342.376827,2664.741391,-9474.636058,3600.648841
22342.377160,-666.185348,-9918.759623,-1838.629195
22342.377493,-4737.318029,-11917.315666,-4673.182538
22342.377827,-888.247130,-11917.315666,-2911.162892
22342.378160,-5995.668130,-8882.471304,-2911.162892
22342.378493,2368.659014,-7031.956449,-766.095498
22342.378826,-4219.173869,-10066.800811,-383.047749
22342.379159,2294.638420,-3849.070898,536.266849
22342.379493,0.000000,-7179.997637,4213.525239
22342.379826,5847.626942,-4737.318029,2374.896044
22342.380159,888.247130,-8364.327145,0.000000
22342.380492,4071.132681,-9474.636058,1762.019645
22342.380826,3997.112087,-10732.986159,2451.505594
22342.381159,888.247130,-12805.562797,306.438199
22342.381492,3034.844362,-14434.015869,-1915.238745
22342.381825,-3256.906145,-14285.974681,1532.190996
22342.382158,3701.029710,-4811.338623,0.000000
22342.382492,592.164754,-9992.780217,4519.963438
22342.382825,1702.473667,-7994.224174,1302.362347
22342.383158,-4589.276840,-3627.009116,-2451.505594
22342.383491,-4145.153275,-5699.585753,612.876398
22342.383825,-592.164754,-3256.906145,153.219100
22342.384158,-222.061783,-8290.306550,1149.143247
22342.384491,518.144159,-9326.594869,612.876398
22342.384824,-74.020594,-9474.636058,-76.609550
22342.385158,0.000000,-10140.821405,-459.657299
22342.385491,-74.020594,-12139.377449,-919.314598
22342.385824,1702.473667,-8364.327145,-6588.421283
22342.386157,0.000000,-14730.098246,1455.581446
22342.386490,1554.432478,-8956.491898,0.000000
22342.386824,0.000000,-10732.986159,0.000000
22342.387157,-1258.350101,-8290.306550,2374.896044
22342.387490,-1850.514855,-7179.997637,383.047749
22342.387823,2294.638420,-8882.471304,4213.525239
22342.388157,1184.329507,-7476.080014,5209.449386
22342.388490,2072.576638,-6661.853478,3677.258390
22342.388823,-1850.514855,-10288.862594,1072.533697
22342.389156,-3034.844362,-8438.347739,-76.609550
22342.389489,-74.020594,-8882.471304,-2528.115143
22342.389823,-5329.482782,-11621.233289,1225.752797
22342.390156,4367.215058,-7105.977043,-5592.497135
22342.390489,-5699.585753,-14878.139434,-4903.011187
22342.390822,-5921.647536,-10140.821405,-3677.258390
22342.391156,-1850.514855,-10066.800811,536.266849
22342.391489,-2368.659014,-8956.491898,2068.457845
22342.391822,7402.059420,-6587.832884,6971.469032
22342.392155,518.144159,-6883.915261,3753.867940
22342.392488,7179.997637,-4959.379811,766.095498
22342.392822,2960.823768,-9474.636058,9729.412825
22342.393155,6735.874072,-4737.318029,4213.525239
22342.393488,3552.988522,-7179.997637,3677.258390
22342.393821,-1480.411884,-13397.727550,919.314598
22342.394155,-74.020594,-4959.379811,-9806.022374
22342.394488,-7994.224174,-15396.283594,-6971.469032
22342.394821,-1036.288319,-8734.430116,-7584.345430
22342.395154,-6587.832884,-12287.418637,-4290.134789
22342.395488,0.000000,-9548.656652,2757.943793
22342.395821,7402.059420,-7698.141797,7277.907231
22342.396154,4663.297435,-7105.977043,5898.935335
22342.396487,5329.482782,-3627.009116,5515.887586
22342.396820,7624.121203,-9474.636058,6665.030833
22342.397154,6513.812290,-9548.656652,3370.820191
22342.397487,4885.359217,-12213.398043,5898.935335
22342.397820,3478.967927,-5033.400406,-4979.620737
22342.398153,-2664.741391,-16580.613101,-6281.983084
22342.398487,1110.308913,-8882.471304,-4366.744339
22342.398820,-2442.679609,-16580.613101,-6205.373534
22342.399153,-4145.153275,-9548.656652,-1838.629195
22342.399486,-962.267725,-10658.965565,2374.896044
22342.399819,-3627.009116,-13619.789333,1762.019645
22342.400153,3552.988522,-2442.679609,8580.269578
22342.400486,148.041188,-6365.771101,6511.811733
22342.400819,5033.400406,-2590.720797,5975.544884
22342.401152,-666.185348,-4219.173869,6665.030833
22342.401486,-74.020594,-9474.636058,-4979.620737
22342.401819,-2738.761985,-13323.706956,-6511.811733
22342.402152,-8734.430116,-16950.716072,-7048.078582
22342.402485,-1850.514855,-7031.956449,-7584.345430
22342.402818,-9474.636058,-14285.974681,-3370.820191
22342.403152,0.000000,-9548.656652,-612.876398
22342.403485,-1406.391290,-11251.130318,2987.772442
22342.403818,1110.308913,-13619.789333,7890.783629
22342.404151,6957.935855,3478.967927,9806.022374
22342.404485,-2960.823768,-12287.418637,10572.117872
22342.404818,9474.636058,4441.235652,9346.365076
22342.405151,-4515.256246,-8512.368333,3140.991542
22342.405484,296.082377,-7772.162391,-4443.353888
22342.405817,-5921.647536,-8734.430116,-5669.106685
22342.406151,-8956.491898,-14952.160028,-12870.404366
22342.406484,-74.020594,-9474.636058,-7431.126331
22342.406817,-8660.409521,-16654.633695,-6741.640382
22342.407150,0.000000,-9548.656652,-919.314598
22342.407484,-2368.659014,-11251.130318,2451.505594
22342.407817,9770.718434,-5773.606348,5975.544884
22342.408150,9548.656652,-5477.523971,8810.098227
22342.408483,5847.626942,-11029.068536,10725.336972
22342.408817,10807.006753,-2072.576638,6971.469032
22342.409150,-2072.576638,-15470.304188,2834.553343
22342.409483,4663.297435,-2960.823768,-1302.362347
22342.409816,-7994.224174,-12509.480420,-5515.887586
22342.410149,4515.256246,-7994.224174,-2528.115143
22342.410483,-5403.503377,-11251.130318,-7431.126331
22342.410816,-1628.453072,-13027.624579,-5592.497135
22342.411149,-3330.926739,-9400.615463,-1915.238745
22342.411482,-2368.659014,-10881.027347,842.705048
22342.411816,6217.729913,-7772.162391,6971.469032
22342.412149,4663.297435,-6957.935855,10648.727422
22342.412482,4737.318029,-3627.009116,6741.640382
22342.412815,-2368.659014,-8364.327145,612.876398
22342.413148,6513.812290,-12435.459826,1608.800546
22342.413482,370.102971,-9844.739029,-1685.410096
22342.413815,518.144159,-10732.986159,-4903.011187
22342.414148,-2146.597232,-14211.954086,-2911.162892
22342.414481,-2886.803174,-11621.233289,-5132.839837
22342.414815,-1184.329507,-11103.089130,-1608.800546
22342.415148,-666.185348,-8882.471304,-689.485948
22342.415481,2368.659014,-7772.162391,6435.202183
22342.415814,1998.556043,-6217.729913,6052.154434
22342.416147,3478.967927,-1702.473667,4903.011187
22342.416481,0.000000,-3627.009116,5515.887586
22342.416814,2294.638420,-9326.594869,-536.266849
22342.417147,2146.597232,-5255.462188,-536.266849
22342.417480,-5107.421000,-12953.603985,-5975.544884
22342.417814,-222.061783,-7624.121203,-6128.763984
22342.418147,-8068.244768,-17468.860231,-7124.688131
22342.418480,-6365.771101,-14137.933492,-5975.544884
22342.418813,-1702.473667,-11251.130318,1608.800546
22342.419147,444.123565,-10436.903782,1838.629195
22342.419480,7698.141797,-4885.359217,10418.898773
22342.419813,1702.473667,-6957.935855,7124.688131
22342.420146,2664.741391,-1258.350101,2604.724693
22342.420479,1480.411884,-8512.368333,5592.497135
22342.420813,8216.285956,-10510.924376,1608.800546
22342.421146,-2072.576638,-10732.986159,3677.258390
22342.421479,1036.288319,-5699.585753,-5898.935335
22342.421812,-4589.276840,-15322.262999,-5439.278036
22342.422146,-6587.832884,-10658.965565,-7201.297681
22342.422479,-1850.514855,-11251.130318,-3753.867940
22342.422812,-4811.338623,-13027.624579,-3447.429741
22342.423145,-2368.659014,-8956.491898,2374.896044
22342.423478,-1258.350101,-10658.965565,8503.660028
22342.423812,4367.215058,1258.350101,4903.011187
22342.424145,2294.638420,-6513.812290,6971.469032
22342.424478,3923.091493,-7105.977043,2834.553343
22342.424811,2368.659014,-12213.398043,2757.943793
22342.425145,1332.370696,-9474.636058,-229.828649
22342.425478,0.000000,-9548.656652,-6741.640382
22342.425811,-962.267725,-13101.645173,-9499.584175
22342.426144,1184.329507,-10732.986159,-2374.896044
22342.426477,2738.761985,-13027.624579,1762.019645
22342.426811,2886.803174,-9474.636058,-612.876398
22342.427144,-2072.576638,-8290.306550,1762.019645
22342.427477,-1110.308913,-9918.759623,3600.648841
22342.427810,5699.585753,-1110.308913,4290.134789
22342.428144,1480.411884,-9474.636058,7277.907231
22342.428477,5921.647536,-2516.700203,4903.011187
22342.428810,-1776.494261,-9548.656652,0.000000
22342.429143,-74.020594,-13027.624579,-689.485948
22342.429477,-3997.112087,-7179.997637,-4903.011187
22342.429810,-4071.132681,-12805.562797,-4903.011187
22342.430143,1184.329507,-9992.780217,-4596.572988
22342.430476,-2738.761985,-12731.542202,-1302.362347
22342.430809,3182.885551,-8364.327145,1991.848295
22342.431143,-4219.173869,-9252.574275,-689.485948
22342.431476,3478.967927,-6513.812290,-76.609550
22342.431809,1776.494261,-13027.624579,6665.030833
22342.432142,5847.626942,-4959.379811,3983.696590
22342.432476,0.000000,-9548.656652,3830.477490
22342.432809,4663.297435,-8882.471304,-1915.238745
22342.433142,3256.906145,-12361.439231,0.000000
22342.433475,2442.679609,-9474.636058,3600.648841
22342.433808,3256.906145,-9474.636058,-536.266849
22342.434142,-4071.132681,-11029.068536,-2604.724693
22342.434475,-2442.679609,-9474.636058,-3140.991542
22342.434808,-2072.576638,-5477.523971,-2528.115143
22342.435141,-3849.070898,-9252.574275,-2145.067394
22342.435475,-3330.926739,-9178.553681,-2221.676944
22342.435808,-222.061783,-10658.965565,2374.896044
22342.436141,-1850.514855,-7105.977043,2374.896044
22342.436474,1184.329507,-5403.503377,0.000000
22342.436807,814.226536,-13619.789333,1762.019645
22342.437141,3108.864956,-5107.421000,1225.752797
22342.437474,2960.823768,-8364.327145,3064.381992
22342.437807,4663.297435,-12731.542202,2221.676944
22342.438140,2072.576638,-9844.739029,842.705048
22342.438474,-4885.359217,-11399.171507,-3140.991542
22342.438807,1850.514855,-11251.130318,-2374.896044
22342.439140,-3552.988522,-9844.739029,612.876398
22342.439473,1776.494261,-7994.224174,2374.896044
22342.439807,-74.020594,-5921.647536,2374.896044
22342.440140,-4737.318029,-7179.997637,0.000000
22342.440473,3478.967927,-7698.141797,2374.896044
22342.440806,-1554.432478,-8364.327145,3064.381992
22342.441139,2442.679609,-6365.771101,153.219100
22342.441473,-2368.659014,-7846.182985,-1225.752797
22342.441806,-3552.988522,-11473.192101,-3217.601092
22342.442139,-4737.318029,-13397.727550,-3370.820191
22342.442472,-2442.679609,-14211.954086,-383.047749
22342.442805,-74.020594,-10732.986159,-1532.190996
22342.443139,0.000000,-4811.338623,3064.381992
22342.443472,2294.638420,-9474.636058,1149.143247
22342.443805,5921.647536,-3182.885551,2528.115143
22342.444138,1628.453072,-13249.686362,1608.800546
22342.444471,4885.359217,-7476.080014,5745.716235
22342.444805,4145.153275,-7624.121203,1991.848295
22342.445138,2294.638420,-15396.283594,4213.525239
22342.445471,1702.473667,-5107.421000,1225.752797
22342.445804,-5329.482782,-9548.656652,-2451.505594
22342.446137,3478.967927,-8882.471304,-4979.620737
22342.446471,-3627.009116,-9474.636058,-4903.011187
22342.446804,-74.020594,-13619.789333,-1608.800546
22342.447137,-5255.462188,-9548.656652,-1455.581446
22342.447470,-4811.338623,-8290.306550,-4443.353888
22342.447803,-2590.720797,-7328.038826,-1225.752797
22342.448136,6439.791695,-7698.141797,6665.030833
22342.448470,7402.059420,-5699.585753,6741.640382
22342.448803,5773.606348,-5107.421000,4673.182538
22342.449136,4811.338623,-7476.080014,2451.505594
22342.449469,0.000000,-7772.162391,0.000000
22342.449802,2368.659014,-15618.345376,2987.772442
22342.450136,4663.297435,-7402.059420,-2911.162892
22342.450469,-3552.988522,-14285.974681,-4903.011187
22342.450802,-666.185348,-11843.295072,-689.485948
22342.451135,-4737.318029,-6291.750507,-4903.011187
22342.451468,-4145.153275,-12139.377449,766.095498
22342.451802,-888.247130,-9548.656652,4443.353888
22342.452135,444.123565,-4959.379811,3524.039291
22342.452468,2294.638420,-9474.636058,7277.907231
22342.452801,2368.659014,-2442.679609,3294.210641
22342.453134,4663.297435,-5329.482782,1378.971896
22342.453468,592.164754,-8956.491898,4060.306139
22342.453801,2294.638420,-9474.636058,-3753.867940
22342.454134,-5699.585753,-16580.613101,-6818.249932
22342.454467,-2368.659014,-14211.954086,-5592.497135
22342.454800,-2368.659014,-11621.233289,-4443.353888
22342.455134,0.000000,-13175.665768,-2068.457845
22342.455467,-1184.329507,-10807.006753,2374.896044
22342.455800,2368.659014,-7328.038826,5745.716235
22342.456133,3849.070898,-7772.162391,7354.516781
22342.456466,4737.318029,-4737.318029,9729.412825
22342.456800,-1258.350101,-6143.709319,766.095498
22342.457133,0.000000,-6069.688724,2374.896044
22342.457466,-1258.350101,-8882.471304,-1762.019645
22342.457799,-1924.535449,-10362.883188,-1915.238745
22342.458132,-1554.432478,-9474.636058,-3600.648841
22342.458466,-5699.585753,-8586.388927,-8120.612279
22342.458799,-5403.503377,-16580.613101,-6205.373534
22342.459132,-2960.823768,-9696.697840,842.705048
22342.459465,-74.020594,-12731.542202,-76.609550
22342.459798,3182.885551,-7031.956449,2451.505594
22342.460131,2368.659014,-6291.750507,7967.393179
22342.460465,3182.885551,-4071.132681,4290.134789
22342.460798,3997.112087,-10658.965565,7124.688131
22342.461131,6809.894666,-6069.688724,5592.497135
22342.461464,3627.009116,-9770.718434,2681.334243
22342.461797,1776.494261,-7179.997637,1225.752797
22342.462131,5921.647536,-7994.224174,-689.485948
22342.462464,-3034.844362,-13323.706956,-4979.620737
22342.462797,1110.308913,-5773.606348,-7354.516781
22342.463130,-7105.977043,-11325.150913,-6741.640382
22342.463463,-1480.411884,-13693.809927,-2757.943793
22342.463797,296.082377,-8216.285956,1685.410096
22342.464130,-592.164754,-10732.986159,2451.505594
22342.464463,2220.617826,-5921.647536,4673.182538
22342.464796,2220.617826,-4219.173869,3064.381992
22342.465129,1406.391290,-11547.212695,3524.039291
22342.465463,9474.636058,-2368.659014,6665.030833
22342.465796,-1628.453072,-14508.036463,1608.800546
22342.466129,2886.803174,-7105.977043,-4979.620737
22342.466462,-3775.050304,-15026.180623,-5822.325785
22342.466795,1480.411884,-8512.368333,-2451.505594
22342.467129,5847.626942,-12435.459826,2374.896044
22342.467462,-2812.782580,-10732.986159,0.000000
22342.467795,0.000000,-7179.997637,1302.362347
22342.468128,-4959.379811,-12509.480420,0.000000
22342.468461,7920.203579,-2368.659014,4826.401637
22342.468795,-592.164754,-9548.656652,5515.887586
22342.469128,2442.679609,-4737.318029,5132.839837
22342.469461,-4811.338623,-4811.338623,-3677.258390
22342.469794,-5477.523971,-18357.107362,-76.609550
22342.470127,-74.020594,-7105.977043,-3140.991542
22342.470461,-6809.894666,-11029.068536,-2757.943793
22342.470794,518.144159,-9178.553681,-76.609550
22342.471127,-3256.906145,-5551.544565,-153.219100
22342.471460,-2072.576638,-9992.780217,-995.924147
22342.471793,1554.432478,-8068.244768,2834.553343
22342.472126,296.082377,-10140.821405,3217.601092
22342.472460,2220.617826,-8364.327145,0.000000
22342.472793,4663.297435,-11251.130318,3600.648841
22342.473126,4737.318029,-5403.503377,7354.516781
22342.473459,5921.647536,-9474.636058,2987.772442
22342.473792,888.247130,-8364.327145,-2374.896044
22342.474126,-4515.256246,-10362.883188,-6205.373534
22342.474459,-148.041188,-9030.512492,-3217.601092
22342.474792,-2368.659014,-10807.006753,-766.095498
22342.475125,-4811.338623,-11843.295072,-3753.867940
22342.475458,-2960.823768,-8660.409521,766.095498
22342.475792,-74.020594,-7698.141797,1762.019645
22342.476125,6439.791695,-3627.009116,4903.011187
22342.476458,6143.709319,-7105.977043,10955.165621
22342.476791,6439.791695,-8290.306550,4826.401637
22342.477124,-666.185348,-14211.954086,-1915.238745
22342.477458,4367.215058,-12731.542202,-1378.971896
22342.477791,1406.391290,-13619.789333,-3370.820191
22342.478124,1110.308913,-8364.327145,0.000000
22342.478457,2590.720797,-9474.636058,-2528.115143
22342.478790,-3552.988522,-11917.315666,0.000000
22342.479124,0.000000,-9844.739029,2374.896044
22342.479457,-370.102971,-5329.482782,-1225.752797
22342.479790,-666.185348,-9770.718434,2681.334243
22342.480123,814.226536,-6217.729913,4979.620737
22342.480456,3627.009116,-4145.153275,4519.963438
22342.480790,814.226536,-7179.997637,1685.410096
22342.481123,1776.494261,-6735.874072,0.000000
22342.481456,-1258.350101,-11547.212695,-2834.553343
22342.481789,2664.741391,-12509.480420,-995.924147
22342.482122,-1480.411884,-11843.295072,-2298.286494
22342.482456,-1850.514855,-11103.089130,-5362.668486
22342.482789,-3034.844362,-11029.068536,-2451.505594
22342.483122,-814.226536,-8882.471304,-76.609550
22342.483455,1702.473667,-8586.388927,1225.752797
22342.483788,2368.659014,-4515.256246,7507.735880
22342.484121,3256.906145,-7698.141797,6052.154434
22342.484455,-1036.288319,-8364.327145,5056.230287
22342.484788,-814.226536,-6957.935855,229.828649
22342.485121,1184.329507,-9918.759623,2374.896044
22342.485454,-2220.617826,-8956.491898,612.876398
22342.485787,3849.070898,-5403.503377,-2451.505594
22342.486121,-3627.009116,-16580.613101,-3140.991542
22342.486454,-3256.906145,-6217.729913,-7277.907231
22342.486787,-4737.318029,-11917.315666,-3064.381992
22342.487120,-74.020594,-12435.459826,-2221.676944
22342.487453,0.000000,-8364.327145,766.095498
22342.487787,-2738.761985,-9326.594869,2145.067394
22342.488120,518.144159,-7179.997637,1378.971896
22342.488453,444.123565,-10066.800811,4826.401637
22342.488786,6439.791695,-7698.141797,6052.154434
22342.489119,3478.967927,-7105.977043,1455.581446
22342.489453,2664.741391,-5699.585753,3370.820191
22342.489786,4367.215058,-9474.636058,2374.896044
22342.490119,814.226536,-10658.965565,-2911.162892
22342.490452,-370.102971,-15100.201217,-4366.744339
22342.490785,-888.247130,-11917.315666,-1685.410096
22342.491119,-74.020594,-10214.842000,-1838.629195
22342.491452,148.041188,-5699.585753,995.924147
22342.491785,-3256.906145,-10436.903782,-1608.800546
22342.492118,-2368.659014,-7179.997637,0.000000
22342.492451,2368.659014,-8290.306550,6052.154434
22342.492785,3775.050304,-5403.503377,1225.752797
22342.493118,4737.318029,-4811.338623,6128.763984
22342.493451,-74.020594,-9474.636058,1149.143247
22342.493784,74.020594,-12213.398043,-2145.067394
22342.494117,-518.144159,-10881.027347,-1685.410096
22342.494451,-4071.132681,-12657.521608,-7660.954980
22342.494784,666.185348,-8956.491898,-2374.896044
22342.495117,-2072.576638,-10732.986159,-2757.943793
22342.495450,666.185348,-11177.109724,-766.095498
22342.495783,2294.638420,-9178.553681,4213.525239
22342.496116,4145.153275,-6217.729913,5209.449386
22342.496450,4071.132681,-10510.924376,4826.401637
22342.496783,4071.132681,-6365.771101,3217.601092
22342.497116,2368.659014,-6291.750507,2451.505594
22342.497449,-74.020594,-9474.636058,2987.772442
22342.497782,-1184.329507,-5255.462188,-1225.752797
22342.498116,-962.267725,-11103.089130,-2834.553343
22342.498449,-2590.720797,-12953.603985,-1685.410096
22342.498782,740.205942,-6069.688724,-383.047749
22342.499115,-3923.091493,-11843.295072,-5592.497135
22342.499448,-2960.823768,-10140.821405,0.000000
22342.499782,-2738.761985,-7179.997637,-3677.258390
22342.500115,2368.659014,-9992.780217,4213.525239
22342.500448,7031.956449,-8586.388927,6665.030833
22342.500781,2294.638420,-8290.306550,1149.143247
22342.501114,3404.947333,-9030.512492,3983.696590
22342.501448,-1924.535449,-7624.121203,0.000000
22342.501781,1480.411884,-6217.729913,1149.143247
22342.502114,666.185348,-12583.501014,612.876398
22342.502447,2886.803174,-10288.862594,2374.896044
22342.502780,-5921.647536,-7772.162391,-6128.763984
22342.503114,-4145.153275,-12435.459826,-2834.553343
22342.503447,-1554.432478,-4589.276840,-1302.362347
22342.503780,-4737.318029,-9548.656652,0.000000
22342.504113,3478.967927,-9918.759623,2298.286494
22342.504446,2072.576638,-5773.606348,1915.238745
22342.504780,148.041188,-11547.212695,2374.896044
22342.505113,5181.441594,-6883.915261,4596.572988
22342.505446,2294.638420,-9474.636058,4213.525239
22342.505779,1184.329507,-10140.821405,-995.924147
22342.506112,2294.638420,-11251.130318,-1302.362347
22342.506446,-8290.306550,-13101.645173,-5822.325785
22342.506779,740.205942,-11843.295072,-1838.629195
22342.507112,-3182.885551,-9548.656652,-459.657299
22342.507445,-1850.514855,-7994.224174,-2451.505594
22342.507778,0.000000,-7179.997637,3064.381992
22342.508112,2812.782580,-5699.585753,2987.772442
22342.508445,2664.741391,-5995.668130,6128.763984
22342.508778,3478.967927,-7105.977043,3600.648841
22342.509111,1332.370696,-5995.668130,1532.190996
22342.509444,2368.659014,-6069.688724,2834.553343
22342.509777,4367.215058,-9474.636058,-689.485948
22342.510111,-2072.576638,-13693.809927,-6588.421283
22342.510444,-5107.421000,-17320.819043,-2681.334243
22342.510777,888.247130,-4515.256246,-1991.848295
22342.511110,-2960.823768,-14508.036463,1225.752797
22342.511443,74.020594,-7179.997637,3677.258390
22342.511777,-1406.391290,-6957.935855,383.047749
22342.512110,-1480.411884,-9474.636058,2451.505594
22342.512443,4071.132681,-5773.606348,4903.011187
22342.512776,1998.556043,-7994.224174,4519.963438
22342.513109,2960.823768,-5995.668130,4290.134789
22342.513443,2590.720797,-9474.636058,2374.896044
22342.513776,-74.020594,-7698.141797,-5286.058936
22342.514109,666.185348,-9104.533087,-2451.505594
22342.514442,-1554.432478,-10732.986159,-3140.991542
22342.514775,-1406.391290,-13471.748144,-3447.429741
22342.515109,-3478.967927,-14730.098246,-1455.581446
22342.515442,0.000000,-7994.224174,-1762.019645
22342.515775,-1850.514855,-7550.100608,689.485948
22342.516108,1554.432478,-3034.844362,3677.258390
22342.516441,3182.885551,-9474.636058,8197.221829
22342.516775,592.164754,-3627.009116,2834.553343
22342.517108,2960.823768,-7179.997637,5822.325785
22342.517441,2294.638420,-9474.636058,3600.648841
22342.517774,592.164754,-10140.821405,3064.381992
22342.518107,-1924.535449,-7772.162391,-1225.752797
22342.518441,-3775.050304,-11177.109724,-8197.221829
22342.518774,-1776.494261,-14285.974681,-3983.696590
22342.519107,-6735.874072,-13101.645173,-7354.516781
22342.519440,-74.020594,-11843.295072,-2528.115143
22342.519773,-3627.009116,-9030.512492,0.000000
22342.520107,0.000000,-3627.009116,1838.629195
22342.520440,5625.565159,-2738.761985,7967.393179
22342.520773,4441.235652,-7105.977043,8503.660028
22342.521106,6143.709319,-3330.926739,7507.735880
22342.521439,-2886.803174,-7846.182985,1455.581446
22342.521772,5551.544565,-5921.647536,-1302.362347
22342.522106,0.000000,-11917.315666,-229.828649
22342.522439,-1258.350101,-11251.130318,-7737.564530
22342.522772,-1776.494261,-9548.656652,-4290.134789
22342.523105,-5403.503377,-18949.272115,-8044.002729
22342.523438,2294.638420,-14211.954086,-76.609550
22342.523772,296.082377,-5995.668130,2451.505594
22342.524105,7105.977043,-5921.647536,6052.154434
22342.524438,1850.514855,-7179.997637,9729.412825
22342.524771,0.000000,-3627.009116,1532.190996
22342.525104,4071.132681,-10658.965565,6665.030833
22342.525438,0.000000,-5403.503377,3677.258390
22342.525771,-2368.659014,-9548.656652,0.000000
22342.526104,-74.020594,-10658.965565,-1608.800546
22342.526437,-2442.679609,-9474.636058,-7431.126331
22342.526770,-3923.091493,-11547.212695,-6435.202183
22342.527104,-3478.967927,-11473.192101,-3294.210641
22342.527437,-666.185348,-10214.842000,-2528.115143
22342.527770,0.000000,-10140.821405,1225.752797
22342.528103,5551.544565,-9474.636058,3447.429741
22342.528436,4367.215058,-5625.565159,8044.002729
22342.528770,2442.679609,-6587.832884,4136.915689
22342.529103,4219.173869,-7254.018232,6281.983084
22342.529436,-2146.597232,-8586.388927,1225.752797
22342.529769,3627.009116,-8290.306550,3600.648841
22342.530102,-3034.844362,-7179.997637,-4903.011187
22342.530436,-2368.659014,-11695.253884,-3753.867940
22342.530769,-5625.565159,-12287.418637,-3524.039291
22342.531102,-3627.009116,-8512.368333,-3677.258390
22342.531435,-74.020594,-10510.924376,1378.971896
22342.531768,-2590.720797,-7846.182985,-76.609550
22342.532102,592.164754,-10436.903782,3370.820191
22342.532435,3552.988522,-4811.338623,3677.258390
22342.532768,8216.285956,-9474.636058,6665.030833
22342.533101,2368.659014,-7179.997637,2068.457845
22342.533434,2368.659014,-10881.027347,2757.943793
22342.533767,-740.205942,-14211.954086,-1915.238745
22342.534101,592.164754,-8956.491898,-4903.011187
22342.534434,-1036.288319,-11399.171507,995.924147
22342.534767,1406.391290,-5773.606348,0.000000
22342.535100,-592.164754,-8364.327145,689.485948
22342.535433,4367.215058,-6957.935855,5745.716235
22342.535767,-74.020594,-4737.318029,-2221.676944
22342.536100,-2368.659014,-9548.656652,1072.533697
22342.536433,2220.617826,-11177.109724,3600.648841
22342.536766,-1554.432478,-9770.718434,-3677.258390
22342.537099,4367.215058,-10658.965565,2068.457845
22342.537433,0.000000,-11769.274478,1072.533697
22342.537766,888.247130,-8438.347739,-1302.362347
22342.538099,740.205942,-13249.686362,1455.581446
22342.538432,666.185348,-8290.306550,0.000000
22342.538765,1776.494261,-5995.668130,-3677.258390
22342.539099,5921.647536,-9474.636058,3294.210641
22342.539432,1110.308913,-13027.624579,4673.182538
22342.539765,1110.308913,-6661.853478,-1838.629195
22342.540098,518.144159,-10510.924376,4826.401637
22342.540431,962.267725,-5477.523971,0.000000
22342.540765,1924.535449,-8882.471304,1608.800546
22342.541098,-2294.638420,-12657.521608,1762.019645
22342.541431,1850.514855,-8586.388927,-1608.800546
22342.541764,-3330.926739,-10732.986159,-919.314598
22342.542097,-740.205942,-9918.759623,-1072.533697
22342.542431,-3997.112087,-7920.203579,-3677.258390
22342.542764,-3552.988522,-9548.656652,-1532.190996
22342.543097,2960.823768,-6365.771101,1762.019645
22342.543430,-1258.350101,-12287.418637,689.485948
22342.543763,2664.741391,-5181.441594,1532.190996
22342.544097,888.247130,-9474.636058,2681.334243
22342.544430,1184.329507,-9252.574275,1838.629195
22342.544763,2590.720797,-9400.615463,3370.820191
22342.545096,-370.102971,-11547.212695,-1608.800546
22342.545429,3775.050304,-11843.295072,3140.991542
22342.545762,2516.700203,-8290.306550,4826.401637
22342.546095,3552.988522,-10140.821405,2451.505594
22342.546428,3478.967927,-6513.812290,536.266849
22342.546762,-3627.009116,-7698.141797,-3753.867940
22342.547095,-6513.812290,-5995.668130,-3064.381992
22342.547428,-4811.338623,-11843.295072,-4979.620737
22342.547761,-5995.668130,-15396.283594,-4060.306139
22342.548094,-2072.576638,-6735.874072,-306.438199
22342.548427,0.000000,-9548.656652,4826.401637
22342.548760,3627.009116,-6291.750507,4366.744339
22342.549094,1406.391290,-8290.306550,1762.019645
22342.549427,3034.844362,-8364.327145,3370.820191
22342.549760,2368.659014,-7772.162391,2145.067394
22342.550093,5255.462188,-12435.459826,-2374.896044
22342.550426,1850.514855,-15692.365970,3064.381992
22342.550759,0.000000,-6291.750507,0.000000
22342.551092,-2368.659014,-10510.924376,-1302.362347
22342.551426,2294.638420,-5107.421000,0.000000
22342.551759,-2516.700203,-9696.697840,-1838.629195
22342.552092,-2072.576638,-6291.750507,0.000000
22342.552425,1702.473667,-7698.141797,-689.485948
22342.552758,-2664.741391,-8068.244768,-1838.629195
22342.553091,1184.329507,-7772.162391,7277.907231
22342.553424,-666.185348,-10658.965565,1762.019645
22342.553758,-296.082377,-7105.977043,459.657299
22342.554091,-888.247130,-7920.203579,-1532.190996
22342.554424,-2590.720797,-14952.160028,-2068.457845
22342.554757,1332.370696,-9474.636058,766.095498
22342.555090,-74.020594,-11547.212695,-76.609550
22342.555423,2886.803174,-5403.503377,-2145.067394
22342.555756,592.164754,-9474.636058,2374.896044
22342.556090,4663.297435,-11843.295072,2374.896044
22342.556423,2294.638420,-9474.636058,0.000000
22342.556756,2812.782580,-11843.295072,4826.401637
22342.557089,5033.400406,-8512.368333,4443.353888
22342.557422,5255.462188,-9770.718434,5669.106685
22342.557755,3330.926739,-5699.585753,2987.772442
22342.558088,-3034.844362,-11103.089130,-689.485948
22342.558422,-2146.597232,-6439.791695,-5822.325785
22342.558755,-8364.327145,-12287.418637,-7967.393179
22342.559088,-3330.926739,-8216.285956,-5362.668486
22342.559421,-7105.977043,-11325.150913,-4290.134789
22342.559754,-2960.823768,-9474.636058,1149.143247
22342.560087,-666.185348,-7920.203579,0.000000
22342.560420,1184.329507,-2442.679609,6128.763984
22342.560754,6143.709319,-8882.471304,6052.154434
22342.561087,3108.864956,-8290.306550,3600.648841
22342.561420,4293.194464,-11325.150913,3830.477490
22342.561753,-666.185348,-10510.924376,76.609550
22342.562086,4811.338623,-8364.327145,153.219100
22342.562419,1332.370696,-10881.027347,-1838.629195
22342.562752,-370.102971,-16432.571912,-383.047749
22342.563085,222.061783,-6587.832884,-2451.505594
22342.563419,-4737.318029,-9548.656652,-6741.640382
22342.563752,296.082377,-6809.894666,-383.047749
22342.564085,-4737.318029,-10881.027347,1225.752797
22342.564418,1554.432478,-6291.750507,3907.087040
22342.564751,296.082377,-6587.832884,6052.154434
22342.565084,1332.370696,-6439.791695,229.828649
22342.565417,1702.473667,-10510.924376,-689.485948
22342.565751,0.000000,-9326.594869,3600.648841
22342.566084,0.000000,-5995.668130,-2451.505594
22342.566417,1776.494261,-11177.109724,2068.457845
22342.566750,-74.020594,-11547.212695,-2528.115143
22342.567083,-962.267725,-10066.800811,-3753.867940
22342.567416,-666.185348,-11917.315666,-766.095498
22342.567749,1850.514855,-6217.729913,689.485948
22342.568083,1998.556043,-9252.574275,1378.971896
22342.568416,2516.700203,-6143.709319,4903.011187
22342.568749,5847.626942,-10658.965565,2681.334243
22342.569082,4145.153275,-10436.903782,5515.887586
22342.569415,4663.297435,-9474.636058,3600.648841
22342.569748,814.226536,-7179.997637,-6435.202183
22342.570081,-3256.906145,-14434.015869,0.000000
22342.570415,-2220.617826,-9992.780217,-3064.381992
22342.570748,-1924.535449,-10807.006753,-2757.943793
22342.571081,-2146.597232,-7476.080014,-1838.629195
22342.571414,-1850.514855,-9474.636058,-1302.362347
22342.571747,-4219.173869,-5107.421000,0.000000
22342.572080,3182.885551,-7994.224174,4213.525239
22342.572413,814.226536,-5329.482782,1762.019645
22342.572747,0.000000,-10732.986159,6281.983084
22342.573080,444.123565,-7772.162391,919.314598
22342.573413,1332.370696,-10214.842000,1838.629195
22342.573746,5033.400406,-5477.523971,-1225.752797
22342.574079,2886.803174,-13471.748144,842.705048
22342.574412,2294.638420,-13619.789333,-4136.915689
22342.574745,-2294.638420,-13101.645173,-3370.820191
22342.575079,-3478.967927,-9918.759623,-3140.991542
22342.575412,2146.597232,-7920.203579,3753.867940
22342.575745,-3552.988522,-7772.162391,3370.820191
22342.576078,592.164754,-4737.318029,919.314598
22342.576411,-4293.194464,-7179.997637,766.095498
22342.576744,0.000000,-7179.997637,6128.763984
22342.577077,3182.885551,-7105.977043,4213.525239
22342.577410,-1702.473667,-9030.512492,1991.848295
22342.577744,0.000000,-8660.409521,2298.286494
22342.578077,-2664.741391,-8364.327145,-2451.505594
22342.578410,1406.391290,-11325.150913,-1915.238745
22342.578743,-2368.659014,-9104.533087,-2604.724693
22342.579076,-814.226536,-10658.965565,-5592.497135
22342.579409,-888.247130,-9548.656652,0.000000
22342.579742,1332.370696,-11177.109724,0.000000
22342.580076,2294.638420,-11843.295072,2374.896044
22342.580409,0.000000,-8364.327145,4903.011187
22342.580742,7031.956449,-4737.318029,1149.143247
22342.581075,1702.473667,-13989.892304,5362.668486
22342.581408,6513.812290,-5699.585753,7201.297681
22342.581741,1998.556043,-8956.491898,612.876398
22342.582074,2664.741391,-4811.338623,766.095498
22342.582408,-4737.318029,-9548.656652,-2145.067394
22342.582741,-3034.844362,-7698.141797,-7584.345430
22342.583074,-1628.453072,-7476.080014,-6435.202183
22342.583407,-5625.565159,-9844.739029,-4136.915689
22342.583740,1702.473667,-11251.130318,-1838.629195
22342.584073,-4515.256246,-10658.965565,-383.047749
22342.584406,2294.638420,-5995.668130,-919.314598
22342.584740,2664.741391,-10288.862594,5592.497135
22342.585073,6217.729913,-9622.677246,6435.202183
22342.585406,6217.729913,-9178.553681,3600.648841
22342.585739,-74.020594,-15396.283594,2834.553343
22342.586072,3552.988522,-4811.338623,2757.943793
22342.586405,592.164754,-9696.697840,4826.401637
22342.586738,2294.638420,-3256.906145,-1532.190996
22342.587072,-3997.112087,-5773.606348,-4596.572988
22342.587405,-1702.473667,-7254.018232,-5822.325785
22342.587738,-3997.112087,-14582.057057,-3753.867940
22342.588071,-1480.411884,-12657.521608,612.876398
22342.588404,-666.185348,-10658.965565,383.047749
22342.588737,-2072.576638,-10584.944971,1685.410096
22342.589070,4219.173869,-6809.894666,2528.115143
22342.589404,-74.020594,-11843.295072,4213.525239
22342.589737,3552.988522,-1554.432478,2451.505594
22342.590070,0.000000,-6587.832884,1532.190996
22342.590403,3478.967927,-11843.295072,4826.401637
22342.590736,1110.308913,-3997.112087,-766.095498
22342.591069,-1850.514855,-9178.553681,-1915.238745
22342.591402,-74.020594,-9474.636058,-76.609550
22342.591736,-4737.318029,-8290.306550,-4673.182538
22342.592069,-2294.638420,-12213.398043,-6588.421283
22342.592402,74.020594,-12213.398043,-459.657299
22342.592735,3478.967927,-11843.295072,-2528.115143
22342.593068,0.000000,-12509.480420,11874.480219
22342.593401,5255.462188,-9474.636058,6665.030833
22342.593734,2294.638420,-7105.977043,4673.182538
22342.594067,1184.329507,-5995.668130,6128.763984
22342.594401,2146.597232,-3108.864956,-2451.505594
22342.594734,-3923.091493,-11029.068536,-766.095498
22342.595067,-3997.112087,-9326.594869,-5286.058936
22342.595400,-4811.338623,-8512.368333,-3447.429741
22342.595733,-5921.647536,-9548.656652,-4903.011187
22342.596066,1998.556043,-7994.224174,-2528.115143
22342.596399,-3034.844362,-9696.697840,0.000000
22342.596733,3849.070898,-6587.832884,1302.362347
22342.597066,8808.450710,-12435.459826,6665.030833
22342.597399,3849.070898,-10140.821405,6741.640382
22342.597732,6883.915261,-8142.265362,4366.744339
22342.598065,1406.391290,-11103.089130,3830.477490
22342.598398,1406.391290,-7920.203579,-1072.533697
22342.598731,-4145.153275,-10732.986159,-1838.629195
22342.599065,-74.020594,-5329.482782,-3524.039291
22342.599398,-3552.988522,-7179.997637,-6741.640382
22342.599731,-3256.906145,-13989.892304,2374.896044
22342.600064,-1258.350101,-5847.626942,-2528.115143
22342.600397,-1554.432478,-10955.047942,-76.609550
22342.600730,5107.421000,-6439.791695,4366.744339
22342.601063,1332.370696,-8808.450710,1225.752797
22342.601397,5107.421000,-11103.089130,4366.744339
22342.601730,3478.967927,-10658.965565,-76.609550
22342.602063,4071.132681,-6587.832884,0.000000
22342.602396,148.041188,-8438.347739,2374.896044
22342.602729,2886.803174,-12435.459826,-76.609550
22342.603062,-2442.679609,-11991.336260,-4366.744339
22342.603395,-2072.576638,-11251.130318,-2528.115143
22342.603729,-1184.329507,-9548.656652,-1072.533697
22342.604062,-2516.700203,-7920.203579,-1225.752797
22342.604395,4441.235652,-5699.585753,4749.792088
22342.604728,3478.967927,-8882.471304,7277.907231
22342.605061,6661.853478,-6291.750507,7201.297681
22342.605394,0.000000,-10140.821405,2528.115143
22342.605727,1702.473667,-9400.615463,0.000000
22342.606061,-3552.988522,-9548.656652,-2145.067394
22342.606394,1036.288319,-9474.636058,-1302.362347
22342.606727,-2442.679609,-11177.109724,-6128.763984
22342.607060,-7105.977043,-10732.986159,-2451.505594
22342.607393,-1258.350101,-7105.977043,-5592.497135
22342.607726,-2072.576638,-9548.656652,0.000000
22342.608059,6217.729913,-7105.977043,4519.963438
22342.608393,1332.370696,-10288.862594,7660.954980
22342.608726,3997.112087,-7328.038826,3524.039291
22342.609059,4071.132681,-12139.377449,8197.221829
22342.609392,1554.432478,-9474.636058,3600.648841
22342.609725,296.082377,-7179.997637,2451.505594
22342.610058,-3330.926739,-11547.212695,-76.609550
22342.610391,1702.473667,-5921.647536,-8503.660028
22342.610724,-5329.482782,-13471.748144,-3677.258390
22342.611058,-666.185348,-6809.894666,-3753.867940
22342.611391,-3404.947333,-9474.636058,-2757.943793
22342.611724,-2368.659014,-11769.274478,1455.581446
22342.612057,74.020594,-4737.318029,-3140.991542
22342.612390,-2664.741391,-15914.427753,4213.525239
22342.612723,592.164754,-4811.338623,2451.505594
22342.613056,296.082377,-11473.192101,4826.401637
22342.613390,1998.556043,-9474.636058,1455.581446
22342.613723,6291.750507,-7179.997637,4826.401637
22342.614056,814.226536,-10510.924376,2298.286494
22342.614389,5773.606348,-3552.988522,1455.581446
22342.614722,-1332.370696,-11843.295072,0.000000
22342.615055,0.000000,-7772.162391,0.000000
22342.615388,-74.020594,-7105.977043,-4366.744339
22342.615722,-2368.659014,-11695.253884,-76.609550
22342.616055,-74.020594,-11251.130318,-1915.238745
22342.616388,-3923.091493,-11473.192101,-3524.039291
22342.616721,-2368.659014,-8364.327145,0.000000
22342.617054,-74.020594,-9104.533087,1991.848295
22342.617387,3997.112087,-8660.409521,5056.230287
22342.617720,1184.329507,-10066.800811,3983.696590
22342.618054,2738.761985,-10955.047942,3600.648841
22342.618387,-3256.906145,-4811.338623,-2451.505594
22342.618720,2886.803174,-9474.636058,-689.485948
22342.619053,2516.700203,-5403.503377,-6128.763984
22342.619386,592.164754,-13323.706956,3600.648841
22342.619719,2368.659014,-7179.997637,-2604.724693
22342.620052,-2368.659014,-11325.150913,-2298.286494
22342.620386,3256.906145,-8216.285956,2068.457845
22342.620719,-2812.782580,-12361.439231,-229.828649
22342.621052,1110.308913,-9474.636058,6052.154434
22342.621385,0.000000,-4811.338623,-1838.629195
22342.621718,444.123565,-12065.356855,1072.533697
22342.622051,2960.823768,-6587.832884,5056.230287
22342.622384,-962.267725,-7105.977043,-1149.143247
22342.622718,-666.185348,-13619.789333,-76.609550
22342.623051,-2368.659014,-5995.668130,-4903.011187
22342.623384,-4737.318029,-12213.398043,-1685.410096
22342.623717,4071.132681,-7105.977043,-76.609550
22342.624050,-962.267725,-9104.533087,-2451.505594
22342.624383,296.082377,-10807.006753,842.705048
22342.624716,5625.565159,-7105.977043,5056.230287
22342.625049,2368.659014,-9400.615463,3677.258390
22342.625383,4737.318029,-8142.265362,4366.744339
22342.625716,1110.308913,-10658.965565,3907.087040
22342.626049,-1184.329507,-7179.997637,2451.505594
22342.626382,-74.020594,-7698.141797,-3140.991542
22342.626715,-74.020594,-10362.883188,-5592.497135
22342.627048,-5921.647536,-12657.521608,-3370.820191
22342.627381,2886.803174,-7105.977043,-76.609550
22342.627715,-2738.761985,-10584.944971,-383.047749
22342.628048,0.000000,-5699.585753,919.314598
22342.628381,-2072.576638,-8142.265362,-919.314598
22342.628714,592.164754,-5403.503377,612.876398
22342.629047,0.000000,-9548.656652,3677.258390
22342.629380,1702.473667,-8586.388927,0.000000
22342.629713,296.082377,-10881.027347,612.876398
22342.630047,-592.164754,-11843.295072,-76.609550
22342.630380,1702.473667,-7179.997637,0.000000
22342.630713,0.000000,-9696.697840,-76.609550
22342.631046,148.041188,-8956.491898,-995.924147
22342.631379,-2886.803174,-8290.306550,-1455.581446
22342.631712,-3627.009116,-13545.768739,-383.047749
22342.632045,0.000000,-6513.812290,-76.609550
22342.632379,3478.967927,-9474.636058,2068.457845
22342.632712,2960.823768,-6883.915261,6588.421283
22342.633045,5847.626942,-5921.647536,2374.896044
22342.633378,-3552.988522,-13101.645173,2757.943793
22342.633711,-74.020594,-7920.203579,0.000000
22342.634044,1628.453072,-6513.812290,-1532.190996
22342.634377,1998.556043,-9030.512492,-995.924147
22342.634711,-4145.153275,-14211.954086,-1915.238745
22342.635044,-3034.844362,-9474.636058,-6818.249932
22342.635377,-7105.977043,-10732.986159,-7354.516781
22342.635710,-888.247130,-11251.130318,-1302.362347
22342.636043,1406.391290,-7772.162391,919.314598
22342.636376,0.000000,-7920.203579,7967.393179
22342.636709,7476.080014,-2294.638420,5515.887586
22342.637043,3478.967927,-8364.327145,5592.497135
22342.637376,9474.636058,-6587.832884,7507.735880
22342.637709,1554.432478,-8734.430116,2068.457845
22342.638042,4663.297435,-10658.965565,1455.581446
22342.638375,296.082377,-9474.636058,153.219100
22342.638708,-1406.391290,-10955.047942,-8350.440928
22342.639041,814.226536,-10807.006753,-6665.030833
22342.639375,-7179.997637,-15396.283594,-2528.115143
22342.639708,2886.803174,-8882.471304,2374.896044
22342.640041,-2442.679609,-10140.821405,1225.752797
22342.640374,-1184.329507,-7179.997637,3064.381992
22342.640707,-2368.659014,-7179.997637,2757.943793
22342.641040,0.000000,-5403.503377,4290.134789
22342.641373,3478.967927,-7328.038826,5056.230287
22342.641706,2886.803174,-7254.018232,3217.601092
22342.642040,3256.906145,-8512.368333,2298.286494
22342.642373,-1776.494261,-8068.244768,-4903.011187
22342.642706,-666.185348,-12435.459826,-7277.907231
22342.643039,-4737.318029,-9548.656652,-4596.572988
22342.643372,-74.020594,-11843.295072,-4060.306139
22342.643705,1110.308913,-10658.965565,-766.095498
22342.644038,296.082377,-10140.821405,2681.334243
22342.644371,-3552.988522,-10807.006753,1838.629195
22342.644704,4071.132681,-8068.244768,4673.182538
22342.645037,2072.576638,-10510.924376,7584.345430
22342.645370,4367.215058,-5329.482782,6052.154434
22342.645703,-1554.432478,-9696.697840,1225.752797
22342.646036,-1184.329507,-5699.585753,2451.505594
22342.646369,1702.473667,-5921.647536,-6818.249932
22342.646702,0.000000,-5995.668130,-3677.258390
22342.647035,-3627.009116,-11843.295072,-4979.620737
22342.647368,-5625.565159,-12065.356855,-8273.831378
22342.647701,-3775.050304,-12731.542202,-4673.182538
22342.648034,-6735.874072,-13767.830521,-4366.744339
22342.648367,2294.638420,-7105.977043,2374.896044
22342.648700,-3108.864956,-7179.997637,6128.763984
22342.649033,7105.977043,-7105.977043,8810.098227
22342.649366,7031.956449,-7698.141797,9729.412825
22342.649699,2812.782580,-8364.327145,5132.839837
22342.650032,6735.874072,-5921.647536,6052.154434
22342.650365,2812.782580,-7994.224174,1915.238745
22342.650698,3552.988522,-8660.409521,-1991.848295
22342.651031,-518.144159,-8068.244768,-4519.963438
22342.651364,-1554.432478,-11843.295072,-8963.317327
22342.651697,-3404.947333,-13249.686362,-9039.926876
22342.652030,-3256.906145,-14211.954086,-2068.457845
22342.652363,2220.617826,-7550.100608,1532.190996
22342.652696,1480.411884,-10732.986159,7354.516781
22342.653029,5477.523971,-7698.141797,7737.564530
22342.653362,2738.761985,-6439.791695,5209.449386
22342.653695,2368.659014,-5403.503377,8273.831378
22342.654028,2886.803174,-9474.636058,2528.115143
22342.654361,0.000000,-7772.162391,0.000000
22342.654694,-74.020594,-9474.636058,-689.485948
22342.655027,-5329.482782,-10288.862594,-7201.297681
22342.655360,-74.020594,-7402.059420,-4596.572988
22342.655693,-74.020594,-10658.965565,-2528.115143
22342.656026,3256.906145,-7994.224174,-1302.362347
22342.656359,-2368.659014,-9844.739029,-1838.629195
22342.656692,3552.988522,-15692.365970,2451.505594
22342.657025,2220.617826,-13619.789333,12180.918418
22342.657358,3182.885551,-5625.565159,3983.696590
22342.657691,2590.720797,-9992.780217,3524.039291
22342.658024,-1924.535449,-9622.677246,-459.657299
22342.658357,4663.297435,-6217.729913,0.000000
22342.658690,-5329.482782,-6735.874072,-766.095498
22342.659023,2738.761985,-8290.306550,-4979.620737
22342.659356,-9474.636058,-13101.645173,-76.609550
22342.659689,-1258.350101,-11843.295072,-919.314598
22342.660022,-4145.153275,-2442.679609,-3370.820191
22342.660355,-962.267725,-6513.812290,-1608.800546
22342.660688,4737.318029,-13397.727550,4979.620737
22342.661021,1110.308913,592.164754,1762.019645
22342.661354,1184.329507,-14285.974681,3524.039291
22342.661687,-2072.576638,-27017.516883,5822.325785
22342.662020,8216.285956,-2812.782580,1838.629195
22342.662353,7550.100608,4145.153275,2451.505594
22342.662686,2294.638420,-8290.306550,3600.648841
22342.663019,-8882.471304,-8660.409521,-5822.325785
22342.663352,-9474.636058,-17246.798449,-1225.752797
22342.663685,-3478.967927,-12361.439231,1149.143247
22342.664018,-1036.288319,-11843.295072,-4213.525239
22342.664351,-592.164754,-8068.244768,-2834.553343
22342.664684,3330.926739,-8882.471304,-2528.115143
22342.665017,2960.823768,-3923.091493,3064.381992
22342.665350,8216.285956,-8882.471304,6052.154434
22342.665683,2664.741391,-9548.656652,2451.505594
22342.666016,5329.482782,-7105.977043,7277.907231
22342.666349,-370.102971,-5403.503377,919.314598
22342.666682,-592.164754,-9844.739029,1149.143247
22342.667015,-2146.597232,-3923.091493,229.828649
22342.667348,-1184.329507,-6883.915261,0.000000
22342.667681,-1554.432478,-11843.295072,-76.609550
22342.668014,0.000000,-12509.480420,2757.943793
22342.668347,-3627.009116,-12287.418637,-1225.752797
22342.668680,888.247130,-11547.212695,1072.533697
22342.669013,1480.411884,-13841.851115,229.828649
22342.669346,7031.956449,-11843.295072,-76.609550
22342.669679,592.164754,-14434.015869,0.000000
22342.670012,5329.482782,-8808.450710,2374.896044
22342.670345,2886.803174,-9770.718434,-3370.820191
22342.670678,888.247130,-10288.862594,0.000000
22342.671011,1480.411884,-9474.636058,-4366.744339
22342.671344,-4737.318029,-10955.047942,-6128.763984
22342.671677,0.000000,-4959.379811,-4213.525239
22342.672010,-2072.576638,-8734.430116,-2221.676944
22342.672343,-222.061783,-8660.409521,689.485948
22342.672676,-2368.659014,-7772.162391,1225.752797
22342.673009,1702.473667,-7105.977043,229.828649
22342.673342,2294.638420,-6217.729913,-1149.143247
22342.673675,0.000000,-11177.109724,2987.772442
22342.674008,2294.638420,-7550.100608,-3524.039291
22342.674341,-888.247130,-11695.253884,995.924147
22342.674674,1924.535449,-6291.750507,306.438199
22342.675007,962.267725,-6439.791695,-76.609550
22342.675340,222.061783,-8290.306550,1378.971896
22342.675673,-1184.329507,-7772.162391,5286.058936
22342.676006,-1850.514855,-6291.750507,-1838.629195
22342.676339,-1184.329507,-11621.233289,1225.752797
22342.676672,1184.329507,-11695.253884,7124.688131
22342.677005,2960.823768,-5995.668130,3983.696590
22342.677338,3182.885551,-8364.327145,7277.907231
22342.677671,-1332.370696,-11177.109724,306.438199
22342.678004,3701.029710,-6587.832884,2987.772442
22342.678337,-1554.432478,-9474.636058,-76.609550
22342.678670,3256.906145,-6809.894666,1762.019645
22342.679003,-1258.350101,-5921.647536,-1685.410096
22342.679336,-3552.988522,-7179.997637,-1915.238745
22342.679669,-74.020594,-7105.977043,-76.609550
22342.680002,-74.020594,-11029.068536,-1302.362347
22342.680335,518.144159,-9622.677246,-1455.581446
22342.680668,148.041188,-12213.398043,153.219100
22342.681001,518.144159,-13915.871710,2987.772442
22342.681334,296.082377,-9104.533087,995.924147
22342.681667,2294.638420,-13619.789333,1915.238745
22342.682000,2368.659014,-8660.409521,1225.752797
22342.682333,4293.194464,-9178.553681,2987.772442
22342.682666,2072.576638,-5995.668130,0.000000
22342.682999,-518.144159,-9548.656652,1762.019645
22342.683332,-3478.967927,-7179.997637,-3370.820191
22342.683665,-3404.947333,-11621.233289,-4673.182538
22342.683998,-2220.617826,-10732.986159,-3064.381992
22342.684331,0.000000,-8956.491898,-2451.505594
22342.684664,-3478.967927,-10584.944971,-1685.410096
22342.684997,1628.453072,-9548.656652,766.095498
22342.685330,1110.308913,-8068.244768,76.609550
22342.685663,4367.215058,-10214.842000,6358.592633
22342.685996,4737.318029,-5403.503377,3600.648841
22342.686329,2294.638420,-9474.636058,2374.896044
22342.686662,-2368.659014,-7179.997637,0.000000
22342.686995,1702.473667,-8882.471304,-3140.991542
22342.687328,-888.247130,-11177.109724,3677.258390
22342.687661,740.205942,-3182.885551,1225.752797
22342.687994,-2146.597232,-6957.935855,-919.314598
22342.688327,-962.267725,-5551.544565,383.047749
22342.688660,-5551.544565,-8586.388927,-5898.935335
22342.688993,1184.329507,-9548.656652,2451.505594
22342.689326,444.123565,-7179.997637,612.876398
22342.689659,-2368.659014,-11917.315666,3677.258390
22342.689992,4663.297435,-11843.295072,4826.401637
22342.690325,-1554.432478,-10584.944971,306.438199
22342.690658,3404.947333,-9178.553681,3600.648841
22342.690991,1554.432478,-8364.327145,1991.848295
22342.691324,1998.556043,-9178.553681,-229.828649
22342.691657,2442.679609,-8512.368333,995.924147
22342.691990,1110.308913,-11843.295072,4826.401637
22342.692323,592.164754,-74.020594,-4290.134789
22342.692656,-666.185348,-14804.118840,1838.629195
22342.692989,4071.132681,-7105.977043,-383.047749
22342.693322,-5921.647536,-10732.986159,-3677.258390
22342.693655,4071.132681,-11843.295072,842.705048
22342.693988,-1554.432478,-12879.583391,459.657299
22342.694321,-3034.844362,-11547.212695,842.705048
22342.694654,74.020594,-3627.009116,689.485948
22342.694987,-6809.894666,-11399.171507,-4673.182538
22342.695320,0.000000,-5995.668130,2911.162892
22342.695653,-1258.350101,-9474.636058,-995.924147
22342.695986,-2072.576638,-7476.080014,-5209.449386
22342.696319,0.000000,-3627.009116,0.000000
22342.696652,-666.185348,-11843.295072,-842.705048
22342.696985,9474.636058,-7105.977043,4290.134789
22342.697318,814.226536,-15248.242405,5286.058936
22342.697651,3775.050304,-9844.739029,-1225.752797
22342.697984,2146.597232,-11251.130318,-76.609550
22342.698317,2516.700203,-11399.171507,2681.334243
22342.698650,6735.874072,-6513.812290,6052.154434
22342.698983,-1184.329507,-7179.997637,2374.896044
22342.699316,-888.247130,-7254.018232,-1302.362347
22342.699649,-7476.080014,-9474.636058,-7737.564530
22342.699982,-7698.141797,-7179.997637,-5515.887586
22342.700315,-8290.306550,-7179.997637,-1149.143247
22342.700648,-2738.761985,-11843.295072,-1608.800546
22342.700981,1184.329507,-6883.915261,3677.258390
22342.701314,2368.659014,-7698.141797,5439.278036
22342.701646,6143.709319,-5477.523971,6052.154434
22342.701979,5921.647536,-7846.182985,3983.696590
22342.702312,5847.626942,-10658.965565,1149.143247
22342.702645,1924.535449,-12435.459826,1149.143247
22342.702978,0.000000,-8364.327145,-1532.190996
22342.703311,-148.041188,-12731.542202,-76.609550
22342.703644,2294.638420,-7105.977043,-3447.429741
22342.703977,-74.020594,-11843.295072,1149.143247
22342.704310,-1332.370696,-6069.688724,-3140.991542
22342.704643,-3627.009116,-8512.368333,-1838.629195
22342.704976,-3478.967927,-11621.233289,-306.438199
22342.705309,-3552.988522,-8956.491898,4903.011187
22342.705642,1110.308913,-4737.318029,3600.648841
22342.705975,4737.318029,-6661.853478,6665.030833
22342.706308,2294.638420,-10066.800811,1608.800546
22342.706641,7105.977043,-4811.338623,1225.752797
22342.706974,-4663.297435,-14359.995275,-1685.410096
22342.707307,3256.906145,-7476.080014,-2451.505594
22342.707640,-6291.750507,-13693.809927,-4826.401637
22342.707973,2368.659014,-8956.491898,-1991.848295
22342.708306,2294.638420,-11547.212695,2221.676944
22342.708639,-4959.379811,-9844.739029,-3064.381992
22342.708972,2886.803174,-4737.318029,-689.485948
22342.709305,2294.638420,-11251.130318,6665.030833
22342.709638,5329.482782,-6735.874072,8580.269578
22342.709971,4145.153275,-10288.862594,9729.412825
22342.710304,3923.091493,-10066.800811,3907.087040
22342.710637,2220.617826,-6069.688724,1685.410096
22342.710970,-2442.679609,-10436.903782,-3140.991542
22342.711303,-1258.350101,-7105.977043,-4979.620737
22342.711636,-9474.636058,-10732.986159,-6741.640382
22342.711969,-370.102971,-6217.729913,-7124.688131
22342.712302,-7105.977043,-10732.986159,-4903.011187
22342.712635,0.000000,-7328.038826,-76.609550
22342.712968,2146.597232,-10658.965565,5439.278036
22342.713301,2960.823768,-7550.100608,5898.935335
22342.713634,5329.482782,-9992.780217,8273.831378
22342.713967,2590.720797,-9030.512492,5898.935335
22342.714300,3330.926739,-9770.718434,2681.334243
22342.714633,-1776.494261,-9770.718434,-76.609550
22342.714966,3552.988522,-9400.615463,612.876398
22342.715299,-222.061783,-8882.471304,-2068.457845
22342.715632,1554.432478,-8438.347739,-3830.477490
22342.715965,-1850.514855,-10658.965565,-6205.373534
22342.716298,-2664.741391,-12139.377449,-4060.306139
22342.716631,-74.020594,-12435.459826,4519.963438
22342.716964,-1258.350101,-5699.585753,-2451.505594
22342.717297,1776.494261,-9548.656652,2528.115143
22342.717630,4071.132681,-9474.636058,2987.772442
22342.717963,1554.432478,-7772.162391,4136.915689
22342.718296,1110.308913,-9918.759623,2374.896044
22342.718629,2960.823768,-9696.697840,3370.820191
22342.718962,-3552.988522,-11177.109724,-2451.505594
22342.719295,0.000000,-10140.821405,1915.238745
22342.719628,-2590.720797,-8216.285956,-3677.258390
22342.719961,-1406.391290,-5403.503377,-4903.011187
22342.720294,0.000000,-7328.038826,383.047749
22342.720627,-74.020594,-7698.141797,-2451.505594
22342.720960,1406.391290,-8438.347739,229.828649
22342.721293,2960.823768,-9844.739029,3753.867940
22342.721626,-74.020594,-11769.274478,2604.724693
22342.721959,4293.194464,-8956.491898,612.876398
22342.722292,2664.741391,-16358.551318,7277.907231
22342.722625,1184.329507,-5995.668130,1838.629195
22342.722958,3256.906145,-9474.636058,3677.258390
22342.723291,-1850.514855,-13027.624579,-76.609550
22342.723624,-4737.318029,-5995.668130,-5515.887586
22342.723957,-3923.091493,-6513.812290,-3370.820191
22342.724290,0.000000,-5329.482782,-1915.238745
22342.724623,-666.185348,-8290.306550,459.657299
22342.724956,1110.308913,-9474.636058,3600.648841
22342.725289,2294.638420,-8882.471304,2834.553343
22342.725622,0.000000,-10140.821405,1225.752797
22342.725955,2960.823768,-10066.800811,2068.457845
22342.726288,3182.885551,-11843.295072,1455.581446
22342.726621,3330.926739,-9474.636058,1149.143247
22342.726954,444.123565,-12583.501014,-995.924147
22342.727287,-888.247130,-11103.089130,-3677.258390
22342.727620,-1258.350101,-10288.862594,2834.553343
22342.727953,-3552.988522,-5699.585753,766.095498
22342.728286,-1850.514855,-4145.153275,-2145.067394
22342.728619,-2960.823768,-8512.368333,0.000000
22342.728952,4367.215058,-4737.318029,-76.609550
22342.729285,0.000000,-7179.997637,4596.572988
22342.729618,3182.885551,-9474.636058,3600.648841
22342.729951,-962.267725,-10881.027347,306.438199
22342.730284,-814.226536,-13915.871710,-1378.971896
22342.730617,3404.947333,-11547.212695,612.876398
22342.730950,-3552.988522,-11325.150913,-1225.752797
22342.731283,1628.453072,-7179.997637,-2451.505594
22342.731616,-4293.194464,-10732.986159,-1608.800546
22342.731949,296.082377,-7179.997637,459.657299
22342.732282,-296.082377,-6883.915261,2834.553343
22342.732615,-4145.153275,-4811.338623,459.657299
22342.732948,-74.020594,-7105.977043,-2528.115143
22342.733281,-1850.514855,-10362.883188,306.438199
22342.733614,3923.091493,-9474.636058,5439.278036
22342.733947,3478.967927,-11547.212695,842.705048
22342.734280,3552.988522,-14285.974681,536.266849
22342.734613,0.000000,-11103.089130,1225.752797
22342.734946,3478.967927,-6661.853478,76.609550
22342.735279,1036.288319,-9474.636058,-76.609550
22342.735612,1184.329507,-9104.533087,-1225.752797
22342.735945,-3849.070898,-7772.162391,-3064.381992
22342.736278,-3552.988522,-7179.997637,1838.629195
22342.736611,-2442.679609,-10658.965565,-2068.457845
22342.736944,-3552.988522,-7179.997637,0.000000
22342.737277,1998.556043,-8290.306550,2374.896044
22342.737610,1850.514855,-7476.080014,1685.410096
22342.737943,3701.029710,-8956.491898,3217.601092
22342.738276,2516.700203,-8660.409521,689.485948
22342.738609,6439.791695,-10658.965565,2374.896044
22342.738942,2368.659014,-7179.997637,0.000000
22342.739275,2590.720797,-16580.613101,2987.772442
22342.739608,2294.638420,-6217.729913,-4366.744339
22342.739941,-3552.988522,-10732.986159,-2451.505594
22342.740274,-3627.009116,-9474.636058,-2451.505594
22342.740607,-4663.297435,-6735.874072,-2451.505594
22342.740940,-962.267725,-5773.606348,0.000000
22342.741273,-370.102971,-9400.615463,4826.401637
22342.741606,1480.411884,-7179.997637,3983.696590
22342.741939,0.000000,-9844.739029,7048.078582
22342.742272,-666.185348,-7698.141797,-229.828649
22342.742605,0.000000,-10140.821405,0.000000
22342.742938,3552.988522,-7772.162391,2451.505594
22342.743271,2294.638420,-10658.965565,0.000000
22342.743604,2590.720797,-5625.565159,-1685.410096
22342.743937,-5329.482782,-12805.562797,-3064.381992
22342.744270,1184.329507,-5995.668130,-1532.190996
22342.744603,-2664.741391,-7179.997637,-76.609550
22342.744936,2590.720797,-7994.224174,-689.485948
22342.745269,888.247130,-12213.398043,-2451.505594
22342.745602,-1480.411884,-13693.809927,3217.601092
22342.745935,8068.244768,-10066.800811,6665.030833
22342.746268,3478.967927,-10362.883188,5745.716235
22342.746601,5329.482782,-8660.409521,5822.325785
22342.746934,-1776.494261,-8512.368333,4519.963438
22342.747266,2294.638420,-3627.009116,-3064.381992
22342.747599,-4885.359217,-11029.068536,-2528.115143
22342.747932,-4145.153275,-9548.656652,-153.219100
22342.748265,-3182.885551,-7105.977043,-2834.553343
22342.748598,-3627.009116,-7920.203579,-2987.772442
22342.748931,-962.267725,-5995.668130,-2451.505594
22342.749264,-74.020594,-8956.491898,-1608.800546
22342.749597,2960.823768,-13545.768739,4826.401637
22342.749930,2886.803174,-9474.636058,1608.800546
22342.750263,3478.967927,-14211.954086,1762.019645
22342.750596,3552.988522,-8734.430116,6665.030833
22342.750929,2664.741391,-8364.327145,3217.601092
22342.751262,-1480.411884,-9844.739029,1455.581446
22342.751595,-1924.535449,-6587.832884,-2374.896044
22342.751928,-2368.659014,-3923.091493,-2145.067394
22342.752261,-3034.844362,-8216.285956,-4443.353888
22342.752594,1184.329507,-10658.965565,1762.019645
22342.752927,-5995.668130,-9770.718434,-3753.867940
22342.753260,-7105.977043,-10140.821405,-3064.381992
22342.753593,-1776.494261,-11917.315666,2451.505594
22342.753926,-2664.741391,-9104.533087,3294.210641
22342.754259,-814.226536,-10881.027347,3294.210641
22342.754592,-1184.329507,-6217.729913,4749.792088
22342.754925,-5995.668130,-11843.295072,2068.457845
22342.755258,-5329.482782,-6587.832884,2451.505594
22342.755591,-6291.750507,-7698.141797,2068.457845
22342.755924,-4811.338623,-8290.306550,-2221.676944
22342.756257,-3256.906145,-666.185348,-3677.258390
22342.756590,-11399.171507,-14211.954086,-4979.620737
22342.756923,-3701.029710,-9474.636058,-76.609550
22342.757256,-6587.832884,-12657.521608,0.000000
22342.757589,-2368.659014,-11917.315666,1072.533697
22342.757921,-6587.832884,-12731.542202,2757.943793
22342.758254,-3256.906145,-8216.285956,4213.525239
22342.758587,-6291.750507,-9548.656652,2451.505594
22342.758920,-2960.823768,-8068.244768,2451.505594
22342.759253,-3404.947333,-9474.636058,5439.278036
22342.759586,-5995.668130,-8290.306550,1149.143247
22342.759919,-4219.173869,-6513.812290,-1302.362347
22342.760252,-7402.059420,-6439.791695,-1991.848295
22342.760585,-5181.441594,-9252.574275,-2451.505594
22342.760918,-6587.832884,-8808.450710,-2834.553343
22342.761251,-9474.636058,-15914.427753,-2528.115143
22342.761584,-5477.523971,-11769.274478,-3217.601092
22342.761917,-6661.853478,-16062.468941,2757.943793
22342.762250,-1258.350101,-9030.512492,4903.011187
22342.762583,-6513.812290,-8364.327145,4903.011187
22342.762916,-3552.988522,-5773.606348,7584.345430
22342.763249,-6587.832884,-8290.306550,2374.896044
22342.763582,-6143.709319,-5107.421000,1532.190996
22342.763915,-6957.935855,-7624.121203,1149.143247
22342.764248,-10732.986159,-8290.306550,-5898.935335
22342.764581,-10436.903782,-10510.924376,-3447.429741
22342.764914,-12731.542202,-8808.450710,-4903.011187
22342.765247,-8956.491898,-10066.800811,-2834.553343
22342.765580,-11251.130318,-10732.986159,-1225.752797
22342.765913,-9474.636058,-14063.912898,2374.896044
22342.766246,-10288.862594,-8660.409521,306.438199
22342.766579,-7772.162391,-7179.997637,2451.505594
22342.766912,-5033.400406,-9030.512492,6052.154434
22342.767245,-7031.956449,-4811.338623,4290.134789
22342.767578,-8364.327145,-6365.771101,76.609550
22342.767911,-10288.862594,-9178.553681,-76.609550
22342.768244,-12435.459826,-8438.347739,-2834.553343
22342.768577,-7179.997637,-8290.306550,-1302.362347
22342.768909,-8364.327145,-11843.295072,-76.609550
22342.769242,-9178.553681,-7772.162391,-6741.640382
22342.769575,-6069.688724,-11325.150913,1838.629195
22342.769908,-6883.915261,-14211.954086,1149.143247
22342.770241,-2960.823768,-11917.315666,5132.839837
22342.770574,-7254.018232,-14211.954086,3370.820191
22342.770907,-5181.441594,-9252.574275,2298.286494
22342.771240,-9548.656652,-9178.553681,2681.334243
22342.771573,-9474.636058,-6143.709319,0.000000
22342.771906,-9844.739029,-9178.553681,76.609550
22342.772239,-15396.283594,-7179.997637,1225.752797
22342.772572,-10732.986159,-8734.430116,-2068.457845
22342.772905,-14878.139434,-8290.306550,-3140.991542
22342.773238,-10288.862594,-7994.224174,-689.485948
22342.773571,-9474.636058,-7994.224174,2145.067394
22342.773904,-6883.915261,-10732.986159,3447.429741
22342.774237,-8882.471304,-10584.944971,1608.800546
22342.774570,-8586.388927,-12139.377449,612.876398
22342.774903,-9474.636058,-9548.656652,612.876398
22342.775236,-8956.491898,-11843.295072,2374.896044
22342.775569,-10140.821405,-8438.347739,-3600.648841
22342.775902,-12435.459826,-10140.821405,229.828649
22342.776235,-11843.295072,-8882.471304,-76.609550
22342.776568,-10288.862594,-7105.977043,1149.143247
22342.776901,-11843.295072,-5699.585753,-612.876398
22342.777234,-11547.212695,-9474.636058,76.609550
22342.777567,-9474.636058,-8660.409521,612.876398
22342.777900,-8808.450710,-7624.121203,1225.752797
22342.778233,-6143.709319,-9696.697840,612.876398
22342.778566,-5847.626942,-10881.027347,1072.533697
22342.778899,-9400.615463,-12361.439231,-1149.143247
22342.779232,-10658.965565,-12213.398043,0.000000
22342.779565,-11029.068536,-9474.636058,-2834.553343
22342.779897,-14211.954086,-9548.656652,-612.876398
22342.780230,-11325.150913,-8290.306550,-76.609550
22342.780563,-11917.315666,-7105.977043,-1302.362347
22342.780896,-10658.965565,-6587.832884,3294.210641
22342.781229,-10140.821405,-6883.915261,2911.162892
22342.781562,-7254.018232,-7476.080014,3140.991542
22342.781895,-7179.997637,-8364.327145,2911.162892
22342.782228,-3627.009116,-11843.295072,-76.609550
22342.782561,-8586.388927,-11325.150913,1225.752797
22342.782894,-8290.306550,-13767.830521,1455.581446
22342.783227,-7179.997637,-10658.965565,-2987.772442
22342.783560,-13619.789333,-9548.656652,-4290.134789
22342.783893,-10140.821405,-10510.924376,-3447.429741
22342.784226,-11251.130318,-9474.636058,766.095498
22342.784559,-10288.862594,-7105.977043,383.047749
22342.784892,-11621.233289,-7402.059420,536.266849
22342.785225,-10732.986159,-5477.523971,536.266849
22342.785558,-8290.306550,-6587.832884,5745.716235
22342.785891,-3775.050304,-8290.306550,7277.907231
22342.786224,-2442.679609,-7994.224174,1915.238745
22342.786557,-4737.318029,-10436.903782,1991.848295
22342.786890,-7402.059420,-11917.315666,-1915.238745
22342.787223,-9104.533087,-12213.398043,-4290.134789
22342.787556,-10807.006753,-13545.768739,-4443.353888
22342.787889,-9992.780217,-10436.903782,-3447.429741
22342.788222,-11251.130318,-8364.327145,0.000000
22342.788555,-6809.894666,-6883.915261,3600.648841
22342.788888,-9030.512492,-3627.009116,0.000000
22342.789221,-9474.636058,-6143.709319,1225.752797
22342.789554,-7179.997637,-11843.295072,6052.154434
22342.789887,-11399.171507,-9844.739029,612.876398
22342.790220,-10288.862594,-12509.480420,995.924147
22342.790552,-10584.944971,-11843.295072,842.705048
22342.790885,-8142.265362,-8586.388927,1762.019645
22342.791218,-8290.306550,-5995.668130,0.000000
22342.791551,-8364.327145,-6661.853478,-229.828649
22342.791884,-10362.883188,-6513.812290,-1762.019645
22342.792217,-11547.212695,-9918.759623,-2911.162892
22342.792550,-10732.986159,-11251.130318,-3140.991542
22342.792883,-12509.480420,-10732.986159,-4290.134789
22342.793216,-14211.954086,-11769.274478,-2221.676944
22342.793549,-11917.315666,-14211.954086,-76.609550
22342.793882,-13989.892304,-10436.903782,0.000000
22342.794215,-11029.068536,-10362.883188,5439.278036
22342.794548,-9474.636058,-8216.285956,6971.469032
22342.794881,-6661.853478,-5255.462188,9193.145976
22342.795214,-5329.482782,-3034.844362,8120.612279
22342.795547,-4737.318029,-2442.679609,4903.011187
22342.795880,-3182.885551,-4663.297435,-2145.067394
22342.796213,-5477.523971,-10658.965565,-4366.744339
22342.796546,-9474.636058,-9548.656652,-11031.775171
22342.796879,-10510.924376,-13619.789333,-12870.404366
22342.797212,-10658.965565,-14582.057057,-10342.289223
22342.797545,-7698.141797,-15174.221811,-4290.134789
22342.797878,-2590.720797,-11843.295072,2374.896044
22342.798211,0.000000,-8956.491898,7584.345430
22342.798544,3256.906145,-8290.306550,12180.918418
22342.798877,3478.967927,-3701.029710,10418.898773
22342.799210,5033.400406,-6883.915261,12793.794817
22342.799543,2294.638420,-6217.729913,5745.716235
22342.799876,-2368.659014,-7179.997637,612.876398
22342.800209,-3256.906145,-9178.553681,-3677.258390
22342.800542,-5033.400406,-10955.047942,-6205.373534
22342.800875,-7105.977043,-11917.315666,-6128.763984
22342.801208,-6809.894666,-12879.583391,-5209.449386
22342.801540,-6883.915261,-12879.583391,-2528.115143
22342.801873,-4737.318029,-10732.986159,3830.477490
22342.802206,-1850.514855,-6883.915261,6128.763984
22342.802539,0.000000,-7179.997637,12870.404366
22342.802872,1998.556043,-7105.977043,10189.070123
22342.803205,-1258.350101,-5921.647536,7507.735880
22342.803538,-1332.370696,-8290.306550,6358.592633
22342.803871,-4145.153275,-9548.656652,4443.353888
22342.804204,-4145.153275,-9474.636058,2757.943793
22342.804537,-4885.359217,-8808.450710,1762.019645
22342.804870,-5995.668130,-9178.553681,1149.143247
22342.805203,-7105.977043,-9548.656652,4903.011187
22342.805536,-2738.761985,-11547.212695,8503.660028
22342.805869,-74.020594,-12435.459826,10648.727422
22342.806202,-4737.318029,-9548.656652,12870.404366
22342.806535,-1554.432478,-9918.759623,14938.862211
22342.806868,-2146.597232,-8068.244768,16547.662757
22342.807201,-1184.329507,-7920.203579,17926.634653
22342.807534,-2146.597232,-7105.977043,17083.929605
22342.807867,-2812.782580,-8882.471304,18309.682402
22342.808200,-5921.647536,-6291.750507,13713.109414
22342.808533,-5625.565159,-5773.606348,12870.404366
22342.808866,-5921.647536,-6957.935855,13253.452115
22342.809199,-7105.977043,-5995.668130,12870.404366
22342.809532,-4737.318029,-7920.203579,19535.435199
22342.809865,-1258.350101,-7031.956449,19228.997000
22342.810198,-1110.308913,-4811.338623,22063.550342
22342.810531,1480.411884,-8142.265362,23825.569988
22342.810864,2738.761985,-8290.306550,23519.131789
22342.811197,2664.741391,-6439.791695,23289.303139
22342.811530,3182.885551,-6217.729913,20607.968896
22342.811863,1406.391290,-7476.080014,17850.025103
22342.812195,-592.164754,-9696.697840,17773.415554
22342.812528,-888.247130,-7179.997637,18156.463303
22342.812861,-1850.514855,-6883.915261,12870.404366
22342.813194,-2072.576638,-5995.668130,12257.527968
22342.813527,2368.659014,-7698.141797,21374.064394
22342.813860,4145.153275,-5995.668130,22063.550342
22342.814193,4811.338623,-5181.441594,22753.036291
22342.814526,1924.535449,-6069.688724,20071.702048
22342.814859,4663.297435,-4663.297435,16088.005458
22342.815192,2294.638420,-10658.965565,18309.682402
22342.815525,592.164754,-10288.862594,18309.682402
22342.815858,-3627.009116,-8364.327145,9806.022374
22342.816191,-4737.318029,-7179.997637,11721.261119
22342.816524,-2072.576638,-7920.203579,13253.452115
22342.816857,814.226536,-5329.482782,11721.261119
22342.817190,-814.226536,-7772.162391,13713.109414
22342.817523,-1924.535449,-7476.080014,11338.213370
22342.817856,-1776.494261,-9992.780217,12640.575717
22342.818189,-1776.494261,-8660.409521,12257.527968
22342.818522,1702.473667,-8734.430116,9039.926876
22342.818855,3404.947333,-10955.047942,13483.280765
22342.819188,4663.297435,-9474.636058,10955.165621
22342.819521,2442.679609,-6957.935855,9193.145976
22342.819854,-1776.494261,-7179.997637,7354.516781
22342.820187,-3552.988522,-7920.203579,3907.087040
22342.820520,-4441.235652,-9844.739029,3907.087040
22342.820853,-2590.720797,-7402.059420,3140.991542
22342.821186,-1850.514855,-11251.130318,4213.525239
22342.821519,-3552.988522,-8364.327145,5515.887586
22342.821852,-74.020594,-10658.965565,6665.030833
22342.822185,-814.226536,-8882.471304,4826.401637
22342.822518,0.000000,-7772.162391,6435.202183
22342.822851,2368.659014,-11917.315666,6894.859482
22342.823183,5181.441594,-11843.295072,9576.193725
22342.823516,3701.029710,-6439.791695,5132.839837
22342.823849,0.000000,-6439.791695,842.705048
22342.824182,-74.020594,-7105.977043,-76.609550
22342.824515,-3552.988522,-9548.656652,1915.238745
22342.824848,-370.102971,-7402.059420,-842.705048
22342.825181,-1406.391290,-8438.347739,-1991.848295
22342.825514,1406.391290,-11251.130318,1149.143247
22342.825847,5551.544565,-12435.459826,8503.660028
22342.826180,2664.741391,-9548.656652,10418.898773
22342.826513,2368.659014,-7179.997637,7277.907231
22342.826846,2294.638420,-10362.883188,-229.828649
22342.827179,2368.659014,-15766.386565,3217.601092
22342.827512,4219.173869,-16432.571912,6052.154434
22342.827845,1850.514855,-6883.915261,2145.067394
22342.828178,-1702.473667,-4663.297435,-1762.019645
22342.828511,-2738.761985,-7476.080014,689.485948
22342.828844,-1850.514855,-11399.171507,2374.896044
22342.829177,-4589.276840,-8364.327145,2451.505594
22342.829510,-1554.432478,-11251.130318,2374.896044
22342.829843,-666.185348,-9474.636058,4213.525239
22342.830176,0.000000,-10732.986159,10725.336972
22342.830509,1702.473667,-9474.636058,12487.356617
22342.830842,1924.535449,-6735.874072,11721.261119
22342.831175,1258.350101,-7920.203579,8656.879127
22342.831508,2442.679609,-8734.430116,8963.317327
22342.831841,1184.329507,-9548.656652,7354.516781
22342.832174,-4145.153275,-5995.668130,8273.831378
22342.832507,-370.102971,-9474.636058,5439.278036
22342.832840,-3256.906145,-8364.327145,3677.258390
22342.833173,-4737.318029,-12731.542202,9422.974625
22342.833506,-2738.761985,-9548.656652,8580.269578
22342.833839,-148.041188,-7031.956449,12257.527968
22342.834171,2294.638420,-6809.894666,17083.929605
22342.834504,2812.782580,-7698.141797,22599.817191
22342.834837,2590.720797,-5329.482782,21986.940793
22342.835170,2442.679609,-5329.482782,19535.435199
22342.835503,3478.967927,-6365.771101,14172.766713
22342.835836,2368.659014,-7179.997637,17160.539155
22342.836169,2960.823768,-7624.121203,18922.558801
22342.836502,-74.020594,-3701.029710,13942.938064
22342.836835,-2664.741391,-3182.885551,7967.393179
22342.837168,-2146.597232,-11177.109724,9729.412825
22342.837501,-888.247130,-15914.427753,15781.567259
22342.837834,666.185348,-12139.377449,18616.120601
22342.838167,3478.967927,-7105.977043,20301.530697
22342.838500,2368.659014,-4811.338623,20224.921147
22342.838833,2960.823768,-7698.141797,25357.760984
22342.839166,3182.885551,-6513.812290,22063.550342
22342.839499,888.247130,-6291.750507,19918.482948
22342.839832,-444.123565,-1998.556043,13713.109414
22342.840165,0.000000,-1554.432478,13023.623466
22342.840498,74.020594,-4293.194464,15015.471761
22342.840831,-1110.308913,-5329.482782,12487.356617
22342.841164,-1850.514855,-13619.789333,12870.404366
22342.841497,-4145.153275,-13101.645173,11261.603821
22342.841830,-3552.988522,-6291.750507,8273.831378
22342.842163,-888.247130,-7624.121203,10112.460574
22342.842496,814.226536,-10658.965565,16471.053207
22342.842829,2368.659014,-10732.986159,24132.008187
22342.843162,2294.638420,-4145.153275,14862.252661
22342.843495,1776.494261,-4811.338623,11031.775171
22342.843828,2072.576638,-3552.988522,7048.078582
22342.844160,-370.102971,-4293.194464,5056.230287
22342.844493,-1406.391290,-6365.771101,4060.306139
22342.844826,-2368.659014,-7179.997637,1991.848295
22342.845159,-1628.453072,-8586.388927,-612.876398
22342.845492,-2368.659014,-11325.150913,-1225.752797
22342.845825,2294.638420,-15100.201217,3600.648841
22342.846158,1702.473667,-12435.459826,995.924147
22342.846491,2368.659014,-11843.295072,4519.963438
22342.846824,4663.297435,-11843.295072,3600.648841
22342.847157,888.247130,-10214.842000,4903.011187
22342.847490,2294.638420,-9252.574275,3524.039291
22342.847823,2886.803174,-8734.430116,1378.971896
22342.848155,-74.020594,-5921.647536,-2681.334243
22342.848488,-3256.906145,-3330.926739,-7354.516781
22342.848821,222.061783,-6587.832884,-4290.134789
22342.849154,-4145.153275,-9548.656652,-2757.943793
22342.849487,-74.020594,-8882.471304,-8044.002729
22342.849820,-1406.391290,-7772.162391,-11644.651570
22342.850153,592.164754,-11917.315666,-6818.249932
22342.850486,5255.462188,-11843.295072,-5286.058936
22342.850819,2960.823768,-14582.057057,-1762.019645
22342.851152,2960.823768,-8438.347739,-3830.477490
22342.851485,1554.432478,-8290.306550,-8656.879127
22342.851818,0.000000,-12509.480420,-6741.640382
22342.852150,2590.720797,-15396.283594,-7737.564530
22342.852483,814.226536,-6513.812290,-11108.384721
22342.852816,-3552.988522,-4811.338623,-12870.404366
22342.853149,-1554.432478,-7105.977043,-14785.643111
22342.853482,-1258.350101,-9844.739029,-12947.013916
