#time,accel_x,accel_y,accel_z
19844.562803,5033.400406,-12139.377449,-76.609550
19844.563136,7105.977043,-9548.656652,2451.505594
19844.563470,9030.512492,-8364.327145,3677.258390
19844.563803,11473.192101,-10214.842000,4213.525239
19844.564137,11473.192101,-8586.388927,2987.772442
19844.564471,11473.192101,-5403.503377,0.000000
19844.564804,12583.501014,-9474.636058,2068.457845
19844.565138,11769.274478,-11843.295072,-76.609550
19844.565472,8660.409521,-8734.430116,-3677.258390
19844.565805,9992.780217,-9474.636058,-2681.334243
19844.566139,7105.977043,-9844.739029,-1378.971896
19844.566473,6291.750507,-9696.697840,-2451.505594
19844.566806,7105.977043,-10807.006753,0.000000
19844.567140,6661.853478,-9548.656652,2451.505594
19844.567474,5329.482782,-10288.862594,2451.505594
19844.567807,5847.626942,-13027.624579,2374.896044
19844.568141,3034.844362,-9770.718434,2911.162892
19844.568474,0.000000,-7179.997637,5515.887586
19844.568808,4663.297435,-7105.977043,2681.334243
19844.569142,592.164754,-6143.709319,1685.410096
19844.569475,-740.205942,-6291.750507,-612.876398
19844.569809,222.061783,-6217.729913,-995.924147
19844.570143,0.000000,-5995.668130,-3370.820191
19844.570476,1628.453072,-8734.430116,-2911.162892
19844.570810,1184.329507,-10584.944971,-2911.162892
19844.571144,2590.720797,-10881.027347,-1685.410096
19844.571477,5255.462188,-13619.789333,-76.609550
19844.571811,4071.132681,-13915.871710,2374.896044
19844.572145,1258.350101,-10140.821405,0.000000
19844.572478,1776.494261,-11029.068536,2451.505594
19844.572812,4663.297435,-9474.636058,2374.896044
19844.573145,3108.864956,-8068.244768,5362.668486
19844.573479,2072.576638,-5551.544565,3677.258390
19844.573813,3034.844362,-4737.318029,2451.505594
19844.574146,2664.741391,-6513.812290,1072.533697
19844.574480,3849.070898,-5921.647536,459.657299
19844.574814,3256.906145,-7772.162391,536.266849
19844.575147,4071.132681,-7328.038826,-4290.134789
19844.575481,1184.329507,-11621.233289,-2834.553343
19844.575815,1184.329507,-15396.283594,-1455.581446
19844.576148,-1258.350101,-13915.871710,-3140.991542
19844.576482,-2442.679609,-14211.954086,-1608.800546
19844.576815,-3923.091493,-11473.192101,-1072.533697
19844.577149,-4293.194464,-10658.965565,1302.362347
19844.577483,-2294.638420,-6439.791695,4673.182538
19844.577816,4663.297435,-4737.318029,7277.907231
19844.578150,4737.318029,-1850.514855,7354.516781
19844.578484,7698.141797,-2960.823768,7890.783629
19844.578817,7031.956449,-4811.338623,2757.943793
19844.579151,7105.977043,-5995.668130,0.000000
19844.579485,7624.121203,-9326.594869,-3524.039291
19844.579818,6069.688724,-13323.706956,-4903.011187
19844.580152,4515.256246,-14952.160028,-7277.907231
19844.580486,1554.432478,-16506.592507,-7660.954980
19844.580819,1110.308913,-15100.201217,-6205.373534
19844.581153,592.164754,-15174.221811,-76.609550
19844.581486,0.000000,-11621.233289,3677.258390
19844.581820,1110.308913,-6439.791695,2451.505594
19844.582154,2368.659014,-6291.750507,8427.050478
19844.582487,4367.215058,-1924.535449,7354.516781
19844.582821,7698.141797,-2516.700203,9422.974625
19844.583155,7772.162391,-3034.844362,8810.098227
19844.583488,6735.874072,-5107.421000,3677.258390
19844.583822,3552.988522,-7772.162391,-4290.134789
19844.584156,4737.318029,-11769.274478,-3140.991542
19844.584489,2294.638420,-12879.583391,-7431.126331
19844.584823,-74.020594,-13397.727550,-10725.336972
19844.585157,-4441.235652,-17246.798449,-8886.707777
19844.585490,-5181.441594,-16062.468941,-6741.640382
19844.585824,-4293.194464,-12805.562797,-2451.505594
19844.586157,-1998.556043,-10732.986159,1532.190996
19844.586491,-1258.350101,-7846.182985,5132.839837
19844.586825,0.000000,-2738.761985,7354.516781
19844.587158,2590.720797,-3034.844362,11338.213370
19844.587492,3182.885551,-3701.029710,11261.603821
19844.587826,1406.391290,-4811.338623,6971.469032
19844.588159,-74.020594,-8290.306550,3600.648841
19844.588493,-3627.009116,-9474.636058,-2068.457845
19844.588827,-6809.894666,-10140.821405,-6128.763984
19844.589160,-5995.668130,-13027.624579,-6818.249932
19844.589494,-7476.080014,-11769.274478,-8580.269578
19844.589827,-7105.977043,-11325.150913,-5056.230287
19844.590161,-4959.379811,-10881.027347,-4366.744339
19844.590495,-2442.679609,-11103.089130,-1685.410096
19844.590828,-962.267725,-8512.368333,1149.143247
19844.591162,2738.761985,-7105.977043,4366.744339
19844.591496,7031.956449,-5329.482782,4749.792088
19844.591829,4737.318029,-8216.285956,8963.317327
19844.592163,5847.626942,-10658.965565,7890.783629
19844.592497,2294.638420,-6291.750507,2451.505594
19844.592830,1110.308913,-11251.130318,2068.457845
19844.593164,-2368.659014,-11325.150913,-1685.410096
19844.593498,-4737.318029,-11547.212695,-3677.258390
19844.593831,-4441.235652,-11325.150913,-3600.648841
19844.594165,-4145.153275,-8364.327145,-3370.820191
19844.594498,-1258.350101,-7179.997637,-4903.011187
19844.594832,296.082377,-9474.636058,1991.848295
19844.595166,3478.967927,-7698.141797,842.705048
19844.595499,4071.132681,-4959.379811,612.876398
19844.595833,4737.318029,-6291.750507,1762.019645
19844.596167,5625.565159,-9178.553681,2987.772442
19844.596500,5403.503377,-7920.203579,2068.457845
19844.596834,4959.379811,-9474.636058,842.705048
19844.597168,3923.091493,-12361.439231,-76.609550
19844.597501,-1184.329507,-11325.150913,-1532.190996
19844.597835,-74.020594,-13767.830521,-76.609550
19844.598169,-666.185348,-12435.459826,-2911.162892
19844.598502,-2960.823768,-10732.986159,-2451.505594
19844.598836,0.000000,-9696.697840,0.000000
19844.599169,2220.617826,-7105.977043,3830.477490
19844.599503,4071.132681,-5847.626942,5362.668486
19844.599837,5033.400406,-5403.503377,5056.230287
19844.600170,7031.956449,-5921.647536,3600.648841
19844.600504,5329.482782,-7105.977043,4213.525239
19844.600838,4663.297435,-8290.306550,-2528.115143
19844.601171,0.000000,-8956.491898,-6741.640382
19844.601505,-1184.329507,-14211.954086,-5592.497135
19844.601839,-2072.576638,-13841.851115,-6741.640382
19844.602172,-2590.720797,-15174.221811,-5132.839837
19844.602506,-4219.173869,-14211.954086,-3064.381992
19844.602839,-3330.926739,-12065.356855,306.438199
19844.603173,-370.102971,-10362.883188,3600.648841
19844.603507,592.164754,-7105.977043,9039.926876
19844.603840,1850.514855,-4071.132681,9116.536426
19844.604174,3034.844362,-3552.988522,9193.145976
19844.604508,1850.514855,-3997.112087,6741.640382
19844.604841,3478.967927,-4737.318029,4519.963438
19844.605175,-1776.494261,-5403.503377,-3677.258390
19844.605509,-370.102971,-9474.636058,-4979.620737
19844.605842,-6069.688724,-10140.821405,-9193.145976
19844.606176,-7698.141797,-12509.480420,-10418.898773
19844.606510,-6291.750507,-15988.448347,-9269.755526
19844.606843,-5403.503377,-14508.036463,-4749.792088
19844.607177,-1776.494261,-12879.583391,1455.581446
19844.607510,1036.288319,-9844.739029,6971.469032
19844.607844,3182.885551,-5921.647536,8197.221829
19844.608178,2368.659014,-6883.915261,12180.918418
19844.608511,4663.297435,-7105.977043,9116.536426
19844.608845,0.000000,-3627.009116,5515.887586
19844.609179,0.000000,-7031.956449,3983.696590
19844.609512,-3627.009116,-4959.379811,-4826.401637
19844.609846,-4737.318029,-9622.677246,-5592.497135
19844.610180,-2368.659014,-9178.553681,-5669.106685
19844.610513,-1924.535449,-12213.398043,-4826.401637
19844.610847,592.164754,-8364.327145,-4903.011187
19844.611181,1184.329507,-13397.727550,-76.609550
19844.611514,5255.462188,-11547.212695,-76.609550
19844.611848,5847.626942,-11843.295072,-1302.362347
19844.612181,3775.050304,-11843.295072,2374.896044
19844.612515,4737.318029,-9844.739029,4366.744339
19844.612849,3034.844362,-9622.677246,4060.306139
19844.613182,2368.659014,-7920.203579,2987.772442
19844.613516,-370.102971,-7402.059420,1838.629195
19844.613849,296.082377,-6883.915261,2451.505594
19844.614183,2294.638420,-8734.430116,2374.896044
19844.614517,-74.020594,-6661.853478,-919.314598
19844.614850,1184.329507,-7772.162391,0.000000
19844.615184,2886.803174,-11843.295072,2374.896044
19844.615517,3182.885551,-7476.080014,766.095498
19844.615851,4663.297435,-9474.636058,-2221.676944
19844.616185,4589.276840,-10362.883188,-995.924147
19844.616518,1184.329507,-10732.986159,-1762.019645
19844.616852,666.185348,-10955.047942,-1532.190996
19844.617185,-74.020594,-11103.089130,-2528.115143
19844.617519,-1036.288319,-9622.677246,-383.047749
19844.617853,-1184.329507,-8068.244768,1149.143247
19844.618186,-370.102971,-8290.306550,1149.143247
19844.618520,-3552.988522,-8290.306550,1762.019645
19844.618853,-4145.153275,-8364.327145,2451.505594
19844.619187,-666.185348,-9474.636058,2374.896044
19844.619520,-2442.679609,-6587.832884,2451.505594
19844.619854,-74.020594,-8290.306550,2374.896044
19844.620188,666.185348,-9178.553681,2374.896044
19844.620521,0.000000,-7772.162391,1225.752797
19844.620855,1702.473667,-7179.997637,383.047749
19844.621188,1184.329507,-8364.327145,-1225.752797
19844.621522,-74.020594,-10658.965565,-2528.115143
19844.621856,-4737.318029,-9548.656652,-3677.258390
19844.622189,-962.267725,-12287.418637,-3753.867940
19844.622523,-1924.535449,-12435.459826,-3753.867940
19844.622856,-3256.906145,-10140.821405,-1225.752797
19844.623190,-1258.350101,-11843.295072,1685.410096
19844.623524,222.061783,-9326.594869,4673.182538
19844.623857,0.000000,-7920.203579,5898.935335
19844.624191,592.164754,-7920.203579,6128.763984
19844.624524,1554.432478,-4145.153275,4826.401637
19844.624858,2294.638420,-7105.977043,6052.154434
19844.625192,1702.473667,-3034.844362,0.000000
19844.625525,-296.082377,-9326.594869,-76.609550
19844.625859,-1332.370696,-9474.636058,-4903.011187
19844.626192,-2294.638420,-8660.409521,-4903.011187
19844.626526,-1036.288319,-10658.965565,-6052.154434
19844.626859,-814.226536,-12139.377449,-5592.497135
19844.627193,-518.144159,-12731.542202,-3447.429741
19844.627527,1184.329507,-9844.739029,0.000000
19844.627860,5107.421000,-11843.295072,4213.525239
19844.628194,4071.132681,-9474.636058,4213.525239
19844.628527,4737.318029,-8364.327145,8197.221829
19844.628861,4663.297435,-9474.636058,6052.154434
19844.629195,1480.411884,-7328.038826,4443.353888
19844.629528,-1036.288319,-8068.244768,995.924147
19844.629862,-2960.823768,-8068.244768,-1532.190996
19844.630195,-3330.926739,-7476.080014,-2604.724693
19844.630529,-1776.494261,-9030.512492,-919.314598
19844.630863,2294.638420,-8290.306550,-3140.991542
19844.631196,888.247130,-8660.409521,612.876398
19844.631530,2368.659014,-7476.080014,2451.505594
19844.631863,7031.956449,-9474.636058,-76.609550
19844.632197,3849.070898,-10140.821405,1915.238745
19844.632530,3627.009116,-10807.006753,459.657299
19844.632864,2220.617826,-11103.089130,0.000000
19844.633198,962.267725,-11473.192101,-1532.190996
19844.633531,-3552.988522,-11325.150913,-612.876398
19844.633865,-3552.988522,-9918.759623,-612.876398
19844.634198,-2738.761985,-8882.471304,153.219100
19844.634532,-3552.988522,-8438.347739,1225.752797
19844.634866,-2146.597232,-5921.647536,1455.581446
19844.635199,-2368.659014,-6735.874072,5515.887586
19844.635533,2146.597232,-6957.935855,7890.783629
19844.635866,3478.967927,-5329.482782,2451.505594
19844.636200,2368.659014,-7772.162391,4290.134789
19844.636534,4071.132681,-9474.636058,2374.896044
19844.636867,0.000000,-9030.512492,-1915.238745
19844.637201,-2294.638420,-11843.295072,-5898.935335
19844.637534,-4885.359217,-12509.480420,-6971.469032
19844.637868,-5921.647536,-11917.315666,-6128.763984
19844.638201,-5329.482782,-9548.656652,-3064.381992
19844.638535,-1850.514855,-12435.459826,-76.609550
19844.638869,-1554.432478,-7105.977043,842.705048
19844.639202,0.000000,-8068.244768,6435.202183
19844.639536,3182.885551,-5403.503377,8197.221829
19844.639869,2664.741391,-7105.977043,8656.879127
19844.640203,962.267725,-7698.141797,5132.839837
19844.640537,1554.432478,-7031.956449,3294.210641
19844.640870,444.123565,-8882.471304,1149.143247
19844.641204,0.000000,-7476.080014,-76.609550
19844.641537,-1258.350101,-8586.388927,-7354.516781
19844.641871,-2368.659014,-9548.656652,-4673.182538
19844.642205,0.000000,-9696.697840,-4060.306139
19844.642538,888.247130,-11917.315666,-4903.011187
19844.642872,888.247130,-11843.295072,-3140.991542
19844.643205,1406.391290,-10881.027347,-689.485948
19844.643539,3552.988522,-10436.903782,2911.162892
19844.643872,4071.132681,-10066.800811,4519.963438
19844.644206,3552.988522,-10955.047942,7584.345430
19844.644540,1110.308913,-7105.977043,4213.525239
19844.644873,0.000000,-7476.080014,6435.202183
19844.645207,1998.556043,-5921.647536,2451.505594
19844.645540,-370.102971,-7105.977043,1149.143247
19844.645874,-1998.556043,-6291.750507,-1838.629195
19844.646208,-1332.370696,-8290.306550,-1915.238745
19844.646541,0.000000,-7476.080014,-2757.943793
19844.646875,0.000000,-9548.656652,-2451.505594
19844.647208,3478.967927,-11251.130318,-3140.991542
19844.647542,0.000000,-9548.656652,-1225.752797
19844.647876,0.000000,-10140.821405,0.000000
19844.648209,3182.885551,-11843.295072,-383.047749
19844.648543,3478.967927,-10658.965565,2374.896044
19844.648876,2146.597232,-9548.656652,3064.381992
19844.649210,1332.370696,-9104.533087,2681.334243
19844.649543,-74.020594,-9104.533087,2068.457845
19844.649877,-3256.906145,-7476.080014,612.876398
19844.650211,-1258.350101,-8290.306550,-689.485948
19844.650544,-2960.823768,-8734.430116,-689.485948
19844.650878,-2442.679609,-8216.285956,-459.657299
19844.651211,-1702.473667,-8586.388927,612.876398
19844.651545,296.082377,-6069.688724,0.000000
19844.651879,3330.926739,-8882.471304,2987.772442
19844.652212,3478.967927,-7031.956449,383.047749
19844.652546,2960.823768,-8216.285956,2374.896044
19844.652879,4663.297435,-10658.965565,-76.609550
19844.653213,518.144159,-9548.656652,-3983.696590
19844.653547,-1258.350101,-12287.418637,-4213.525239
19844.653880,-2146.597232,-12435.459826,-3370.820191
19844.654214,-2590.720797,-11769.274478,-1532.190996
19844.654547,-4589.276840,-11177.109724,0.000000
19844.654881,-1850.514855,-10658.965565,-76.609550
19844.655214,-3182.885551,-8290.306550,2374.896044
19844.655548,0.000000,-5995.668130,8580.269578
19844.655882,2886.803174,-5921.647536,7277.907231
19844.656215,1184.329507,-3627.009116,7967.393179
19844.656549,3627.009116,-5329.482782,5362.668486
19844.656882,3182.885551,-6439.791695,2374.896044
19844.657216,2368.659014,-7328.038826,-229.828649
19844.657550,-74.020594,-10214.842000,-4979.620737
19844.657883,-74.020594,-11843.295072,-9269.755526
19844.658217,-5329.482782,-11917.315666,-8580.269578
19844.658550,-5921.647536,-13397.727550,-6128.763984
19844.658884,-1850.514855,-13915.871710,-4673.182538
19844.659218,1332.370696,-12953.603985,-76.609550
19844.659551,3849.070898,-9844.739029,5132.839837
19844.659885,6365.771101,-7994.224174,8963.317327
19844.660218,5551.544565,-7402.059420,8963.317327
19844.660552,4367.215058,-7105.977043,6971.469032
19844.660885,1554.432478,-4811.338623,1838.629195
19844.661219,592.164754,-8068.244768,3907.087040
19844.661553,-1554.432478,-7402.059420,-3370.820191
19844.661886,-4293.194464,-7179.997637,-7354.516781
19844.662220,-2368.659014,-11843.295072,-4366.744339
19844.662553,-148.041188,-9474.636058,-4213.525239
19844.662887,444.123565,-10140.821405,-2834.553343
19844.663221,2294.638420,-10510.924376,-2681.334243
19844.663554,2886.803174,-11547.212695,842.705048
19844.663888,2442.679609,-10732.986159,1072.533697
19844.664221,3034.844362,-10436.903782,2528.115143
19844.664555,2664.741391,-11251.130318,4290.134789
19844.664889,0.000000,-8660.409521,3677.258390
19844.665222,0.000000,-7772.162391,4826.401637
19844.665556,-1258.350101,-7698.141797,0.000000
19844.665889,-3552.988522,-7179.997637,0.000000
19844.666223,-4441.235652,-7698.141797,-76.609550
19844.666556,-4737.318029,-5995.668130,0.000000
19844.666890,-3552.988522,-7476.080014,383.047749
19844.667224,444.123565,-7772.162391,459.657299
19844.667557,3108.864956,-7994.224174,2451.505594
19844.667891,5255.462188,-9474.636058,2374.896044
19844.668224,1554.432478,-8068.244768,0.000000
19844.668558,3478.967927,-11103.089130,-3294.210641
19844.668892,-1184.329507,-10732.986159,-2451.505594
19844.669225,0.000000,-12361.439231,-689.485948
19844.669559,-1258.350101,-10881.027347,-2221.676944
19844.669892,-1258.350101,-11843.295072,-76.609550
19844.670226,-1184.329507,-9252.574275,1685.410096
19844.670560,-370.102971,-8290.306550,2528.115143
19844.670893,-814.226536,-8216.285956,2834.553343
19844.671227,0.000000,-7772.162391,5439.278036
19844.671560,0.000000,-4811.338623,1225.752797
19844.671894,1184.329507,-8216.285956,5439.278036
19844.672227,962.267725,-7476.080014,306.438199
19844.672561,2368.659014,-8364.327145,1991.848295
19844.672895,3478.967927,-9474.636058,-76.609550
19844.673228,2664.741391,-8734.430116,-1455.581446
19844.673562,518.144159,-10214.842000,-4749.792088
19844.673895,-1332.370696,-10955.047942,-5132.839837
19844.674229,-74.020594,-13027.624579,-3753.867940
19844.674563,-2368.659014,-10140.821405,-3064.381992
19844.674896,-1184.329507,-11621.233289,-76.609550
19844.675230,-74.020594,-10066.800811,0.000000
19844.675563,0.000000,-8660.409521,4903.011187
19844.675897,1998.556043,-7179.997637,4903.011187
19844.676231,3182.885551,-8438.347739,6665.030833
19844.676564,2960.823768,-6291.750507,6741.640382
19844.676898,2368.659014,-5403.503377,5439.278036
19844.677231,2590.720797,-4071.132681,536.266849
19844.677565,592.164754,-8068.244768,1608.800546
19844.677898,-74.020594,-9178.553681,-3753.867940
19844.678232,-370.102971,-10658.965565,-6818.249932
19844.678566,-3552.988522,-9548.656652,-7354.516781
19844.678899,-1850.514855,-12583.501014,-7431.126331
19844.679233,-2812.782580,-12361.439231,-5209.449386
19844.679566,0.000000,-12361.439231,-842.705048
19844.679900,2516.700203,-9252.574275,3294.210641
19844.680234,5551.544565,-8290.306550,5592.497135
19844.680567,3997.112087,-9030.512492,8044.002729
19844.680901,3404.947333,-7105.977043,6052.154434
19844.681234,888.247130,-7550.100608,4596.572988
19844.681568,0.000000,-8364.327145,3370.820191
19844.681902,-2442.679609,-8142.265362,-2068.457845
19844.682235,-5921.647536,-5995.668130,-6128.763984
19844.682569,-4737.318029,-8512.368333,-1915.238745
19844.682902,-3627.009116,-8808.450710,-4596.572988
19844.683236,-2072.576638,-7772.162391,-2451.505594
19844.683569,1184.329507,-9474.636058,-76.609550
19844.683903,2664.741391,-9030.512492,1225.752797
19844.684237,3923.091493,-9474.636058,1225.752797
19844.684570,4663.297435,-11843.295072,2374.896044
19844.684904,4071.132681,-9030.512492,-1225.752797
19844.685237,1776.494261,-11843.295072,2221.676944
19844.685571,-74.020594,-12435.459826,-1915.238745
19844.685905,-3627.009116,-9696.697840,-2145.067394
19844.686238,-3330.926739,-10955.047942,-76.609550
19844.686572,-3849.070898,-8068.244768,0.000000
19844.686905,-3182.885551,-6587.832884,766.095498
19844.687239,-148.041188,-6513.812290,3524.039291
19844.687573,888.247130,-4811.338623,4290.134789
19844.687906,2886.803174,-5403.503377,1225.752797
19844.688240,5847.626942,-9474.636058,1149.143247
19844.688573,2664.741391,-7328.038826,766.095498
19844.688907,1480.411884,-9548.656652,-459.657299
19844.689240,296.082377,-9696.697840,-4519.963438
19844.689574,-1776.494261,-13175.665768,-5056.230287
19844.689908,-2072.576638,-13471.748144,-4060.306139
19844.690241,-2664.741391,-12361.439231,-2757.943793
19844.690575,-74.020594,-12139.377449,-229.828649
19844.690908,-2368.659014,-9548.656652,1532.190996
19844.691242,2294.638420,-9474.636058,3600.648841
19844.691576,592.164754,-5995.668130,7354.516781
19844.691909,3997.112087,-7105.977043,9116.536426
19844.692243,3404.947333,-6291.750507,5056.230287
19844.692576,1184.329507,-6439.791695,5822.325785
19844.692910,1406.391290,-6957.935855,1685.410096
19844.693244,222.061783,-7698.141797,-689.485948
19844.693577,-74.020594,-8290.306550,-3294.210641
19844.693911,296.082377,-11251.130318,-4979.620737
19844.694244,-2146.597232,-9696.697840,-7048.078582
19844.694578,-2960.823768,-9548.656652,-6128.763984
19844.694911,-74.020594,-13619.789333,-4979.620737
19844.695245,-74.020594,-11251.130318,-3064.381992
19844.695579,2146.597232,-11325.150913,1225.752797
19844.695912,3775.050304,-9770.718434,5362.668486
19844.696246,2072.576638,-8734.430116,5515.887586
19844.696579,1406.391290,-7402.059420,6128.763984
19844.696913,3775.050304,-7698.141797,5745.716235
19844.697247,444.123565,-6883.915261,5286.058936
19844.697580,592.164754,-5995.668130,3217.601092
19844.697914,-2590.720797,-6809.894666,-995.924147
19844.698247,-2516.700203,-7105.977043,-4060.306139
19844.698581,-666.185348,-9474.636058,-1302.362347
19844.698915,1702.473667,-9474.636058,-4979.620737
19844.699248,-2368.659014,-9844.739029,-4136.915689
19844.699582,-888.247130,-13841.851115,-2834.553343
19844.699915,1554.432478,-13619.789333,-1915.238745
19844.700249,74.020594,-11029.068536,459.657299
19844.700582,2146.597232,-10066.800811,3753.867940
19844.700916,2812.782580,-9030.512492,4979.620737
19844.701250,1702.473667,-6291.750507,3524.039291
19844.701583,0.000000,-6587.832884,4290.134789
19844.701917,-74.020594,-7698.141797,2068.457845
19844.702250,-2442.679609,-7179.997637,-2451.505594
19844.702584,-4293.194464,-8364.327145,-1838.629195
19844.702918,-3627.009116,-9474.636058,-5056.230287
19844.703251,-3330.926739,-9326.594869,-3140.991542
19844.703585,-370.102971,-8956.491898,-459.657299
19844.703918,2590.720797,-8438.347739,2374.896044
19844.704252,4737.318029,-6883.915261,2757.943793
19844.704586,3552.988522,-8364.327145,6435.202183
19844.704919,5255.462188,-8586.388927,76.609550
19844.705253,2368.659014,-8364.327145,0.000000
19844.705586,2294.638420,-11843.295072,-1302.362347
19844.705920,-1776.494261,-9548.656652,-3064.381992
19844.706253,-2368.659014,-11843.295072,-2528.115143
19844.706587,-2442.679609,-11029.068536,-1991.848295
19844.706921,-4441.235652,-10140.821405,-536.266849
19844.707254,-666.185348,-9178.553681,2068.457845
19844.707588,0.000000,-9474.636058,8197.221829
19844.707921,2886.803174,-5625.565159,4903.011187
19844.708255,2368.659014,-4367.215058,7814.174080
19844.708589,6439.791695,-8290.306550,7277.907231
19844.708922,4737.318029,-6587.832884,4903.011187
19844.709256,2886.803174,-7698.141797,229.828649
19844.709589,1406.391290,-8956.491898,-4290.134789
19844.709923,-2812.782580,-11547.212695,-8580.269578
19844.710257,-4737.318029,-12879.583391,-9346.365076
19844.710590,-2442.679609,-12731.542202,-7584.345430
19844.710924,-3552.988522,-11325.150913,-4903.011187
19844.711257,0.000000,-11917.315666,2068.457845
19844.711591,1702.473667,-10140.821405,2757.943793
19844.711924,3849.070898,-7476.080014,9193.145976
19844.712258,4071.132681,-6439.791695,8503.660028
19844.712592,2738.761985,-7476.080014,7124.688131
19844.712925,2960.823768,-6735.874072,5132.839837
19844.713259,-518.144159,-7105.977043,2834.553343
19844.713592,-814.226536,-6735.874072,-1455.581446
19844.713925,-3627.009116,-8882.471304,-4060.306139
19844.714258,-3775.050304,-9178.553681,-5592.497135
19844.714592,-2368.659014,-9474.636058,-4519.963438
19844.714925,-74.020594,-10658.965565,-3753.867940
19844.715258,2294.638420,-14211.954086,-1302.362347
19844.715592,0.000000,-9548.656652,-2451.505594
19844.715925,2368.659014,-9548.656652,612.876398
19844.716258,0.000000,-8364.327145,2451.505594
19844.716591,1184.329507,-10140.821405,4903.011187
19844.716925,1702.473667,-8882.471304,2757.943793
19844.717258,-1110.308913,-8882.471304,3753.867940
19844.717591,-1628.453072,-7624.121203,2604.724693
19844.717925,-4145.153275,-5995.668130,919.314598
19844.718258,-2442.679609,-7105.977043,-76.609550
19844.718591,-2442.679609,-6513.812290,-1302.362347
19844.718924,-4145.153275,-6291.750507,0.000000
19844.719258,1702.473667,-8882.471304,-76.609550
19844.719591,592.164754,-8956.491898,1532.190996
19844.719924,3478.967927,-8216.285956,0.000000
19844.720258,2368.659014,-10362.883188,-1072.533697
19844.720591,2072.576638,-11103.089130,-1455.581446
19844.720924,2072.576638,-12361.439231,612.876398
19844.721258,2886.803174,-10066.800811,-2374.896044
19844.721591,1776.494261,-9548.656652,-1838.629195
19844.721924,1480.411884,-12213.398043,2987.772442
19844.722257,222.061783,-7698.141797,0.000000
19844.722591,0.000000,-9548.656652,3447.429741
19844.722924,-592.164754,-9400.615463,1608.800546
19844.723257,-666.185348,-8364.327145,1072.533697
19844.723591,-74.020594,-9178.553681,2068.457845
19844.723924,2294.638420,-8290.306550,3600.648841
19844.724257,2294.638420,-6513.812290,0.000000
19844.724590,2664.741391,-7179.997637,2604.724693
19844.724924,6143.709319,-9178.553681,4519.963438
19844.725257,4071.132681,-6513.812290,-995.924147
19844.725590,2812.782580,-9992.780217,-1532.190996
19844.725924,-1406.391290,-11029.068536,-5669.106685
19844.726257,-1258.350101,-12583.501014,-5056.230287
19844.726590,-1702.473667,-11325.150913,-4519.963438
19844.726923,-814.226536,-13101.645173,-536.266849
19844.727257,-2664.741391,-10214.842000,-612.876398
19844.727590,-1406.391290,-10881.027347,2681.334243
19844.727923,1998.556043,-7994.224174,6052.154434
19844.728257,592.164754,-5995.668130,7354.516781
19844.728590,2516.700203,-6957.935855,9422.974625
19844.728923,2442.679609,-3627.009116,5515.887586
19844.729256,0.000000,-5995.668130,5822.325785
19844.729590,2294.638420,-6957.935855,536.266849
19844.729923,-74.020594,-10658.965565,-2528.115143
19844.730256,-2886.803174,-9548.656652,-6665.030833
19844.730590,-4293.194464,-11325.150913,-7814.174080
19844.730923,-4589.276840,-12583.501014,-7660.954980
19844.731256,-6809.894666,-11917.315666,-7048.078582
19844.731590,-1258.350101,-11769.274478,-4903.011187
19844.731923,592.164754,-10732.986159,5132.839837
19844.732256,4663.297435,-9474.636058,9116.536426
19844.732589,5847.626942,-7698.141797,7890.783629
19844.732923,2368.659014,-5403.503377,7354.516781
19844.733256,2664.741391,-7476.080014,5822.325785
19844.733589,814.226536,-6809.894666,3524.039291
19844.733923,-2294.638420,-8290.306550,-459.657299
19844.734256,-3552.988522,-8808.450710,-2451.505594
19844.734589,-4219.173869,-8660.409521,-6588.421283
19844.734922,-74.020594,-13027.624579,-3140.991542
19844.735256,-74.020594,-9252.574275,-3217.601092
19844.735589,2368.659014,-9400.615463,-2145.067394
19844.735922,3701.029710,-9400.615463,1225.752797
19844.736256,3552.988522,-9400.615463,919.314598
19844.736589,3108.864956,-9992.780217,1225.752797
19844.736922,3478.967927,-9918.759623,1225.752797
19844.737255,2812.782580,-11843.295072,1762.019645
19844.737589,-2072.576638,-9548.656652,1225.752797
19844.737922,-1258.350101,-9030.512492,-1302.362347
19844.738255,-3997.112087,-7179.997637,0.000000
19844.738589,-2294.638420,-9474.636058,1762.019645
19844.738922,-74.020594,-8290.306550,1149.143247
19844.739255,-1184.329507,-8290.306550,2374.896044
19844.739589,592.164754,-7698.141797,2451.505594
19844.739922,3849.070898,-6439.791695,3677.258390
19844.740255,4293.194464,-7772.162391,2757.943793
19844.740588,5921.647536,-10214.842000,3294.210641
19844.740922,2368.659014,-7772.162391,-2451.505594
19844.741255,1332.370696,-11325.150913,-4290.134789
19844.741588,666.185348,-14211.954086,-4366.744339
19844.741922,-2442.679609,-13619.789333,-5898.935335
19844.742255,-1554.432478,-13027.624579,-2834.553343
19844.742588,-2368.659014,-10436.903782,0.000000
19844.742921,-74.020594,-9474.636058,1532.190996
19844.743255,0.000000,-8290.306550,3983.696590
19844.743588,888.247130,-8882.471304,6665.030833
19844.743921,1406.391290,-6735.874072,6435.202183
19844.744255,666.185348,-6957.935855,5056.230287
19844.744588,148.041188,-7328.038826,2145.067394
19844.744921,814.226536,-6365.771101,689.485948
19844.745254,0.000000,-8438.347739,1149.143247
19844.745588,2294.638420,-11547.212695,-689.485948
19844.745921,-222.061783,-8364.327145,-4596.572988
19844.746254,0.000000,-10288.862594,-3753.867940
19844.746588,-74.020594,-11843.295072,-4519.963438
19844.746921,-888.247130,-11843.295072,-3294.210641
19844.747254,-1480.411884,-11325.150913,-2757.943793
19844.747587,-1184.329507,-10732.986159,0.000000
19844.747921,-1776.494261,-10732.986159,2451.505594
19844.748254,0.000000,-9252.574275,7277.907231
19844.748587,518.144159,-6513.812290,4903.011187
19844.748921,0.000000,-4811.338623,7354.516781
19844.749254,2590.720797,-5921.647536,6052.154434
19844.749587,518.144159,-3775.050304,2451.505594
19844.749921,-444.123565,-6069.688724,229.828649
19844.750254,-1406.391290,-8734.430116,-3294.210641
19844.750587,-1850.514855,-10066.800811,-4979.620737
19844.750920,-444.123565,-10807.006753,-4136.915689
19844.751254,-518.144159,-14211.954086,-3140.991542
19844.751587,-1258.350101,-10732.986159,-7354.516781
19844.751920,0.000000,-11917.315666,-4290.134789
19844.752254,3256.906145,-12139.377449,2374.896044
19844.752587,2368.659014,-9548.656652,4290.134789
19844.752920,4367.215058,-9400.615463,5056.230287
19844.753253,4589.276840,-7846.182985,6588.421283
19844.753587,3552.988522,-6809.894666,5745.716235
19844.753920,2294.638420,-7994.224174,3600.648841
19844.754253,-74.020594,-9474.636058,1149.143247
19844.754587,-3627.009116,-8586.388927,-3907.087040
19844.754920,-4737.318029,-8364.327145,-2528.115143
19844.755253,-4737.318029,-9548.656652,-2451.505594
19844.755586,1702.473667,-10658.965565,-689.485948
19844.755920,1332.370696,-8882.471304,1838.629195
19844.756253,4071.132681,-7402.059420,1762.019645
19844.756586,4737.318029,-8586.388927,1149.143247
19844.756920,3849.070898,-8956.491898,612.876398
19844.757253,4367.215058,-8882.471304,-1532.190996
19844.757586,2664.741391,-10955.047942,0.000000
19844.757919,1998.556043,-13027.624579,-2528.115143
19844.758253,-2812.782580,-10732.986159,-3064.381992
19844.758586,-2146.597232,-12953.603985,-76.609550
19844.758919,-2960.823768,-9696.697840,-383.047749
19844.759253,-3701.029710,-9400.615463,459.657299
19844.759586,-1776.494261,-7328.038826,2604.724693
19844.759919,592.164754,-5403.503377,5515.887586
19844.760253,2590.720797,-4515.256246,5209.449386
19844.760586,4515.256246,-6291.750507,4826.401637
19844.760919,5255.462188,-7994.224174,4060.306139
19844.761252,2368.659014,-8364.327145,612.876398
19844.761586,222.061783,-7994.224174,-4366.744339
19844.761919,-1258.350101,-14211.954086,-7431.126331
19844.762252,-5107.421000,-11917.315666,-9193.145976
19844.762586,-4441.235652,-13397.727550,-6128.763984
19844.762919,-1258.350101,-12805.562797,-2451.505594
19844.763252,-2960.823768,-10140.821405,306.438199
19844.763585,370.102971,-9326.594869,3294.210641
19844.763919,1776.494261,-7698.141797,7048.078582
19844.764252,2738.761985,-6661.853478,7660.954980
19844.764585,592.164754,-6587.832884,6128.763984
19844.764919,-74.020594,-7105.977043,3217.601092
19844.765252,-1332.370696,-4811.338623,1838.629195
19844.765585,-74.020594,-8290.306550,-76.609550
19844.765918,-74.020594,-8882.471304,-1915.238745
19844.766252,-2368.659014,-8956.491898,-4290.134789
19844.766585,-2072.576638,-9474.636058,-5056.230287
19844.766918,222.061783,-9474.636058,-4366.744339
19844.767252,148.041188,-11325.150913,-3140.991542
19844.767585,1332.370696,-12879.583391,-1915.238745
19844.767918,74.020594,-9548.656652,-2451.505594
19844.768252,3701.029710,-10807.006753,3983.696590
19844.768585,4663.297435,-11251.130318,3600.648841
19844.768918,0.000000,-7772.162391,3677.258390
19844.769251,3330.926739,-8142.265362,4213.525239
19844.769585,0.000000,-7550.100608,4366.744339
19844.769918,888.247130,-7031.956449,3294.210641
19844.770251,-1406.391290,-7179.997637,1378.971896
19844.770585,-1406.391290,-7105.977043,-1915.238745
19844.770918,-3034.844362,-5403.503377,-2451.505594
19844.771251,518.144159,-10658.965565,-2528.115143
19844.771584,1702.473667,-11251.130318,-3140.991542
19844.771918,0.000000,-7476.080014,-4290.134789
19844.772251,2738.761985,-10658.965565,-1915.238745
19844.772584,1480.411884,-10584.944971,-1225.752797
19844.772918,1776.494261,-11843.295072,1072.533697
19844.773251,1258.350101,-9992.780217,1532.190996
19844.773584,2294.638420,-10658.965565,2374.896044
19844.773917,814.226536,-9548.656652,2374.896044
19844.774251,0.000000,-8364.327145,2145.067394
19844.774584,-1110.308913,-7846.182985,1225.752797
19844.774917,-2368.659014,-7772.162391,612.876398
19844.775251,-3552.988522,-10066.800811,-76.609550
19844.775584,-3034.844362,-7402.059420,-1838.629195
19844.775917,-4145.153275,-6291.750507,0.000000
19844.776250,962.267725,-8882.471304,2068.457845
19844.776584,1776.494261,-5995.668130,0.000000
19844.776917,4145.153275,-7476.080014,2987.772442
19844.777250,3627.009116,-8438.347739,1149.143247
19844.777584,1924.535449,-8512.368333,-1225.752797
19844.777917,2294.638420,-11843.295072,-1302.362347
19844.778250,-740.205942,-13101.645173,-1302.362347
19844.778584,-2442.679609,-9844.739029,-4903.011187
19844.778917,-1406.391290,-13471.748144,-612.876398
19844.779250,-1258.350101,-11843.295072,-1302.362347
19844.779583,-2072.576638,-8734.430116,1225.752797
19844.779917,370.102971,-9178.553681,4903.011187
19844.780250,1998.556043,-7105.977043,7584.345430
19844.780583,2664.741391,-5255.462188,6665.030833
19844.780917,1998.556043,-5625.565159,5439.278036
19844.781250,3552.988522,-6957.935855,4826.401637
19844.781583,0.000000,-5403.503377,3064.381992
19844.781916,4071.132681,-8586.388927,-2068.457845
19844.782250,-2368.659014,-9326.594869,-6358.592633
19844.782583,-2738.761985,-11843.295072,-7431.126331
19844.782916,-3256.906145,-11843.295072,-8197.221829
19844.783250,-3552.988522,-14137.933492,-5745.716235
19844.783583,-1628.453072,-11621.233289,-3217.601092
19844.783916,0.000000,-10732.986159,1838.629195
19844.784249,5255.462188,-9474.636058,5439.278036
19844.784583,4737.318029,-7476.080014,7967.393179
19844.784916,5329.482782,-8882.471304,9116.536426
19844.785249,4071.132681,-5699.585753,6741.640382
19844.785583,296.082377,-6587.832884,5362.668486
19844.785916,296.082377,-7476.080014,2068.457845
19844.786249,-3627.009116,-8216.285956,-2604.724693
19844.786583,-3923.091493,-8660.409521,-5515.887586
19844.786916,-2664.741391,-10288.862594,-3217.601092
19844.787249,-666.185348,-7179.997637,-4903.011187
19844.787582,148.041188,-10955.047942,-1915.238745
19844.787916,1998.556043,-11843.295072,-2528.115143
19844.788249,0.000000,-9548.656652,1225.752797
19844.788582,1184.329507,-8956.491898,1149.143247
19844.788916,2516.700203,-10140.821405,2681.334243
19844.789249,2516.700203,-10510.924376,3447.429741
19844.789582,296.082377,-10066.800811,3294.210641
19844.789915,888.247130,-9474.636058,3447.429741
19844.790249,-2368.659014,-7846.182985,1225.752797
19844.790582,-2368.659014,-8512.368333,536.266849
19844.790915,-2886.803174,-7402.059420,-153.219100
19844.791249,-3034.844362,-7846.182985,-919.314598
19844.791582,-2368.659014,-7179.997637,306.438199
19844.791915,962.267725,-8290.306550,0.000000
19844.792248,2146.597232,-5995.668130,1225.752797
19844.792582,4441.235652,-9178.553681,2374.896044
19844.792915,3478.967927,-9474.636058,-1302.362347
19844.793248,0.000000,-10732.986159,-1225.752797
19844.793582,-592.164754,-11325.150913,-2911.162892
19844.793915,-1628.453072,-12361.439231,-3830.477490
19844.794248,-2886.803174,-11325.150913,-3217.601092
19844.794581,-666.185348,-12435.459826,-76.609550
19844.794915,-962.267725,-7179.997637,0.000000
19844.795248,-74.020594,-9474.636058,6052.154434
19844.795581,-74.020594,-8882.471304,3294.210641
19844.795915,-1480.411884,-7476.080014,4903.011187
19844.796248,1924.535449,-8882.471304,6052.154434
19844.796581,0.000000,-5995.668130,3524.039291
19844.796915,444.123565,-7698.141797,2451.505594
19844.797248,1924.535449,-7624.121203,1685.410096
19844.797581,2886.803174,-7698.141797,-229.828649
19844.797914,2886.803174,-5403.503377,-3677.258390
19844.798248,592.164754,-11547.212695,-2987.772442
19844.798581,0.000000,-12213.398043,-3140.991542
19844.798914,-962.267725,-11251.130318,-6281.983084
19844.799248,-74.020594,-12435.459826,-4673.182538
19844.799581,-74.020594,-12731.542202,-1608.800546
19844.799914,-518.144159,-11029.068536,1225.752797
19844.800247,1480.411884,-9252.574275,4903.011187
19844.800581,1184.329507,-6291.750507,6128.763984
19844.800914,3552.988522,-7402.059420,10572.117872
19844.801247,5847.626942,-6513.812290,6052.154434
19844.801581,1776.494261,-4219.173869,5209.449386
19844.801914,296.082377,-5403.503377,3370.820191
19844.802247,1702.473667,-8882.471304,-2834.553343
19844.802580,-740.205942,-9622.677246,-4673.182538
19844.802914,-1702.473667,-10140.821405,-6665.030833
19844.803247,-592.164754,-11177.109724,-6818.249932
19844.803580,-2220.617826,-12213.398043,-6588.421283
19844.803914,-888.247130,-13027.624579,-3753.867940
19844.804247,592.164754,-11621.233289,-76.609550
19844.804580,4071.132681,-9770.718434,4443.353888
19844.804914,6439.791695,-10658.965565,8197.221829
19844.805247,4663.297435,-8882.471304,7890.783629
19844.805580,2294.638420,-4811.338623,5209.449386
19844.805913,3182.885551,-8290.306550,7277.907231
19844.806247,1110.308913,-8882.471304,1762.019645
19844.806580,-2146.597232,-8882.471304,-76.609550
19844.806913,-5773.606348,-9844.739029,-4060.306139
19844.807247,-4589.276840,-8956.491898,-4366.744339
19844.807580,-2960.823768,-9770.718434,-2757.943793
19844.807913,222.061783,-9474.636058,-842.705048
19844.808246,3552.988522,-7179.997637,2681.334243
19844.808580,3182.885551,-7179.997637,0.000000
19844.808913,5625.565159,-9918.759623,2681.334243
19844.809246,6439.791695,-12435.459826,2374.896044
19844.809580,3478.967927,-10066.800811,536.266849
19844.809913,3182.885551,-11843.295072,-689.485948
19844.810246,-592.164754,-11843.295072,-995.924147
19844.810579,-1850.514855,-10881.027347,-1302.362347
19844.810913,-2368.659014,-8956.491898,0.000000
19844.811246,-74.020594,-9474.636058,2374.896044
19844.811579,-1776.494261,-8364.327145,3677.258390
19844.811913,1702.473667,-8290.306550,4826.401637
19844.812246,1998.556043,-4515.256246,4290.134789
19844.812579,2368.659014,-5403.503377,4903.011187
19844.812912,3182.885551,-7179.997637,919.314598
19844.813244,3182.885551,-8660.409521,0.000000
19844.813577,740.205942,-9696.697840,-2374.896044
19844.813911,-592.164754,-11029.068536,-5592.497135
19844.814244,-3775.050304,-11547.212695,-8350.440928
19844.814577,-3256.906145,-14211.954086,-3753.867940
19844.814910,-1258.350101,-13027.624579,-1302.362347
19844.815244,-4145.153275,-9844.739029,0.000000
19844.815577,-592.164754,-10955.047942,4136.915689
19844.815910,-1776.494261,-7179.997637,4290.134789
19844.816243,1406.391290,-7402.059420,6741.640382
19844.816577,814.226536,-6809.894666,7354.516781
19844.816910,148.041188,-7402.059420,5362.668486
19844.817243,888.247130,-7328.038826,5362.668486
19844.817576,-2072.576638,-5403.503377,0.000000
19844.817909,-1776.494261,-8364.327145,-76.609550
19844.818243,-1554.432478,-9326.594869,-3753.867940
19844.818576,-1258.350101,-9474.636058,-6511.811733
19844.818909,-2368.659014,-10732.986159,-2528.115143
19844.819242,-74.020594,-11251.130318,-4366.744339
19844.819576,-1184.329507,-11473.192101,-3600.648841
19844.819909,-74.020594,-11547.212695,-1762.019645
19844.820242,2294.638420,-12879.583391,2374.896044
19844.820575,1998.556043,-9992.780217,3983.696590
19844.820909,888.247130,-9474.636058,5056.230287
19844.821242,1628.453072,-8808.450710,6281.983084
19844.821575,740.205942,-4811.338623,4903.011187
19844.821908,0.000000,-5995.668130,7048.078582
19844.822242,2294.638420,-6513.812290,2374.896044
19844.822575,-2368.659014,-4811.338623,-2451.505594
19844.822908,-1184.329507,-8512.368333,-1915.238745
19844.823241,-814.226536,-8290.306550,-4979.620737
19844.823574,-1184.329507,-10288.862594,-4673.182538
19844.823908,-74.020594,-11399.171507,-5439.278036
19844.824241,-74.020594,-11843.295072,-3907.087040
19844.824574,592.164754,-11769.274478,-919.314598
19844.824907,2886.803174,-11029.068536,0.000000
19844.825241,7031.956449,-10658.965565,3294.210641
19844.825574,3849.070898,-8364.327145,5209.449386
19844.825907,3552.988522,-7476.080014,7431.126331
19844.826240,2368.659014,-7179.997637,3677.258390
19844.826574,740.205942,-8512.368333,2374.896044
19844.826907,-1850.514855,-9326.594869,-689.485948
19844.827240,-3256.906145,-9030.512492,-2528.115143
19844.827573,-3034.844362,-10658.965565,-2528.115143
19844.827907,-3552.988522,-7772.162391,-2145.067394
19844.828240,1110.308913,-6809.894666,-1608.800546
19844.828573,1184.329507,-9548.656652,3753.867940
19844.828906,5255.462188,-7698.141797,3600.648841
19844.829239,7031.956449,-8290.306550,2987.772442
19844.829573,5181.441594,-9992.780217,2221.676944
19844.829906,3108.864956,-10214.842000,-536.266849
19844.830239,444.123565,-11251.130318,-2681.334243
19844.830572,-666.185348,-11399.171507,-3600.648841
19844.830906,-2368.659014,-13101.645173,-76.609550
19844.831239,-3552.988522,-9548.656652,-3064.381992
19844.831572,-7105.977043,-9548.656652,306.438199
19844.831905,-1258.350101,-9474.636058,536.266849
19844.832239,-1850.514855,-6439.791695,3983.696590
19844.832572,1110.308913,-6513.812290,6511.811733
19844.832905,2442.679609,-4811.338623,5898.935335
19844.833238,2516.700203,-6217.729913,5822.325785
19844.833572,2664.741391,-6587.832884,3140.991542
19844.833905,2294.638420,-9474.636058,-383.047749
19844.834238,-2960.823768,-8364.327145,-4903.011187
19844.834571,-2442.679609,-12287.418637,-6281.983084
19844.834904,-3034.844362,-13619.789333,-8656.879127
19844.835238,-4959.379811,-11621.233289,-7354.516781
19844.835571,-2442.679609,-12287.418637,-4060.306139
19844.835904,-1184.329507,-10732.986159,0.000000
19844.836237,1776.494261,-9918.759623,4826.401637
19844.836571,4071.132681,-7402.059420,8197.221829
19844.836904,5255.462188,-7105.977043,8197.221829
19844.837237,2072.576638,-8734.430116,7584.345430
19844.837570,1702.473667,-6661.853478,4519.963438
19844.837904,-962.267725,-7105.977043,2451.505594
19844.838237,-2368.659014,-5403.503377,0.000000
19844.838570,-1998.556043,-9474.636058,-3140.991542
19844.838903,-1850.514855,-9474.636058,-6818.249932
19844.839236,-2368.659014,-7772.162391,-4290.134789
19844.839570,222.061783,-10362.883188,-4136.915689
19844.839903,-74.020594,-10140.821405,-5515.887586
19844.840236,1036.288319,-12213.398043,-2145.067394
19844.840569,2886.803174,-9918.759623,306.438199
19844.840903,4293.194464,-10214.842000,3830.477490
19844.841236,4145.153275,-11621.233289,6588.421283
19844.841569,5033.400406,-9474.636058,6052.154434
19844.841902,148.041188,-7179.997637,3983.696590
19844.842236,0.000000,-7179.997637,4290.134789
19844.842569,-666.185348,-7698.141797,689.485948
19844.842902,-4441.235652,-6291.750507,0.000000
19844.843235,-2442.679609,-7698.141797,-1532.190996
19844.843569,-2368.659014,-8438.347739,-2068.457845
19844.843902,148.041188,-8734.430116,-1302.362347
19844.844235,3478.967927,-10658.965565,1762.019645
19844.844568,3775.050304,-9474.636058,-689.485948
19844.844901,740.205942,-7476.080014,-2145.067394
19844.845235,1480.411884,-11325.150913,0.000000
19844.845568,1110.308913,-12731.542202,-689.485948
19844.845901,1110.308913,-10658.965565,1378.971896
19844.846234,-444.123565,-10807.006753,-919.314598
19844.846568,-888.247130,-9252.574275,612.876398
19844.846901,-370.102971,-8660.409521,1915.238745
19844.847234,-1628.453072,-5995.668130,919.314598
19844.847567,-962.267725,-9474.636058,383.047749
19844.847901,-4737.318029,-7179.997637,2451.505594
19844.848234,-74.020594,-9474.636058,2987.772442
19844.848567,-1554.432478,-7994.224174,2374.896044
19844.848900,0.000000,-7105.977043,1455.581446
19844.849234,2368.659014,-7846.182985,3140.991542
19844.849567,2886.803174,-8142.265362,1762.019645
19844.849900,3182.885551,-7254.018232,-689.485948
19844.850233,1184.329507,-9696.697840,-2757.943793
19844.850566,-3256.906145,-9548.656652,-6128.763984
19844.850900,-1554.432478,-13027.624579,-3753.867940
19844.851233,-74.020594,-11843.295072,-4979.620737
19844.851566,-3552.988522,-12657.521608,-76.609550
19844.851899,-1554.432478,-10658.965565,-76.609550
19844.852233,-1998.556043,-10140.821405,4213.525239
19844.852566,1998.556043,-7402.059420,6588.421283
19844.852899,2072.576638,-6513.812290,8120.612279
19844.853232,2368.659014,-6587.832884,7354.516781
19844.853566,2072.576638,-4515.256246,5515.887586
19844.853899,1776.494261,-6143.709319,2604.724693
19844.854232,2072.576638,-7402.059420,536.266849
19844.854565,-888.247130,-8734.430116,-4366.744339
19844.854899,-2368.659014,-9548.656652,-7354.516781
19844.855232,-2442.679609,-11251.130318,-9269.755526
19844.855565,-4145.153275,-12509.480420,-6741.640382
19844.855898,-2442.679609,-14211.954086,-4979.620737
19844.856231,-74.020594,-11843.295072,-689.485948
19844.856565,2368.659014,-10140.821405,4826.401637
19844.856898,5181.441594,-7994.224174,7277.907231
19844.857231,5551.544565,-7624.121203,8273.831378
19844.857564,4145.153275,-5995.668130,7124.688131
19844.857898,3775.050304,-9474.636058,6665.030833
19844.858231,-1184.329507,-6587.832884,1532.190996
19844.858564,-4737.318029,-8956.491898,-76.609550
19844.858897,-3627.009116,-8882.471304,-5286.058936
19844.859231,-5921.647536,-8068.244768,-4903.011187
19844.859564,-666.185348,-10955.047942,-3140.991542
19844.859897,-222.061783,-9252.574275,-995.924147
19844.860230,1554.432478,-9030.512492,153.219100
19844.860564,4515.256246,-7772.162391,1302.362347
19844.860897,4663.297435,-9474.636058,1762.019645
19844.861230,1776.494261,-8364.327145,3677.258390
19844.861563,5255.462188,-10362.883188,4213.525239
19844.861896,4071.132681,-11547.212695,383.047749
19844.862230,0.000000,-10140.821405,1225.752797
19844.862563,-2442.679609,-11177.109724,-2221.676944
19844.862896,-2812.782580,-9844.739029,-1685.410096
19844.863229,-3404.947333,-10066.800811,229.828649
19844.863563,-1850.514855,-7846.182985,995.924147
19844.863896,-962.267725,-4811.338623,1532.190996
19844.864229,0.000000,-7179.997637,6435.202183
19844.864562,4663.297435,-5921.647536,4213.525239
19844.864896,2368.659014,-4811.338623,2451.505594
19844.865229,4737.318029,-7476.080014,2451.505594
19844.865562,3923.091493,-7550.100608,-1991.848295
19844.865895,592.164754,-10732.986159,-3600.648841
19844.866229,-666.185348,-11621.233289,-5975.544884
19844.866562,-3478.967927,-14285.974681,-5975.544884
19844.866895,-1998.556043,-11399.171507,-4519.963438
19844.867228,-1628.453072,-12361.439231,-1302.362347
19844.867561,-740.205942,-10732.986159,1302.362347
19844.867895,370.102971,-8290.306550,3447.429741
19844.868228,3701.029710,-9474.636058,7277.907231
19844.868561,4663.297435,-7105.977043,7890.783629
19844.868894,0.000000,-5107.421000,5669.106685
19844.869228,592.164754,-8882.471304,5745.716235
19844.869561,-666.185348,-7105.977043,0.000000
19844.869894,-1776.494261,-7772.162391,0.000000
19844.870227,814.226536,-7624.121203,-1915.238745
19844.870561,666.185348,-8586.388927,-3753.867940
19844.870894,1332.370696,-9400.615463,-4443.353888
19844.871227,-74.020594,-11547.212695,-4366.744339
19844.871560,222.061783,-14211.954086,-4060.306139
19844.871894,-2886.803174,-11917.315666,-3677.258390
19844.872227,740.205942,-12065.356855,0.000000
19844.872560,3478.967927,-12731.542202,3600.648841
19844.872893,2294.638420,-9474.636058,6665.030833
19844.873226,2590.720797,-7550.100608,5975.544884
19844.873560,4737.318029,-5847.626942,8197.221829
19844.873893,5403.503377,-4663.297435,8427.050478
19844.874226,2664.741391,-3923.091493,4290.134789
19844.874559,2590.720797,-7105.977043,-689.485948
19844.874893,-4737.318029,-9548.656652,-2604.724693
19844.875226,-1258.350101,-10362.883188,-6511.811733
19844.875559,-1554.432478,-11843.295072,-6511.811733
19844.875892,-2368.659014,-10732.986159,-6741.640382
19844.876226,0.000000,-11325.150913,-4596.572988
19844.876559,74.020594,-12287.418637,-766.095498
19844.876892,3478.967927,-9474.636058,2987.772442
19844.877225,4737.318029,-9844.739029,6894.859482
19844.877559,4663.297435,-7698.141797,4903.011187
19844.877892,2886.803174,-9474.636058,7277.907231
19844.878225,2294.638420,-8290.306550,3600.648841
19844.878558,-2368.659014,-7772.162391,2451.505594
19844.878891,-4441.235652,-10140.821405,1225.752797
19844.879225,-5255.462188,-9770.718434,-1915.238745
19844.879558,-6735.874072,-9474.636058,-2834.553343
19844.879891,-6735.874072,-8512.368333,-2911.162892
19844.880224,-3923.091493,-9474.636058,-1302.362347
19844.880558,-2368.659014,-5995.668130,2451.505594
19844.880891,3478.967927,-7994.224174,2374.896044
19844.881224,2368.659014,-6513.812290,1608.800546
19844.881557,2368.659014,-9548.656652,4136.915689
19844.881891,1776.494261,-10436.903782,459.657299
19844.882224,-592.164754,-10436.903782,-1378.971896
19844.882557,-3034.844362,-11917.315666,-3830.477490
19844.882890,-3182.885551,-11991.336260,-3447.429741
19844.883223,-4071.132681,-11843.295072,-1302.362347
19844.883557,-4737.318029,-9548.656652,919.314598
19844.883890,-3034.844362,-9178.553681,2834.553343
19844.884223,-962.267725,-7476.080014,4290.134789
19844.884556,2368.659014,-4515.256246,7048.078582
19844.884890,5551.544565,-5921.647536,7277.907231
19844.885223,3997.112087,-5477.523971,3830.477490
19844.885556,2960.823768,-6587.832884,3370.820191
19844.885889,4367.215058,-8142.265362,-2604.724693
19844.886223,2368.659014,-9104.533087,-3983.696590
19844.886556,-592.164754,-13545.768739,-6205.373534
19844.886889,-1554.432478,-13175.665768,-8120.612279
19844.887222,-2368.659014,-13471.748144,-5975.544884
19844.887556,296.082377,-12139.377449,-2528.115143
19844.887889,1110.308913,-9770.718434,689.485948
19844.888222,1850.514855,-7772.162391,3983.696590
19844.888555,6439.791695,-7698.141797,9116.536426
19844.888888,7031.956449,-5921.647536,6971.469032
19844.889222,3552.988522,-7179.997637,7354.516781
19844.889555,4071.132681,-8290.306550,4213.525239
19844.889888,296.082377,-6883.915261,1532.190996
19844.890221,-370.102971,-7254.018232,-1532.190996
19844.890555,-1036.288319,-9326.594869,-3907.087040
19844.890888,-2664.741391,-8660.409521,-6741.640382
19844.891221,-4737.318029,-8364.327145,-3677.258390
19844.891554,2886.803174,-10658.965565,-4673.182538
19844.891888,1110.308913,-9474.636058,-3753.867940
19844.892221,1184.329507,-10732.986159,0.000000
19844.892554,3182.885551,-9770.718434,0.000000
19844.892887,4145.153275,-10658.965565,2834.553343
19844.893221,2960.823768,-10881.027347,4519.963438
19844.893554,1110.308913,-11103.089130,4213.525239
19844.893887,-444.123565,-8660.409521,3830.477490
19844.894220,-962.267725,-9474.636058,4826.401637
19844.894553,-1258.350101,-7402.059420,995.924147
19844.894887,-4145.153275,-6735.874072,2451.505594
19844.895220,-4145.153275,-6587.832884,1762.019645
19844.895553,-2442.679609,-4959.379811,-2451.505594
19844.895886,-2738.761985,-8512.368333,-1149.143247
19844.896220,-1184.329507,-8364.327145,-1455.581446
19844.896553,-1036.288319,-8068.244768,-1685.410096
19844.896886,0.000000,-9548.656652,-1838.629195
19844.897219,-370.102971,-11473.192101,-2528.115143
19844.897553,-592.164754,-12065.356855,-689.485948
19844.897886,-592.164754,-9548.656652,383.047749
19844.898219,444.123565,-10658.965565,1149.143247
19844.898552,-1776.494261,-8364.327145,842.705048
19844.898886,-2368.659014,-8364.327145,2451.505594
19844.899219,-74.020594,-8882.471304,3600.648841
19844.899552,-370.102971,-8882.471304,383.047749
19844.899885,-2442.679609,-8290.306550,1149.143247
19844.900218,-1406.391290,-9474.636058,1149.143247
19844.900552,0.000000,-6957.935855,1685.410096
19844.900885,1258.350101,-7624.121203,2145.067394
19844.901218,2812.782580,-8290.306550,1838.629195
19844.901551,5847.626942,-8882.471304,2374.896044
19844.901885,2368.659014,-8068.244768,2681.334243
19844.902218,4663.297435,-11251.130318,-2528.115143
19844.902551,0.000000,-11547.212695,-4979.620737
19844.902884,0.000000,-11621.233289,-4903.011187
19844.903218,-74.020594,-11547.212695,-4290.134789
19844.903551,148.041188,-13175.665768,-1455.581446
19844.903884,-1036.288319,-11103.089130,-612.876398
19844.904217,-592.164754,-9030.512492,1838.629195
19844.904551,1406.391290,-7105.977043,4213.525239
19844.904884,4663.297435,-8290.306550,9729.412825
19844.905217,4663.297435,-4737.318029,4903.011187
19844.905550,3849.070898,-5551.544565,8197.221829
19844.905883,4145.153275,-7105.977043,3983.696590
19844.906217,2368.659014,-6587.832884,1225.752797
19844.906550,1554.432478,-9178.553681,-2834.553343
19844.906883,-1258.350101,-9992.780217,-7354.516781
19844.907216,-3849.070898,-12657.521608,-9193.145976
19844.907550,-4145.153275,-11917.315666,-9806.022374
19844.907883,-2442.679609,-14211.954086,-6205.373534
19844.908216,-2294.638420,-11843.295072,-2528.115143
19844.908549,0.000000,-10140.821405,4290.134789
19844.908883,5847.626942,-9474.636058,8503.660028
19844.909216,4145.153275,-6587.832884,10035.851024
19844.909549,4071.132681,-7105.977043,8044.002729
19844.909882,3182.885551,-6513.812290,5822.325785
19844.910216,0.000000,-7994.224174,3140.991542
19844.910549,-1776.494261,-9918.759623,995.924147
19844.910882,-3627.009116,-9178.553681,-5745.716235
19844.911215,-7105.977043,-10288.862594,-4749.792088
19844.911548,-2072.576638,-10881.027347,-1915.238745
19844.911882,-74.020594,-9474.636058,-2528.115143
19844.912215,0.000000,-8808.450710,-766.095498
19844.912548,444.123565,-9548.656652,-612.876398
19844.912881,2368.659014,-8512.368333,306.438199
19844.913215,2812.782580,-9770.718434,2298.286494
19844.913548,2960.823768,-9844.739029,4749.792088
19844.913881,2368.659014,-10214.842000,3064.381992
19844.914214,518.144159,-10214.842000,2374.896044
19844.914547,-1776.494261,-9696.697840,612.876398
19844.914880,-3404.947333,-8068.244768,-612.876398
19844.915213,-4441.235652,-8660.409521,612.876398
19844.915546,-1850.514855,-7994.224174,-76.609550
19844.915880,-1258.350101,-7105.977043,-995.924147
19844.916213,-1776.494261,-5995.668130,1225.752797
19844.916546,3478.967927,-9474.636058,4826.401637
19844.916879,2664.741391,-6587.832884,2911.162892
19844.917212,2960.823768,-7476.080014,153.219100
19844.917545,4663.297435,-9474.636058,-689.485948
19844.917878,0.000000,-9548.656652,-3677.258390
19844.918212,-2368.659014,-10732.986159,-4290.134789
19844.918545,-74.020594,-13027.624579,-4979.620737
19844.918878,-2368.659014,-10140.821405,-6128.763984
19844.919211,0.000000,-12731.542202,1762.019645
19844.919544,0.000000,-8660.409521,612.876398
19844.919877,-1110.308913,-8882.471304,2681.334243
19844.920210,-592.164754,-7476.080014,2834.553343
19844.920543,74.020594,-8142.265362,4826.401637
19844.920877,1924.535449,-7994.224174,6511.811733
19844.921210,0.000000,-6143.709319,5898.935335
19844.921543,2294.638420,-7105.977043,536.266849
19844.921876,1776.494261,-8808.450710,3600.648841
19844.922209,2886.803174,-9474.636058,-76.609550
19844.922542,1332.370696,-8068.244768,-2451.505594
19844.922875,-518.144159,-10658.965565,-5286.058936
19844.923208,-2220.617826,-11695.253884,-5439.278036
19844.923542,-1850.514855,-12139.377449,-5286.058936
19844.923875,-2294.638420,-11251.130318,-4673.182538
19844.924208,-592.164754,-12953.603985,-76.609550
19844.924541,-1036.288319,-9770.718434,2068.457845
19844.924874,296.082377,-7476.080014,7660.954980
19844.925207,3478.967927,-6513.812290,6665.030833
19844.925540,2294.638420,-7105.977043,7277.907231
19844.925874,3182.885551,-4441.235652,6435.202183
19844.926207,1332.370696,-6587.832884,3983.696590
19844.926540,1406.391290,-6809.894666,1302.362347
19844.926873,-3256.906145,-7772.162391,-3370.820191
19844.927206,-74.020594,-9474.636058,-6205.373534
19844.927539,0.000000,-9548.656652,-3217.601092
19844.927872,0.000000,-9548.656652,-4290.134789
19844.928205,-74.020594,-11843.295072,-6205.373534
19844.928539,-74.020594,-11843.295072,-4366.744339
19844.928872,2072.576638,-10807.006753,459.657299
19844.929205,3108.864956,-9104.533087,3370.820191
19844.929538,5403.503377,-10214.842000,6052.154434
19844.929871,4145.153275,-5995.668130,6128.763984
19844.930204,5551.544565,-7105.977043,5286.058936
19844.930537,5255.462188,-7031.956449,4979.620737
19844.930871,1554.432478,-8660.409521,2298.286494
19844.931204,-2146.597232,-8660.409521,-2757.943793
19844.931537,-5773.606348,-8068.244768,-5515.887586
19844.931870,-3627.009116,-10658.965565,-3753.867940
19844.932203,-1258.350101,-7994.224174,-5822.325785
19844.932536,0.000000,-9548.656652,995.924147
19844.932869,5847.626942,-8290.306550,3600.648841
19844.933202,3775.050304,-5995.668130,919.314598
19844.933536,5255.462188,-8882.471304,2451.505594
19844.933869,4367.215058,-10362.883188,1072.533697
19844.934202,3552.988522,-9770.718434,842.705048
19844.934535,1480.411884,-12213.398043,0.000000
19844.934868,-74.020594,-13027.624579,-2528.115143
19844.935201,-4441.235652,-9548.656652,-4290.134789
19844.935534,-3552.988522,-10807.006753,-76.609550
19844.935867,-1850.514855,-9474.636058,536.266849
19844.936201,-2072.576638,-5995.668130,3140.991542
19844.936534,370.102971,-7179.997637,5209.449386
19844.936867,3404.947333,-3034.844362,5669.106685
19844.937200,3552.988522,-6513.812290,5362.668486
19844.937533,6291.750507,-7698.141797,4826.401637
19844.937866,5847.626942,-9474.636058,-689.485948
19844.938199,-1184.329507,-9548.656652,-2757.943793
19844.938533,1702.473667,-13619.789333,-4366.744339
19844.938866,-4811.338623,-13101.645173,-8733.488677
19844.939199,-2368.659014,-13693.809927,-4673.182538
19844.939532,-2812.782580,-11325.150913,-2528.115143
19844.939865,-2294.638420,-11473.192101,0.000000
19844.940198,-1110.308913,-8882.471304,3064.381992
19844.940531,222.061783,-8290.306550,5439.278036
19844.940864,592.164754,-3627.009116,4903.011187
19844.941198,296.082377,-7476.080014,9116.536426
19844.941531,-74.020594,-7328.038826,4290.134789
19844.941864,-1258.350101,-4811.338623,0.000000
19844.942197,-2072.576638,-9474.636058,1149.143247
19844.942530,-2368.659014,-7402.059420,-2451.505594
19844.942863,-3923.091493,-9770.718434,-4826.401637
19844.943196,-2812.782580,-8660.409521,-5515.887586
19844.943530,-1554.432478,-10658.965565,-4979.620737
19844.943863,-1776.494261,-11251.130318,-4060.306139
19844.944196,-1480.411884,-11695.253884,-2987.772442
19844.944529,-888.247130,-11103.089130,-1455.581446
19844.944862,1776.494261,-9844.739029,2757.943793
19844.945195,2368.659014,-10436.903782,7890.783629
19844.945528,1702.473667,-9474.636058,3447.429741
19844.945861,1184.329507,-6883.915261,6128.763984
19844.946195,1924.535449,-8882.471304,5439.278036
19844.946528,296.082377,-5403.503377,4903.011187
19844.946861,-370.102971,-8142.265362,2374.896044
19844.947194,-3256.906145,-6291.750507,-1762.019645
19844.947527,-2368.659014,-8290.306550,-2911.162892
19844.947860,1702.473667,-9474.636058,-1915.238745
19844.948193,444.123565,-7772.162391,-1915.238745
19844.948526,2294.638420,-8586.388927,-5822.325785
19844.948860,1850.514855,-9548.656652,-2451.505594
19844.949193,0.000000,-11325.150913,-1225.752797
19844.949526,4663.297435,-12731.542202,1149.143247
19844.949859,3552.988522,-10881.027347,2987.772442
19844.950192,3849.070898,-10140.821405,4290.134789
19844.950525,4515.256246,-7846.182985,3677.258390
19844.950858,1628.453072,-8882.471304,4826.401637
19844.951192,1184.329507,-7179.997637,4060.306139
19844.951525,0.000000,-7179.997637,0.000000
19844.951858,-2072.576638,-9918.759623,842.705048
19844.952191,-2442.679609,-8290.306550,-2987.772442
19844.952524,-4219.173869,-8734.430116,-2068.457845
19844.952857,1702.473667,-9178.553681,76.609550
19844.953190,3849.070898,-7550.100608,2068.457845
19844.953523,4145.153275,-7772.162391,2451.505594
19844.953857,4959.379811,-7476.080014,1302.362347
19844.954190,4367.215058,-11843.295072,-76.609550
19844.954523,1184.329507,-9844.739029,-919.314598
19844.954856,0.000000,-12509.480420,-76.609550
19844.955189,-666.185348,-11547.212695,-4903.011187
19844.955522,-2368.659014,-11325.150913,-1532.190996
19844.955855,-3330.926739,-11473.192101,-2451.505594
19844.956189,-2590.720797,-9252.574275,1072.533697
19844.956522,-2220.617826,-9844.739029,3064.381992
19844.956855,518.144159,-7402.059420,6665.030833
19844.957188,814.226536,-4071.132681,4519.963438
19844.957521,1184.329507,-6439.791695,8963.317327
19844.957854,3182.885551,-4737.318029,4136.915689
19844.958187,0.000000,-4811.338623,1225.752797
19844.958520,0.000000,-7179.997637,-919.314598
19844.958854,-2738.761985,-9622.677246,-7967.393179
19844.959187,-3330.926739,-12287.418637,-8656.879127
19844.959520,-5329.482782,-12287.418637,-8580.269578
19844.959853,-4219.173869,-13693.809927,-7048.078582
19844.960186,-2442.679609,-11399.171507,-4903.011187
19844.960519,-296.082377,-11103.089130,1608.800546
19844.960852,3404.947333,-9252.574275,6435.202183
19844.961185,4071.132681,-6883.915261,8350.440928
19844.961519,3849.070898,-7476.080014,10418.898773
19844.961852,4663.297435,-7105.977043,6358.592633
19844.962185,0.000000,-5699.585753,2451.505594
19844.962518,0.000000,-7772.162391,3600.648841
19844.962851,-2738.761985,-7994.224174,-2987.772442
19844.963184,-5329.482782,-7772.162391,-4903.011187
19844.963517,-2442.679609,-10066.800811,-4979.620737
19844.963851,-888.247130,-8956.491898,-4443.353888
19844.964184,0.000000,-9474.636058,-3217.601092
19844.964517,2886.803174,-10658.965565,-1302.362347
19844.964850,4663.297435,-11251.130318,-383.047749
19844.965183,2368.659014,-9548.656652,3064.381992
19844.965516,2368.659014,-9548.656652,4443.353888
19844.965849,5551.544565,-11843.295072,3600.648841
19844.966182,1184.329507,-9548.656652,4596.572988
19844.966516,1036.288319,-8956.491898,2221.676944
19844.966849,-1184.329507,-9252.574275,766.095498
19844.967182,-814.226536,-9474.636058,536.266849
19844.967515,-2664.741391,-6439.791695,-842.705048
19844.967848,-74.020594,-5921.647536,-1915.238745
19844.968181,0.000000,-8956.491898,2987.772442
19844.968514,1998.556043,-8068.244768,229.828649
19844.968848,3478.967927,-6735.874072,153.219100
19844.969181,3478.967927,-9474.636058,-76.609550
19844.969514,1554.432478,-9548.656652,-2068.457845
19844.969847,1184.329507,-11621.233289,-2298.286494
19844.970180,-592.164754,-11325.150913,-2068.457845
19844.970513,0.000000,-10732.986159,-919.314598
19844.970846,-1258.350101,-10436.903782,-1838.629195
19844.971179,0.000000,-11621.233289,3600.648841
19844.971513,-74.020594,-9474.636058,536.266849
19844.971846,-1184.329507,-6291.750507,0.000000
19844.972179,-1776.494261,-7772.162391,2451.505594
19844.972512,-1628.453072,-9178.553681,2834.553343
19844.972845,-740.205942,-7476.080014,3600.648841
19844.973178,-1554.432478,-8142.265362,2757.943793
19844.973511,1702.473667,-8882.471304,2987.772442
19844.973844,0.000000,-5995.668130,3217.601092
19844.974178,2294.638420,-7994.224174,-76.609550
19844.974511,2886.803174,-7698.141797,-2834.553343
19844.974844,-2368.659014,-9548.656652,-3677.258390
19844.975177,-2368.659014,-10140.821405,-5898.935335
19844.975510,-2442.679609,-11695.253884,-4673.182538
19844.975843,-1776.494261,-11917.315666,-3600.648841
19844.976176,-1924.535449,-11843.295072,-1915.238745
19844.976510,-74.020594,-11251.130318,2374.896044
19844.976843,0.000000,-9548.656652,5056.230287
19844.977176,1702.473667,-7031.956449,6435.202183
19844.977509,2294.638420,-7772.162391,7431.126331
19844.977842,2368.659014,-6069.688724,7124.688131
19844.978175,1776.494261,-6661.853478,5209.449386
19844.978508,0.000000,-4811.338623,0.000000
19844.978841,1332.370696,-9474.636058,-76.609550
19844.979175,-666.185348,-7994.224174,-4979.620737
19844.979508,-2812.782580,-8956.491898,-6588.421283
19844.979841,-1776.494261,-11843.295072,-6818.249932
19844.980174,-2960.823768,-13249.686362,-6205.373534
19844.980507,-3108.864956,-12435.459826,-4903.011187
19844.980840,0.000000,-11695.253884,0.000000
19844.981173,4071.132681,-11251.130318,3600.648841
19844.981507,2368.659014,-8364.327145,8580.269578
19844.981840,5847.626942,-9474.636058,9729.412825
19844.982173,4071.132681,-4219.173869,4903.011187
19844.982506,2368.659014,-7476.080014,5515.887586
19844.982839,1554.432478,-8216.285956,1302.362347
19844.983172,-2368.659014,-9104.533087,-2068.457845
19844.983505,-5477.523971,-10288.862594,-4903.011187
19844.983838,-4737.318029,-9548.656652,-5745.716235
19844.984172,-4441.235652,-9548.656652,-4596.572988
19844.984505,0.000000,-10140.821405,-76.609550
19844.984838,2886.803174,-7994.224174,383.047749
19844.985171,4663.297435,-6069.688724,0.000000
19844.985504,5699.585753,-9474.636058,4826.401637
19844.985837,4293.194464,-9548.656652,2681.334243
19844.986170,4145.153275,-8956.491898,1991.848295
19844.986503,2072.576638,-11547.212695,689.485948
19844.986837,1110.308913,-11843.295072,-1762.019645
19844.987170,-740.205942,-11695.253884,-76.609550
19844.987503,-1850.514855,-13027.624579,-2528.115143
19844.987836,-2590.720797,-8364.327145,0.000000
19844.988169,-1702.473667,-9474.636058,3217.601092
19844.988502,2886.803174,-8290.306550,2374.896044
19844.988835,2368.659014,-4811.338623,7048.078582
19844.989169,3701.029710,-5773.606348,4903.011187
19844.989502,3775.050304,-6587.832884,2987.772442
19844.989835,3552.988522,-6883.915261,1991.848295
19844.990168,4071.132681,-9178.553681,-689.485948
19844.990501,1110.308913,-10436.903782,-4443.353888
19844.990834,-1628.453072,-12509.480420,-6818.249932
19844.991167,-3182.885551,-14137.933492,-6741.640382
19844.991500,-3256.906145,-9548.656652,-6128.763984
19844.991834,0.000000,-11917.315666,0.000000
19844.992167,1702.473667,-11547.212695,1455.581446
19844.992500,1110.308913,-6513.812290,2451.505594
19844.992833,1184.329507,-7179.997637,7354.516781
19844.993166,1702.473667,-5921.647536,6052.154434
19844.993499,296.082377,-6587.832884,5669.106685
19844.993832,0.000000,-7105.977043,3447.429741
19844.994166,-518.144159,-6735.874072,995.924147
19844.994499,0.000000,-7624.121203,1225.752797
19844.994832,-370.102971,-7476.080014,-1915.238745
19844.995165,-74.020594,-8882.471304,-6818.249932
19844.995498,-2368.659014,-9548.656652,-6128.763984
19844.995831,0.000000,-11029.068536,-3830.477490
19844.996164,-592.164754,-12657.521608,-3983.696590
19844.996497,-370.102971,-12435.459826,-2068.457845
19844.996831,1998.556043,-11325.150913,689.485948
19844.997164,2146.597232,-10214.842000,4903.011187
19844.997497,2886.803174,-8882.471304,6052.154434
19844.997830,1184.329507,-8512.368333,7124.688131
19844.998163,1332.370696,-4811.338623,3064.381992
19844.998496,592.164754,-8290.306550,7277.907231
19844.998829,0.000000,-4811.338623,1378.971896
19844.999162,-2664.741391,-5995.668130,-1225.752797
19844.999496,-2442.679609,-9474.636058,-3524.039291
19844.999829,0.000000,-8068.244768,-2451.505594
19845.000162,-2516.700203,-10362.883188,-3907.087040
19845.000495,-148.041188,-9992.780217,-4826.401637
19845.000828,-74.020594,-13027.624579,-3753.867940
19845.001161,-2368.659014,-10732.986159,-1532.190996
19845.001494,0.000000,-9548.656652,2145.067394
19845.001828,3478.967927,-10658.965565,2987.772442
19845.002161,2368.659014,-7476.080014,4903.011187
19845.002494,1998.556043,-8290.306550,4673.182538
19845.002827,1702.473667,-7920.203579,2757.943793
19845.003160,-1406.391290,-8808.450710,1685.410096
19845.003493,-1998.556043,-8808.450710,229.828649
19845.003826,-3701.029710,-7624.121203,-4213.525239
19845.004159,-7105.977043,-10140.821405,-689.485948
19845.004493,-3627.009116,-8290.306550,-3294.210641
19845.004826,-1554.432478,-7920.203579,-1685.410096
19845.005159,0.000000,-5403.503377,1225.752797
19845.005492,2886.803174,-5403.503377,919.314598
19845.005825,4441.235652,-7179.997637,1762.019645
19845.006158,2738.761985,-8956.491898,459.657299
19845.006491,1850.514855,-9844.739029,-1378.971896
19845.006825,814.226536,-11177.109724,-4443.353888
19845.007158,-1924.535449,-12953.603985,-3140.991542
19845.007491,-3627.009116,-13027.624579,-2298.286494
19845.007824,-4145.153275,-11621.233289,-1838.629195
19845.008157,-4293.194464,-10214.842000,1072.533697
19845.008490,-2146.597232,-7550.100608,1149.143247
19845.008823,0.000000,-7179.997637,4903.011187
19845.009156,1776.494261,-5921.647536,9729.412825
19845.009490,3478.967927,-3552.988522,5975.544884
19845.009823,1480.411884,-3627.009116,5209.449386
19845.010156,3627.009116,-6291.750507,2451.505594
19845.010489,3627.009116,-7476.080014,-842.705048
19845.010822,1628.453072,-10955.047942,-4673.182538
19845.011155,-1258.350101,-13619.789333,-9269.755526
19845.011488,-2442.679609,-15396.283594,-10495.508323
19845.011821,-4145.153275,-12509.480420,-6128.763984
19845.012155,-2960.823768,-12213.398043,-1838.629195
19845.012488,2590.720797,-11251.130318,1149.143247
19845.012821,4663.297435,-9844.739029,8044.002729
19845.013154,6439.791695,-5107.421000,9116.536426
19845.013487,5995.668130,-5847.626942,10112.460574
19845.013820,5107.421000,-7402.059420,8273.831378
19845.014153,2442.679609,-5181.441594,3907.087040
19845.014487,1406.391290,-6069.688724,-1455.581446
19845.014820,0.000000,-9178.553681,-76.609550
19845.015153,-666.185348,-9474.636058,-4979.620737
19845.015486,-1258.350101,-9918.759623,-7354.516781
19845.015819,-2146.597232,-10658.965565,-4979.620737
19845.016152,74.020594,-9844.739029,-4596.572988
19845.016485,592.164754,-11621.233289,-2757.943793
19845.016819,2664.741391,-10584.944971,-689.485948
19845.017152,2960.823768,-9548.656652,3064.381992
19845.017485,3923.091493,-7179.997637,3064.381992
19845.017818,3552.988522,-10732.986159,7277.907231
19845.018152,3182.885551,-9326.594869,4060.306139
19845.018485,2146.597232,-11843.295072,3600.648841
19845.018818,-2368.659014,-8956.491898,1225.752797
19845.019151,-2590.720797,-10658.965565,2068.457845
19845.019485,-2738.761985,-9474.636058,-1302.362347
19845.019818,-4145.153275,-7698.141797,-306.438199
19845.020151,-2442.679609,-7698.141797,-1915.238745
19845.020484,-592.164754,-9474.636058,1762.019645
19845.020818,814.226536,-7179.997637,689.485948
19845.021151,0.000000,-4811.338623,0.000000
19845.021484,2294.638420,-9474.636058,-1302.362347
19845.021817,296.082377,-10955.047942,-3064.381992
19845.022151,-74.020594,-11843.295072,-1149.143247
19845.022484,-444.123565,-10140.821405,-1225.752797
19845.022817,-370.102971,-11621.233289,0.000000
19845.023150,-1850.514855,-11695.253884,-76.609550
19845.023483,-1924.535449,-10362.883188,2374.896044
19845.023817,-1776.494261,-7846.182985,1838.629195
19845.024150,-2590.720797,-8734.430116,1915.238745
19845.024483,-2294.638420,-7550.100608,1991.848295
19845.024816,-1258.350101,-8290.306550,4213.525239
19845.025150,-1776.494261,-5995.668130,2451.505594
19845.025483,2886.803174,-7698.141797,1762.019645
19845.025816,0.000000,-6587.832884,2757.943793
19845.026149,1924.535449,-6883.915261,766.095498
19845.026483,3923.091493,-7698.141797,-1915.238745
19845.026816,2072.576638,-10510.924376,-2528.115143
19845.027149,-592.164754,-11991.336260,-4903.011187
19845.027482,-1258.350101,-12805.562797,-5362.668486
19845.027816,-1184.329507,-10732.986159,-4290.134789
19845.028149,-444.123565,-14211.954086,-76.609550
19845.028482,-74.020594,-11843.295072,-76.609550
19845.028815,0.000000,-7772.162391,2451.505594
19845.029149,4663.297435,-9474.636058,9729.412825
19845.029482,3478.967927,-5255.462188,7354.516781
19845.029815,4367.215058,-5921.647536,6358.592633
19845.030148,4441.235652,-5625.565159,5898.935335
19845.030482,2072.576638,-6587.832884,2911.162892
19845.030815,1776.494261,-7476.080014,0.000000
19845.031148,-74.020594,-12435.459826,-3140.991542
19845.031481,-1850.514855,-9696.697840,-8350.440928
19845.031815,-2738.761985,-9696.697840,-9806.022374
19845.032148,-2220.617826,-13619.789333,-6205.373534
19845.032481,-3552.988522,-12509.480420,-3830.477490
19845.032814,-296.082377,-10584.944971,-1225.752797
19845.033147,2738.761985,-9844.739029,4213.525239
19845.033481,3923.091493,-7994.224174,7507.735880
19845.033814,5847.626942,-7698.141797,9729.412825
19845.034147,4663.297435,-8290.306550,6665.030833
19845.034480,148.041188,-6587.832884,6128.763984
19845.034814,1110.308913,-9400.615463,4826.401637
19845.035147,-2442.679609,-8882.471304,-2834.553343
19845.035480,-6513.812290,-9548.656652,-3677.258390
19845.035813,-5699.585753,-9770.718434,-5209.449386
19845.036147,-2442.679609,-9474.636058,-3830.477490
19845.036480,-1776.494261,-9104.533087,-2145.067394
19845.036813,2886.803174,-8808.450710,1149.143247
19845.037146,3108.864956,-8512.368333,919.314598
19845.037480,2886.803174,-8586.388927,1762.019645
19845.037813,2960.823768,-9474.636058,2068.457845
19845.038146,2516.700203,-7772.162391,919.314598
19845.038479,888.247130,-9548.656652,1838.629195
19845.038813,592.164754,-11695.253884,1915.238745
19845.039146,-2738.761985,-10066.800811,-2221.676944
19845.039479,-4737.318029,-9844.739029,0.000000
19845.039812,-3330.926739,-9474.636058,-306.438199
19845.040146,-3849.070898,-7476.080014,612.876398
19845.040479,-2738.761985,-7031.956449,1608.800546
19845.040812,-1184.329507,-6291.750507,2604.724693
19845.041145,2368.659014,-5403.503377,4903.011187
19845.041478,3478.967927,-5255.462188,3064.381992
19845.041812,4663.297435,-9474.636058,-76.609550
19845.042145,296.082377,-7476.080014,-1225.752797
19845.042478,0.000000,-10955.047942,-2681.334243
19845.042811,0.000000,-10732.986159,-6128.763984
19845.043145,-1628.453072,-13841.851115,-4519.963438
19845.043478,-962.267725,-12435.459826,-3830.477490
19845.043811,370.102971,-11251.130318,-383.047749
19845.044144,518.144159,-11843.295072,2374.896044
19845.044478,0.000000,-7179.997637,2451.505594
19845.044811,1110.308913,-9474.636058,3600.648841
19845.045144,1036.288319,-5403.503377,6128.763984
19845.045477,2886.803174,-7105.977043,7277.907231
19845.045811,1110.308913,-7698.141797,3753.867940
19845.046144,2072.576638,-7550.100608,2987.772442
19845.046477,-222.061783,-9178.553681,689.485948
19845.046810,1184.329507,-8068.244768,-1378.971896
19845.047144,-370.102971,-9030.512492,-4366.744339
19845.047477,0.000000,-10140.821405,-3140.991542
19845.047810,222.061783,-8956.491898,-6128.763984
19845.048143,74.020594,-10140.821405,-4903.011187
19845.048477,2738.761985,-12435.459826,-2528.115143
19845.048810,1110.308913,-10658.965565,-1455.581446
19845.049143,3775.050304,-10955.047942,2987.772442
19845.049476,2072.576638,-9252.574275,5209.449386
19845.049810,2812.782580,-8142.265362,4673.182538
19845.050143,2590.720797,-8290.306550,5898.935335
19845.050476,4071.132681,-8882.471304,6665.030833
19845.050809,592.164754,-4811.338623,4903.011187
19845.051142,814.226536,-8290.306550,2987.772442
19845.051476,-74.020594,-7698.141797,-3140.991542
19845.051809,-3627.009116,-8882.471304,-4673.182538
19845.052142,518.144159,-9178.553681,-4673.182538
19845.052475,-1924.535449,-9918.759623,-5439.278036
19845.052809,-814.226536,-10955.047942,-5056.230287
19845.053142,-740.205942,-11843.295072,-2528.115143
19845.053475,2294.638420,-11843.295072,-76.609550
19845.053808,2886.803174,-10955.047942,2757.943793
19845.054142,2738.761985,-10584.944971,5209.449386
19845.054475,2368.659014,-8808.450710,5439.278036
19845.054808,592.164754,-5995.668130,3064.381992
19845.055141,962.267725,-9474.636058,4060.306139
19845.055475,-3182.885551,-6957.935855,-689.485948
19845.055808,-4737.318029,-8956.491898,536.266849
19845.056141,-3701.029710,-7698.141797,-2068.457845
19845.056474,-2442.679609,-7402.059420,-3677.258390
19845.056808,-962.267725,-8142.265362,-536.266849
19845.057141,740.205942,-7550.100608,842.705048
19845.057474,2146.597232,-7624.121203,383.047749
19845.057807,2368.659014,-9252.574275,1838.629195
19845.058141,4367.215058,-11251.130318,1149.143247
19845.058474,592.164754,-9548.656652,919.314598
19845.058807,0.000000,-10732.986159,0.000000
19845.059140,1554.432478,-12435.459826,-1915.238745
19845.059473,-2368.659014,-10140.821405,0.000000
19845.059807,-2664.741391,-10584.944971,-1225.752797
19845.060140,-2886.803174,-9474.636058,-995.924147
19845.060473,-2442.679609,-8956.491898,689.485948
19845.060806,2886.803174,-6513.812290,4213.525239
19845.061140,5551.544565,-8882.471304,7277.907231
19845.061473,2960.823768,-3034.844362,7048.078582
19845.061806,4959.379811,-8882.471304,4519.963438
19845.062139,5847.626942,-7550.100608,1149.143247
19845.062473,4441.235652,-10732.986159,1072.533697
19845.062806,2738.761985,-10066.800811,-4903.011187
19845.063139,-74.020594,-12583.501014,-7201.297681
19845.063472,-2146.597232,-14211.954086,-7507.735880
19845.063806,-1776.494261,-11399.171507,-4979.620737
19845.064139,1702.473667,-11843.295072,-2987.772442
19845.064472,0.000000,-9548.656652,1225.752797
19845.064805,1332.370696,-9474.636058,4826.401637
19845.065139,2294.638420,-7994.224174,6052.154434
19845.065472,2294.638420,-5921.647536,7584.345430
19845.065805,2368.659014,-7476.080014,7431.126331
19845.066138,1110.308913,-7105.977043,5056.230287
19845.066472,-1332.370696,-7772.162391,1762.019645
19845.066805,-4441.235652,-9252.574275,-1225.752797
19845.067138,-5107.421000,-8068.244768,-5822.325785
19845.067471,-3330.926739,-11251.130318,-4903.011187
19845.067805,-1258.350101,-11843.295072,-4979.620737
19845.068138,-1776.494261,-8660.409521,-4596.572988
19845.068471,-1258.350101,-13027.624579,-1915.238745
19845.068804,-2368.659014,-10807.006753,-1991.848295
19845.069137,-962.267725,-10214.842000,229.828649
19845.069471,1184.329507,-9400.615463,4519.963438
19845.069804,0.000000,-9844.739029,7354.516781
19845.070137,0.000000,-8956.491898,5209.449386
19845.070470,-74.020594,-7105.977043,4213.525239
19845.070804,-370.102971,-7920.203579,4749.792088
19845.071137,-1480.411884,-8290.306550,3447.429741
19845.071470,-4145.153275,-6291.750507,-919.314598
19845.071803,-3627.009116,-9474.636058,-3753.867940
19845.072137,-4737.318029,-6587.832884,-3677.258390
19845.072470,-888.247130,-10362.883188,-1225.752797
19845.072803,2294.638420,-9474.636058,-1608.800546
19845.073136,1184.329507,-8068.244768,-306.438199
19845.073470,1702.473667,-9326.594869,-1378.971896
19845.073803,1776.494261,-10584.944971,-995.924147
19845.074136,2590.720797,-10658.965565,0.000000
19845.074469,4145.153275,-11843.295072,2757.943793
19845.074803,2072.576638,-8364.327145,1225.752797
19845.075136,0.000000,-10732.986159,3370.820191
19845.075469,3478.967927,-8290.306550,0.000000
19845.075802,-1258.350101,-8438.347739,0.000000
19845.076136,888.247130,-9474.636058,1149.143247
19845.076469,-1554.432478,-8660.409521,1072.533697
19845.076802,-592.164754,-7846.182985,459.657299
19845.077135,2368.659014,-6365.771101,2451.505594
19845.077468,3182.885551,-8290.306550,3294.210641
19845.077802,3182.885551,-4811.338623,612.876398
19845.078135,5699.585753,-8734.430116,1225.752797
19845.078468,7031.956449,-10658.965565,-689.485948
19845.078801,1184.329507,-9548.656652,-2451.505594
19845.079135,1702.473667,-12583.501014,-5132.839837
19845.079468,740.205942,-11991.336260,-4290.134789
19845.079801,-888.247130,-11769.274478,-3677.258390
19845.080134,1258.350101,-12287.418637,-1225.752797
19845.080468,-1702.473667,-9548.656652,-2068.457845
19845.080801,-3552.988522,-7179.997637,2451.505594
19845.081134,2294.638420,-8882.471304,4519.963438
19845.081467,0.000000,-5995.668130,4903.011187
19845.081801,592.164754,-5403.503377,7660.954980
19845.082134,2294.638420,-4737.318029,3907.087040
19845.082467,1258.350101,-6661.853478,2681.334243
19845.082800,-592.164754,-7476.080014,0.000000
19845.083134,-962.267725,-8808.450710,-3753.867940
19845.083467,-3034.844362,-10658.965565,-6818.249932
19845.083800,-4071.132681,-11695.253884,-6588.421283
19845.084133,-3182.885551,-11991.336260,-6128.763984
19845.084467,-4071.132681,-12879.583391,-4673.182538
19845.084800,-2368.659014,-11473.192101,-1838.629195
19845.085133,1110.308913,-12435.459826,2068.457845
19845.085466,1332.370696,-7179.997637,7354.516781
19845.085800,2368.659014,-8364.327145,10955.165621
19845.086133,2294.638420,-6069.688724,5515.887586
19845.086466,888.247130,-6587.832884,5515.887586
19845.086799,-370.102971,-7698.141797,4749.792088
19845.087132,-1406.391290,-8216.285956,1302.362347
19845.087466,-5255.462188,-8512.368333,-3677.258390
19845.087799,-3627.009116,-10658.965565,-4979.620737
19845.088132,-3849.070898,-11251.130318,-3140.991542
19845.088465,-2368.659014,-7179.997637,-2451.505594
19845.088799,0.000000,-8068.244768,-2451.505594
19845.089132,2368.659014,-10881.027347,1149.143247
19845.089465,4071.132681,-9178.553681,842.705048
19845.089798,2886.803174,-9770.718434,1072.533697
19845.090132,3627.009116,-10362.883188,2068.457845
19845.090465,3182.885551,-10288.862594,3217.601092
19845.090798,1406.391290,-7772.162391,2145.067394
19845.091131,2294.638420,-10658.965565,2221.676944
19845.091465,-3552.988522,-9548.656652,3447.429741
19845.091798,-74.020594,-9474.636058,-76.609550
19845.092131,-2368.659014,-6957.935855,-766.095498
19845.092464,-2368.659014,-7105.977043,-76.609550
19845.092798,-518.144159,-6587.832884,-1072.533697
19845.093131,1998.556043,-8882.471304,2068.457845
19845.093464,2812.782580,-7105.977043,2374.896044
19845.093797,3256.906145,-7179.997637,612.876398
19845.094131,3478.967927,-8882.471304,-1838.629195
19845.094464,2960.823768,-11325.150913,-1225.752797
19845.094797,1258.350101,-12731.542202,-995.924147
19845.095130,0.000000,-10732.986159,-3370.820191
19845.095463,-1776.494261,-11917.315666,-1225.752797
19845.095797,-814.226536,-11843.295072,-76.609550
19845.096130,0.000000,-10584.944971,919.314598
19845.096463,-2368.659014,-8956.491898,1608.800546
19845.096796,-666.185348,-8882.471304,2987.772442
19845.097130,-3404.947333,-5995.668130,4903.011187
19845.097463,1554.432478,-8290.306550,5745.716235
19845.097796,0.000000,-3034.844362,612.876398
19845.098129,296.082377,-7179.997637,4826.401637
19845.098463,1480.411884,-7179.997637,1225.752797
19845.098796,1184.329507,-7994.224174,-153.219100
19845.099129,1184.329507,-9400.615463,-3370.820191
19845.099462,-1406.391290,-11473.192101,-5898.935335
19845.099796,-1850.514855,-13915.871710,-6205.373534
19845.100129,-3256.906145,-11029.068536,-5515.887586
19845.100462,-1110.308913,-13027.624579,-2987.772442
19845.100795,-1036.288319,-11473.192101,0.000000
19845.101129,592.164754,-11251.130318,3753.867940
19845.101462,3478.967927,-9030.512492,8503.660028
19845.101795,592.164754,-4811.338623,7660.954980
19845.102128,0.000000,-7179.997637,9652.803275
19845.102462,3478.967927,-4737.318029,5745.716235
19845.102795,0.000000,-6291.750507,5209.449386
19845.103128,0.000000,-7994.224174,2374.896044
19845.103461,-3701.029710,-8068.244768,-3217.601092
19845.103795,-3849.070898,-8956.491898,-5975.544884
19845.104128,-3701.029710,-9548.656652,-6435.202183
19845.104461,-2442.679609,-11547.212695,-6971.469032
19845.104794,-3627.009116,-9548.656652,-7048.078582
19845.105127,-1036.288319,-12435.459826,-3064.381992
19845.105461,3256.906145,-11547.212695,2374.896044
19845.105794,3034.844362,-8364.327145,4290.134789
19845.106127,6439.791695,-10658.965565,6971.469032
19845.106460,4219.173869,-7550.100608,7277.907231
19845.106794,1998.556043,-6883.915261,4290.134789
19845.107127,2812.782580,-9030.512492,4060.306139
19845.107460,-2294.638420,-8364.327145,0.000000
19845.107793,-5921.647536,-7179.997637,-2451.505594
19845.108127,-3627.009116,-10066.800811,-5592.497135
19845.108460,-4737.318029,-7698.141797,-6052.154434
19845.108793,-3552.988522,-8068.244768,-2145.067394
19845.109126,1406.391290,-8290.306550,0.000000
19845.109460,3775.050304,-6217.729913,2145.067394
19845.109793,4367.215058,-7179.997637,2451.505594
19845.110126,5107.421000,-7772.162391,2068.457845
19845.110459,3849.070898,-9548.656652,2451.505594
19845.110793,3552.988522,-11177.109724,2374.896044
19845.111126,3182.885551,-12731.542202,-2528.115143
19845.111459,-3552.988522,-12065.356855,-2145.067394
19845.111792,-1776.494261,-12879.583391,-76.609550
19845.112126,-1554.432478,-8586.388927,-3064.381992
19845.112459,-1332.370696,-10288.862594,1302.362347
19845.112792,0.000000,-6883.915261,3753.867940
19845.113125,1480.411884,-7550.100608,6052.154434
19845.113458,2664.741391,-4515.256246,6128.763984
19845.113792,3552.988522,-5181.441594,5439.278036
19845.114125,2886.803174,-6735.874072,2834.553343
19845.114458,4589.276840,-7105.977043,1149.143247
19845.114791,2072.576638,-8290.306550,-2528.115143
19845.115125,0.000000,-10362.883188,-6971.469032
19845.115458,-4737.318029,-12805.562797,-6741.640382
19845.115791,-2442.679609,-15396.283594,-6205.373534
19845.116124,-1258.350101,-11103.089130,-5056.230287
19845.116458,-74.020594,-13619.789333,-383.047749
19845.116791,1702.473667,-10510.924376,2374.896044
19845.117124,2812.782580,-7476.080014,6358.592633
19845.117457,5107.421000,-6809.894666,8350.440928
19845.117790,3478.967927,-6439.791695,7890.783629
19845.118123,3182.885551,-9178.553681,6665.030833
19845.118457,1702.473667,-7698.141797,3907.087040
19845.118790,0.000000,-8364.327145,2374.896044
19845.119123,2294.638420,-9474.636058,-2528.115143
19845.119456,-2368.659014,-7179.997637,-5515.887586
19845.119789,-1554.432478,-9252.574275,-4903.011187
19845.120123,-74.020594,-11547.212695,-4979.620737
19845.120456,-444.123565,-11621.233289,-3447.429741
19845.120789,-666.185348,-11621.233289,-3983.696590
19845.121122,814.226536,-11251.130318,-995.924147
19845.121455,3478.967927,-11251.130318,4826.401637
19845.121788,4663.297435,-10658.965565,6052.154434
19845.122122,1184.329507,-7328.038826,4903.011187
19845.122455,1184.329507,-7179.997637,5822.325785
19845.122788,222.061783,-7179.997637,3370.820191
19845.123121,1110.308913,-7698.141797,2604.724693
19845.123454,-2960.823768,-8068.244768,229.828649
19845.123787,-2368.659014,-7476.080014,-1991.848295
19845.124121,-4145.153275,-7772.162391,-4903.011187
19845.124454,1110.308913,-10658.965565,-2528.115143
19845.124787,-2664.741391,-10658.965565,-2528.115143
19845.125120,-1406.391290,-7772.162391,-3677.258390
19845.125453,1110.308913,-10658.965565,-383.047749
19845.125787,-1184.329507,-9844.739029,-536.266849
19845.126120,1850.514855,-9622.677246,919.314598
19845.126453,1850.514855,-9844.739029,3294.210641
19845.126786,2960.823768,-9548.656652,4290.134789
19845.127119,296.082377,-9548.656652,4290.134789
19845.127452,-74.020594,-10658.965565,-76.609550
19845.127786,-3552.988522,-9548.656652,1685.410096
19845.128119,-3552.988522,-10732.986159,2834.553343
19845.128452,-1258.350101,-9474.636058,-76.609550
19845.128785,-5921.647536,-8660.409521,306.438199
19845.129118,-2886.803174,-7624.121203,0.000000
19845.129451,-370.102971,-7624.121203,2068.457845
19845.129785,2294.638420,-6439.791695,2528.115143
19845.130118,1480.411884,-6587.832884,3370.820191
19845.130451,4071.132681,-7031.956449,1378.971896
19845.130784,3478.967927,-8808.450710,0.000000
19845.131117,1924.535449,-10436.903782,-2298.286494
19845.131450,-74.020594,-11843.295072,-4060.306139
19845.131784,-1776.494261,-12065.356855,-3677.258390
19845.132117,-1628.453072,-13619.789333,-76.609550
19845.132450,-2442.679609,-11547.212695,-3907.087040
19845.132783,-4145.153275,-9548.656652,0.000000
19845.133116,-74.020594,-9474.636058,4826.401637
19845.133450,2294.638420,-6291.750507,7890.783629
19845.133783,2368.659014,-3997.112087,7737.564530
19845.134116,2812.782580,-4885.359217,5669.106685
19845.134449,2664.741391,-3627.009116,3064.381992
19845.134782,0.000000,-5403.503377,1225.752797
19845.135115,5551.544565,-8290.306550,-1915.238745
19845.135449,518.144159,-9474.636058,-7431.126331
19845.135782,-2368.659014,-11917.315666,-7967.393179
19845.136115,-2738.761985,-13915.871710,-8656.879127
19845.136448,-1998.556043,-14730.098246,-6894.859482
19845.136781,-518.144159,-12731.542202,-4213.525239
19845.137114,1110.308913,-11843.295072,919.314598
19845.137448,3997.112087,-10362.883188,6128.763984
19845.137781,3849.070898,-5403.503377,10418.898773
19845.138114,7031.956449,-5329.482782,6588.421283
19845.138447,3552.988522,-6883.915261,9576.193725
19845.138780,4145.153275,-7994.224174,7277.907231
19845.139114,444.123565,-6587.832884,612.876398
19845.139447,-1998.556043,-8882.471304,-2528.115143
19845.139780,-3849.070898,-9918.759623,-5822.325785
19845.140113,-3404.947333,-10732.986159,-6894.859482
19845.140446,-1258.350101,-11843.295072,-5592.497135
19845.140779,-2368.659014,-9844.739029,-3217.601092
19845.141113,-666.185348,-12435.459826,-3140.991542
19845.141446,1110.308913,-8512.368333,0.000000
19845.141779,3404.947333,-9400.615463,3677.258390
19845.142112,6439.791695,-9474.636058,4826.401637
19845.142445,3775.050304,-9178.553681,6128.763984
19845.142778,1702.473667,-8660.409521,4596.572988
19845.143112,444.123565,-7698.141797,2681.334243
19845.143445,-3256.906145,-8364.327145,0.000000
19845.143778,-1850.514855,-11843.295072,-689.485948
19845.144111,-5921.647536,-8364.327145,-1225.752797
19845.144444,-6217.729913,-6587.832884,-1225.752797
19845.144778,-2368.659014,-9474.636058,-76.609550
19845.145111,1702.473667,-8290.306550,1762.019645
19845.145444,2294.638420,-7105.977043,2451.505594
19845.145777,3182.885551,-6735.874072,1455.581446
19845.146110,2368.659014,-7994.224174,-919.314598
19845.146443,592.164754,-8660.409521,-2145.067394
19845.146777,962.267725,-11843.295072,-1302.362347
19845.147110,-444.123565,-11251.130318,-2834.553343
19845.147443,-2368.659014,-11769.274478,-2604.724693
19845.147776,-1184.329507,-11325.150913,-1378.971896
19845.148109,-1998.556043,-9474.636058,-766.095498
19845.148442,-74.020594,-10658.965565,3600.648841
19845.148776,-1258.350101,-8882.471304,383.047749
19845.149109,-2368.659014,-8364.327145,3677.258390
19845.149442,1924.535449,-8216.285956,5975.544884
19845.149775,1702.473667,-4959.379811,2911.162892
19845.150108,1850.514855,-7254.018232,2681.334243
19845.150441,3330.926739,-6883.915261,2604.724693
19845.150775,2738.761985,-7179.997637,306.438199
19845.151108,2368.659014,-7179.997637,-2451.505594
19845.151441,2294.638420,-13027.624579,-4366.744339
19845.151774,-1850.514855,-13619.789333,-7431.126331
19845.152107,-2960.823768,-11325.150913,-6741.640382
19845.152441,518.144159,-13915.871710,-2681.334243
19845.152774,-1184.329507,-11029.068536,-1225.752797
19845.153107,962.267725,-9992.780217,1225.752797
19845.153440,2072.576638,-8882.471304,4903.011187
19845.153773,2516.700203,-6587.832884,7354.516781
19845.154106,3552.988522,-7772.162391,8580.269578
19845.154440,5255.462188,-7698.141797,6665.030833
19845.154773,1628.453072,-4367.215058,4290.134789
19845.155106,0.000000,-6587.832884,4290.134789
19845.155439,1702.473667,-8882.471304,-1915.238745
19845.155772,-2368.659014,-9104.533087,-3753.867940
19845.156105,-2812.782580,-10881.027347,-6435.202183
19845.156439,-2220.617826,-10140.821405,-7048.078582
19845.156772,-2738.761985,-12731.542202,-5822.325785
19845.157105,-1554.432478,-12361.439231,-3753.867940
19845.157438,-1258.350101,-10658.965565,-2681.334243
19845.157771,592.164754,-8956.491898,5056.230287
19845.158105,4071.132681,-9178.553681,6052.154434
19845.158438,3182.885551,-5699.585753,4903.011187
19845.158771,2960.823768,-7328.038826,7890.783629
19845.159104,370.102971,-7031.956449,4290.134789
19845.159437,-296.082377,-8068.244768,2911.162892
19845.159770,-3330.926739,-9104.533087,-919.314598
19845.160104,-3923.091493,-10066.800811,-3217.601092
19845.160437,-5329.482782,-9548.656652,-4903.011187
19845.160770,-3849.070898,-9770.718434,-3983.696590
19845.161103,-1332.370696,-9030.512492,-3217.601092
19845.161436,0.000000,-7179.997637,0.000000
19845.161769,2368.659014,-7179.997637,1225.752797
19845.162103,4663.297435,-10066.800811,2374.896044
19845.162436,3330.926739,-10658.965565,1762.019645
19845.162769,2368.659014,-8364.327145,919.314598
19845.163102,1406.391290,-10214.842000,1149.143247
19845.163435,-444.123565,-11325.150913,0.000000
19845.163769,-2738.761985,-10807.006753,-1149.143247
19845.164102,-3478.967927,-9770.718434,-995.924147
19845.164435,-2072.576638,-9622.677246,1532.190996
19845.164768,-2738.761985,-6735.874072,1072.533697
19845.165101,-74.020594,-7105.977043,1149.143247
19845.165434,0.000000,-5403.503377,4903.011187
19845.165768,3552.988522,-7476.080014,7277.907231
19845.166101,3108.864956,-5403.503377,1838.629195
19845.166434,4071.132681,-6735.874072,1685.410096
19845.166767,2960.823768,-7846.182985,-1608.800546
19845.167100,2220.617826,-10658.965565,-3294.210641
19845.167433,-74.020594,-13619.789333,-6205.373534
19845.167767,-4145.153275,-12509.480420,-5822.325785
19845.168100,-3775.050304,-10732.986159,-7354.516781
19845.168433,-1184.329507,-12213.398043,-383.047749
19845.168766,-74.020594,-9474.636058,1149.143247
19845.169099,2294.638420,-8290.306550,4060.306139
19845.169432,3775.050304,-7994.224174,7277.907231
19845.169766,3256.906145,-6143.709319,8580.269578
19845.170099,2516.700203,-5995.668130,6741.640382
19845.170432,1924.535449,-6661.853478,3753.867940
19845.170765,2590.720797,-9178.553681,3600.648841
19845.171098,-1776.494261,-7179.997637,0.000000
19845.171432,-2960.823768,-7772.162391,-3064.381992
19845.171765,-814.226536,-11547.212695,-4979.620737
19845.172098,-1258.350101,-9844.739029,-6435.202183
19845.172431,-370.102971,-11769.274478,-5209.449386
19845.172764,-666.185348,-12139.377449,-3294.210641
19845.173097,-814.226536,-10955.047942,-1685.410096
19845.173431,1554.432478,-10658.965565,1915.238745
19845.173764,3478.967927,-8290.306550,4826.401637
19845.174097,0.000000,-7772.162391,8044.002729
19845.174430,1554.432478,-7994.224174,4826.401637
19845.174763,-74.020594,-4811.338623,2451.505594
19845.175096,-1628.453072,-6587.832884,3677.258390
19845.175430,-74.020594,-6809.894666,1302.362347
19845.175763,-3404.947333,-7624.121203,-1685.410096
19845.176096,-2960.823768,-8882.471304,-4366.744339
19845.176429,-1628.453072,-9104.533087,-3064.381992
19845.176762,1702.473667,-9474.636058,-3140.991542
19845.177096,1110.308913,-9474.636058,-2911.162892
19845.177429,888.247130,-11251.130318,-1915.238745
19845.177762,1036.288319,-9622.677246,-919.314598
19845.178095,0.000000,-8956.491898,0.000000
19845.178428,3478.967927,-10658.965565,1762.019645
19845.178761,1998.556043,-8142.265362,1149.143247
19845.179095,592.164754,-9548.656652,6052.154434
19845.179428,2590.720797,-7994.224174,3294.210641
19845.179761,-666.185348,-6883.915261,306.438199
19845.180094,-1110.308913,-8734.430116,153.219100
19845.180427,-1998.556043,-9474.636058,-76.609550
19845.180760,-3330.926739,-8290.306550,-1302.362347
19845.181094,-2072.576638,-9252.574275,-689.485948
19845.181427,1702.473667,-9474.636058,-76.609550
19845.181760,0.000000,-7179.997637,1225.752797
19845.182093,592.164754,-5995.668130,1225.752797
19845.182426,5847.626942,-8290.306550,842.705048
19845.182759,2368.659014,-8364.327145,2145.067394
19845.183093,4219.173869,-8660.409521,-1225.752797
19845.183426,2886.803174,-11695.253884,-2298.286494
19845.183759,1184.329507,-12213.398043,-2451.505594
19845.184092,-370.102971,-12435.459826,-2528.115143
19845.184425,-74.020594,-14211.954086,-2528.115143
19845.184759,-4737.318029,-9844.739029,1378.971896
19845.185092,-1258.350101,-9326.594869,1149.143247
19845.185425,1110.308913,-5995.668130,3983.696590
19845.185758,5255.462188,-7105.977043,9729.412825
19845.186091,5329.482782,-2738.761985,7354.516781
19845.186424,5255.462188,-5699.585753,5975.544884
19845.186758,3627.009116,-7031.956449,2374.896044
19845.187091,1776.494261,-7179.997637,-1838.629195
19845.187424,1110.308913,-10807.006753,-7354.516781
19845.187757,-4145.153275,-11917.315666,-7967.393179
19845.188090,-3034.844362,-15988.448347,-8044.002729
19845.188423,-3552.988522,-12435.459826,-7431.126331
19845.188757,-2812.782580,-11843.295072,-2834.553343
19845.189090,-444.123565,-11843.295072,1302.362347
19845.189423,2294.638420,-8364.327145,5515.887586
19845.189756,2220.617826,-6809.894666,8886.707777
19845.190089,3552.988522,-5107.421000,9806.022374
19845.190423,0.000000,-5995.668130,7354.516781
19845.190756,2294.638420,-7105.977043,6665.030833
19845.191089,-1850.514855,-7105.977043,459.657299
19845.191422,-4737.318029,-8660.409521,-1149.143247
19845.191755,-6069.688724,-9770.718434,-4979.620737
19845.192088,-6143.709319,-10214.842000,-6818.249932
19845.192422,-3478.967927,-9474.636058,-5209.449386
19845.192755,-2072.576638,-10436.903782,-3830.477490
19845.193088,0.000000,-11251.130318,-1685.410096
19845.193421,-2368.659014,-10140.821405,0.000000
19845.193754,444.123565,-8734.430116,1302.362347
19845.194087,1480.411884,-8660.409521,2757.943793
19845.194421,1184.329507,-10881.027347,4826.401637
19845.194754,740.205942,-7772.162391,4903.011187
19845.195087,-1406.391290,-6143.709319,1225.752797
19845.195420,1184.329507,-10066.800811,4826.401637
19845.195753,-2886.803174,-7179.997637,1225.752797
19845.196087,-1554.432478,-7994.224174,-76.609550
19845.196420,-2960.823768,-9326.594869,-76.609550
19845.196753,-1554.432478,-7772.162391,-2374.896044
19845.197086,370.102971,-8512.368333,-1225.752797
19845.197419,2294.638420,-8586.388927,-76.609550
19845.197752,5255.462188,-8882.471304,-76.609550
19845.198086,1184.329507,-8364.327145,0.000000
19845.198419,4737.318029,-11473.192101,1762.019645
19845.198752,2886.803174,-10807.006753,-2145.067394
19845.199085,1184.329507,-8364.327145,0.000000
19845.199418,4663.297435,-11843.295072,-76.609550
19845.199751,1776.494261,-11251.130318,1455.581446
19845.200085,888.247130,-9548.656652,612.876398
19845.200418,666.185348,-9400.615463,1532.190996
19845.200751,-74.020594,-9474.636058,1149.143247
19845.201084,-2368.659014,-7179.997637,2604.724693
19845.201417,1998.556043,-8882.471304,3600.648841
19845.201750,3182.885551,-6513.812290,2068.457845
19845.202084,2960.823768,-6883.915261,4290.134789
19845.202417,4071.132681,-7328.038826,766.095498
19845.202750,4071.132681,-7550.100608,689.485948
19845.203083,2664.741391,-9104.533087,-995.924147
19845.203416,3182.885551,-10436.903782,-3294.210641
19845.203750,0.000000,-10732.986159,-6128.763984
19845.204083,0.000000,-12509.480420,-2528.115143
19845.204416,1554.432478,-11547.212695,-3447.429741
19845.204749,-2368.659014,-13101.645173,0.000000
19845.205082,-1776.494261,-11325.150913,2068.457845
19845.205415,-2442.679609,-8142.265362,153.219100
19845.205749,1332.370696,-7994.224174,5898.935335
19845.206082,1554.432478,-6143.709319,8350.440928
19845.206415,1776.494261,-5995.668130,7660.954980
19845.206748,1998.556043,-3923.091493,5132.839837
19845.207081,0.000000,-7179.997637,3600.648841
19845.207414,0.000000,-7698.141797,-612.876398
19845.207748,-3552.988522,-9104.533087,-4903.011187
19845.208081,-1258.350101,-11843.295072,-6205.373534
19845.208414,-3923.091493,-11251.130318,-9039.926876
19845.208747,-4737.318029,-11917.315666,-5822.325785
19845.209080,-4737.318029,-11917.315666,-3140.991542
19845.209414,-1258.350101,-11251.130318,-689.485948
19845.209747,1924.535449,-10140.821405,3677.258390
19845.210080,3404.947333,-7772.162391,7201.297681
19845.210413,4219.173869,-6809.894666,7431.126331
19845.210746,3552.988522,-5995.668130,7124.688131
19845.211079,2294.638420,-7105.977043,4826.401637
19845.211413,888.247130,-8142.265362,2374.896044
19845.211746,-4737.318029,-9548.656652,612.876398
19845.212079,-4811.338623,-8808.450710,-5898.935335
19845.212412,-4811.338623,-10436.903782,-7048.078582
19845.212745,-1406.391290,-9474.636058,-3140.991542
19845.213078,-814.226536,-8216.285956,-2757.943793
19845.213412,2294.638420,-7550.100608,-536.266849
19845.213745,3552.988522,-8216.285956,1915.238745
19845.214078,2368.659014,-5995.668130,1838.629195
19845.214411,4663.297435,-9474.636058,536.266849
19845.214744,2368.659014,-10140.821405,3600.648841
19845.215078,3478.967927,-11843.295072,689.485948
19845.215411,296.082377,-10140.821405,0.000000
19845.215744,-2072.576638,-10881.027347,-842.705048
19845.216077,-2368.659014,-10140.821405,-612.876398
19845.216410,-1480.411884,-10288.862594,536.266849
19845.216744,-1332.370696,-8660.409521,766.095498
19845.217077,-888.247130,-8586.388927,3217.601092
19845.217410,1702.473667,-4219.173869,612.876398
19845.217743,5847.626942,-6809.894666,6052.154434
19845.218077,5255.462188,-6513.812290,2374.896044
19845.218410,4737.318029,-8142.265362,2374.896044
19845.218743,2220.617826,-10066.800811,-2145.067394
19845.219076,740.205942,-12213.398043,-3294.210641
19845.219410,-370.102971,-11695.253884,-6588.421283
19845.219743,-2442.679609,-13693.809927,-4749.792088
19845.220076,-1406.391290,-12731.542202,-3753.867940
19845.220409,-4441.235652,-10732.986159,1225.752797
19845.220743,-74.020594,-8734.430116,0.000000
19845.221076,-1184.329507,-6587.832884,1225.752797
19845.221409,2072.576638,-8882.471304,6971.469032
19845.221742,2294.638420,-7105.977043,6281.983084
19845.222076,592.164754,-6809.894666,6358.592633
19845.222409,0.000000,-6957.935855,3140.991542
19845.222742,962.267725,-7105.977043,2374.896044
19845.223075,1406.391290,-8586.388927,-76.609550
19845.223409,296.082377,-8364.327145,-995.924147
19845.223742,-444.123565,-10362.883188,-4979.620737
19845.224075,-1628.453072,-11103.089130,-6741.640382
19845.224408,-2146.597232,-12435.459826,-5209.449386
19845.224742,-74.020594,-13027.624579,-3753.867940
19845.225075,-3108.864956,-10732.986159,-2757.943793
19845.225408,-3552.988522,-9548.656652,1225.752797
19845.225741,2294.638420,-10658.965565,2987.772442
19845.226075,592.164754,-7179.997637,6128.763984
19845.226408,2516.700203,-7698.141797,7277.907231
19845.226741,2072.576638,-7846.182985,7737.564530
19845.227074,2812.782580,-5107.421000,5515.887586
19845.227408,1184.329507,-6883.915261,4213.525239
19845.227741,-666.185348,-7254.018232,-1149.143247
19845.228074,-3552.988522,-9548.656652,-4290.134789
19845.228407,-1258.350101,-11843.295072,-3753.867940
19845.228741,-74.020594,-9474.636058,-6511.811733
19845.229074,-2368.659014,-10732.986159,-4903.011187
19845.229407,-74.020594,-11843.295072,-5132.839837
19845.229740,-962.267725,-11695.253884,-1762.019645
19845.230074,666.185348,-9400.615463,1225.752797
19845.230407,4589.276840,-8216.285956,4673.182538
19845.230740,2960.823768,-8660.409521,6128.763984
19845.231073,1184.329507,-5403.503377,8120.612279
19845.231407,3478.967927,-6661.853478,3064.381992
19845.231740,592.164754,-7179.997637,0.000000
19845.232073,-1776.494261,-11473.192101,1149.143247
19845.232406,-4811.338623,-9548.656652,-4290.134789
19845.232740,-4811.338623,-10658.965565,-4903.011187
19845.233073,-5403.503377,-10214.842000,-4749.792088
19845.233406,-1332.370696,-8882.471304,-995.924147
19845.233739,2072.576638,-8216.285956,2911.162892
19845.234073,3552.988522,-6439.791695,6052.154434
19845.234406,6439.791695,-7105.977043,1455.581446
19845.234739,3552.988522,-7772.162391,3217.601092
19845.235073,5625.565159,-10658.965565,2987.772442
19845.235406,1184.329507,-9548.656652,0.000000
19845.235739,-148.041188,-12731.542202,-3140.991542
19845.236072,-814.226536,-12509.480420,-2834.553343
19845.236406,-2294.638420,-12435.459826,-2221.676944
19845.236739,-2738.761985,-10510.924376,-2068.457845
19845.237072,-1554.432478,-10658.965565,-383.047749
19845.237405,-2368.659014,-5995.668130,1302.362347
19845.237739,1184.329507,-5107.421000,7967.393179
19845.238072,4515.256246,-4441.235652,7277.907231
19845.238405,3552.988522,-4811.338623,5515.887586
19845.238738,4441.235652,-6291.750507,4060.306139
19845.239072,2368.659014,-7402.059420,0.000000
19845.239405,1480.411884,-8808.450710,-3140.991542
19845.239738,-1850.514855,-12287.418637,-7431.126331
19845.240071,-3330.926739,-13915.871710,-9269.755526
19845.240405,-4219.173869,-14508.036463,-6205.373534
19845.240738,-1406.391290,-12139.377449,-3753.867940
19845.241071,-666.185348,-11325.150913,459.657299
19845.241404,1998.556043,-9474.636058,4826.401637
19845.241738,592.164754,-6587.832884,9193.145976
19845.242071,4663.297435,-5921.647536,7584.345430
19845.242404,2368.659014,-3627.009116,5209.449386
19845.242737,1184.329507,-6143.709319,5515.887586
19845.243071,814.226536,-5995.668130,919.314598
19845.243404,-962.267725,-8956.491898,-1455.581446
19845.243737,-2664.741391,-9844.739029,-3447.429741
19845.244070,-3330.926739,-9696.697840,-6435.202183
19845.244404,-3182.885551,-8660.409521,-7737.564530
19845.244737,1110.308913,-11251.130318,-3140.991542
19845.245070,1110.308913,-11843.295072,-3447.429741
19845.245403,0.000000,-9548.656652,-1532.190996
19845.245737,3552.988522,-11843.295072,2374.896044
19845.246070,3552.988522,-7772.162391,4443.353888
19845.246403,3849.070898,-9252.574275,5745.716235
19845.246736,2072.576638,-9696.697840,4903.011187
19845.247070,1998.556043,-7846.182985,3447.429741
19845.247403,-1776.494261,-8364.327145,2451.505594
19845.247736,2294.638420,-8882.471304,536.266849
19845.248069,-3552.988522,-6143.709319,-1915.238745
19845.248403,-4145.153275,-7772.162391,-1838.629195
19845.248736,-1850.514855,-9474.636058,-1915.238745
19845.249069,-888.247130,-9474.636058,-1915.238745
19845.249402,592.164754,-8364.327145,-1302.362347
19845.249736,592.164754,-8068.244768,-919.314598
19845.250069,2442.679609,-8734.430116,-536.266849
19845.250402,3182.885551,-10955.047942,-76.609550
19845.250735,2886.803174,-9770.718434,0.000000
19845.251069,2368.659014,-10807.006753,2987.772442
19845.251402,3478.967927,-13027.624579,2374.896044
19845.251735,1998.556043,-9474.636058,536.266849
19845.252068,0.000000,-10288.862594,2987.772442
19845.252402,-1184.329507,-8660.409521,536.266849
19845.252735,-2516.700203,-9474.636058,-536.266849
19845.253068,-3701.029710,-8956.491898,-995.924147
19845.253401,-3256.906145,-8364.327145,1838.629195
19845.253735,-1850.514855,-6957.935855,612.876398
19845.254068,-74.020594,-7105.977043,1608.800546
19845.254401,1702.473667,-6809.894666,1302.362347
19845.254734,3182.885551,-4811.338623,1838.629195
19845.255068,2664.741391,-7476.080014,2451.505594
19845.255401,4663.297435,-9474.636058,-76.609550
19845.255734,1702.473667,-11547.212695,-4366.744339
19845.256068,-2368.659014,-12213.398043,-4290.134789
19845.256401,-1258.350101,-14211.954086,-3753.867940
19845.256734,-2960.823768,-13397.727550,-2681.334243
19845.257067,-4293.194464,-10955.047942,-1991.848295
19845.257401,-3923.091493,-9178.553681,229.828649
19845.257734,-2368.659014,-7179.997637,4903.011187
19845.258067,0.000000,-5403.503377,10112.460574
19845.258400,3330.926739,-3849.070898,6281.983084
19845.258734,1480.411884,-4219.173869,5515.887586
19845.259067,2442.679609,-7105.977043,4826.401637
19845.259400,0.000000,-5699.585753,0.000000
19845.259733,962.267725,-9178.553681,-2528.115143
19845.260067,-1924.535449,-10436.903782,-7354.516781
19845.260400,-2812.782580,-12213.398043,-8427.050478
19845.260733,-666.185348,-14211.954086,-5592.497135
19845.261066,-3552.988522,-12361.439231,-2528.115143
19845.261400,-74.020594,-11843.295072,-3447.429741
19845.261733,1184.329507,-9548.656652,2451.505594
19845.262066,4737.318029,-8956.491898,8503.660028
19845.262399,5477.523971,-5699.585753,8580.269578
19845.262733,4367.215058,-6957.935855,7354.516781
19845.263066,3997.112087,-6735.874072,6818.249932
19845.263399,592.164754,-7476.080014,3830.477490
19845.263732,74.020594,-7105.977043,229.828649
19845.264066,-3256.906145,-10584.944971,-2528.115143
19845.264399,-4737.318029,-7179.997637,-8580.269578
19845.264732,-4145.153275,-10140.821405,-4443.353888
19845.265065,-74.020594,-9474.636058,-4519.963438
19845.265399,-74.020594,-8290.306550,-3753.867940
19845.265732,2220.617826,-9548.656652,-766.095498
19845.266065,4293.194464,-8438.347739,1608.800546
19845.266398,2960.823768,-8956.491898,3064.381992
19845.266732,4737.318029,-8364.327145,1532.190996
19845.267065,5847.626942,-11843.295072,2374.896044
19845.267398,1184.329507,-9548.656652,3524.039291
19845.267731,1702.473667,-13027.624579,2987.772442
19845.268065,-3478.967927,-8364.327145,-2145.067394
19845.268398,-1850.514855,-10066.800811,-383.047749
19845.268731,-2516.700203,-8882.471304,229.828649
19845.269064,-1258.350101,-7624.121203,76.609550
19845.269398,-814.226536,-7105.977043,1149.143247
19845.269731,0.000000,-5995.668130,2451.505594
19845.270064,4071.132681,-5329.482782,2451.505594
19845.270397,3330.926739,-6661.853478,1762.019645
19845.270731,2072.576638,-8586.388927,-1072.533697
19845.271064,1258.350101,-10658.965565,-2374.896044
19845.271397,-1776.494261,-10732.986159,-3983.696590
19845.271730,1110.308913,-12879.583391,-3753.867940
19845.272064,-4145.153275,-10732.986159,-1838.629195
19845.272397,148.041188,-13027.624579,-76.609550
19845.272730,2886.803174,-11251.130318,3600.648841
19845.273063,-1850.514855,-7772.162391,1532.190996
19845.273397,-592.164754,-7772.162391,3064.381992
19845.273730,-1258.350101,-8808.450710,5286.058936
19845.274063,-444.123565,-6217.729913,4903.011187
19845.274396,-1776.494261,-4811.338623,4903.011187
19845.274730,-74.020594,-6513.812290,536.266849
19845.275063,592.164754,-6883.915261,2451.505594
19845.275396,1702.473667,-9178.553681,-76.609550
19845.275729,2294.638420,-8290.306550,-3753.867940
19845.276063,-2368.659014,-10732.986159,-3677.258390
19845.276396,-2146.597232,-11917.315666,-6128.763984
19845.276729,-1628.453072,-11695.253884,-5745.716235
19845.277063,-2072.576638,-12657.521608,-3600.648841
19845.277396,1702.473667,-13323.706956,-76.609550
19845.277729,-74.020594,-11251.130318,536.266849
19845.278062,1184.329507,-8956.491898,7277.907231
19845.278396,4663.297435,-9474.636058,8503.660028
19845.278729,2146.597232,-5995.668130,6741.640382
19845.279062,4885.359217,-6957.935855,8503.660028
19845.279395,1776.494261,-6069.688724,5439.278036
19845.279729,2294.638420,-5847.626942,1532.190996
19845.280062,-666.185348,-10066.800811,-1915.238745
19845.280395,-2368.659014,-8734.430116,-5898.935335
19845.280728,-3849.070898,-8364.327145,-9499.584175
19845.281062,-3256.906145,-12065.356855,-5439.278036
19845.281395,-1850.514855,-13027.624579,-5592.497135
19845.281728,-1850.514855,-10732.986159,-6128.763984
19845.282061,740.205942,-10955.047942,1608.800546
19845.282395,2072.576638,-8586.388927,3983.696590
19845.282728,4663.297435,-8438.347739,6358.592633
19845.283061,4219.173869,-7994.224174,7507.735880
19845.283394,3478.967927,-6809.894666,5132.839837
19845.283728,1480.411884,-7179.997637,3983.696590
19845.284061,-666.185348,-9252.574275,1378.971896
19845.284394,-1850.514855,-9474.636058,-1762.019645
19845.284727,-4737.318029,-9548.656652,-3064.381992
19845.285061,-888.247130,-11251.130318,-1455.581446
19845.285394,-1258.350101,-8734.430116,-3677.258390
19845.285727,1184.329507,-7476.080014,-2451.505594
19845.286060,3552.988522,-7179.997637,2528.115143
19845.286394,3552.988522,-7179.997637,306.438199
19845.286727,3775.050304,-8660.409521,1608.800546
19845.287060,3256.906145,-9474.636058,1225.752797
19845.287393,2516.700203,-9844.739029,612.876398
19845.287727,2738.761985,-13027.624579,-76.609550
19845.288060,-1850.514855,-11029.068536,-1302.362347
19845.288393,-1850.514855,-10288.862594,-3677.258390
19845.288726,-1480.411884,-11843.295072,-76.609550
19845.289060,-1554.432478,-10658.965565,1762.019645
19845.289393,-962.267725,-8290.306550,3294.210641
19845.289726,0.000000,-7550.100608,6052.154434
19845.290059,1184.329507,-5403.503377,5515.887586
19845.290393,2072.576638,-5107.421000,4673.182538
19845.290726,2294.638420,-7254.018232,2757.943793
19845.291059,2960.823768,-7254.018232,2374.896044
19845.291392,0.000000,-7179.997637,-4290.134789
19845.291726,148.041188,-12435.459826,-3294.210641
19845.292059,-4811.338623,-12509.480420,-7967.393179
19845.292392,-4219.173869,-13027.624579,-7124.688131
19845.292725,-1554.432478,-11843.295072,-3907.087040
19845.293059,-1036.288319,-12583.501014,-76.609550
19845.293392,-666.185348,-9400.615463,2451.505594
19845.293725,1110.308913,-7476.080014,4519.963438
19845.294058,3478.967927,-7105.977043,6665.030833
19845.294392,1184.329507,-6587.832884,9729.412825
19845.294725,1110.308913,-9474.636058,4826.401637
19845.295058,-1776.494261,-5403.503377,3064.381992
19845.295391,-1184.329507,-8956.491898,2145.067394
19845.295725,-1184.329507,-7772.162391,-766.095498
19845.296058,-1036.288319,-9474.636058,-3447.429741
19845.296391,-518.144159,-9770.718434,-5439.278036
19845.296724,-666.185348,-11103.089130,-5056.230287
19845.297058,0.000000,-10732.986159,-4903.011187
19845.297391,-148.041188,-14211.954086,-2528.115143
19845.297724,-1184.329507,-9548.656652,-2298.286494
19845.298058,0.000000,-9548.656652,3677.258390
19845.298391,6143.709319,-10955.047942,7584.345430
19845.298724,2368.659014,-7772.162391,6435.202183
19845.299057,2590.720797,-7476.080014,5745.716235
19845.299391,2664.741391,-7994.224174,5362.668486
19845.299724,1406.391290,-6587.832884,3064.381992
19845.300057,0.000000,-7179.997637,1838.629195
19845.300390,-740.205942,-7402.059420,-2221.676944
19845.300724,-2072.576638,-11251.130318,-3753.867940
19845.301057,-296.082377,-8068.244768,-3677.258390
19845.301390,-74.020594,-11547.212695,-3753.867940
19845.301723,0.000000,-8512.368333,-3983.696590
19845.302057,3034.844362,-10362.883188,-76.609550
19845.302390,2886.803174,-9326.594869,-1991.848295
19845.302723,2960.823768,-8956.491898,2451.505594
19845.303056,6143.709319,-11769.274478,5439.278036
19845.303390,4737.318029,-9548.656652,4673.182538
19845.303723,2960.823768,-8808.450710,4443.353888
19845.304056,1554.432478,-9770.718434,2221.676944
19845.304389,-1184.329507,-7476.080014,0.000000
19845.304723,-3034.844362,-8364.327145,0.000000
19845.305056,-1258.350101,-9474.636058,-1915.238745
19845.305389,-4663.297435,-7402.059420,-2987.772442
19845.305722,-4441.235652,-8956.491898,0.000000
19845.306056,-370.102971,-7105.977043,1149.143247
19845.306389,1480.411884,-6587.832884,2528.115143
19845.306722,2886.803174,-6439.791695,1532.190996
19845.307055,4441.235652,-6291.750507,2298.286494
19845.307389,1776.494261,-9548.656652,919.314598
19845.307722,1480.411884,-8364.327145,-2451.505594
19845.308055,-74.020594,-14211.954086,-4979.620737
19845.308388,-3256.906145,-12657.521608,-4290.134789
19845.308722,-3552.988522,-13989.892304,-1915.238745
19845.309055,-4589.276840,-11917.315666,-4596.572988
19845.309388,-3034.844362,-10881.027347,0.000000
19845.309721,-1406.391290,-9030.512492,3907.087040
19845.310055,2368.659014,-6291.750507,8120.612279
19845.310388,2886.803174,-5329.482782,9729.412825
19845.310721,1776.494261,-4219.173869,7507.735880
19845.311054,3182.885551,-6513.812290,4213.525239
19845.311388,370.102971,-5403.503377,1225.752797
19845.311721,1702.473667,-9474.636058,-1302.362347
19845.312054,-1406.391290,-11843.295072,-5898.935335
19845.312387,-3997.112087,-11917.315666,-9806.022374
19845.312721,-5773.606348,-14137.933492,-8273.831378
19845.313054,-2738.761985,-13619.789333,-5898.935335
19845.313387,-2442.679609,-10214.842000,-3140.991542
19845.313720,2294.638420,-11843.295072,2374.896044
19845.314054,2072.576638,-6587.832884,7354.516781
19845.314387,2368.659014,-5403.503377,11338.213370
19845.314720,5551.544565,-5921.647536,7584.345430
19845.315053,3330.926739,-7402.059420,7124.688131
19845.315387,1110.308913,-7179.997637,3064.381992
19845.315720,-1184.329507,-9178.553681,842.705048
19845.316053,-2590.720797,-9474.636058,-3217.601092
19845.316386,-4589.276840,-8734.430116,-6588.421283
19845.316720,-1998.556043,-11547.212695,-5592.497135
19845.317053,0.000000,-9474.636058,-3370.820191
19845.317386,1258.350101,-9770.718434,-2374.896044
19845.317719,2590.720797,-9770.718434,-995.924147
19845.318053,2886.803174,-9474.636058,383.047749
19845.318386,3849.070898,-9178.553681,4826.401637
19845.318719,5847.626942,-9474.636058,2374.896044
19845.319052,1480.411884,-10732.986159,4903.011187
19845.319386,1702.473667,-8364.327145,2374.896044
19845.319719,2294.638420,-11251.130318,1762.019645
19845.320052,-74.020594,-10658.965565,-76.609550
19845.320385,-2664.741391,-10288.862594,459.657299
19845.320719,-2442.679609,-9178.553681,-229.828649
19845.321052,-3256.906145,-5995.668130,-1225.752797
19845.321385,-3552.988522,-7179.997637,153.219100
19845.321718,1110.308913,-7698.141797,-76.609550
19845.322052,2294.638420,-5477.523971,0.000000
19845.322385,2368.659014,-6291.750507,1532.190996
19845.322718,3478.967927,-8142.265362,-2298.286494
19845.323051,2294.638420,-10955.047942,-1302.362347
19845.323385,-74.020594,-11843.295072,-2374.896044
19845.323718,0.000000,-11103.089130,-2451.505594
19845.324051,-592.164754,-13101.645173,-1225.752797
19845.324384,1184.329507,-12509.480420,2987.772442
19845.324718,-74.020594,-9548.656652,306.438199
19845.325051,0.000000,-8956.491898,1225.752797
19845.325384,-518.144159,-10066.800811,2987.772442
19845.325717,-2368.659014,-6587.832884,3064.381992
19845.326051,222.061783,-6365.771101,3677.258390
19845.326384,-74.020594,-6365.771101,3140.991542
19845.326717,518.144159,-6661.853478,1608.800546
19845.327050,2294.638420,-6809.894666,2374.896044
19845.327384,4071.132681,-8290.306550,1149.143247
19845.327717,1184.329507,-5995.668130,0.000000
19845.328050,1258.350101,-12435.459826,-2681.334243
19845.328383,-1258.350101,-13027.624579,-7431.126331
19845.328717,-3034.844362,-13915.871710,-5286.058936
19845.329050,-1332.370696,-11917.315666,-4213.525239
19845.329383,-1480.411884,-12731.542202,-1762.019645
19845.329716,0.000000,-10066.800811,2834.553343
19845.330050,0.000000,-7179.997637,4903.011187
19845.330383,962.267725,-4219.173869,5515.887586
19845.330716,4071.132681,-7105.977043,9499.584175
19845.331049,4663.297435,-5921.647536,5745.716235
19845.331383,2368.659014,-5995.668130,6052.154434
19845.331716,1702.473667,-8290.306550,2987.772442
19845.332049,666.185348,-9474.636058,-612.876398
19845.332382,-2294.638420,-9844.739029,-5286.058936
19845.332716,-2738.761985,-11029.068536,-7890.783629
19845.333049,-3552.988522,-11029.068536,-7354.516781
19845.333382,-3034.844362,-12213.398043,-6894.859482
19845.333715,-2220.617826,-11547.212695,-4366.744339
19845.334049,592.164754,-10732.986159,229.828649
19845.334382,4219.173869,-7994.224174,4903.011187
19845.334715,3849.070898,-7179.997637,7354.516781
19845.335048,4959.379811,-5995.668130,4596.572988
19845.335382,2960.823768,-6587.832884,7507.735880
19845.335715,1702.473667,-8364.327145,2987.772442
19845.336048,814.226536,-9474.636058,2987.772442
19845.336381,-4441.235652,-9548.656652,-1072.533697
19845.336715,-5329.482782,-9326.594869,-4903.011187
19845.337048,-5403.503377,-10214.842000,-4749.792088
19845.337381,-3627.009116,-8586.388927,-4213.525239
19845.337714,0.000000,-8512.368333,-1225.752797
19845.338048,1110.308913,-4811.338623,0.000000
19845.338381,2738.761985,-5403.503377,1225.752797
19845.338714,4663.297435,-9474.636058,2374.896044
19845.339047,3478.967927,-7994.224174,-383.047749
19845.339381,3108.864956,-10955.047942,2068.457845
19845.339714,1480.411884,-11473.192101,612.876398
19845.340047,-666.185348,-11843.295072,-1455.581446
19845.340380,-2368.659014,-11769.274478,-1608.800546
19845.340714,-2442.679609,-11843.295072,-383.047749
19845.341047,-3182.885551,-7772.162391,0.000000
19845.341380,-1554.432478,-9474.636058,0.000000
19845.341713,-74.020594,-8882.471304,3600.648841
19845.342047,0.000000,-3627.009116,2451.505594
19845.342380,2590.720797,-5921.647536,4673.182538
19845.342713,3330.926739,-4737.318029,2604.724693
19845.343046,3478.967927,-6809.894666,1149.143247
19845.343380,1776.494261,-8068.244768,-1838.629195
19845.343713,0.000000,-10658.965565,-4673.182538
19845.344046,-5921.647536,-11917.315666,-5515.887586
19845.344379,-3034.844362,-15396.283594,-7431.126331
19845.344713,-4589.276840,-11399.171507,-6205.373534
19845.345046,0.000000,-10732.986159,0.000000
19845.345379,-74.020594,-9474.636058,1225.752797
19845.345712,1036.288319,-6809.894666,4596.572988
19845.346046,1628.453072,-7179.997637,6971.469032
19845.346379,2664.741391,-6217.729913,8273.831378
19845.346712,2442.679609,-5625.565159,6052.154434
19845.347045,1406.391290,-7328.038826,4213.525239
19845.347379,1628.453072,-6735.874072,1225.752797
19845.347712,666.185348,-9104.533087,0.000000
19845.348045,1776.494261,-9622.677246,-1378.971896
19845.348378,-74.020594,-11251.130318,-6205.373534
19845.348711,-2368.659014,-11029.068536,-6741.640382
19845.349045,-2368.659014,-11325.150913,-3677.258390
19845.349378,-814.226536,-13027.624579,-4366.744339
19845.349711,0.000000,-10140.821405,-3677.258390
19845.350044,2294.638420,-10658.965565,2298.286494
19845.350378,3404.947333,-8068.244768,5209.449386
19845.350711,2368.659014,-7254.018232,6665.030833
19845.351044,3478.967927,-7994.224174,6358.592633
19845.351377,2664.741391,-9474.636058,6665.030833
19845.351711,0.000000,-5995.668130,4903.011187
19845.352044,2812.782580,-7698.141797,3600.648841
19845.352377,-1258.350101,-8216.285956,-1838.629195
19845.352710,-222.061783,-9992.780217,-2528.115143
19845.353044,-1850.514855,-10214.842000,-4979.620737
19845.353377,-1628.453072,-10436.903782,-4826.401637
19845.353710,-666.185348,-9770.718434,-5362.668486
19845.354043,-1628.453072,-9548.656652,-3907.087040
19845.354377,2294.638420,-10658.965565,-76.609550
