#time,accel_x,accel_y,accel_z
19957.402205,7920.203579,-7476.080014,1225.752797
19957.402539,7920.203579,-10066.800811,-689.485948
19957.402873,4589.276840,-9622.677246,-3217.601092
19957.403207,3552.988522,-9992.780217,-3753.867940
19957.403541,5033.400406,-10066.800811,-4060.306139
19957.403875,4737.318029,-8512.368333,-3447.429741
19957.404209,6291.750507,-6587.832884,0.000000
19957.404543,12953.603985,-10658.965565,3600.648841
19957.404877,12953.603985,-8882.471304,4213.525239
19957.405211,11843.295072,-8364.327145,5515.887586
19957.405545,14730.098246,-7994.224174,3294.210641
19957.405879,12953.603985,-9178.553681,2528.115143
19957.406212,11325.150913,-10214.842000,689.485948
19957.406546,6217.729913,-12139.377449,-3217.601092
19957.406880,592.164754,-13101.645173,-5515.887586
19957.407214,-2072.576638,-14211.954086,-3677.258390
19957.407548,-74.020594,-13027.624579,-3753.867940
19957.407882,-1258.350101,-8068.244768,-1225.752797
19957.408216,592.164754,-5995.668130,5822.325785
19957.408550,5551.544565,-5329.482782,7354.516781
19957.408884,7846.182985,-4589.276840,9882.631924
19957.409218,9400.615463,-5107.421000,7890.783629
19957.409552,8364.327145,-6587.832884,4903.011187
19957.409886,6217.729913,-7328.038826,612.876398
19957.410220,3256.906145,-9918.759623,-4366.744339
19957.410554,0.000000,-12213.398043,-8886.707777
19957.410888,-2442.679609,-14063.912898,-9882.631924
19957.411221,-3627.009116,-15396.283594,-8044.002729
19957.411555,-3330.926739,-13841.851115,-3753.867940
19957.411889,-3182.885551,-9548.656652,-3677.258390
19957.412223,74.020594,-8808.450710,2451.505594
19957.412557,5033.400406,-7402.059420,9116.536426
19957.412891,8808.450710,-4145.153275,12180.918418
19957.413225,9178.553681,-4145.153275,11721.261119
19957.413559,7550.100608,-6143.709319,8350.440928
19957.413893,7920.203579,-5847.626942,3370.820191
19957.414227,4737.318029,-7254.018232,-1302.362347
19957.414561,2368.659014,-10584.944971,-5592.497135
19957.414895,-5921.647536,-11325.150913,-11031.775171
19957.415229,-5033.400406,-15766.386565,-10495.508323
19957.415563,-3034.844362,-16284.530724,-6818.249932
19957.415897,-5403.503377,-14063.912898,-5056.230287
19957.416230,-3923.091493,-13027.624579,-689.485948
19957.416564,-1332.370696,-9474.636058,5592.497135
19957.416898,4737.318029,-4219.173869,10878.556072
19957.417232,8734.430116,-1184.329507,13483.280765
19957.417566,10584.944971,-2368.659014,12180.918418
19957.417900,10658.965565,-3330.926739,10418.898773
19957.418234,10288.862594,-6365.771101,2374.896044
19957.418568,7550.100608,-5995.668130,-4903.011187
19957.418902,2368.659014,-10732.986159,-8273.831378
19957.419236,-666.185348,-14137.933492,-14096.157163
19957.419570,-2072.576638,-16580.613101,-12640.575717
19957.419904,-1258.350101,-17024.736666,-8963.317327
19957.420238,-222.061783,-15544.324782,-4060.306139
19957.420572,814.226536,-11917.315666,842.705048
19957.420905,5477.523971,-11843.295072,9116.536426
19957.421239,6439.791695,-8290.306550,11568.042020
19957.421573,5477.523971,-1258.350101,12257.527968
19957.421907,10140.821405,-2368.659014,14019.547613
19957.422241,6809.894666,-1850.514855,8273.831378
19957.422575,6513.812290,-3478.967927,2298.286494
19957.422909,3478.967927,-4811.338623,-4443.353888
19957.423243,1776.494261,-9474.636058,-7507.735880
19957.423577,0.000000,-11325.150913,-9806.022374
19957.423911,-74.020594,-16580.613101,-10495.508323
19957.424245,-1850.514855,-15470.304188,-11031.775171
19957.424579,-2812.782580,-16062.468941,-5822.325785
19957.424913,1850.514855,-17172.777854,1762.019645
19957.425247,592.164754,-13693.809927,4519.963438
19957.425581,1850.514855,-11621.233289,8733.488677
19957.425914,444.123565,-7254.018232,10648.727422
19957.426248,-370.102971,-4737.318029,10112.460574
19957.426582,-3404.947333,-1554.432478,8273.831378
19957.426916,-1776.494261,-1702.473667,6665.030833
19957.427250,-1554.432478,-962.267725,2834.553343
19957.427584,-2664.741391,-3330.926739,-919.314598
19957.427918,-1258.350101,-6809.894666,-4060.306139
19957.428252,-2442.679609,-10288.862594,-7354.516781
19957.428586,-2812.782580,-13915.871710,-5209.449386
19957.428920,-1554.432478,-15396.283594,-8963.317327
19957.429254,-4293.194464,-16210.510130,-8427.050478
19957.429588,-2294.638420,-17912.983796,-1302.362347
19957.429922,-3701.029710,-13693.809927,153.219100
19957.430256,-2368.659014,-10807.006753,4366.744339
19957.430589,-1924.535449,-7179.997637,7431.126331
19957.430923,-3330.926739,-2442.679609,7354.516781
19957.431257,-1258.350101,1554.432478,6128.763984
19957.431591,2294.638420,-3552.988522,8503.660028
19957.431925,4663.297435,-2960.823768,7277.907231
19957.432259,2294.638420,-3627.009116,1378.971896
19957.432593,3923.091493,-8882.471304,-383.047749
19957.432927,2516.700203,-10288.862594,-4366.744339
19957.433261,1628.453072,-14656.077652,-8044.002729
19957.433595,444.123565,-16580.613101,-9729.412825
19957.433929,-3552.988522,-17838.963202,-8580.269578
19957.434263,-2738.761985,-15470.304188,-8580.269578
19957.434597,-962.267725,-15988.448347,-689.485948
19957.434931,-666.185348,-10362.883188,1915.238745
19957.435265,0.000000,-5995.668130,7967.393179
19957.435598,1480.411884,-4219.173869,7967.393179
19957.435932,2516.700203,-2220.617826,8963.317327
19957.436266,3701.029710,-1628.453072,7967.393179
19957.436600,5773.606348,-3034.844362,8044.002729
19957.436934,6439.791695,-4737.318029,4213.525239
19957.437268,3552.988522,-6883.915261,-612.876398
19957.437602,7031.956449,-10955.047942,-2528.115143
19957.437936,2886.803174,-11917.315666,-8886.707777
19957.438270,2368.659014,-14285.974681,-9806.022374
19957.438604,1628.453072,-17394.839637,-7967.393179
19957.438938,-1850.514855,-17024.736666,-8810.098227
19957.439272,-2738.761985,-15396.283594,-3753.867940
19957.439606,-888.247130,-11325.150913,766.095498
19957.439940,-1258.350101,-8290.306550,3294.210641
19957.440274,1924.535449,-8290.306550,9729.412825
19957.440607,2738.761985,-2146.597232,9806.022374
19957.440941,3256.906145,-666.185348,12870.404366
19957.441275,8216.285956,-3552.988522,11568.042020
19957.441609,6957.935855,-3182.885551,5209.449386
19957.441943,5403.503377,-4515.256246,-612.876398
19957.442277,2146.597232,-9918.759623,-4519.963438
19957.442611,-296.082377,-12213.398043,-9652.803275
19957.442945,-5847.626942,-14656.077652,-14862.252661
19957.443279,-7402.059420,-18061.024985,-14479.204912
19957.443613,-8142.265362,-17542.880825,-10265.679673
19957.443947,-5329.482782,-15322.262999,-4060.306139
19957.444281,-3404.947333,-11621.233289,1685.410096
19957.444615,-1258.350101,-7698.141797,7277.907231
19957.444949,0.000000,-4811.338623,12257.527968
19957.445282,3478.967927,-4737.318029,15858.176809
19957.445616,2516.700203,-222.061783,12410.747068
19957.445950,0.000000,-2442.679609,9193.145976
19957.446284,1702.473667,-1184.329507,2374.896044
19957.446618,-222.061783,-5625.565159,-1608.800546
19957.446952,-2368.659014,-8216.285956,-7354.516781
19957.447286,-4071.132681,-12583.501014,-10495.508323
19957.447620,-6365.771101,-13101.645173,-13483.280765
19957.447954,-5329.482782,-17024.736666,-9882.631924
19957.448288,-3627.009116,-18949.272115,-7431.126331
19957.448622,-2442.679609,-14285.974681,-3524.039291
19957.448956,1924.535449,-15396.283594,6665.030833
19957.449290,1258.350101,-6587.832884,7660.954980
19957.449624,4071.132681,-5921.647536,12334.137518
19957.449958,3404.947333,-4589.276840,13330.061665
19957.450291,4219.173869,-1702.473667,10189.070123
19957.450625,2368.659014,-3034.844362,7660.954980
19957.450959,4145.153275,-4145.153275,4826.401637
19957.451293,1110.308913,-3923.091493,-3370.820191
19957.451627,0.000000,-5995.668130,-7354.516781
19957.451961,814.226536,-12435.459826,-9882.631924
19957.452295,0.000000,-13397.727550,-9806.022374
19957.452629,0.000000,-16062.468941,-9806.022374
19957.452962,-222.061783,-17987.004391,-6435.202183
19957.453296,962.267725,-16210.510130,-2374.896044
19957.453629,4071.132681,-13323.706956,4826.401637
19957.453962,6439.791695,-11843.295072,8503.660028
19957.454296,3330.926739,-4811.338623,8886.707777
19957.454629,2960.823768,-3701.029710,10035.851024
19957.454962,0.000000,-3627.009116,9422.974625
19957.455296,1480.411884,-4737.318029,6665.030833
19957.455629,0.000000,-666.185348,0.000000
19957.455962,-1036.288319,-6439.791695,-689.485948
19957.456296,-592.164754,-8734.430116,-4596.572988
19957.456629,1702.473667,-10066.800811,-4979.620737
19957.456962,1554.432478,-12213.398043,-5669.106685
19957.457296,2294.638420,-14804.118840,-5286.058936
19957.457629,222.061783,-15322.262999,-3907.087040
19957.457962,-2368.659014,-14285.974681,-2451.505594
19957.458296,-962.267725,-10732.986159,0.000000
19957.458629,-666.185348,-11843.295072,3600.648841
19957.458962,-1258.350101,-9474.636058,4826.401637
19957.459296,-2146.597232,-4219.173869,4443.353888
19957.459629,-2886.803174,-3923.091493,5286.058936
19957.459962,-2368.659014,-3923.091493,5515.887586
19957.460296,1628.453072,-4145.153275,5898.935335
19957.460629,3108.864956,-3627.009116,4903.011187
19957.460962,3849.070898,-6661.853478,3370.820191
19957.461296,3478.967927,-7550.100608,-4903.011187
19957.461629,5847.626942,-13027.624579,-4979.620737
19957.461962,-370.102971,-14285.974681,-7814.174080
19957.462296,-3552.988522,-14285.974681,-7967.393179
19957.462629,-4737.318029,-16728.654289,-7967.393179
19957.462962,-3923.091493,-15396.283594,-4979.620737
19957.463296,-4071.132681,-10214.842000,306.438199
19957.463629,-1924.535449,-7698.141797,3830.477490
19957.463962,-1036.288319,-6513.812290,7277.907231
19957.464296,-3552.988522,-3627.009116,9193.145976
19957.464629,1110.308913,-4737.318029,7277.907231
19957.464962,1776.494261,-2442.679609,9806.022374
19957.465296,4145.153275,-5551.544565,9269.755526
19957.465629,4663.297435,-6513.812290,2987.772442
19957.465962,4515.256246,-7994.224174,-1685.410096
19957.466296,2442.679609,-10807.006753,-4673.182538
19957.466629,1776.494261,-12213.398043,-7737.564530
19957.466962,-1850.514855,-15470.304188,-10112.460574
19957.467296,-2442.679609,-18505.148550,-8963.317327
19957.467629,-5255.462188,-14285.974681,-7354.516781
19957.467962,-4737.318029,-11917.315666,-1838.629195
19957.468296,-74.020594,-11843.295072,2681.334243
19957.468629,0.000000,-5107.421000,6741.640382
19957.468962,3478.967927,-5921.647536,11184.994271
19957.469296,5255.462188,-2960.823768,13789.718964
19957.469629,4293.194464,-3552.988522,11568.042020
19957.469962,4515.256246,-2886.803174,7201.297681
19957.470296,4663.297435,-3256.906145,1455.581446
19957.470629,1184.329507,-4811.338623,-2145.067394
19957.470963,1998.556043,-10362.883188,-4979.620737
19957.471296,-74.020594,-13619.789333,-11721.261119
19957.471629,-5921.647536,-13397.727550,-14709.033562
19957.471963,-4515.256246,-17172.777854,-12487.356617
19957.472296,-4589.276840,-17987.004391,-7201.297681
19957.472629,-3404.947333,-15322.262999,-1915.238745
19957.472963,370.102971,-10584.944971,4826.401637
19957.473296,4367.215058,-7698.141797,10189.070123
19957.473629,4811.338623,-4811.338623,14172.766713
19957.473963,3775.050304,-3923.091493,13636.499864
19957.474296,2812.782580,-2738.761985,10418.898773
19957.474629,1184.329507,-2442.679609,6741.640382
19957.474963,1702.473667,-3997.112087,536.266849
19957.475296,-2960.823768,-5107.421000,-6128.763984
19957.475629,-2664.741391,-11177.109724,-7431.126331
19957.475963,-3034.844362,-12435.459826,-11108.384721
19957.476296,-3923.091493,-12509.480420,-11644.651570
19957.476629,-3256.906145,-16580.613101,-8580.269578
19957.476963,-3256.906145,-16580.613101,-5439.278036
19957.477296,-962.267725,-14211.954086,-229.828649
19957.477629,2886.803174,-11843.295072,5439.278036
19957.477963,4367.215058,-8882.471304,9116.536426
19957.478296,1480.411884,-5403.503377,12257.527968
19957.478629,1184.329507,-4367.215058,13406.671215
19957.478963,1702.473667,-3552.988522,7584.345430
19957.479296,0.000000,-2442.679609,6128.763984
19957.479629,1110.308913,-3034.844362,229.828649
19957.479963,814.226536,-5403.503377,-3140.991542
19957.480296,1036.288319,-9104.533087,-5362.668486
19957.480629,1110.308913,-11843.295072,-7431.126331
19957.480963,1406.391290,-14211.954086,-8656.879127
19957.481296,-2368.659014,-17246.798449,-6128.763984
19957.481629,518.144159,-17616.901420,-3753.867940
19957.481963,1110.308913,-15988.448347,-1608.800546
19957.482296,1702.473667,-11843.295072,4519.963438
19957.482629,1110.308913,-7698.141797,5592.497135
19957.482963,814.226536,-6143.709319,7967.393179
19957.483296,148.041188,-4367.215058,8197.221829
19957.483629,0.000000,-3775.050304,6205.373534
19957.483963,-1258.350101,-3775.050304,2604.724693
19957.484296,0.000000,-2738.761985,3983.696590
19957.484629,4071.132681,-5921.647536,-383.047749
19957.484963,1480.411884,-7179.997637,-3370.820191
19957.485296,2664.741391,-9622.677246,-4979.620737
19957.485629,3404.947333,-13101.645173,-5209.449386
19957.485963,1924.535449,-15174.221811,-6128.763984
19957.486296,296.082377,-15692.365970,-5669.106685
19957.486629,-444.123565,-16580.613101,-2604.724693
19957.486963,-4737.318029,-11917.315666,-2145.067394
19957.487296,-1850.514855,-9474.636058,1762.019645
19957.487629,-74.020594,-5921.647536,1838.629195
19957.487963,-2368.659014,-6143.709319,7431.126331
19957.488296,-2072.576638,-2886.803174,6665.030833
19957.488629,518.144159,-3701.029710,6818.249932
19957.488963,3627.009116,-3034.844362,8197.221829
19957.489296,3404.947333,-4663.297435,5439.278036
19957.489629,5847.626942,-7994.224174,-76.609550
19957.489963,3849.070898,-8660.409521,-3217.601092
19957.490296,1332.370696,-12657.521608,-6741.640382
19957.490629,-740.205942,-14508.036463,-10112.460574
19957.490963,-4219.173869,-16876.695478,-12180.918418
19957.491296,-4959.379811,-18357.107362,-8886.707777
19957.491629,-7105.977043,-13101.645173,-4903.011187
19957.491963,-2220.617826,-12435.459826,2374.896044
19957.492296,-1998.556043,-6291.750507,4903.011187
19957.492629,-1110.308913,-2664.741391,9806.022374
19957.492963,3108.864956,-4441.235652,12487.356617
19957.493296,4145.153275,-2960.823768,13023.623466
19957.493629,4515.256246,-4737.318029,10035.851024
19957.493963,2368.659014,-4219.173869,4596.572988
19957.494296,2886.803174,-5625.565159,-1302.362347
19957.494629,0.000000,-7179.997637,-4596.572988
19957.494963,0.000000,-10732.986159,-7354.516781
19957.495296,-1258.350101,-14211.954086,-12334.137518
19957.495629,-7105.977043,-15470.304188,-11644.651570
19957.495963,-3923.091493,-16580.613101,-9806.022374
19957.496296,-2146.597232,-15692.365970,-4136.915689
19957.496629,-666.185348,-13619.789333,842.705048
19957.496963,592.164754,-8956.491898,7124.688131
19957.497296,2664.741391,-4811.338623,9806.022374
19957.497629,2368.659014,-3627.009116,15015.471761
19957.497963,6439.791695,-3552.988522,12027.699319
19957.498296,4663.297435,-2146.597232,7048.078582
19957.498629,3256.906145,-3330.926739,5898.935335
19957.498963,2442.679609,-3923.091493,-1455.581446
19957.499296,1110.308913,-8290.306550,-5898.935335
19957.499629,-74.020594,-11843.295072,-10189.070123
19957.499963,-3034.844362,-15100.201217,-11797.870669
19957.500296,-4589.276840,-16210.510130,-12257.527968
19957.500629,-2442.679609,-20133.601622,-6818.249932
19957.500963,-2442.679609,-15914.427753,-4596.572988
19957.501296,0.000000,-11325.150913,2451.505594
19957.501629,5255.462188,-10658.965565,9729.412825
19957.501963,3849.070898,-4811.338623,13483.280765
19957.502296,2960.823768,-3701.029710,13176.842566
19957.502629,2590.720797,-2960.823768,10035.851024
19957.502963,1628.453072,-3552.988522,6281.983084
19957.503296,2294.638420,-4145.153275,3983.696590
19957.503629,-74.020594,-6217.729913,-2451.505594
19957.503963,-1554.432478,-8290.306550,-7507.735880
19957.504296,-962.267725,-11843.295072,-9269.755526
19957.504629,-1776.494261,-12213.398043,-10418.898773
19957.504963,-1184.329507,-14285.974681,-7354.516781
19957.505296,-444.123565,-17172.777854,-3907.087040
19957.505630,-74.020594,-16580.613101,-689.485948
19957.505963,-1184.329507,-10732.986159,2451.505594
19957.506296,1998.556043,-8290.306550,6052.154434
19957.506630,0.000000,-5551.544565,7660.954980
19957.506963,0.000000,-4515.256246,7660.954980
19957.507296,-1924.535449,-3627.009116,6205.373534
19957.507630,-2368.659014,-3627.009116,4903.011187
19957.507963,-74.020594,-3108.864956,0.000000
19957.508296,3478.967927,-5921.647536,-1302.362347
19957.508630,0.000000,-6291.750507,-2451.505594
19957.508963,2368.659014,-10436.903782,-2911.162892
19957.509296,2072.576638,-11917.315666,-7048.078582
19957.509630,1480.411884,-15174.221811,-5362.668486
19957.509963,148.041188,-16358.551318,-5209.449386
19957.510296,-1480.411884,-15470.304188,-3677.258390
19957.510630,-74.020594,-15396.283594,-689.485948
19957.510963,-2368.659014,-8364.327145,1225.752797
19957.511296,-666.185348,-7105.977043,3600.648841
19957.511630,-2368.659014,-3923.091493,7354.516781
19957.511963,-222.061783,-4737.318029,8503.660028
19957.512296,-74.020594,-4145.153275,6052.154434
19957.512630,592.164754,-5773.606348,6358.592633
19957.512963,3034.844362,-4663.297435,4443.353888
19957.513296,2368.659014,-5995.668130,536.266849
19957.513630,2368.659014,-9178.553681,-3217.601092
19957.513963,3552.988522,-10732.986159,-2681.334243
19957.514296,1998.556043,-12657.521608,-7354.516781
19957.514630,0.000000,-12213.398043,-7354.516781
19957.514963,-1554.432478,-17172.777854,-6818.249932
19957.515296,-3627.009116,-14804.118840,-6358.592633
19957.515630,-3923.091493,-12139.377449,-2528.115143
19957.515963,-2368.659014,-9696.697840,1455.581446
19957.516296,-1110.308913,-7105.977043,5822.325785
19957.516630,-444.123565,-5255.462188,8810.098227
19957.516963,3478.967927,-5921.647536,11568.042020
19957.517296,2664.741391,-1850.514855,12257.527968
19957.517630,5847.626942,-5329.482782,11568.042020
19957.517963,6439.791695,-4145.153275,1762.019645
19957.518296,3330.926739,-6513.812290,-1915.238745
19957.518630,2442.679609,-10658.965565,-5898.935335
19957.518963,-666.185348,-13175.665768,-10112.460574
19957.519296,-5329.482782,-15174.221811,-13176.842566
19957.519630,-7402.059420,-16950.716072,-12793.794817
19957.519963,-3923.091493,-16580.613101,-7431.126331
19957.520296,-3478.967927,-13619.789333,-1378.971896
19957.520630,-1332.370696,-9326.594869,3830.477490
19957.520963,1036.288319,-5995.668130,9193.145976
19957.521296,1480.411884,-3034.844362,11031.775171
19957.521630,4959.379811,-4737.318029,14325.985813
19957.521963,4663.297435,-5921.647536,10955.165621
19957.522296,1776.494261,-1850.514855,7354.516781
19957.522630,2516.700203,-5033.400406,2374.896044
19957.522963,2294.638420,-6217.729913,-4443.353888
19957.523296,-370.102971,-9548.656652,-7890.783629
19957.523630,-1258.350101,-12435.459826,-12180.918418
19957.523963,-3182.885551,-15322.262999,-11951.089769
19957.524296,-3552.988522,-16358.551318,-9652.803275
19957.524630,-3552.988522,-17394.839637,-5286.058936
19957.524963,-2442.679609,-13101.645173,-2451.505594
19957.525296,0.000000,-9548.656652,5515.887586
19957.525630,4589.276840,-9326.594869,10801.946522
19957.525963,3552.988522,-3627.009116,12257.527968
19957.526296,3182.885551,-4737.318029,12640.575717
19957.526630,4663.297435,-2368.659014,8810.098227
19957.526963,2812.782580,-3256.906145,6971.469032
19957.527296,2886.803174,-3849.070898,3600.648841
19957.527630,1184.329507,-6513.812290,-3140.991542
19957.527963,-2960.823768,-7179.997637,-7354.516781
19957.528296,-2368.659014,-12213.398043,-9806.022374
19957.528630,-3256.906145,-16580.613101,-10495.508323
19957.528963,-3552.988522,-16358.551318,-9499.584175
19957.529296,-2886.803174,-16654.633695,-6128.763984
19957.529630,0.000000,-14804.118840,-689.485948
19957.529963,3108.864956,-9548.656652,6435.202183
19957.530296,3997.112087,-6439.791695,9806.022374
19957.530630,5255.462188,-4737.318029,10342.289223
19957.530963,1184.329507,-2442.679609,10418.898773
19957.531296,1406.391290,-5773.606348,7277.907231
19957.531630,-666.185348,-4737.318029,2374.896044
19957.531963,-1776.494261,-2738.761985,-1455.581446
19957.532296,-74.020594,-7698.141797,-1915.238745
19957.532630,0.000000,-9178.553681,-4903.011187
19957.532963,1258.350101,-10436.903782,-5745.716235
19957.533296,2072.576638,-14804.118840,-4979.620737
19957.533630,-1776.494261,-14285.974681,-5515.887586
19957.533963,-74.020594,-15840.407159,-4979.620737
19957.534296,-74.020594,-13471.748144,-3370.820191
19957.534630,740.205942,-11843.295072,2987.772442
19957.534963,-74.020594,-7402.059420,3600.648841
19957.535296,-1184.329507,-7772.162391,7048.078582
19957.535630,-1480.411884,-4959.379811,6052.154434
19957.535963,-2368.659014,-5699.585753,5669.106685
19957.536296,-740.205942,-4441.235652,5056.230287
19957.536630,1776.494261,-4515.256246,5592.497135
19957.536963,4219.173869,-4589.276840,3830.477490
19957.537296,4145.153275,-6587.832884,536.266849
19957.537630,4071.132681,-9548.656652,-4136.915689
19957.537963,4737.318029,-12213.398043,-4903.011187
19957.538296,74.020594,-13915.871710,-8656.879127
19957.538630,-2960.823768,-15766.386565,-7048.078582
19957.538963,-3627.009116,-15988.448347,-7431.126331
19957.539296,-4811.338623,-13027.624579,-5592.497135
19957.539630,-2960.823768,-10066.800811,2374.896044
19957.539963,74.020594,-7698.141797,6128.763984
19957.540297,-444.123565,-5921.647536,8427.050478
19957.540630,-1702.473667,-3923.091493,8810.098227
19957.540963,2294.638420,-5921.647536,9729.412825
19957.541297,1776.494261,-2442.679609,9193.145976
19957.541630,2368.659014,-3627.009116,7660.954980
19957.541963,5551.544565,-7105.977043,76.609550
19957.542297,1184.329507,-7179.997637,-3677.258390
19957.542630,3478.967927,-13027.624579,-5592.497135
19957.542963,0.000000,-14137.933492,-8886.707777
19957.543297,-3404.947333,-15544.324782,-10648.727422
19957.543630,-5181.441594,-16580.613101,-9576.193725
19957.543963,-4219.173869,-14211.954086,-5592.497135
19957.544297,-4737.318029,-11029.068536,1225.752797
19957.544630,-370.102971,-9474.636058,4826.401637
19957.544963,1110.308913,-4515.256246,7967.393179
19957.545297,2960.823768,-5551.544565,15475.129060
19957.545630,4663.297435,-2294.638420,11414.822920
19957.545963,4663.297435,-3849.070898,11108.384721
19957.546297,3849.070898,-2886.803174,5745.716235
19957.546630,3108.864956,-4515.256246,612.876398
19957.546963,1776.494261,-6587.832884,-4903.011187
19957.547297,1184.329507,-13101.645173,-5592.497135
19957.547630,-3034.844362,-14211.954086,-14402.595362
19957.547963,-7105.977043,-15470.304188,-15934.786358
19957.548297,-7105.977043,-17987.004391,-9193.145976
19957.548630,-4515.256246,-14878.139434,-6741.640382
19957.548963,-2146.597232,-12139.377449,1532.190996
19957.549297,2516.700203,-8068.244768,9116.536426
19957.549630,4737.318029,-4811.338623,14325.985813
19957.549963,4885.359217,-3034.844362,14402.595362
19957.550297,4663.297435,-2812.782580,11644.651570
19957.550630,3330.926739,-3849.070898,8963.317327
19957.550963,2516.700203,-3034.844362,3294.210641
19957.551297,2294.638420,-7105.977043,-766.095498
19957.551630,-74.020594,-8586.388927,-8656.879127
19957.551963,-4145.153275,-11325.150913,-10112.460574
19957.552297,-592.164754,-15026.180623,-8350.440928
19957.552630,-666.185348,-15692.365970,-9806.022374
19957.552963,-1406.391290,-17172.777854,-5822.325785
19957.553296,-666.185348,-15100.201217,-2834.553343
19957.553630,1036.288319,-11917.315666,2528.115143
19957.553963,3701.029710,-8364.327145,7737.564530
19957.554296,3478.967927,-4737.318029,9729.412825
19957.554630,4145.153275,-4811.338623,9193.145976
19957.554963,1184.329507,-3775.050304,11721.261119
19957.555296,0.000000,-3627.009116,7967.393179
19957.555629,2294.638420,-4145.153275,1608.800546
19957.555963,-666.185348,-4145.153275,-2757.943793
19957.556296,0.000000,-7772.162391,-3140.991542
19957.556629,1110.308913,-11251.130318,-8044.002729
19957.556962,222.061783,-13471.748144,-7967.393179
19957.557296,-2072.576638,-16654.633695,-7967.393179
19957.557629,-1258.350101,-16580.613101,-8197.221829
19957.557962,-2368.659014,-15766.386565,-1302.362347
19957.558295,1998.556043,-12435.459826,1685.410096
19957.558629,1776.494261,-7179.997637,4903.011187
19957.558962,1184.329507,-5403.503377,7660.954980
19957.559295,592.164754,-4811.338623,9422.974625
19957.559629,-370.102971,-4071.132681,7507.735880
19957.559962,-518.144159,-3923.091493,4519.963438
19957.560295,-74.020594,-6809.894666,2987.772442
19957.560628,-1184.329507,-3923.091493,0.000000
19957.560962,2294.638420,-7698.141797,-2528.115143
19957.561295,1702.473667,-9622.677246,-5515.887586
19957.561628,1776.494261,-11621.233289,-3907.087040
19957.561961,4663.297435,-15396.283594,-2528.115143
19957.562295,592.164754,-15248.242405,-4136.915689
19957.562628,0.000000,-13249.686362,-3907.087040
19957.562961,-2220.617826,-12657.521608,-2528.115143
19957.563294,-1998.556043,-10658.965565,-229.828649
19957.563628,-3552.988522,-7772.162391,5592.497135
19957.563961,-666.185348,-6217.729913,2681.334243
19957.564294,-3552.988522,-4811.338623,2757.943793
19957.564627,-2368.659014,-5107.421000,7277.907231
19957.564961,1998.556043,-7105.977043,7277.907231
19957.565294,3775.050304,-4589.276840,7124.688131
19957.565627,4367.215058,-5699.585753,4060.306139
19957.565961,4589.276840,-7994.224174,-459.657299
19957.566294,4885.359217,-10807.006753,-2681.334243
19957.566627,1776.494261,-13101.645173,-4979.620737
19957.566960,-740.205942,-15470.304188,-7584.345430
19957.567294,-3330.926739,-17172.777854,-9882.631924
19957.567627,-5033.400406,-15470.304188,-7201.297681
19957.567960,-4219.173869,-11843.295072,-3140.991542
19957.568293,-1776.494261,-9770.718434,3600.648841
19957.568627,-74.020594,-8882.471304,7890.783629
19957.568960,814.226536,-2738.761985,8120.612279
19957.569293,1924.535449,-4515.256246,12180.918418
19957.569626,5847.626942,-4737.318029,10955.165621
19957.569960,4145.153275,-5329.482782,7584.345430
19957.570293,2960.823768,-4663.297435,2528.115143
19957.570626,3330.926739,-6957.935855,-2757.943793
19957.570960,444.123565,-8660.409521,-6741.640382
19957.571293,0.000000,-11917.315666,-7048.078582
19957.571626,-1258.350101,-15396.283594,-11108.384721
19957.571959,-2442.679609,-16580.613101,-12180.918418
19957.572293,-4737.318029,-14878.139434,-7354.516781
19957.572626,-1850.514855,-13915.871710,-3217.601092
19957.572959,-1628.453072,-11103.089130,2221.676944
19957.573292,814.226536,-7994.224174,7584.345430
19957.573626,3034.844362,-4811.338623,12870.404366
19957.573959,3552.988522,-3627.009116,14709.033562
19957.574292,4737.318029,-3923.091493,16471.053207
19957.574625,4663.297435,-666.185348,6741.640382
19957.574959,3552.988522,-2442.679609,612.876398
19957.575292,2368.659014,-6365.771101,-1608.800546
19957.575625,-2294.638420,-8956.491898,-9193.145976
19957.575959,-3034.844362,-13323.706956,-13023.623466
19957.576292,-4737.318029,-16210.510130,-12793.794817
19957.576625,-4959.379811,-16580.613101,-11951.089769
19957.576958,-4219.173869,-17764.942608,-6818.249932
19957.577292,-1110.308913,-14804.118840,-76.609550
19957.577625,2886.803174,-9474.636058,5362.668486
19957.577958,2368.659014,-6143.709319,12410.747068
19957.578291,5921.647536,-5181.441594,15245.300410
19957.578625,4071.132681,-4219.173869,13406.671215
19957.578958,1184.329507,-2738.761985,7814.174080
19957.579291,1406.391290,-4441.235652,4213.525239
19957.579624,74.020594,-4663.297435,0.000000
19957.579958,-2072.576638,-5995.668130,-4903.011187
19957.580291,-666.185348,-9474.636058,-9422.974625
19957.580624,-888.247130,-12213.398043,-9806.022374
19957.580957,0.000000,-16136.489536,-6971.469032
19957.581291,-370.102971,-14582.057057,-8580.269578
19957.581624,-74.020594,-16062.468941,-2681.334243
19957.581957,888.247130,-13989.892304,0.000000
19957.582291,2590.720797,-10584.944971,4136.915689
19957.582624,2516.700203,-8290.306550,7431.126331
19957.582957,1184.329507,-5107.421000,8120.612279
19957.583290,1110.308913,-5181.441594,7890.783629
19957.583624,74.020594,-4589.276840,6281.983084
19957.583957,0.000000,-4737.318029,4443.353888
19957.584290,-888.247130,-3849.070898,1532.190996
19957.584623,444.123565,-4737.318029,-995.924147
19957.584957,3478.967927,-11251.130318,-2528.115143
19957.585290,0.000000,-9548.656652,-5822.325785
19957.585623,1406.391290,-13915.871710,-6128.763984
19957.585956,-1776.494261,-15766.386565,-6741.640382
19957.586290,-2812.782580,-14878.139434,-6128.763984
19957.586623,-2220.617826,-13989.892304,-2451.505594
19957.586956,-1332.370696,-11917.315666,1149.143247
19957.587290,962.267725,-7698.141797,3294.210641
19957.587623,-2368.659014,-5403.503377,4903.011187
19957.587956,1110.308913,-4737.318029,6511.811733
19957.588289,-1850.514855,-2738.761985,3677.258390
19957.588623,-444.123565,-5921.647536,6052.154434
19957.588956,2294.638420,-7994.224174,4826.401637
19957.589289,2368.659014,-5995.668130,4366.744339
19957.589622,3404.947333,-5995.668130,-612.876398
19957.589956,3923.091493,-10658.965565,-3140.991542
19957.590289,4737.318029,-11843.295072,-4673.182538
19957.590622,1924.535449,-14285.974681,-3983.696590
19957.590955,-74.020594,-14211.954086,-9193.145976
19957.591289,-4145.153275,-14285.974681,-9806.022374
19957.591622,-2738.761985,-15396.283594,-3140.991542
19957.591955,-3034.844362,-7846.182985,-2145.067394
19957.592288,-444.123565,-10066.800811,3600.648841
19957.592622,-814.226536,-6661.853478,6052.154434
19957.592955,-962.267725,-4959.379811,7507.735880
19957.593288,1036.288319,-4145.153275,8886.707777
19957.593622,4663.297435,-4737.318029,9729.412825
19957.593955,3330.926739,-1850.514855,4903.011187
19957.594288,4145.153275,-5551.544565,2681.334243
19957.594621,5847.626942,-10658.965565,-1302.362347
19957.594955,1406.391290,-8512.368333,-7354.516781
19957.595288,814.226536,-14804.118840,-8656.879127
19957.595621,-4737.318029,-15618.345376,-12487.356617
19957.595954,-6365.771101,-17616.901420,-10955.165621
19957.596288,-5847.626942,-15026.180623,-6818.249932
19957.596621,-2442.679609,-13619.789333,-76.609550
19957.596954,-2368.659014,-9400.615463,5132.839837
19957.597287,1702.473667,-4885.359217,9959.241474
19957.597621,3478.967927,-4441.235652,14096.157163
19957.597954,1776.494261,-2442.679609,12257.527968
19957.598287,2960.823768,-4663.297435,10955.165621
19957.598621,4071.132681,-1628.453072,3677.258390
19957.598954,1184.329507,-3627.009116,1225.752797
19957.599287,3034.844362,-7994.224174,-3370.820191
19957.599620,-1332.370696,-10807.006753,-8656.879127
19957.599954,-2664.741391,-14211.954086,-11568.042020
19957.600287,-4219.173869,-15396.283594,-12257.527968
19957.600620,-3627.009116,-17320.819043,-9422.974625
19957.600953,-1628.453072,-16284.530724,-3064.381992
19957.601287,-1332.370696,-13693.809927,4060.306139
19957.601620,2294.638420,-7550.100608,4903.011187
19957.601953,3701.029710,-5403.503377,11644.651570
19957.602286,5477.523971,-5033.400406,15858.176809
19957.602620,3849.070898,-2812.782580,11644.651570
19957.602953,3923.091493,-3404.947333,8044.002729
19957.603286,2812.782580,-2960.823768,3447.429741
19957.603620,1332.370696,-4293.194464,-1455.581446
19957.603953,-74.020594,-8290.306550,-6818.249932
19957.604286,-1776.494261,-12065.356855,-8044.002729
19957.604619,-3034.844362,-11917.315666,-12257.527968
19957.604953,-2960.823768,-16876.695478,-9959.241474
19957.605286,-2368.659014,-17616.901420,-7201.297681
19957.605619,-74.020594,-16284.530724,-2834.553343
19957.605952,518.144159,-12287.418637,2145.067394
19957.606286,4219.173869,-8290.306550,8427.050478
19957.606619,4145.153275,-6513.812290,12180.918418
19957.606952,2368.659014,-3034.844362,11031.775171
19957.607285,4071.132681,-4145.153275,9116.536426
19957.607619,0.000000,-4515.256246,4903.011187
19957.607952,1332.370696,-6513.812290,2987.772442
19957.608285,-74.020594,-5181.441594,-2911.162892
19957.608618,0.000000,-5995.668130,-4903.011187
19957.608952,296.082377,-10288.862594,-6128.763984
19957.609285,2072.576638,-12287.418637,-6358.592633
19957.609618,1776.494261,-14063.912898,-6818.249932
19957.609952,1184.329507,-16876.695478,-4749.792088
19957.610285,1702.473667,-12805.562797,-4903.011187
19957.610618,740.205942,-15026.180623,2374.896044
19957.610951,1406.391290,-9474.636058,2374.896044
19957.611285,0.000000,-7179.997637,7201.297681
19957.611618,-1480.411884,-5699.585753,6971.469032
19957.611951,-2072.576638,-3923.091493,7124.688131
19957.612284,-2220.617826,-3775.050304,5362.668486
19957.612618,-1924.535449,-3330.926739,4826.401637
19957.612951,148.041188,-5625.565159,3677.258390
19957.613284,1554.432478,-4811.338623,0.000000
19957.613617,1554.432478,-8068.244768,-2374.896044
19957.613951,1332.370696,-11399.171507,-4903.011187
19957.614284,962.267725,-14211.954086,-6128.763984
19957.614617,-3552.988522,-16062.468941,-6741.640382
19957.614951,-3034.844362,-15396.283594,-8580.269578
19957.615284,-4219.173869,-12805.562797,-6588.421283
19957.615617,-3478.967927,-12139.377449,-76.609550
19957.615950,-2590.720797,-8290.306550,2374.896044
19957.616284,-2368.659014,-5403.503377,7354.516781
19957.616617,-1850.514855,-4737.318029,7890.783629
19957.616950,-592.164754,-3330.926739,8733.488677
19957.617283,1110.308913,-4589.276840,8503.660028
19957.617617,4367.215058,-4737.318029,9116.536426
19957.617950,4663.297435,-4737.318029,1838.629195
19957.618283,4145.153275,-8142.265362,-2145.067394
19957.618616,4515.256246,-13027.624579,-3753.867940
19957.618950,1406.391290,-11917.315666,-7660.954980
19957.619283,0.000000,-15692.365970,-7431.126331
19957.619616,-3775.050304,-15470.304188,-9806.022374
19957.619949,-4441.235652,-14878.139434,-7354.516781
19957.620283,-3627.009116,-11769.274478,-3064.381992
19957.620616,-1258.350101,-10658.965565,-76.609550
19957.620949,-666.185348,-4811.338623,2451.505594
19957.621283,2664.741391,-5625.565159,10801.946522
19957.621616,5847.626942,-7105.977043,14019.547613
19957.621949,4663.297435,-2442.679609,10725.336972
19957.622282,7031.956449,-4737.318029,7890.783629
19957.622616,5181.441594,-3627.009116,3140.991542
19957.622949,4663.297435,-7031.956449,-2221.676944
19957.623282,3182.885551,-9548.656652,-5362.668486
19957.623615,0.000000,-11917.315666,-10725.336972
19957.623949,-2960.823768,-15470.304188,-12257.527968
19957.624282,-3182.885551,-18949.272115,-10495.508323
19957.624615,-3627.009116,-15692.365970,-8273.831378
19957.624948,-2886.803174,-12509.480420,-2451.505594
19957.625282,-74.020594,-11251.130318,2987.772442
19957.625615,2886.803174,-6735.874072,9806.022374
19957.625948,5477.523971,-3775.050304,14709.033562
19957.626282,4589.276840,-2442.679609,14249.376263
19957.626615,2664.741391,-2738.761985,9806.022374
19957.626948,2664.741391,-3627.009116,7124.688131
19957.627281,1036.288319,-4219.173869,1072.533697
19957.627615,0.000000,-6439.791695,-4290.134789
19957.627948,-814.226536,-11029.068536,-6818.249932
19957.628281,-1258.350101,-14211.954086,-9882.631924
19957.628614,-2442.679609,-14211.954086,-11874.480219
19957.628948,-3552.988522,-16654.633695,-9806.022374
19957.629281,-2960.823768,-16580.613101,-4979.620737
19957.629614,-1480.411884,-14359.995275,-153.219100
19957.629947,962.267725,-10658.965565,4519.963438
19957.630281,1184.329507,-6735.874072,8733.488677
19957.630614,2146.597232,-4959.379811,11184.994271
19957.630947,1702.473667,-3256.906145,10648.727422
19957.631281,0.000000,-2738.761985,10418.898773
19957.631614,0.000000,-1258.350101,5515.887586
19957.631947,444.123565,-5329.482782,2374.896044
19957.632280,-74.020594,-7105.977043,-3753.867940
19957.632614,-1850.514855,-8882.471304,-6971.469032
19957.632947,-74.020594,-12879.583391,-8810.098227
19957.633280,-1332.370696,-15248.242405,-8197.221829
19957.633613,-2960.823768,-16950.716072,-7737.564530
19957.633947,-2590.720797,-16506.592507,-5822.325785
19957.634280,-74.020594,-15396.283594,-76.609550
19957.634613,296.082377,-10732.986159,4903.011187
19957.634946,2960.823768,-8290.306550,8503.660028
19957.635280,962.267725,-3627.009116,7660.954980
19957.635613,0.000000,-3923.091493,8580.269578
19957.635946,-666.185348,-3256.906145,4903.011187
19957.636279,-666.185348,-4219.173869,3370.820191
19957.636613,-1110.308913,-4959.379811,1532.190996
19957.636946,518.144159,-7031.956449,-1302.362347
19957.637279,2442.679609,-6217.729913,-3753.867940
19957.637613,3552.988522,-13471.748144,-2528.115143
19957.637946,5255.462188,-14730.098246,-3140.991542
19957.638279,4071.132681,-13249.686362,-6741.640382
19957.638612,1184.329507,-16580.613101,-3677.258390
19957.638946,0.000000,-13693.809927,-4596.572988
19957.639279,-1924.535449,-12361.439231,-2068.457845
19957.639612,0.000000,-10066.800811,1608.800546
19957.639945,0.000000,-7179.997637,5209.449386
19957.640279,0.000000,-5995.668130,6128.763984
19957.640612,1998.556043,-7105.977043,7277.907231
19957.640945,222.061783,-2738.761985,5515.887586
19957.641278,592.164754,-3627.009116,6435.202183
19957.641612,4737.318029,-5847.626942,7354.516781
19957.641945,3849.070898,-4811.338623,1225.752797
19957.642278,2812.782580,-9252.574275,-3217.601092
19957.642612,1776.494261,-11325.150913,-5515.887586
19957.642945,-518.144159,-13989.892304,-7584.345430
19957.643278,-3108.864956,-13693.809927,-8580.269578
19957.643611,-5181.441594,-15766.386565,-8580.269578
19957.643945,-5329.482782,-13841.851115,-4673.182538
19957.644278,-3108.864956,-9400.615463,-383.047749
19957.644611,-370.102971,-9474.636058,4213.525239
19957.644944,-1184.329507,-4219.173869,7354.516781
19957.645278,1998.556043,-5329.482782,10955.165621
19957.645611,2294.638420,-1258.350101,8580.269578
19957.645944,2664.741391,-4367.215058,10265.679673
19957.646277,4145.153275,-5699.585753,6971.469032
19957.646611,3330.926739,-4959.379811,1149.143247
19957.646944,2442.679609,-9178.553681,-2834.553343
19957.647277,1554.432478,-11621.233289,-6205.373534
19957.647610,-2368.659014,-13323.706956,-10648.727422
19957.647944,-3627.009116,-13397.727550,-14555.814462
19957.648277,-5625.565159,-17468.860231,-8963.317327
19957.648610,-1850.514855,-15988.448347,-3753.867940
19957.648944,-2738.761985,-11621.233289,-1991.848295
19957.649277,-1554.432478,-9474.636058,4826.401637
19957.649610,518.144159,-6069.688724,9193.145976
19957.649943,3775.050304,-4367.215058,12870.404366
19957.650277,4663.297435,-3849.070898,12870.404366
19957.650610,3108.864956,-3034.844362,9806.022374
19957.650943,4515.256246,-1258.350101,3064.381992
19957.651276,4145.153275,-6365.771101,2987.772442
19957.651610,3478.967927,-7402.059420,-4979.620737
19957.651943,-74.020594,-10362.883188,-9806.022374
19957.652276,-3849.070898,-12805.562797,-13330.061665
19957.652609,-4219.173869,-16580.613101,-12027.699319
19957.652943,-4959.379811,-17098.757260,-10189.070123
19957.653276,-4515.256246,-15174.221811,-6128.763984
19957.653609,-74.020594,-13027.624579,2374.896044
19957.653942,0.000000,-7179.997637,8580.269578
19957.654275,4663.297435,-7105.977043,12180.918418
19957.654608,3182.885551,-1850.514855,12257.527968
19957.654941,3775.050304,-4441.235652,12563.966167
19957.655274,1406.391290,-4071.132681,8197.221829
19957.655607,1110.308913,-4737.318029,2374.896044
19957.655940,-1036.288319,-6217.729913,-2068.457845
19957.656273,-1036.288319,-7994.224174,-6128.763984
19957.656606,-1702.473667,-10955.047942,-8503.660028
19957.656939,-1184.329507,-13101.645173,-6281.983084
19957.657272,-666.185348,-14804.118840,-10418.898773
19957.657605,-2072.576638,-16358.551318,-6128.763984
19957.657938,1998.556043,-15988.448347,-4060.306139
19957.658272,2294.638420,-13915.871710,2681.334243
19957.658605,2664.741391,-9844.739029,7431.126331
19957.658938,3108.864956,-7179.997637,9422.974625
19957.659271,2294.638420,-5329.482782,9422.974625
19957.659604,1406.391290,-4737.318029,8810.098227
19957.659937,0.000000,-4515.256246,7431.126331
19957.660270,296.082377,-3627.009116,2757.943793
19957.660603,-814.226536,-5995.668130,-612.876398
19957.660936,370.102971,-7105.977043,-3983.696590
19957.661269,1110.308913,-10362.883188,-6818.249932
19957.661602,592.164754,-13101.645173,-4979.620737
19957.661935,3478.967927,-15988.448347,-5592.497135
19957.662268,-74.020594,-13989.892304,-7277.907231
19957.662601,-1776.494261,-14582.057057,-4136.915689
19957.662934,962.267725,-13027.624579,-1302.362347
19957.663267,0.000000,-10214.842000,3600.648841
19957.663601,814.226536,-6809.894666,5132.839837
19957.663934,296.082377,-5477.523971,6971.469032
19957.664267,-2368.659014,-4811.338623,4903.011187
19957.664600,-3552.988522,-4811.338623,6128.763984
19957.664933,-74.020594,-3997.112087,2528.115143
19957.665266,1110.308913,-3627.009116,2451.505594
19957.665599,2368.659014,-7846.182985,2374.896044
19957.665932,4071.132681,-6365.771101,-3600.648841
19957.666265,2146.597232,-11991.336260,-3370.820191
19957.666598,2812.782580,-11917.315666,-5362.668486
19957.666931,2072.576638,-14730.098246,-4673.182538
19957.667264,0.000000,-14878.139434,-6741.640382
19957.667597,-1184.329507,-14285.974681,-1915.238745
19957.667930,-3034.844362,-11621.233289,-3983.696590
19957.668263,0.000000,-8660.409521,2451.505594
19957.668596,-74.020594,-10510.924376,5439.278036
19957.668929,-2368.659014,-4811.338623,6435.202183
19957.669263,1406.391290,-4589.276840,7354.516781
19957.669596,1480.411884,-4589.276840,9039.926876
19957.669929,6217.729913,-2368.659014,8503.660028
19957.670262,6439.791695,-7698.141797,5745.716235
19957.670595,7105.977043,-5921.647536,1149.143247
19957.670928,4071.132681,-11251.130318,-4673.182538
19957.671261,296.082377,-11029.068536,-7277.907231
19957.671594,-1184.329507,-16284.530724,-8197.221829
19957.671927,-4219.173869,-17098.757260,-10801.946522
19957.672260,-6513.812290,-15544.324782,-8886.707777
19957.672593,-5033.400406,-13397.727550,-3830.477490
19957.672926,-1702.473667,-9474.636058,2681.334243
19957.673259,-2664.741391,-6291.750507,6894.859482
19957.673592,3182.885551,-4441.235652,9882.631924
19957.673925,2368.659014,-3627.009116,12870.404366
19957.674258,4367.215058,-6513.812290,12793.794817
19957.674592,2516.700203,-2738.761985,7354.516781
19957.674925,3478.967927,-4885.359217,5132.839837
19957.675258,296.082377,-6883.915261,-2374.896044
19957.675591,-1776.494261,-9548.656652,-7354.516781
19957.675924,-2886.803174,-11917.315666,-10495.508323
19957.676257,-5625.565159,-13101.645173,-12870.404366
19957.676590,-3627.009116,-15396.283594,-10189.070123
19957.676923,-3997.112087,-16136.489536,-6588.421283
19957.677256,-3034.844362,-13545.768739,-2911.162892
19957.677589,-740.205942,-9918.759623,3524.039291
19957.677922,518.144159,-7105.977043,7890.783629
19957.678255,4663.297435,-7105.977043,14632.424012
19957.678588,2294.638420,-3627.009116,10572.117872
19957.678921,2516.700203,-3478.967927,9806.022374
19957.679254,2368.659014,-4219.173869,7354.516781
19957.679587,1332.370696,-2146.597232,1838.629195
19957.679921,962.267725,-5921.647536,-2757.943793
19957.680254,-888.247130,-9622.677246,-7431.126331
19957.680587,-1258.350101,-12139.377449,-10725.336972
19957.680920,-3552.988522,-14285.974681,-11644.651570
19957.681253,-1258.350101,-15988.448347,-10648.727422
19957.681586,-1258.350101,-16876.695478,-7660.954980
19957.681919,-1184.329507,-13693.809927,76.609550
19957.682252,3478.967927,-11843.295072,6665.030833
19957.682585,3552.988522,-7402.059420,10112.460574
19957.682918,4589.276840,-4515.256246,11874.480219
19957.683251,3182.885551,-4663.297435,11797.870669
19957.683584,1628.453072,-3627.009116,8197.221829
19957.683917,888.247130,-5551.544565,6971.469032
19957.684250,-74.020594,-3701.029710,-2145.067394
19957.684583,-1184.329507,-6661.853478,-4290.134789
19957.684916,444.123565,-10066.800811,-5286.058936
19957.685250,444.123565,-9696.697840,-8120.612279
19957.685583,2590.720797,-14730.098246,-6205.373534
19957.685916,592.164754,-13989.892304,-6281.983084
19957.686249,222.061783,-15396.283594,-4903.011187
19957.686582,962.267725,-13323.706956,-1302.362347
19957.686915,2294.638420,-11843.295072,2374.896044
19957.687248,0.000000,-5995.668130,4903.011187
19957.687581,592.164754,-6957.935855,7277.907231
19957.687914,-74.020594,-9474.636058,7277.907231
19957.688247,-962.267725,-3330.926739,4443.353888
19957.688580,-74.020594,-5625.565159,4443.353888
19957.688913,222.061783,-4515.256246,3217.601092
19957.689246,814.226536,-6809.894666,1072.533697
19957.689579,2072.576638,-8512.368333,-689.485948
19957.689912,3478.967927,-10362.883188,-2528.115143
19957.690245,2146.597232,-13101.645173,-4060.306139
19957.690579,2294.638420,-13323.706956,-4903.011187
19957.690912,-1776.494261,-14508.036463,-5515.887586
19957.691245,-3552.988522,-13101.645173,-5515.887586
19957.691578,-3256.906145,-13471.748144,-1302.362347
19957.691911,-3034.844362,-9104.533087,0.000000
19957.692244,-4737.318029,-6587.832884,5515.887586
19957.692577,-1850.514855,-7994.224174,5132.839837
19957.692910,-4145.153275,-3034.844362,4979.620737
19957.693243,-1036.288319,-4293.194464,6971.469032
19957.693576,888.247130,-5329.482782,8503.660028
19957.693909,2368.659014,-3627.009116,6128.763984
19957.694242,3552.988522,-6513.812290,3370.820191
19957.694575,3182.885551,-8660.409521,-76.609550
19957.694908,1554.432478,-8364.327145,-6128.763984
19957.695241,666.185348,-12213.398043,-7354.516781
19957.695574,-740.205942,-15914.427753,-8044.002729
19957.695907,-5329.482782,-15470.304188,-11644.651570
19957.696241,-4071.132681,-15914.427753,-6205.373534
19957.696574,-2072.576638,-11029.068536,-1915.238745
19957.696907,-1480.411884,-9548.656652,2451.505594
19957.697240,814.226536,-7698.141797,6358.592633
19957.697573,2960.823768,-6661.853478,11874.480219
19957.697906,4367.215058,-1924.535449,10418.898773
19957.698239,5921.647536,-4737.318029,13406.671215
19957.698572,6439.791695,-4737.318029,7277.907231
19957.698905,6291.750507,-4737.318029,2987.772442
19957.699238,3849.070898,-7179.997637,-2681.334243
19957.699571,2368.659014,-9622.677246,-7354.516781
19957.699904,-1258.350101,-13767.830521,-11261.603821
19957.700237,-5921.647536,-14582.057057,-13483.280765
19957.700570,-3923.091493,-17764.942608,-11108.384721
19957.700903,-5329.482782,-16062.468941,-8580.269578
19957.701236,-4145.153275,-12805.562797,-76.609550
19957.701570,-74.020594,-9474.636058,4826.401637
19957.701903,1998.556043,-3627.009116,10418.898773
19957.702236,4885.359217,-3775.050304,16547.662757
19957.702569,4589.276840,-2368.659014,15475.129060
19957.702902,3775.050304,-2886.803174,9959.241474
19957.703235,3552.988522,-3997.112087,6435.202183
19957.703568,2294.638420,-2516.700203,-2451.505594
19957.703901,1998.556043,-9474.636058,-4979.620737
19957.704234,-1850.514855,-13027.624579,-10495.508323
19957.704567,-4145.153275,-13101.645173,-12870.404366
19957.704900,-4441.235652,-15174.221811,-11031.775171
19957.705233,-3330.926739,-15766.386565,-9729.412825
19957.705566,-2072.576638,-15396.283594,-4519.963438
19957.705899,-148.041188,-12731.542202,1225.752797
19957.706232,1924.535449,-9474.636058,7967.393179
19957.706565,2146.597232,-4959.379811,9806.022374
19957.706899,2886.803174,-4885.359217,11951.089769
19957.707232,1702.473667,-3404.947333,11644.651570
19957.707565,1702.473667,-2812.782580,7584.345430
19957.707898,592.164754,-4219.173869,4290.134789
19957.708231,1110.308913,-4145.153275,-1915.238745
19957.708564,-2960.823768,-5995.668130,-3677.258390
19957.708897,-74.020594,-11843.295072,-6818.249932
19957.709230,-74.020594,-14211.954086,-8656.879127
19957.709563,-3256.906145,-14285.974681,-8580.269578
19957.709896,-2442.679609,-16506.592507,-8273.831378
19957.710229,-1850.514855,-15248.242405,-4673.182538
19957.710562,-370.102971,-12731.542202,1149.143247
19957.710895,2072.576638,-9474.636058,8503.660028
19957.711228,2294.638420,-5255.462188,6741.640382
19957.711561,1850.514855,-4737.318029,11874.480219
19957.711894,-74.020594,-4441.235652,6818.249932
19957.712228,-2368.659014,-3478.967927,5822.325785
19957.712561,-1036.288319,-6217.729913,3600.648841
19957.712894,-2960.823768,-5403.503377,0.000000
19957.713227,-1406.391290,-8068.244768,-1838.629195
19957.713560,592.164754,-9252.574275,-3753.867940
19957.713893,1554.432478,-11843.295072,-4979.620737
19957.714226,1702.473667,-11029.068536,-7354.516781
19957.714559,3404.947333,-15396.283594,-3140.991542
19957.714892,1702.473667,-16580.613101,-3753.867940
19957.715225,0.000000,-12065.356855,-2451.505594
19957.715558,-74.020594,-11843.295072,-76.609550
19957.715891,-1480.411884,-9104.533087,3217.601092
19957.716224,-148.041188,-5995.668130,5056.230287
19957.716557,-1110.308913,-6439.791695,5975.544884
19957.716890,-1184.329507,-3627.009116,5515.887586
19957.717223,1184.329507,-4811.338623,7354.516781
19957.717557,5847.626942,-5921.647536,4826.401637
19957.717890,3849.070898,-4811.338623,3064.381992
19957.718223,4145.153275,-6291.750507,0.000000
19957.718556,6439.791695,-11103.089130,-3140.991542
19957.718889,3627.009116,-13249.686362,-5056.230287
19957.719222,2368.659014,-14434.015869,-7124.688131
19957.719555,-1184.329507,-15470.304188,-8350.440928
19957.719888,-3849.070898,-14285.974681,-8580.269578
19957.720221,-3330.926739,-12879.583391,-2528.115143
19957.720554,-1036.288319,-8364.327145,1762.019645
19957.720887,0.000000,-7846.182985,5515.887586
19957.721220,3182.885551,-7105.977043,9729.412825
19957.721553,3478.967927,-4737.318029,9729.412825
19957.721886,3775.050304,-2146.597232,9806.022374
19957.722219,4737.318029,-5625.565159,10955.165621
19957.722552,4663.297435,-5329.482782,2068.457845
19957.722885,3552.988522,-6735.874072,0.000000
19957.723219,2294.638420,-10955.047942,-4366.744339
19957.723552,814.226536,-11547.212695,-7354.516781
19957.723885,-2368.659014,-14285.974681,-10418.898773
19957.724218,-2812.782580,-15322.262999,-10955.165621
19957.724551,-5329.482782,-14582.057057,-7354.516781
19957.724884,-4145.153275,-11917.315666,-3064.381992
19957.725217,-74.020594,-11843.295072,842.705048
19957.725550,-2368.659014,-6291.750507,3983.696590
19957.725883,518.144159,-7105.977043,9729.412825
19957.726216,3478.967927,-4737.318029,13100.233016
19957.726549,2812.782580,-4071.132681,12257.527968
19957.726882,2886.803174,-3108.864956,8733.488677
19957.727215,4071.132681,-3034.844362,4749.792088
19957.727548,4367.215058,-7105.977043,1149.143247
19957.727881,1480.411884,-10214.842000,-1838.629195
19957.728214,-370.102971,-13619.789333,-9882.631924
19957.728548,-5403.503377,-13693.809927,-14096.157163
19957.728881,-7105.977043,-15470.304188,-12870.404366
19957.729214,-5995.668130,-16062.468941,-10572.117872
19957.729547,-4663.297435,-15026.180623,-4213.525239
19957.729880,-1554.432478,-11251.130318,2911.162892
19957.730213,1924.535449,-7698.141797,10189.070123
19957.730546,2146.597232,-2220.617826,12487.356617
19957.730879,3256.906145,-5921.647536,16471.053207
19957.731212,4071.132681,-4441.235652,13406.671215
19957.731545,814.226536,-1554.432478,6128.763984
19957.731878,2368.659014,-4071.132681,3677.258390
19957.732211,-1184.329507,-6587.832884,-2451.505594
19957.732544,-2146.597232,-9918.759623,-8044.002729
19957.732877,-3108.864956,-13027.624579,-10648.727422
19957.733210,-2072.576638,-14952.160028,-10418.898773
19957.733543,-3552.988522,-14582.057057,-9806.022374
19957.733877,-74.020594,-17764.942608,-5592.497135
19957.734210,74.020594,-12065.356855,-1532.190996
19957.734543,296.082377,-8956.491898,4903.011187
19957.734876,3849.070898,-7994.224174,10725.336972
19957.735209,1406.391290,-5107.421000,10189.070123
19957.735542,518.144159,-4737.318029,8580.269578
19957.735875,-666.185348,-4737.318029,6741.640382
19957.736208,-962.267725,-3997.112087,3064.381992
19957.736541,-1184.329507,-2442.679609,612.876398
19957.736874,-222.061783,-5921.647536,-2145.067394
19957.737207,2664.741391,-9030.512492,-3907.087040
19957.737540,3627.009116,-10510.924376,-4519.963438
19957.737873,4663.297435,-14804.118840,-4979.620737
19957.738206,2146.597232,-13397.727550,-7048.078582
19957.738539,2368.659014,-16506.592507,-4903.011187
19957.738872,2886.803174,-16580.613101,-2528.115143
19957.739206,148.041188,-11473.192101,306.438199
19957.739539,1184.329507,-9252.574275,5439.278036
19957.739872,-666.185348,-7476.080014,5515.887586
19957.740205,666.185348,-4589.276840,6665.030833
19957.740538,-444.123565,-5699.585753,6894.859482
19957.740871,-3256.906145,-2294.638420,3524.039291
19957.741204,-74.020594,-1850.514855,2451.505594
19957.741537,2886.803174,-7105.977043,2374.896044
19957.741870,1332.370696,-7105.977043,-76.609550
19957.742203,740.205942,-8364.327145,-3064.381992
19957.742536,4663.297435,-12435.459826,-3753.867940
19957.742869,1332.370696,-14211.954086,-4903.011187
19957.743202,888.247130,-13397.727550,-6052.154434
19957.743535,-2368.659014,-16136.489536,-6052.154434
19957.743868,-4441.235652,-13397.727550,-3983.696590
19957.744201,-3923.091493,-11325.150913,0.000000
19957.744535,-666.185348,-9474.636058,2374.896044
19957.744868,-2442.679609,-6291.750507,4903.011187
19957.745201,-4441.235652,-4219.173869,8580.269578
19957.745534,2072.576638,-1850.514855,8044.002729
19957.745867,3330.926739,-3330.926739,10572.117872
19957.746200,4885.359217,-3552.988522,7890.783629
19957.746533,3627.009116,-5403.503377,2145.067394
19957.746866,5551.544565,-7994.224174,-689.485948
19957.747199,1184.329507,-10732.986159,-4903.011187
19957.747532,2294.638420,-15988.448347,-7737.564530
19957.747865,-2738.761985,-15026.180623,-13253.452115
19957.748198,-7105.977043,-18135.045579,-11644.651570
19957.748531,-4811.338623,-16432.571912,-7201.297681
19957.748864,-2812.782580,-12139.377449,-1378.971896
19957.749197,-592.164754,-9104.533087,5056.230287
19957.749530,1184.329507,-5403.503377,9959.241474
19957.749863,2146.597232,-3478.967927,11568.042020
19957.750197,6069.688724,-4145.153275,14632.424012
19957.750530,3034.844362,-2442.679609,11031.775171
19957.750863,1184.329507,-3034.844362,7354.516781
19957.751196,4663.297435,-6513.812290,-76.609550
19957.751529,2072.576638,-8586.388927,-4903.011187
19957.751862,222.061783,-11695.253884,-8273.831378
19957.752195,-2368.659014,-13693.809927,-10955.165621
19957.752528,-2812.782580,-15914.427753,-12027.699319
19957.752861,-4959.379811,-15100.201217,-10801.946522
19957.753194,-2368.659014,-16358.551318,-4979.620737
19957.753527,-2146.597232,-12805.562797,-766.095498
19957.753860,222.061783,-9252.574275,4979.620737
19957.754194,2590.720797,-6217.729913,10495.508323
19957.754527,4663.297435,-5329.482782,12793.794817
19957.754860,3849.070898,-5033.400406,15321.909960
19957.755193,6439.791695,-4737.318029,8503.660028
19957.755526,2368.659014,-3627.009116,6741.640382
19957.755859,296.082377,-3034.844362,0.000000
19957.756192,74.020594,-7476.080014,-5822.325785
19957.756525,-1258.350101,-14211.954086,-9882.631924
19957.756858,-2368.659014,-13841.851115,-10265.679673
19957.757191,-3627.009116,-15470.304188,-10725.336972
19957.757525,-5625.565159,-15470.304188,-9806.022374
19957.757858,-3108.864956,-17024.736666,-3753.867940
19957.758191,-1406.391290,-12731.542202,-76.609550
19957.758524,0.000000,-7179.997637,8580.269578
19957.758857,4071.132681,-7105.977043,12180.918418
19957.759190,1184.329507,-2442.679609,11644.651570
19957.759523,814.226536,-4737.318029,10189.070123
19957.759856,-518.144159,-3256.906145,6128.763984
19957.760189,-592.164754,-4145.153275,2451.505594
19957.760523,-1184.329507,-6883.915261,0.000000
19957.760856,-74.020594,-9474.636058,-4979.620737
19957.761189,-3552.988522,-9844.739029,-7201.297681
19957.761522,-2368.659014,-11917.315666,-6128.763984
19957.761855,592.164754,-15396.283594,-5898.935335
19957.762188,0.000000,-13693.809927,-4749.792088
19957.762521,296.082377,-13841.851115,-3064.381992
19957.762854,370.102971,-13323.706956,0.000000
19957.763187,222.061783,-9400.615463,3677.258390
19957.763521,-74.020594,-8290.306550,6665.030833
19957.763854,-74.020594,-4737.318029,4519.963438
19957.764187,-2960.823768,-5107.421000,7737.564530
19957.764520,1406.391290,-4737.318029,4826.401637
19957.764853,-962.267725,-2442.679609,612.876398
19957.765186,2368.659014,-4959.379811,3600.648841
19957.765519,2442.679609,-7476.080014,229.828649
19957.765852,3330.926739,-9474.636058,-2528.115143
19957.766185,3849.070898,-11325.150913,-4903.011187
19957.766519,4663.297435,-14211.954086,-3753.867940
19957.766852,1998.556043,-15100.201217,-5975.544884
19957.767185,1110.308913,-15618.345376,-4060.306139
19957.767518,-1036.288319,-14730.098246,-3140.991542
19957.767851,-2960.823768,-9548.656652,-2451.505594
19957.768184,-2368.659014,-8364.327145,4903.011187
19957.768517,1110.308913,-5921.647536,4443.353888
19957.768850,-1776.494261,-4811.338623,4903.011187
19957.769183,-592.164754,-5329.482782,8197.221829
19957.769516,518.144159,-2812.782580,4979.620737
19957.769850,2368.659014,-5847.626942,6818.249932
19957.770183,2368.659014,-5699.585753,3294.210641
19957.770516,814.226536,-9030.512492,-2451.505594
19957.770849,2368.659014,-10732.986159,-3370.820191
19957.771182,1110.308913,-12435.459826,-6128.763984
19957.771515,3478.967927,-14211.954086,-7431.126331
19957.771848,-2294.638420,-13693.809927,-7967.393179
19957.772181,-5625.565159,-13101.645173,-6741.640382
19957.772514,-4589.276840,-12953.603985,-2451.505594
19957.772848,-3552.988522,-10436.903782,306.438199
19957.773181,-2368.659014,-7476.080014,4596.572988
19957.773514,-1850.514855,-5699.585753,7660.954980
19957.773847,1110.308913,-4737.318029,9729.412825
19957.774180,0.000000,-3034.844362,11031.775171
19957.774513,3034.844362,-2072.576638,7124.688131
19957.774846,3552.988522,-4219.173869,7201.297681
19957.775179,6439.791695,-6513.812290,842.705048
19957.775512,4367.215058,-9474.636058,-3753.867940
19957.775846,370.102971,-13471.748144,-8350.440928
19957.776179,-2590.720797,-13397.727550,-12334.137518
19957.776512,-5107.421000,-17468.860231,-12640.575717
19957.776845,-3627.009116,-16136.489536,-9346.365076
19957.777178,-1776.494261,-15322.262999,-1915.238745
19957.777511,-3478.967927,-9548.656652,612.876398
19957.777844,592.164754,-6587.832884,10112.460574
19957.778177,5847.626942,-3404.947333,11261.603821
19957.778510,5625.565159,-1258.350101,13789.718964
19957.778843,6143.709319,-3552.988522,12487.356617
19957.779177,4441.235652,-3849.070898,7660.954980
19957.779510,3182.885551,-4737.318029,2298.286494
19957.779843,2220.617826,-6957.935855,-2604.724693
19957.780176,1110.308913,-10658.965565,-8044.002729
19957.780509,-3256.906145,-11917.315666,-9806.022374
19957.780842,-74.020594,-14211.954086,-10189.070123
19957.781175,-74.020594,-16284.530724,-10189.070123
19957.781508,-1850.514855,-13545.768739,-8580.269578
19957.781841,-74.020594,-14804.118840,-2834.553343
19957.782175,2738.761985,-10214.842000,2604.724693
19957.782508,4959.379811,-8734.430116,8197.221829
19957.782841,5329.482782,-5921.647536,11568.042020
19957.783174,5107.421000,-5921.647536,12180.918418
19957.783507,3182.885551,-4071.132681,9039.926876
19957.783840,2590.720797,-4959.379811,6052.154434
19957.784173,2590.720797,-3404.947333,2145.067394
19957.784506,0.000000,-7179.997637,0.000000
19957.784839,814.226536,-8290.306550,-6818.249932
19957.785173,-1850.514855,-11843.295072,-9269.755526
19957.785506,-4737.318029,-14285.974681,-6894.859482
19957.785839,-2368.659014,-14656.077652,-7890.783629
19957.786172,-3923.091493,-14285.974681,-7967.393179
19957.786505,-1332.370696,-14434.015869,-2528.115143
19957.786838,-2368.659014,-10881.027347,2757.943793
19957.787171,1110.308913,-8290.306550,7277.907231
19957.787504,2294.638420,-7698.141797,10648.727422
19957.787837,-74.020594,-4145.153275,6511.811733
19957.788170,-2368.659014,-5255.462188,8810.098227
19957.788504,-1258.350101,-8290.306550,6052.154434
19957.788837,-3923.091493,-3627.009116,0.000000
19957.789170,-2072.576638,-7254.018232,-76.609550
19957.789503,-2368.659014,-8660.409521,-1991.848295
19957.789836,-1184.329507,-10362.883188,-3907.087040
19957.790169,0.000000,-12731.542202,-4903.011187
19957.790502,-1776.494261,-11917.315666,-4903.011187
19957.790835,-2072.576638,-15174.221811,-1225.752797
19957.791168,-666.185348,-13619.789333,-2528.115143
19957.791502,-2886.803174,-10732.986159,-1225.752797
19957.791835,-4737.318029,-8660.409521,2604.724693
19957.792168,-3034.844362,-8290.306550,3600.648841
19957.792501,-4441.235652,-4811.338623,4903.011187
19957.792834,-2812.782580,-6217.729913,5209.449386
19957.793167,-2146.597232,-4515.256246,5362.668486
19957.793500,296.082377,-4811.338623,3830.477490
19957.793833,5847.626942,-4737.318029,4060.306139
19957.794166,4885.359217,-8142.265362,4519.963438
19957.794500,7105.977043,-9474.636058,-995.924147
19957.794833,5477.523971,-9548.656652,-3983.696590
19957.795166,3552.988522,-12509.480420,-6435.202183
19957.795499,4441.235652,-15692.365970,-5592.497135
19957.795832,-1036.288319,-15618.345376,-7737.564530
19957.796165,-1258.350101,-14582.057057,-5822.325785
19957.796498,-74.020594,-13027.624579,-76.609550
19957.796831,148.041188,-7179.997637,2451.505594
19957.797164,3478.967927,-8290.306550,6665.030833
19957.797498,814.226536,-2738.761985,4290.134789
19957.797831,2368.659014,-4811.338623,10418.898773
19957.798164,5921.647536,-3330.926739,10725.336972
19957.798497,5699.585753,-4737.318029,8273.831378
19957.798830,4737.318029,-4515.256246,2451.505594
19957.799163,4663.297435,-8290.306550,-2451.505594
19957.799496,2886.803174,-11843.295072,-5592.497135
19957.799829,2368.659014,-12509.480420,-7967.393179
19957.800162,-1628.453072,-15322.262999,-10878.556072
19957.800495,-3775.050304,-15914.427753,-11184.994271
19957.800829,-4737.318029,-14878.139434,-7354.516781
19957.801162,-1258.350101,-14211.954086,-1915.238745
19957.801495,-2664.741391,-8660.409521,2451.505594
19957.801828,1776.494261,-8660.409521,11568.042020
19957.802161,2590.720797,-3775.050304,11031.775171
19957.802494,2516.700203,-3182.885551,15015.471761
19957.802827,4959.379811,-4737.318029,13100.233016
19957.803160,3330.926739,-1554.432478,7737.564530
19957.803493,1406.391290,-4885.359217,1455.581446
19957.803827,740.205942,-7179.997637,-3447.429741
19957.804160,-3034.844362,-10658.965565,-9882.631924
19957.804493,-7105.977043,-13101.645173,-13330.061665
19957.804826,-5699.585753,-17098.757260,-12334.137518
19957.805159,-5403.503377,-18357.107362,-11108.384721
19957.805492,-7105.977043,-14359.995275,-6128.763984
19957.805825,-3034.844362,-12731.542202,-76.609550
19957.806158,-444.123565,-8660.409521,6741.640382
19957.806491,2368.659014,-5255.462188,12487.356617
19957.806825,3256.906145,-3330.926739,14938.862211
19957.807158,74.020594,-2590.720797,11338.213370
19957.807491,0.000000,-2442.679609,11184.994271
19957.807824,1110.308913,-4737.318029,2987.772442
19957.808157,-2368.659014,-3627.009116,-3370.820191
19957.808490,-3552.988522,-7328.038826,-5515.887586
19957.808823,-3923.091493,-9696.697840,-10418.898773
19957.809156,-1258.350101,-12509.480420,-9499.584175
19957.809489,-666.185348,-14434.015869,-8044.002729
19957.809822,-74.020594,-15248.242405,-6052.154434
19957.810156,1406.391290,-14952.160028,-2145.067394
19957.810489,740.205942,-12731.542202,3600.648841
19957.810822,3478.967927,-7994.224174,2911.162892
19957.811155,2368.659014,-6587.832884,8886.707777
19957.811488,4737.318029,-5551.544565,11414.822920
19957.811821,2368.659014,-5107.421000,9806.022374
19957.812154,1110.308913,-4515.256246,6128.763984
19957.812487,2072.576638,-4737.318029,2681.334243
19957.812820,2220.617826,-5403.503377,-689.485948
19957.813154,1406.391290,-7698.141797,-2834.553343
19957.813487,3478.967927,-11251.130318,-5592.497135
19957.813820,1776.494261,-10732.986159,-7048.078582
19957.814153,1184.329507,-12509.480420,-5975.544884
19957.814486,3182.885551,-15988.448347,-4979.620737
19957.814819,592.164754,-14285.974681,-2911.162892
19957.815152,222.061783,-12953.603985,-919.314598
19957.815485,1184.329507,-9548.656652,2757.943793
19957.815818,1110.308913,-7624.121203,5286.058936
19957.816152,222.061783,-6217.729913,6665.030833
19957.816485,814.226536,-5329.482782,6971.469032
19957.816818,-1480.411884,-5551.544565,5056.230287
19957.817151,-2664.741391,-5847.626942,3447.429741
19957.817484,-296.082377,-6217.729913,2298.286494
19957.817817,2294.638420,-7698.141797,2987.772442
19957.818150,0.000000,-7179.997637,1915.238745
19957.818483,3478.967927,-10658.965565,-3753.867940
19957.818816,2664.741391,-9770.718434,-4673.182538
19957.819149,0.000000,-12509.480420,-4903.011187
19957.819483,-962.267725,-13101.645173,-7201.297681
19957.819816,-3997.112087,-13841.851115,-6128.763984
19957.820149,-4367.215058,-12953.603985,-3753.867940
19957.820482,-4589.276840,-10140.821405,0.000000
19957.820815,-4293.194464,-6587.832884,1532.190996
19957.821148,-1850.514855,-7105.977043,6052.154434
19957.821481,-2442.679609,-3627.009116,5822.325785
19957.821814,0.000000,-5255.462188,10955.165621
19957.822147,4071.132681,-4145.153275,9116.536426
19957.822481,2368.659014,-3627.009116,6741.640382
19957.822814,3478.967927,-5625.565159,1762.019645
19957.823147,3775.050304,-8882.471304,-2374.896044
19957.823480,814.226536,-11325.150913,-7048.078582
19957.823813,-1776.494261,-14285.974681,-9499.584175
19957.824146,-4811.338623,-16580.613101,-13559.890315
19957.824479,-9474.636058,-17172.777854,-10495.508323
19957.824812,-7105.977043,-13101.645173,-4749.792088
19957.825145,-1258.350101,-11843.295072,2068.457845
19957.825479,814.226536,-8364.327145,7277.907231
19957.825812,2812.782580,-4663.297435,11491.432470
19957.826145,3849.070898,-3182.885551,14172.766713
19957.826478,4293.194464,-2442.679609,11644.651570
19957.826811,5847.626942,-5921.647536,9729.412825
19957.827144,3478.967927,-3552.988522,612.876398
19957.827477,0.000000,-7328.038826,-306.438199
19957.827810,1480.411884,-9252.574275,-3294.210641
19957.828143,1110.308913,-12435.459826,-9269.755526
19957.828476,-1184.329507,-13545.768739,-10189.070123
19957.828810,-2368.659014,-15914.427753,-9959.241474
19957.829143,-3478.967927,-15470.304188,-8427.050478
19957.829476,-1850.514855,-14804.118840,-3907.087040
19957.829809,-592.164754,-11103.089130,2987.772442
19957.830142,2368.659014,-8364.327145,7354.516781
19957.830475,5255.462188,-5033.400406,11874.480219
19957.830808,5847.626942,-4737.318029,13100.233016
19957.831141,2664.741391,-3182.885551,9806.022374
19957.831474,3552.988522,-4219.173869,9269.755526
19957.831808,4663.297435,-4441.235652,2987.772442
19957.832141,0.000000,-4811.338623,0.000000
19957.832474,1998.556043,-10362.883188,-5898.935335
19957.832807,814.226536,-12435.459826,-9269.755526
19957.833140,0.000000,-14582.057057,-9346.365076
19957.833473,-740.205942,-15248.242405,-9806.022374
19957.833806,-1850.514855,-16358.551318,-7967.393179
19957.834139,-2368.659014,-14878.139434,-3370.820191
19957.834472,0.000000,-10140.821405,4903.011187
19957.834806,4071.132681,-8142.265362,7277.907231
19957.835139,3256.906145,-3034.844362,9806.022374
19957.835472,3552.988522,-3330.926739,13483.280765
19957.835805,2368.659014,-2442.679609,9116.536426
19957.836138,518.144159,-5033.400406,6205.373534
19957.836471,-888.247130,-5181.441594,306.438199
19957.836804,-2368.659014,-6957.935855,-3140.991542
19957.837137,-1258.350101,-9474.636058,-5286.058936
19957.837470,-2072.576638,-10732.986159,-5592.497135
19957.837804,1110.308913,-11325.150913,-8580.269578
19957.838137,0.000000,-13989.892304,-4826.401637
19957.838470,-74.020594,-15396.283594,-2834.553343
19957.838803,-74.020594,-12731.542202,-2451.505594
19957.839136,-74.020594,-12361.439231,766.095498
19957.839469,444.123565,-9326.594869,4903.011187
19957.839802,-74.020594,-7105.977043,5975.544884
19957.840135,-1702.473667,-4219.173869,5056.230287
19957.840468,592.164754,-7105.977043,8503.660028
19957.840801,-2072.576638,-2442.679609,3677.258390
19957.841135,0.000000,-4959.379811,5439.278036
19957.841468,2146.597232,-6365.771101,1762.019645
19957.841801,2294.638420,-7105.977043,-1302.362347
19957.842134,1776.494261,-9104.533087,-2757.943793
19957.842467,1702.473667,-12583.501014,-6052.154434
19957.842800,3034.844362,-13101.645173,-5362.668486
19957.843133,-2220.617826,-16062.468941,-5822.325785
19957.843466,-74.020594,-14804.118840,-6818.249932
19957.843799,-2960.823768,-13545.768739,-689.485948
19957.844133,-1258.350101,-11843.295072,-76.609550
19957.844466,-1998.556043,-5403.503377,4903.011187
19957.844799,-74.020594,-7105.977043,8350.440928
19957.845132,-2072.576638,-4811.338623,6741.640382
19957.845465,-2442.679609,-3627.009116,6818.249932
19957.845798,0.000000,-5255.462188,6511.811733
19957.846131,1332.370696,-4811.338623,6128.763984
19957.846464,2886.803174,-5699.585753,1838.629195
19957.846797,2590.720797,-7698.141797,-1915.238745
19957.847131,1924.535449,-11177.109724,-4903.011187
19957.847464,1702.473667,-12657.521608,-6435.202183
19957.847797,0.000000,-13397.727550,-7354.516781
19957.848130,-3034.844362,-16432.571912,-9269.755526
19957.848463,-4811.338623,-15396.283594,-8580.269578
19957.848796,-5921.647536,-11917.315666,-1915.238745
19957.849129,-74.020594,-11843.295072,3600.648841
19957.849462,-3256.906145,-5403.503377,6128.763984
19957.849795,0.000000,-4441.235652,9806.022374
19957.850128,666.185348,-2886.803174,11568.042020
19957.850462,2886.803174,-3256.906145,12180.918418
19957.850795,4737.318029,-3034.844362,9346.365076
19957.851128,5255.462188,-4441.235652,2068.457845
19957.851461,2368.659014,-5995.668130,-4290.134789
19957.851794,592.164754,-10140.821405,-5592.497135
19957.852127,-74.020594,-14211.954086,-10955.165621
19957.852460,-4737.318029,-16062.468941,-12180.918418
19957.852793,-5255.462188,-17394.839637,-12947.013916
19957.853126,-4145.153275,-16654.633695,-7967.393179
19957.853459,-1480.411884,-13471.748144,-995.924147
19957.853793,2886.803174,-10362.883188,5745.716235
19957.854126,4663.297435,-5625.565159,8273.831378
19957.854459,5329.482782,-3256.906145,16164.615008
19957.854792,5847.626942,-6513.812290,16471.053207
19957.855125,3478.967927,-1850.514855,8733.488677
19957.855458,4663.297435,-5329.482782,7124.688131
19957.855791,2072.576638,-4219.173869,2068.457845
19957.856124,740.205942,-7179.997637,-3370.820191
19957.856457,-2664.741391,-9548.656652,-9806.022374
19957.856790,-962.267725,-12435.459826,-11261.603821
19957.857123,-1850.514855,-17468.860231,-11721.261119
19957.857456,-3108.864956,-14285.974681,-9806.022374
19957.857789,-4441.235652,-16062.468941,-5822.325785
19957.858122,-74.020594,-13619.789333,-2987.772442
19957.858455,3478.967927,-10362.883188,5286.058936
19957.858789,3849.070898,-5403.503377,11108.384721
19957.859122,5847.626942,-4589.276840,13559.890315
19957.859455,4515.256246,-4145.153275,12717.185267
19957.859788,2738.761985,-1554.432478,9193.145976
19957.860121,1702.473667,-5033.400406,5132.839837
19957.860454,2072.576638,-5255.462188,842.705048
19957.860787,444.123565,-8660.409521,-3830.477490
19957.861120,0.000000,-11843.295072,-5592.497135
19957.861453,-74.020594,-13397.727550,-8350.440928
19957.861786,-3330.926739,-14285.974681,-11031.775171
19957.862119,-3256.906145,-14878.139434,-9806.022374
19957.862452,-2368.659014,-16062.468941,-3140.991542
19957.862785,148.041188,-11917.315666,919.314598
19957.863118,1332.370696,-9252.574275,6971.469032
19957.863452,1554.432478,-6439.791695,8273.831378
19957.863785,1702.473667,-3701.029710,9269.755526
19957.864118,518.144159,-5625.565159,7277.907231
19957.864451,-2072.576638,-4811.338623,6894.859482
19957.864784,-1850.514855,-3627.009116,0.000000
19957.865117,-3552.988522,-7328.038826,536.266849
19957.865450,-74.020594,-10658.965565,-1302.362347
19957.865783,1702.473667,-9474.636058,-2221.676944
19957.866116,2294.638420,-12435.459826,-3140.991542
19957.866449,2294.638420,-12657.521608,-4519.963438
19957.866782,2072.576638,-13397.727550,-3983.696590
19957.867115,-1036.288319,-12509.480420,-5132.839837
19957.867448,1110.308913,-13471.748144,-76.609550
19957.867781,-2368.659014,-11029.068536,0.000000
19957.868114,-1776.494261,-9918.759623,4060.306139
19957.868448,-3478.967927,-5699.585753,3064.381992
19957.868781,-3552.988522,-5107.421000,4290.134789
19957.869114,-2146.597232,-5625.565159,4903.011187
19957.869447,74.020594,-3478.967927,6205.373534
19957.869780,3478.967927,-5033.400406,6281.983084
19957.870113,4959.379811,-5773.606348,4826.401637
19957.870446,4663.297435,-7105.977043,842.705048
19957.870779,3701.029710,-11991.336260,-995.924147
19957.871112,4589.276840,-13397.727550,-4060.306139
19957.871445,-74.020594,-14804.118840,-9346.365076
19957.871778,-3552.988522,-15914.427753,-9652.803275
19957.872111,-5773.606348,-15766.386565,-9193.145976
19957.872444,-4441.235652,-13915.871710,-3753.867940
19957.872777,-2368.659014,-8808.450710,1685.410096
19957.873111,-222.061783,-8290.306550,6741.640382
19957.873444,-1628.453072,-3034.844362,6128.763984
19957.873777,1702.473667,-6513.812290,10955.165621
19957.874110,1702.473667,-2368.659014,9806.022374
19957.874443,148.041188,-2442.679609,10112.460574
19957.874776,4145.153275,-7179.997637,6435.202183
19957.875109,3478.967927,-5699.585753,0.000000
19957.875442,2664.741391,-9252.574275,-3830.477490
19957.875775,1924.535449,-11621.233289,-7354.516781
19957.876108,370.102971,-15248.242405,-10035.851024
19957.876441,-4293.194464,-14434.015869,-12870.404366
19957.876774,-5033.400406,-16506.592507,-10189.070123
19957.877107,-4663.297435,-14137.933492,-5209.449386
19957.877440,-1702.473667,-10658.965565,612.876398
19957.877773,1110.308913,-9474.636058,7277.907231
19957.878107,2886.803174,-3330.926739,9806.022374
19957.878440,4293.194464,-3256.906145,13483.280765
19957.878773,6439.791695,-4737.318029,13406.671215
19957.879106,3923.091493,-2442.679609,9806.022374
19957.879439,2960.823768,-3330.926739,5975.544884
19957.879772,2368.659014,-6291.750507,-1072.533697
19957.880105,592.164754,-9548.656652,-6052.154434
19957.880438,-1924.535449,-12657.521608,-11338.213370
19957.880771,-3034.844362,-15396.283594,-13713.109414
19957.881104,-4219.173869,-15322.262999,-15321.909960
19957.881437,-4737.318029,-17690.922014,-8656.879127
19957.881770,-1850.514855,-17468.860231,-2528.115143
19957.882103,-370.102971,-9326.594869,1532.190996
19957.882436,4663.297435,-7994.224174,11568.042020
19957.882770,4515.256246,-3923.091493,14019.547613
19957.883103,4145.153275,-2960.823768,14632.424012
19957.883436,2516.700203,-2442.679609,11644.651570
19957.883769,0.000000,-2442.679609,5515.887586
19957.884102,370.102971,-3034.844362,0.000000
19957.884435,-814.226536,-9474.636058,-1608.800546
19957.884768,-1554.432478,-10510.924376,-8044.002729
19957.885101,-1850.514855,-11991.336260,-10572.117872
19957.885434,-2368.659014,-13101.645173,-9959.241474
19957.885767,-1776.494261,-15026.180623,-8044.002729
19957.886100,-1924.535449,-14508.036463,-5286.058936
19957.886433,-222.061783,-12805.562797,-1685.410096
19957.886766,2072.576638,-11251.130318,4136.915689
19957.887099,148.041188,-6587.832884,7660.954980
19957.887432,3478.967927,-8290.306550,10955.165621
19957.887766,2886.803174,-1850.514855,7967.393179
19957.888099,2368.659014,-6365.771101,9806.022374
19957.888432,592.164754,-4885.359217,3677.258390
19957.888765,370.102971,-5847.626942,766.095498
19957.889098,-370.102971,-7772.162391,-2528.115143
19957.889431,1258.350101,-8808.450710,-5056.230287
19957.889764,2886.803174,-10658.965565,-5592.497135
19957.890097,2368.659014,-14508.036463,-3753.867940
19957.890430,1702.473667,-13175.665768,-8580.269578
19957.890763,1110.308913,-12657.521608,-7048.078582
19957.891096,296.082377,-14656.077652,-995.924147
19957.891429,1628.453072,-11103.089130,306.438199
19957.891762,1258.350101,-8734.430116,3907.087040
19957.892095,1702.473667,-6439.791695,5362.668486
19957.892429,222.061783,-4737.318029,7124.688131
19957.892762,1110.308913,-5921.647536,4826.401637
19957.893095,-1332.370696,-6735.874072,4673.182538
19957.893428,0.000000,-4959.379811,2298.286494
19957.893761,814.226536,-7031.956449,1838.629195
19957.894094,2294.638420,-7772.162391,306.438199
19957.894427,5255.462188,-9474.636058,-689.485948
19957.894760,2664.741391,-10732.986159,-4903.011187
19957.895093,5477.523971,-13915.871710,-3140.991542
19957.895426,1406.391290,-13101.645173,-5898.935335
19957.895759,-2960.823768,-13101.645173,-6128.763984
19957.896092,-1554.432478,-13915.871710,-5745.716235
19957.896425,-2442.679609,-12509.480420,-1302.362347
19957.896758,-1480.411884,-8290.306550,1838.629195
19957.897091,-1258.350101,-8438.347739,5286.058936
19957.897425,-1258.350101,-4293.194464,5745.716235
19957.897758,0.000000,-4885.359217,9729.412825
19957.898091,2886.803174,-4737.318029,8503.660028
19957.898424,1184.329507,-3034.844362,8580.269578
19957.898757,4293.194464,-7920.203579,3830.477490
19957.899090,2294.638420,-5995.668130,-3524.039291
19957.899423,1776.494261,-11103.089130,-5592.497135
19957.899756,0.000000,-13101.645173,-7814.174080
19957.900089,-1554.432478,-15322.262999,-9882.631924
19957.900422,-7105.977043,-14582.057057,-11644.651570
19957.900755,-5625.565159,-17172.777854,-4979.620737
19957.901088,-3034.844362,-11843.295072,-2834.553343
19957.901421,-2738.761985,-7328.038826,612.876398
19957.901754,-1184.329507,-7105.977043,8503.660028
19957.902088,0.000000,-4219.173869,11491.432470
19957.902421,2294.638420,-2146.597232,12487.356617
19957.902754,2516.700203,-3849.070898,12180.918418
19957.903087,2072.576638,-3923.091493,6588.421283
19957.903420,2664.741391,-4737.318029,3064.381992
19957.903753,2294.638420,-10658.965565,-2528.115143
19957.904086,-740.205942,-8364.327145,-8427.050478
19957.904419,-2812.782580,-13989.892304,-9806.022374
19957.904752,-3034.844362,-16580.613101,-12334.137518
19957.905085,-6513.812290,-15470.304188,-10418.898773
19957.905418,-3478.967927,-15692.365970,-6971.469032
19957.905751,-3182.885551,-13101.645173,-1838.629195
19957.906084,-592.164754,-9030.512492,4749.792088
19957.906417,2368.659014,-6439.791695,10112.460574
19957.906751,3552.988522,-3627.009116,13023.623466
19957.907084,4367.215058,-3182.885551,13330.061665
19957.907417,3552.988522,-3478.967927,11261.603821
19957.907750,3182.885551,-2960.823768,5132.839837
19957.908083,2220.617826,-3034.844362,0.000000
19957.908416,888.247130,-9992.780217,-3140.991542
19957.908749,-1258.350101,-10658.965565,-11108.384721
19957.909082,-2368.659014,-13101.645173,-10418.898773
19957.909415,-74.020594,-14804.118840,-9882.631924
19957.909748,-1850.514855,-15766.386565,-9116.536426
19957.910081,-666.185348,-14952.160028,-5592.497135
19957.910414,148.041188,-12879.583391,-229.828649
19957.910747,2368.659014,-7772.162391,4903.011187
19957.911080,5551.544565,-6217.729913,7354.516781
19957.911413,7031.956449,-5921.647536,10955.165621
19957.911747,2368.659014,-3627.009116,9806.022374
19957.912080,1554.432478,-2738.761985,5822.325785
19957.912413,0.000000,-6883.915261,2757.943793
19957.912746,296.082377,-6883.915261,-306.438199
19957.913079,-1480.411884,-8956.491898,-3983.696590
19957.913412,0.000000,-8808.450710,-6894.859482
19957.913745,3478.967927,-13471.748144,-4366.744339
19957.914078,2146.597232,-11917.315666,-6128.763984
19957.914411,4663.297435,-15988.448347,-4979.620737
19957.914744,962.267725,-13101.645173,-4903.011187
19957.915077,592.164754,-14582.057057,0.000000
19957.915410,2146.597232,-10362.883188,3600.648841
19957.915743,222.061783,-9696.697840,4826.401637
19957.916076,-814.226536,-5921.647536,4749.792088
19957.916410,-2072.576638,-7254.018232,6052.154434
19957.916743,-1110.308913,-4737.318029,4826.401637
19957.917076,-2368.659014,-5107.421000,5822.325785
19957.917409,814.226536,-2590.720797,1225.752797
19957.917742,0.000000,-5107.421000,612.876398
19957.918075,1776.494261,-9474.636058,-76.609550
19957.918408,3182.885551,-9474.636058,-3753.867940
19957.918741,1258.350101,-12879.583391,-4979.620737
19957.919074,1036.288319,-13027.624579,-5898.935335
19957.919407,-2886.803174,-13989.892304,-5439.278036
19957.919740,-3330.926739,-13989.892304,-4749.792088
19957.920073,-2590.720797,-14211.954086,-1302.362347
19957.920406,-3775.050304,-8364.327145,306.438199
19957.920739,-1258.350101,-8290.306550,7277.907231
19957.921072,-74.020594,-6513.812290,5439.278036
19957.921406,-3849.070898,-3108.864956,6358.592633
19957.921739,-666.185348,-4737.318029,5745.716235
19957.922072,1110.308913,-5033.400406,6665.030833
19957.922405,1998.556043,-5403.503377,4903.011187
19957.922738,2368.659014,-7402.059420,0.000000
19957.923071,4219.173869,-9474.636058,-1608.800546
19957.923404,1776.494261,-12435.459826,-4673.182538
19957.923737,1184.329507,-13323.706956,-6971.469032
19957.924070,-1406.391290,-15322.262999,-7967.393179
19957.924403,-4367.215058,-13249.686362,-9806.022374
19957.924736,-3997.112087,-14952.160028,-3907.087040
19957.925069,-444.123565,-12361.439231,2068.457845
19957.925402,-1258.350101,-6883.915261,1532.190996
19957.925735,-1332.370696,-5699.585753,7354.516781
19957.926069,3182.885551,-4441.235652,9269.755526
19957.926402,4293.194464,-2368.659014,11874.480219
19957.926735,5033.400406,-3256.906145,10495.508323
19957.927068,5773.606348,-4367.215058,5286.058936
19957.927401,4737.318029,-5403.503377,612.876398
19957.927734,5033.400406,-11251.130318,-2528.115143
19957.928067,1184.329507,-11029.068536,-7967.393179
19957.928400,-2368.659014,-12213.398043,-12257.527968
19957.928733,-3849.070898,-17764.942608,-12563.966167
19957.929066,-4589.276840,-15470.304188,-11031.775171
19957.929399,-2812.782580,-15692.365970,-5209.449386
19957.929732,-666.185348,-11399.171507,1149.143247
19957.930065,1554.432478,-7698.141797,7277.907231
19957.930398,4071.132681,-5181.441594,13406.671215
19957.930731,7031.956449,-5921.647536,17083.929605
19957.931065,1998.556043,-1258.350101,11031.775171
19957.931398,2072.576638,-4441.235652,11031.775171
19957.931731,2294.638420,-4737.318029,3600.648841
19957.932064,0.000000,-5995.668130,229.828649
19957.932397,-1480.411884,-8660.409521,-6128.763984
19957.932730,-2738.761985,-12879.583391,-10189.070123
19957.933063,-3108.864956,-14434.015869,-12180.918418
19957.933396,-3034.844362,-15396.283594,-10189.070123
19957.933729,-1406.391290,-16580.613101,-8044.002729
19957.934062,-2516.700203,-11917.315666,-3677.258390
19957.934395,148.041188,-12731.542202,3907.087040
19957.934728,2294.638420,-9474.636058,7890.783629
19957.935061,2886.803174,-5921.647536,11414.822920
19957.935394,2368.659014,-4219.173869,12563.966167
19957.935728,1702.473667,-3034.844362,10418.898773
19957.936061,666.185348,-4737.318029,6971.469032
19957.936394,0.000000,-3627.009116,2757.943793
19957.936727,-666.185348,-4959.379811,-3677.258390
19957.937060,-888.247130,-9326.594869,-6741.640382
19957.937393,-1036.288319,-13545.768739,-6818.249932
19957.937726,-1998.556043,-12213.398043,-9806.022374
19957.938059,-1258.350101,-15692.365970,-8044.002729
19957.938392,-2664.741391,-14582.057057,-6665.030833
19957.938725,-962.267725,-14137.933492,-3370.820191
19957.939058,814.226536,-11251.130318,2911.162892
19957.939391,1184.329507,-7179.997637,6741.640382
19957.939724,2146.597232,-4885.359217,7967.393179
19957.940057,1702.473667,-4219.173869,8810.098227
19957.940390,-1184.329507,-5995.668130,7201.297681
19957.940724,-962.267725,-5329.482782,4366.744339
19957.941057,-3552.988522,-5403.503377,306.438199
19957.941390,-74.020594,-8290.306550,-1915.238745
19957.941723,-2368.659014,-7772.162391,-2451.505594
19957.942056,1332.370696,-10658.965565,-3064.381992
19957.942389,4663.297435,-11843.295072,-2528.115143
19957.942722,888.247130,-12509.480420,-3370.820191
19957.943055,2072.576638,-13101.645173,-4060.306139
19957.943388,-74.020594,-13471.748144,-3907.087040
19957.943721,962.267725,-12139.377449,-1302.362347
19957.944054,-1184.329507,-11029.068536,1225.752797
19957.944387,-1554.432478,-7179.997637,1225.752797
19957.944720,-2368.659014,-5995.668130,5822.325785
19957.945053,1702.473667,-7994.224174,5439.278036
19957.945387,-666.185348,-4071.132681,4213.525239
19957.945720,2072.576638,-5921.647536,5439.278036
19957.946053,4145.153275,-5847.626942,5515.887586
19957.946386,4737.318029,-5477.523971,2987.772442
19957.946719,5033.400406,-8512.368333,-1149.143247
19957.947052,7624.121203,-10658.965565,-1915.238745
19957.947385,2368.659014,-10732.986159,-6128.763984
19957.947718,2368.659014,-13989.892304,-8273.831378
19957.948051,-888.247130,-16432.571912,-6971.469032
19957.948384,-5329.482782,-14285.974681,-9193.145976
19957.948717,-3627.009116,-13027.624579,-3140.991542
19957.949050,-1406.391290,-9178.553681,1608.800546
19957.949383,-1184.329507,-6809.894666,6818.249932
19957.949716,-518.144159,-4959.379811,9193.145976
19957.950049,888.247130,-3256.906145,9729.412825
19957.950383,0.000000,-666.185348,11644.651570
19957.950716,5255.462188,-4737.318029,9422.974625
19957.951049,3330.926739,-5625.565159,2374.896044
19957.951382,1184.329507,-4811.338623,-3064.381992
19957.951715,2294.638420,-11843.295072,-6358.592633
19957.952048,592.164754,-13323.706956,-8656.879127
19957.952381,-2960.823768,-14434.015869,-11797.870669
19957.952714,-4959.379811,-16062.468941,-12027.699319
19957.953047,-5403.503377,-16580.613101,-7431.126331
19957.953380,-4219.173869,-14211.954086,-2374.896044
19957.953714,-2220.617826,-9400.615463,2068.457845
19957.954047,740.205942,-6439.791695,9269.755526
19957.954380,2516.700203,-4515.256246,15015.471761
19957.954713,5699.585753,-3552.988522,14632.424012
19957.955046,3478.967927,-1258.350101,11031.775171
19957.955379,0.000000,-3034.844362,8580.269578
19957.955713,4071.132681,-4737.318029,995.924147
19957.956046,1480.411884,-5403.503377,-4290.134789
19957.956379,2590.720797,-10658.965565,-7124.688131
19957.956712,0.000000,-13693.809927,-10418.898773
19957.957045,-2146.597232,-16210.510130,-13176.842566
19957.957378,-4219.173869,-18653.189738,-11108.384721
19957.957711,-3627.009116,-17764.942608,-8044.002729
19957.958045,-3478.967927,-13101.645173,-3370.820191
19957.958378,2220.617826,-9104.533087,5515.887586
19957.958711,5403.503377,-6809.894666,12793.794817
19957.959044,6143.709319,-3404.947333,16241.224558
19957.959377,4959.379811,-3330.926739,14709.033562
19957.959710,2886.803174,-2146.597232,10725.336972
19957.960044,2146.597232,-4145.153275,5822.325785
19957.960377,-1628.453072,-4811.338623,-919.314598
19957.960710,-962.267725,-9474.636058,-4979.620737
19957.961043,-5329.482782,-9548.656652,-9193.145976
19957.961376,-2294.638420,-14211.954086,-8963.317327
19957.961709,-148.041188,-15248.242405,-7431.126331
19957.962042,-2442.679609,-15692.365970,-8350.440928
19957.962376,-3627.009116,-13175.665768,-5822.325785
19957.962709,-2442.679609,-12583.501014,-1149.143247
19957.963042,740.205942,-8808.450710,4673.182538
19957.963375,1184.329507,-6587.832884,9806.022374
19957.963708,1702.473667,-4145.153275,8733.488677
19957.964041,740.205942,-5477.523971,10418.898773
19957.964375,-148.041188,-7105.977043,6665.030833
19957.964708,-2368.659014,-4219.173869,2757.943793
19957.965041,-2368.659014,-4811.338623,0.000000
19957.965374,0.000000,-8142.265362,-995.924147
19957.965707,962.267725,-9400.615463,-3677.258390
19957.966040,2442.679609,-11843.295072,-3907.087040
19957.966373,3478.967927,-14211.954086,-4979.620737
19957.966707,74.020594,-12509.480420,-6741.640382
19957.967040,1110.308913,-15988.448347,-3447.429741
19957.967373,-74.020594,-14211.954086,-3140.991542
19957.967706,-2368.659014,-9548.656652,1225.752797
19957.968039,0.000000,-7179.997637,4290.134789
19957.968372,-740.205942,-6883.915261,6588.421283
19957.968706,740.205942,-4367.215058,7354.516781
19957.969039,-1258.350101,-5773.606348,6052.154434
19957.969372,-666.185348,-6513.812290,4213.525239
19957.969705,0.000000,-4811.338623,2451.505594
19957.970038,2442.679609,-5551.544565,2298.286494
19957.970371,2590.720797,-7179.997637,459.657299
19957.970704,2886.803174,-9770.718434,-4213.525239
19957.971038,7031.956449,-11843.295072,-1915.238745
19957.971371,2220.617826,-13693.809927,-6435.202183
19957.971704,0.000000,-11917.315666,-6128.763984
19957.972037,-592.164754,-16580.613101,-6205.373534
19957.972370,-3849.070898,-13101.645173,-4903.011187
19957.972703,-3256.906145,-11769.274478,1149.143247
19957.973037,-1110.308913,-7476.080014,3677.258390
19957.973370,-222.061783,-6661.853478,6358.592633
19957.973703,-814.226536,-5477.523971,8503.660028
19957.974036,3478.967927,-3256.906145,9729.412825
19957.974369,3923.091493,-1850.514855,9806.022374
19957.974702,7920.203579,-4737.318029,9116.536426
19957.975035,4663.297435,-5033.400406,0.000000
19957.975369,3256.906145,-8364.327145,-3294.210641
19957.975702,3330.926739,-13915.871710,-6511.811733
19957.976035,148.041188,-14211.954086,-9806.022374
19957.976368,-3478.967927,-16876.695478,-12793.794817
19957.976701,-7031.956449,-17616.901420,-11951.089769
19957.977034,-6513.812290,-13397.727550,-6971.469032
19957.977368,-5921.647536,-9548.656652,0.000000
19957.977701,296.082377,-8290.306550,6971.469032
19957.978034,2294.638420,-5921.647536,11568.042020
19957.978367,3256.906145,-1406.391290,13176.842566
19957.978700,5255.462188,-1110.308913,13330.061665
19957.979033,3552.988522,-4515.256246,11261.603821
19957.979366,2516.700203,-4811.338623,4443.353888
19957.979700,888.247130,-7179.997637,-612.876398
19957.980033,0.000000,-9548.656652,-5975.544884
19957.980366,-2072.576638,-14211.954086,-7431.126331
19957.980699,-2442.679609,-14211.954086,-14632.424012
19957.981032,-5699.585753,-15026.180623,-12257.527968
19957.981365,-4737.318029,-15470.304188,-4979.620737
19957.981699,-1258.350101,-13027.624579,-4596.572988
19957.982032,-1480.411884,-10732.986159,2374.896044
19957.982365,1406.391290,-7105.977043,7814.174080
19957.982698,1184.329507,-3849.070898,10878.556072
19957.983031,3552.988522,-1850.514855,13483.280765
19957.983364,3478.967927,-4589.276840,12027.699319
19957.983698,4367.215058,-2664.741391,8120.612279
19957.984031,3034.844362,-5773.606348,3907.087040
19957.984364,2368.659014,-7105.977043,-1915.238745
19957.984697,0.000000,-11251.130318,-6818.249932
19957.985030,-4145.153275,-12509.480420,-9806.022374
19957.985363,-74.020594,-15100.201217,-10648.727422
19957.985696,-2146.597232,-16136.489536,-11184.994271
19957.986030,-962.267725,-16506.592507,-7431.126331
19957.986363,-1258.350101,-14211.954086,-2681.334243
19957.986696,1998.556043,-10066.800811,3217.601092
19957.987029,3552.988522,-5995.668130,8963.317327
19957.987362,4441.235652,-4515.256246,12563.966167
19957.987695,5551.544565,-4515.256246,14019.547613
19957.988029,0.000000,-3034.844362,10418.898773
19957.988362,1110.308913,-7105.977043,3600.648841
19957.988695,-2220.617826,-6513.812290,-536.266849
19957.989028,-2072.576638,-7772.162391,-3064.381992
19957.989361,-1554.432478,-10510.924376,-5286.058936
19957.989694,-1110.308913,-11917.315666,-6741.640382
19957.990027,1628.453072,-11251.130318,-5592.497135
19957.990361,1480.411884,-12213.398043,-4673.182538
19957.990694,2590.720797,-13915.871710,-3753.867940
19957.991027,2072.576638,-14211.954086,-76.609550
19957.991360,1702.473667,-13619.789333,-76.609550
19957.991693,-1776.494261,-8956.491898,3064.381992
19957.992026,-2368.659014,-7179.997637,5515.887586
19957.992360,-1554.432478,-5107.421000,5056.230287
19957.992693,-296.082377,-5625.565159,6741.640382
19957.993026,-592.164754,-4885.359217,5669.106685
19957.993359,-2072.576638,-6365.771101,3907.087040
19957.993692,0.000000,-4811.338623,0.000000
19957.994025,4071.132681,-9474.636058,-76.609550
19957.994358,2886.803174,-10658.965565,-1915.238745
19957.994692,2294.638420,-10140.821405,-6128.763984
19957.995025,4071.132681,-13619.789333,-4979.620737
19957.995358,0.000000,-14063.912898,-5822.325785
19957.995691,-888.247130,-13471.748144,-5975.544884
19957.996024,-2294.638420,-13397.727550,-3907.087040
19957.996357,-2146.597232,-11473.192101,-612.876398
19957.996691,-2368.659014,-8956.491898,3907.087040
19957.997024,-74.020594,-5773.606348,2987.772442
19957.997357,-1480.411884,-6143.709319,8197.221829
19957.997690,-74.020594,-7105.977043,7277.907231
19957.998023,2294.638420,-6513.812290,6665.030833
19957.998356,2368.659014,-5995.668130,8273.831378
19957.998689,2812.782580,-5847.626942,3370.820191
19957.999023,1628.453072,-8956.491898,-1225.752797
19957.999356,2368.659014,-9918.759623,-3983.696590
19957.999689,1184.329507,-12213.398043,-4673.182538
19958.000022,1406.391290,-13175.665768,-6511.811733
19958.000355,-3034.844362,-14804.118840,-8656.879127
19958.000688,-4515.256246,-15100.201217,-7431.126331
19958.001022,-3627.009116,-11547.212695,-3447.429741
19958.001355,-3552.988522,-9548.656652,1532.190996
19958.001688,370.102971,-7994.224174,7890.783629
19958.002021,3478.967927,-5625.565159,8503.660028
19958.002354,2368.659014,-3034.844362,11031.775171
19958.002687,6439.791695,-4737.318029,13406.671215
19958.003020,4737.318029,-4811.338623,8197.221829
19958.003354,4737.318029,-5255.462188,2451.505594
19958.003687,4737.318029,-8142.265362,-1072.533697
19958.004020,2960.823768,-9548.656652,-6128.763984
19958.004353,592.164754,-11917.315666,-8273.831378
19958.004686,1110.308913,-16580.613101,-12334.137518
19958.005019,-3108.864956,-17764.942608,-12334.137518
19958.005353,-4145.153275,-15026.180623,-8886.707777
19958.005686,-2368.659014,-13027.624579,-2834.553343
19958.006019,0.000000,-9252.574275,3294.210641
19958.006352,3627.009116,-5847.626942,9576.193725
19958.006685,5995.668130,-2516.700203,14172.766713
19958.007018,6217.729913,-2886.803174,16241.224558
19958.007351,3108.864956,-3034.844362,12563.966167
19958.007685,4663.297435,-4737.318029,4213.525239
19958.008018,592.164754,-7179.997637,2145.067394
19958.008351,2294.638420,-10510.924376,-2528.115143
19958.008684,-2664.741391,-11325.150913,-9806.022374
19958.009017,-1998.556043,-12805.562797,-11108.384721
19958.009350,-1850.514855,-14434.015869,-9116.536426
19958.009684,-1924.535449,-13915.871710,-7660.954980
19958.010017,-1850.514855,-14211.954086,-4979.620737
19958.010350,-2960.823768,-13545.768739,-76.609550
19958.010683,0.000000,-5995.668130,1225.752797
19958.011016,592.164754,-6587.832884,9806.022374
19958.011349,4663.297435,-4737.318029,11568.042020
19958.011682,3478.967927,-4441.235652,12180.918418
19958.012016,370.102971,-5403.503377,8044.002729
19958.012349,0.000000,-6143.709319,3140.991542
19958.012682,-1924.535449,-7698.141797,-766.095498
19958.013015,-1776.494261,-7179.997637,-4903.011187
19958.013348,-74.020594,-11843.295072,-6205.373534
19958.013681,-2220.617826,-9844.739029,-7354.516781
19958.014015,-2368.659014,-13101.645173,-5515.887586
19958.014348,-74.020594,-14211.954086,-6358.592633
19958.014681,-666.185348,-12953.603985,-3907.087040
19958.015014,-1554.432478,-11769.274478,-1225.752797
19958.015347,518.144159,-9474.636058,3294.210641
19958.015680,740.205942,-7550.100608,6818.249932
19958.016013,-1480.411884,-3923.091493,6128.763984
19958.016347,-222.061783,-6217.729913,5898.935335
19958.016680,-2442.679609,-6513.812290,5439.278036
19958.017013,-2442.679609,-6587.832884,1455.581446
19958.017346,-2664.741391,-7179.997637,459.657299
19958.017679,-370.102971,-5625.565159,-1838.629195
19958.018012,2294.638420,-9030.512492,-76.609550
19958.018346,4071.132681,-9474.636058,-2987.772442
19958.018679,2368.659014,-10732.986159,-2451.505594
19958.019012,4145.153275,-12953.603985,-1838.629195
19958.019345,814.226536,-12657.521608,-5209.449386
19958.019678,222.061783,-11917.315666,-3983.696590
19958.020011,-2960.823768,-12583.501014,-2298.286494
19958.020344,-1406.391290,-9474.636058,-766.095498
19958.020678,-3849.070898,-8364.327145,2757.943793
19958.021011,-74.020594,-8290.306550,4213.525239
19958.021344,-3552.988522,-4811.338623,3064.381992
19958.021677,-592.164754,-7105.977043,8503.660028
19958.022010,2886.803174,-5921.647536,6052.154434
19958.022343,2368.659014,-4811.338623,6741.640382
19958.022677,4811.338623,-5773.606348,1915.238745
19958.023010,4071.132681,-9400.615463,-1455.581446
19958.023343,4293.194464,-11399.171507,-4366.744339
19958.023676,3552.988522,-14211.954086,-5286.058936
19958.024009,2294.638420,-16580.613101,-8656.879127
19958.024342,-5329.482782,-14878.139434,-8580.269578
19958.024676,-5921.647536,-14878.139434,-3983.696590
19958.025009,-1554.432478,-11251.130318,-766.095498
19958.025342,-888.247130,-10066.800811,5592.497135
19958.025675,740.205942,-4811.338623,6971.469032
19958.026008,1184.329507,-3701.029710,9959.241474
19958.026341,3404.947333,-2442.679609,11491.432470
19958.026674,4663.297435,-3552.988522,9729.412825
19958.027008,3182.885551,-3034.844362,2757.943793
19958.027341,2368.659014,-6291.750507,2298.286494
19958.027674,2294.638420,-9474.636058,-4366.744339
19958.028007,2886.803174,-9548.656652,-9652.803275
19958.028340,-888.247130,-15396.283594,-8963.317327
19958.028673,-1258.350101,-15174.221811,-11951.089769
19958.029007,-4811.338623,-17172.777854,-9499.584175
19958.029340,-3330.926739,-13989.892304,-5669.106685
19958.029673,-1850.514855,-13027.624579,-76.609550
19958.030006,-2072.576638,-8068.244768,4596.572988
19958.030339,2738.761985,-5403.503377,9806.022374
19958.030672,3182.885551,-2960.823768,13713.109414
19958.031005,2960.823768,-2442.679609,12870.404366
19958.031339,2368.659014,-4515.256246,11874.480219
19958.031672,5255.462188,-4737.318029,4826.401637
19958.032005,1184.329507,-4811.338623,0.000000
19958.032338,1480.411884,-10658.965565,-3294.210641
19958.032671,-1184.329507,-11325.150913,-10572.117872
19958.033004,-3701.029710,-15174.221811,-12257.527968
19958.033338,-3330.926739,-16062.468941,-12257.527968
19958.033671,-3923.091493,-16876.695478,-8963.317327
19958.034004,-1998.556043,-15914.427753,-3294.210641
19958.034337,-1258.350101,-10732.986159,1762.019645
19958.034670,3478.967927,-7105.977043,6358.592633
19958.035003,2960.823768,-3034.844362,13636.499864
19958.035336,3849.070898,-2590.720797,15704.957709
19958.035670,4589.276840,-2590.720797,11644.651570
19958.036003,1406.391290,-4737.318029,6971.469032
19958.036336,222.061783,-6069.688724,1302.362347
19958.036669,-888.247130,-8068.244768,-3140.991542
19958.037002,-3034.844362,-11251.130318,-7737.564530
19958.037335,-4737.318029,-11917.315666,-9193.145976
19958.037669,-3923.091493,-12435.459826,-10801.946522
19958.038002,-2368.659014,-13693.809927,-7354.516781
19958.038335,962.267725,-14211.954086,-3677.258390
19958.038668,2294.638420,-11843.295072,-383.047749
19958.039001,3330.926739,-11695.253884,4213.525239
19958.039334,2886.803174,-7994.224174,8197.221829
19958.039667,2368.659014,-6217.729913,9346.365076
19958.040001,814.226536,-5181.441594,7431.126331
19958.040334,-74.020594,-8290.306550,7277.907231
19958.040667,-4145.153275,-5995.668130,4290.134789
19958.041000,-2368.659014,-6587.832884,2604.724693
19958.041333,-1258.350101,-6735.874072,-3677.258390
19958.041666,0.000000,-7179.997637,-3677.258390
19958.042000,1702.473667,-9622.677246,-4366.744339
19958.042333,2220.617826,-12139.377449,-3907.087040
19958.042666,1332.370696,-12657.521608,-5056.230287
19958.042999,592.164754,-13545.768739,-4290.134789
19958.043332,-74.020594,-12583.501014,-4519.963438
19958.043665,0.000000,-11917.315666,1378.971896
19958.043998,-74.020594,-10066.800811,2681.334243
19958.044332,-1480.411884,-5403.503377,2451.505594
19958.044665,-2368.659014,-5699.585753,5209.449386
19958.044998,-962.267725,-5403.503377,3753.867940
19958.045331,-2294.638420,-6513.812290,3983.696590
19958.045664,-962.267725,-5477.523971,3294.210641
19958.045997,1258.350101,-7105.977043,3830.477490
19958.046331,3182.885551,-6809.894666,2374.896044
19958.046664,3775.050304,-7105.977043,383.047749
19958.046997,4071.132681,-10658.965565,-1915.238745
19958.047330,4441.235652,-10955.047942,-4136.915689
19958.047663,2368.659014,-13101.645173,-4596.572988
19958.047996,1406.391290,-14211.954086,-6818.249932
19958.048329,-4145.153275,-12509.480420,-9193.145976
19958.048663,-4737.318029,-14285.974681,-2528.115143
19958.048996,-2442.679609,-10658.965565,-76.609550
19958.049329,-3034.844362,-7476.080014,1838.629195
19958.049662,-888.247130,-5921.647536,6358.592633
19958.049995,0.000000,-4441.235652,8963.317327
19958.050328,2294.638420,-2590.720797,9959.241474
19958.050662,6735.874072,-4441.235652,10955.165621
19958.050995,6439.791695,-5921.647536,4826.401637
19958.051328,3552.988522,-6883.915261,2374.896044
19958.051661,4071.132681,-11547.212695,-2834.553343
19958.051994,1110.308913,-12953.603985,-8656.879127
19958.052327,-2368.659014,-15026.180623,-9499.584175
19958.052660,-4589.276840,-15544.324782,-13636.499864
19958.052994,-5403.503377,-16876.695478,-8963.317327
19958.053327,-3256.906145,-12879.583391,-3447.429741
19958.053660,-1998.556043,-10362.883188,2374.896044
19958.053993,1110.308913,-7105.977043,5439.278036
19958.054326,2960.823768,-4219.173869,13406.671215
19958.054659,4663.297435,-2368.659014,13713.109414
19958.054993,4515.256246,-814.226536,10418.898773
19958.055326,3478.967927,-6513.812290,8197.221829
19958.055659,2368.659014,-4663.297435,1532.190996
19958.055991,1184.329507,-7846.182985,-3600.648841
19958.056324,814.226536,-11399.171507,-6971.469032
19958.056657,-1776.494261,-13101.645173,-10418.898773
19958.056990,-2442.679609,-14137.933492,-12870.404366
19958.057323,-2368.659014,-17246.798449,-7431.126331
19958.057656,-4145.153275,-14285.974681,-6128.763984
19958.057989,-1258.350101,-14211.954086,-2528.115143
19958.058323,-2368.659014,-9548.656652,3677.258390
19958.058656,2072.576638,-6587.832884,10112.460574
19958.058989,4515.256246,-4737.318029,13866.328514
19958.059322,3849.070898,-2886.803174,13636.499864
19958.059655,4071.132681,-3256.906145,10955.165621
19958.059988,592.164754,-5477.523971,8197.221829
19958.060321,1110.308913,-3775.050304,0.000000
19958.060655,-370.102971,-7179.997637,-4903.011187
19958.060988,814.226536,-11843.295072,-7431.126331
19958.061321,-1406.391290,-14285.974681,-11951.089769
19958.061654,-814.226536,-15396.283594,-10495.508323
19958.061987,-2516.700203,-16580.613101,-9039.926876
19958.062320,-2072.576638,-14434.015869,-5822.325785
19958.062653,1702.473667,-12435.459826,-383.047749
19958.062986,1480.411884,-9326.594869,5745.716235
19958.063320,4515.256246,-5773.606348,9806.022374
19958.063653,3552.988522,-4367.215058,11874.480219
19958.063986,3034.844362,-4737.318029,10955.165621
19958.064319,2294.638420,-5625.565159,6665.030833
19958.064652,-1776.494261,-4811.338623,0.000000
19958.064985,-1776.494261,-8364.327145,1149.143247
19958.065318,-1850.514855,-8068.244768,-5822.325785
19958.065652,-2368.659014,-7772.162391,-7048.078582
19958.065985,1110.308913,-13027.624579,-5898.935335
19958.066318,1480.411884,-12879.583391,-4979.620737
19958.066651,1036.288319,-11917.315666,-4903.011187
19958.066984,740.205942,-12583.501014,-3370.820191
19958.067317,-1258.350101,-10658.965565,-2757.943793
19958.067650,0.000000,-9844.739029,2911.162892
19958.067984,2294.638420,-11843.295072,4826.401637
19958.068317,-1184.329507,-5995.668130,4903.011187
19958.068650,888.247130,-7994.224174,8350.440928
19958.068983,-74.020594,-5847.626942,4290.134789
19958.069316,-1406.391290,-6809.894666,3447.429741
19958.069649,-444.123565,-5773.606348,2221.676944
19958.069982,0.000000,-7254.018232,1608.800546
19958.070316,1924.535449,-5995.668130,0.000000
19958.070649,5329.482782,-9474.636058,-76.609550
19958.070982,4959.379811,-10584.944971,-3524.039291
19958.071315,4071.132681,-9622.677246,-7048.078582
19958.071648,0.000000,-15692.365970,-4979.620737
19958.071981,-2368.659014,-13989.892304,-7048.078582
19958.072314,-3404.947333,-14508.036463,-4749.792088
19958.072648,-3182.885551,-11251.130318,-1685.410096
19958.072981,-2220.617826,-8216.285956,3600.648841
19958.073314,-1110.308913,-8808.450710,7354.516781
19958.073647,-74.020594,-7105.977043,9422.974625
19958.073980,1110.308913,-3552.988522,7201.297681
19958.074313,2368.659014,-4441.235652,11874.480219
19958.074646,4071.132681,-5921.647536,7277.907231
19958.074980,1184.329507,-5995.668130,1225.752797
19958.075313,3256.906145,-7105.977043,-2528.115143
19958.075646,2368.659014,-11029.068536,-5056.230287
19958.075979,2072.576638,-12435.459826,-7277.907231
19958.076312,-1036.288319,-16062.468941,-9806.022374
19958.076645,-4959.379811,-15322.262999,-11261.603821
19958.076978,-6735.874072,-15618.345376,-7354.516781
19958.077312,-4071.132681,-11325.150913,-2374.896044
19958.077645,-1554.432478,-8882.471304,2987.772442
19958.077978,-1110.308913,-4811.338623,7354.516781
19958.078311,2368.659014,-4589.276840,12947.013916
19958.078644,4663.297435,-4441.235652,14632.424012
19958.078977,3034.844362,-1998.556043,9806.022374
19958.079310,3775.050304,-4737.318029,6052.154434
19958.079644,2368.659014,-5699.585753,76.609550
19958.079977,962.267725,-8808.450710,-4903.011187
19958.080310,0.000000,-11843.295072,-8503.660028
19958.080643,-3552.988522,-13101.645173,-11644.651570
19958.080976,-3627.009116,-16062.468941,-15321.909960
19958.081309,-5329.482782,-18505.148550,-8044.002729
19958.081642,-3330.926739,-15396.283594,-5286.058936
19958.081976,-2738.761985,-11695.253884,-995.924147
19958.082309,0.000000,-5107.421000,6435.202183
19958.082642,3627.009116,-4071.132681,12334.137518
19958.082975,6217.729913,-1554.432478,15321.909960
19958.083308,4441.235652,-1258.350101,12870.404366
19958.083641,4441.235652,-5329.482782,9729.412825
19958.083974,1998.556043,-5033.400406,1225.752797
19958.084308,3478.967927,-9474.636058,-1302.362347
19958.084641,-1554.432478,-7772.162391,-7354.516781
19958.084974,-1406.391290,-13175.665768,-11031.775171
19958.085307,-444.123565,-14582.057057,-11031.775171
19958.085640,-666.185348,-16432.571912,-9269.755526
19958.085973,-888.247130,-14656.077652,-6435.202183
19958.086306,-296.082377,-13397.727550,-2757.943793
19958.086639,592.164754,-10658.965565,1685.410096
19958.086973,2368.659014,-6587.832884,8273.831378
19958.087306,3775.050304,-2738.761985,8580.269578
19958.087639,3478.967927,-1258.350101,9806.022374
19958.087972,3775.050304,-6513.812290,10955.165621
19958.088305,1702.473667,-5329.482782,5745.716235
19958.088638,1110.308913,-6809.894666,1532.190996
19958.088971,296.082377,-7328.038826,-1838.629195
19958.089305,0.000000,-9474.636058,-4443.353888
19958.089638,-740.205942,-10214.842000,-7814.174080
19958.089971,-74.020594,-15988.448347,-7431.126331
19958.090304,-2368.659014,-12213.398043,-7354.516781
19958.090637,-592.164754,-14211.954086,-4596.572988
19958.090970,2294.638420,-14211.954086,-3753.867940
19958.091303,0.000000,-9548.656652,306.438199
19958.091637,0.000000,-7179.997637,6128.763984
19958.091970,1554.432478,-6143.709319,7431.126331
19958.092303,-370.102971,-4737.318029,7660.954980
19958.092636,-1332.370696,-5181.441594,7584.345430
19958.092969,-1850.514855,-5255.462188,3294.210641
19958.093302,-3034.844362,-5403.503377,1225.752797
19958.093635,-2072.576638,-6661.853478,-995.924147
19958.093969,-2368.659014,-8660.409521,-1608.800546
19958.094302,148.041188,-9622.677246,-2145.067394
19958.094635,2294.638420,-11251.130318,-4979.620737
19958.094968,592.164754,-10732.986159,-6128.763984
19958.095301,1776.494261,-13397.727550,-1915.238745
19958.095634,222.061783,-11917.315666,-4290.134789
19958.095967,0.000000,-11917.315666,0.000000
19958.096301,-1850.514855,-10732.986159,229.828649
19958.096634,-2294.638420,-10066.800811,2374.896044
19958.096967,-2368.659014,-6661.853478,3524.039291
19958.097300,-1258.350101,-7105.977043,4519.963438
19958.097633,-1258.350101,-4737.318029,3064.381992
19958.097966,0.000000,-3923.091493,6358.592633
19958.098299,2368.659014,-5699.585753,8503.660028
19958.098633,3775.050304,-4293.194464,2604.724693
19958.098966,3478.967927,-8142.265362,-76.609550
19958.099299,3552.988522,-8734.430116,-3524.039291
19958.099632,1332.370696,-13471.748144,-5592.497135
19958.099965,-888.247130,-13693.809927,-8580.269578
19958.100298,-2960.823768,-14434.015869,-8580.269578
19958.100631,-2812.782580,-16580.613101,-6128.763984
19958.100965,-1554.432478,-13619.789333,-3140.991542
19958.101298,-2368.659014,-8660.409521,1991.848295
19958.101631,0.000000,-7179.997637,7814.174080
19958.101964,-74.020594,-2664.741391,6358.592633
19958.102297,1480.411884,-2442.679609,10572.117872
19958.102630,3997.112087,-3330.926739,10495.508323
19958.102963,3775.050304,-4293.194464,8044.002729
19958.103297,3849.070898,-7179.997637,3677.258390
19958.103630,5255.462188,-5921.647536,-2757.943793
19958.103963,4515.256246,-13027.624579,-2528.115143
19958.104296,4663.297435,-13027.624579,-7737.564530
19958.104629,-1776.494261,-13101.645173,-9806.022374
19958.104962,-2960.823768,-16950.716072,-10418.898773
19958.105295,-2664.741391,-15840.407159,-7507.735880
19958.105629,-2442.679609,-15026.180623,-2987.772442
19958.105962,-1924.535449,-10436.903782,995.924147
19958.106295,518.144159,-7994.224174,6971.469032
19958.106628,0.000000,-3034.844362,11338.213370
19958.106961,6439.791695,-2368.659014,14019.547613
19958.107294,4663.297435,-1184.329507,10955.165621
19958.107627,1776.494261,-3034.844362,9499.584175
19958.107961,2368.659014,-5403.503377,3983.696590
19958.108294,1184.329507,-7994.224174,-1838.629195
19958.108627,-1110.308913,-11399.171507,-7277.907231
19958.108960,-3404.947333,-13545.768739,-12257.527968
19958.109293,-3627.009116,-15988.448347,-12947.013916
19958.109626,-6513.812290,-16358.551318,-10418.898773
19958.109959,-5255.462188,-14359.995275,-8273.831378
19958.110293,-3034.844362,-13027.624579,-1608.800546
19958.110626,0.000000,-8882.471304,5898.935335
19958.110959,4367.215058,-5921.647536,12793.794817
19958.111292,3849.070898,-1258.350101,13176.842566
19958.111625,0.000000,-3034.844362,14709.033562
19958.111958,1998.556043,-3404.947333,7890.783629
19958.112291,-1628.453072,-5699.585753,3983.696590
19958.112624,-888.247130,-7105.977043,1149.143247
19958.112958,-1776.494261,-8956.491898,-4519.963438
19958.113291,-3108.864956,-11399.171507,-8120.612279
19958.113624,-1776.494261,-12509.480420,-9346.365076
19958.113957,-1258.350101,-14804.118840,-8656.879127
19958.114290,0.000000,-12509.480420,-6741.640382
19958.114623,-592.164754,-15100.201217,-1608.800546
19958.114956,2294.638420,-12435.459826,-1302.362347
19958.115290,962.267725,-8068.244768,3370.820191
19958.115623,3478.967927,-8290.306550,8503.660028
19958.115956,2738.761985,-5107.421000,9116.536426
19958.116289,888.247130,-5033.400406,8886.707777
19958.116622,0.000000,-4811.338623,5822.325785
19958.116955,-1480.411884,-4219.173869,1838.629195
19958.117288,-3256.906145,-3034.844362,612.876398
19958.117622,1702.473667,-9474.636058,-2528.115143
19958.117955,1702.473667,-11251.130318,-4979.620737
19958.118288,1332.370696,-10732.986159,-4903.011187
19958.118621,3182.885551,-10807.006753,-6128.763984
19958.118954,1702.473667,-13841.851115,-5056.230287
19958.119287,1110.308913,-12879.583391,-4673.182538
19958.119620,444.123565,-13175.665768,-1991.848295
19958.119954,1480.411884,-10955.047942,1532.190996
19958.120287,2590.720797,-8882.471304,6052.154434
19958.120620,1702.473667,-7994.224174,4213.525239
19958.120953,0.000000,-5107.421000,6128.763984
19958.121286,-74.020594,-8142.265362,7277.907231
19958.121619,-1258.350101,-5255.462188,1532.190996
19958.121952,148.041188,-6883.915261,3370.820191
19958.122286,1776.494261,-6143.709319,2451.505594
19958.122619,2220.617826,-7550.100608,1532.190996
19958.122952,2960.823768,-8364.327145,-2451.505594
19958.123285,5403.503377,-10214.842000,-2987.772442
19958.123618,3182.885551,-12435.459826,-4673.182538
19958.123951,2072.576638,-12583.501014,-4979.620737
19958.124284,-1258.350101,-14211.954086,-7431.126331
19958.124618,-3552.988522,-11917.315666,-7584.345430
19958.124951,-4737.318029,-10732.986159,-1225.752797
19958.125284,-74.020594,-10658.965565,2987.772442
19958.125617,-74.020594,-6735.874072,3677.258390
19958.125950,-1258.350101,-6439.791695,7890.783629
19958.126283,2146.597232,-4737.318029,8503.660028
19958.126616,4145.153275,-3923.091493,10035.851024
19958.126950,4145.153275,-3849.070898,7660.954980
19958.127283,5329.482782,-5995.668130,4060.306139
19958.127616,4959.379811,-8290.306550,-689.485948
19958.127949,5255.462188,-14063.912898,-1915.238745
19958.128282,1110.308913,-12435.459826,-9422.974625
19958.128615,-4737.318029,-14285.974681,-13176.842566
19958.128948,-6217.729913,-17394.839637,-10572.117872
19958.129282,-7031.956449,-13693.809927,-7967.393179
19958.129615,-4885.359217,-12435.459826,-1608.800546
19958.129948,-3552.988522,-8364.327145,3677.258390
19958.130281,-592.164754,-4885.359217,9116.536426
19958.130614,3478.967927,-4737.318029,13100.233016
19958.130947,592.164754,-1554.432478,15475.129060
19958.131280,296.082377,-1258.350101,11338.213370
19958.131614,3034.844362,-5625.565159,6665.030833
19958.131947,592.164754,-5107.421000,0.000000
19958.132280,-1184.329507,-7179.997637,-4903.011187
19958.132613,-1258.350101,-12435.459826,-9116.536426
19958.132946,-3108.864956,-14508.036463,-12793.794817
19958.133279,-4737.318029,-16580.613101,-12717.185267
19958.133612,-5625.565159,-15470.304188,-9806.022374
19958.133946,-2368.659014,-16284.530724,-2528.115143
19958.134279,-666.185348,-11843.295072,1455.581446
19958.134612,2294.638420,-5477.523971,6128.763984
19958.134945,3552.988522,-4441.235652,12180.918418
19958.135278,4145.153275,-2442.679609,14402.595362
19958.135611,3404.947333,-3478.967927,12180.918418
19958.135944,1998.556043,-3701.029710,7814.174080
19958.136278,2072.576638,-4737.318029,2987.772442
19958.136611,1406.391290,-7402.059420,-689.485948
19958.136944,1110.308913,-11843.295072,-7431.126331
19958.137277,-2812.782580,-11325.150913,-9806.022374
19958.137610,-1776.494261,-15396.283594,-8886.707777
19958.137943,-1332.370696,-17172.777854,-9882.631924
19958.138276,-2960.823768,-14878.139434,-6741.640382
19958.138609,-148.041188,-13101.645173,-2451.505594
19958.138943,1406.391290,-10140.821405,3064.381992
19958.139276,4145.153275,-6587.832884,8427.050478
19958.139609,6513.812290,-4515.256246,12870.404366
19958.139942,5847.626942,-3997.112087,11568.042020
19958.140275,2368.659014,-4663.297435,9116.536426
19958.140608,-74.020594,-5921.647536,3983.696590
19958.140941,-1258.350101,-6217.729913,-995.924147
19958.141275,-2072.576638,-6587.832884,-2451.505594
19958.141608,-74.020594,-11251.130318,-3753.867940
19958.141941,-740.205942,-11843.295072,-8044.002729
19958.142274,0.000000,-11473.192101,-6128.763984
19958.142607,2294.638420,-13915.871710,-4366.744339
19958.142940,1554.432478,-12361.439231,-4290.134789
19958.143273,1850.514855,-10732.986159,-842.705048
19958.143607,1480.411884,-10436.903782,1991.848295
19958.143940,1184.329507,-8364.327145,4903.011187
19958.144273,1702.473667,-6809.894666,1532.190996
19958.144606,-74.020594,-9474.636058,6052.154434
19958.144939,-1258.350101,-5921.647536,2604.724693
19958.145272,-2294.638420,-6143.709319,2451.505594
19958.145605,-3552.988522,-6883.915261,3064.381992
19958.145939,0.000000,-6365.771101,2221.676944
19958.146272,2146.597232,-7105.977043,2068.457845
19958.146605,2442.679609,-7772.162391,0.000000
19958.146938,4071.132681,-11251.130318,-689.485948
19958.147271,1554.432478,-9548.656652,-4596.572988
19958.147604,-74.020594,-15396.283594,-4979.620737
19958.147937,-1258.350101,-13027.624579,-7354.516781
19958.148271,-3256.906145,-13841.851115,-4903.011187
19958.148604,-2146.597232,-13619.789333,-229.828649
19958.148937,-2812.782580,-9252.574275,2987.772442
19958.149270,-2072.576638,-6809.894666,4443.353888
19958.149603,-2368.659014,-6291.750507,6281.983084
19958.149936,-3404.947333,-5033.400406,7048.078582
19958.150269,0.000000,-4811.338623,8656.879127
19958.150603,2146.597232,-2738.761985,6128.763984
19958.150936,0.000000,-3627.009116,5515.887586
19958.151269,4663.297435,-8290.306550,-76.609550
19958.151602,2294.638420,-8586.388927,-4366.744339
19958.151935,3478.967927,-12731.542202,-6205.373534
19958.152268,1110.308913,-13101.645173,-7814.174080
19958.152601,-2590.720797,-15100.201217,-10035.851024
19958.152935,-3775.050304,-15766.386565,-8350.440928
19958.153268,-2442.679609,-15396.283594,-2528.115143
19958.153601,-3256.906145,-9548.656652,612.876398
19958.153934,592.164754,-8290.306550,7890.783629
19958.154267,3478.967927,-4737.318029,8503.660028
19958.154600,2368.659014,-2812.782580,12947.013916
19958.154933,6143.709319,-2368.659014,12180.918418
19958.155267,5033.400406,-4367.215058,9576.193725
19958.155600,4663.297435,-4219.173869,3677.258390
19958.155933,3775.050304,-7624.121203,-1608.800546
19958.156266,3997.112087,-11251.130318,-5592.497135
19958.156599,222.061783,-14285.974681,-10035.851024
19958.156932,-3182.885551,-14878.139434,-13789.718964
19958.157265,-4663.297435,-17320.819043,-12257.527968
19958.157599,-5551.544565,-14285.974681,-9806.022374
19958.157932,-2220.617826,-14211.954086,-1302.362347
19958.158265,0.000000,-10140.821405,7890.783629
19958.158598,3478.967927,-5847.626942,8580.269578
19958.158931,4737.318029,-2146.597232,12257.527968
19958.159264,3478.967927,-370.102971,13483.280765
19958.159598,2738.761985,-2442.679609,10418.898773
19958.159931,2368.659014,-5329.482782,7277.907231
19958.160264,444.123565,-6143.709319,995.924147
19958.160597,0.000000,-8660.409521,-3064.381992
19958.160930,-2072.576638,-13027.624579,-6818.249932
19958.161263,-3034.844362,-12361.439231,-12257.527968
19958.161597,-3849.070898,-13101.645173,-9806.022374
19958.161930,-1776.494261,-16580.613101,-7431.126331
19958.162263,-4367.215058,-12213.398043,-6128.763984
19958.162596,-962.267725,-12361.439231,-842.705048
19958.162929,0.000000,-9030.512492,4366.744339
19958.163262,1480.411884,-5551.544565,8273.831378
19958.163595,3478.967927,-4737.318029,10955.165621
19958.163929,4663.297435,-7105.977043,12180.918418
19958.164262,0.000000,-3034.844362,8580.269578
19958.164595,-74.020594,-7105.977043,4826.401637
19958.164928,-74.020594,-6957.935855,-842.705048
19958.165261,-74.020594,-9252.574275,-1915.238745
19958.165594,-1110.308913,-9992.780217,-5592.497135
19958.165928,-370.102971,-12139.377449,-7354.516781
19958.166261,74.020594,-13249.686362,-6894.859482
19958.166594,-1036.288319,-12731.542202,-6818.249932
19958.166927,-74.020594,-13027.624579,-4979.620737
19958.167260,-2368.659014,-10140.821405,0.000000
19958.167593,1110.308913,-11843.295072,3600.648841
19958.167927,148.041188,-5403.503377,4443.353888
19958.168260,962.267725,-5921.647536,8350.440928
19958.168593,444.123565,-5551.544565,7737.564530
19958.168926,-888.247130,-5107.421000,5515.887586
19958.169259,-1258.350101,-6661.853478,3064.381992
19958.169592,-2368.659014,-7772.162391,1378.971896
19958.169925,-1554.432478,-5995.668130,-2451.505594
19958.170259,2294.638420,-9178.553681,-306.438199
19958.170592,4367.215058,-11843.295072,-3140.991542
19958.170925,2368.659014,-10140.821405,-3677.258390
19958.171258,4663.297435,-13027.624579,-2528.115143
19958.171591,1480.411884,-13249.686362,-3753.867940
19958.171924,962.267725,-11917.315666,-4136.915689
19958.172258,-888.247130,-12731.542202,-2221.676944
19958.172591,0.000000,-10732.986159,2145.067394
19958.172924,-1554.432478,-7920.203579,2834.553343
19958.173257,222.061783,-7698.141797,4826.401637
19958.173590,-888.247130,-6587.832884,5592.497135
19958.173923,-74.020594,-4293.194464,7048.078582
19958.174257,1184.329507,-4219.173869,4903.011187
19958.174590,5847.626942,-4737.318029,5439.278036
19958.174923,3552.988522,-5995.668130,4903.011187
19958.175256,4663.297435,-9474.636058,-1302.362347
19958.175589,5551.544565,-11843.295072,-4366.744339
19958.175922,1184.329507,-13767.830521,-5822.325785
19958.176255,-74.020594,-14508.036463,-8427.050478
19958.176589,-4663.297435,-15618.345376,-10189.070123
19958.176922,-4663.297435,-14952.160028,-6205.373534
19958.177255,-2072.576638,-11843.295072,-76.609550
19958.177588,-3108.864956,-7772.162391,3064.381992
19958.177921,-3552.988522,-3923.091493,8580.269578
19958.178254,1702.473667,-5625.565159,9729.412825
19958.178588,222.061783,-74.020594,9806.022374
19958.178921,3849.070898,-4737.318029,10955.165621
19958.179254,2812.782580,-5107.421000,6818.249932
19958.179587,1480.411884,-6439.791695,1685.410096
19958.179920,518.144159,-8364.327145,-3600.648841
19958.180253,1998.556043,-11843.295072,-6205.373534
19958.180587,-2960.823768,-12213.398043,-9806.022374
19958.180920,-1850.514855,-15988.448347,-10189.070123
19958.181253,-3627.009116,-17764.942608,-11108.384721
19958.181586,-4737.318029,-14285.974681,-6128.763984
19958.181919,-1850.514855,-12139.377449,-1762.019645
19958.182252,-666.185348,-9474.636058,5439.278036
19958.182586,1554.432478,-5477.523971,9652.803275
19958.182919,3256.906145,-2812.782580,12717.185267
19958.183252,3478.967927,-1850.514855,12257.527968
19958.183585,0.000000,-3034.844362,11644.651570
19958.183918,4071.132681,-5329.482782,4826.401637
19958.184251,1702.473667,-7105.977043,-383.047749
19958.184584,0.000000,-7179.997637,-4903.011187
19958.184918,-74.020594,-12731.542202,-9116.536426
19958.185251,-2368.659014,-14656.077652,-11721.261119
