#time,accel_x,accel_y,accel_z
20585.301112,7920.203579,-7105.977043,4136.915689
20585.301446,7328.038826,-7105.977043,3447.429741
20585.301779,6143.709319,-7772.162391,76.609550
20585.302113,3775.050304,-8438.347739,-2834.553343
20585.302446,2368.659014,-9548.656652,-4903.011187
20585.302780,0.000000,-8364.327145,-3064.381992
20585.303113,4367.215058,-11251.130318,-4519.963438
20585.303447,4367.215058,-9474.636058,-3753.867940
20585.303780,7105.977043,-9844.739029,3064.381992
20585.304114,10214.842000,-7179.997637,5209.449386
20585.304447,12583.501014,-8290.306550,5745.716235
20585.304781,12657.521608,-7920.203579,4903.011187
20585.305114,13027.624579,-7994.224174,4826.401637
20585.305448,13545.768739,-8882.471304,2834.553343
20585.305781,11843.295072,-9770.718434,2374.896044
20585.306115,9400.615463,-9474.636058,-4826.401637
20585.306448,4145.153275,-10732.986159,-4596.572988
20585.306781,2368.659014,-11917.315666,-4213.525239
20585.307115,1184.329507,-12509.480420,-3524.039291
20585.307448,0.000000,-10881.027347,-2681.334243
20585.307782,4071.132681,-9030.512492,2834.553343
20585.308115,8586.388927,-6143.709319,7967.393179
20585.308449,9918.759623,-3849.070898,8810.098227
20585.308782,12953.603985,-4737.318029,7584.345430
20585.309116,10807.006753,-3627.009116,3064.381992
20585.309449,10658.965565,-7624.121203,4519.963438
20585.309783,9104.533087,-6069.688724,-3677.258390
20585.310116,5921.647536,-9548.656652,-5745.716235
20585.310450,3627.009116,-11843.295072,-9882.631924
20585.310783,4441.235652,-12657.521608,-8044.002729
20585.311117,5477.523971,-12879.583391,-5975.544884
20585.311450,4885.359217,-12731.542202,-4673.182538
20585.311784,7328.038826,-11843.295072,0.000000
20585.312117,9104.533087,-10955.047942,5822.325785
20585.312450,11991.336260,-6809.894666,8350.440928
20585.312784,12657.521608,-7031.956449,10112.460574
20585.313117,11473.192101,-6957.935855,8503.660028
20585.313451,5921.647536,-7179.997637,7890.783629
20585.313784,6439.791695,-8882.471304,842.705048
20585.314118,0.000000,-8586.388927,-4060.306139
20585.314451,-3552.988522,-9844.739029,-4903.011187
20585.314785,-5255.462188,-9548.656652,-6741.640382
20585.315118,-3701.029710,-10510.924376,-4979.620737
20585.315452,-2960.823768,-10288.862594,-2221.676944
20585.315785,518.144159,-9326.594869,1532.190996
20585.316119,2664.741391,-5995.668130,3983.696590
20585.316452,7920.203579,-7698.141797,5439.278036
20585.316786,7624.121203,-6513.812290,3600.648841
20585.317119,4737.318029,-5699.585753,2451.505594
20585.317452,7624.121203,-8882.471304,1762.019645
20585.317786,4737.318029,-7772.162391,-1455.581446
20585.318119,2590.720797,-9918.759623,-3753.867940
20585.318453,1036.288319,-13323.706956,-3907.087040
20585.318786,0.000000,-11991.336260,-3370.820191
20585.319120,592.164754,-11769.274478,-612.876398
20585.319453,4663.297435,-9474.636058,76.609550
20585.319787,7105.977043,-5995.668130,3294.210641
20585.320120,10955.047942,-5995.668130,10955.165621
20585.320454,13545.768739,-4145.153275,5439.278036
20585.320787,12287.418637,-7994.224174,4213.525239
20585.321121,9918.759623,-8512.368333,766.095498
20585.321454,7624.121203,-9622.677246,-2681.334243
20585.321788,3849.070898,-10140.821405,-6128.763984
20585.322121,-74.020594,-15100.201217,-7737.564530
20585.322455,-3034.844362,-14211.954086,-8886.707777
20585.322788,-4737.318029,-11917.315666,-3370.820191
20585.323121,0.000000,-12805.562797,4826.401637
20585.323455,5551.544565,-6809.894666,5898.935335
20585.323788,10955.047942,-5329.482782,10955.165621
20585.324122,10288.862594,-4885.359217,11644.651570
20585.324455,7698.141797,-3775.050304,5745.716235
20585.324789,5847.626942,-7846.182985,536.266849
20585.325122,7031.956449,-9474.636058,-383.047749
20585.325456,1480.411884,-11325.150913,-4519.963438
20585.325789,-2442.679609,-11547.212695,-8273.831378
20585.326123,-6587.832884,-15026.180623,-9193.145976
20585.326456,-6513.812290,-11917.315666,-4903.011187
20585.326790,-1776.494261,-8734.430116,2298.286494
20585.327123,2294.638420,-7994.224174,2987.772442
20585.327457,1406.391290,-5403.503377,3064.381992
20585.327790,1184.329507,-6365.771101,5592.497135
20585.328124,4663.297435,-7105.977043,6052.154434
20585.328457,4441.235652,-6143.709319,5132.839837
20585.328790,-296.082377,-10881.027347,689.485948
20585.329124,-2664.741391,-8512.368333,-2911.162892
20585.329457,-2960.823768,-11251.130318,-2451.505594
20585.329791,0.000000,-3627.009116,-612.876398
20585.330124,1110.308913,-8956.491898,-3064.381992
20585.330458,296.082377,-7179.997637,-4290.134789
20585.330791,-2368.659014,-13397.727550,-689.485948
20585.331125,-2960.823768,-13249.686362,-3677.258390
20585.331458,-1036.288319,-12139.377449,-229.828649
20585.331792,-2738.761985,-13027.624579,383.047749
20585.332125,-74.020594,-10066.800811,3370.820191
20585.332459,-74.020594,-8290.306550,5439.278036
20585.332792,3849.070898,-5551.544565,10648.727422
20585.333126,4663.297435,-2886.803174,6128.763984
20585.333459,3552.988522,-3034.844362,5515.887586
20585.333793,592.164754,-4367.215058,1072.533697
20585.334126,-666.185348,-10658.965565,-3140.991542
20585.334459,-4293.194464,-9252.574275,-7354.516781
20585.334793,-9030.512492,-13545.768739,-8503.660028
20585.335126,-6217.729913,-14508.036463,-6818.249932
20585.335460,-7994.224174,-12509.480420,-4749.792088
20585.335793,-74.020594,-13619.789333,-76.609550
20585.336127,0.000000,-5995.668130,3524.039291
20585.336460,2960.823768,-5403.503377,8733.488677
20585.336794,7031.956449,-4737.318029,7277.907231
20585.337127,4885.359217,-4219.173869,5592.497135
20585.337461,5329.482782,-5625.565159,4826.401637
20585.337794,2294.638420,-7105.977043,383.047749
20585.338128,-296.082377,-10807.006753,-4060.306139
20585.338461,-1184.329507,-11769.274478,-4903.011187
20585.338795,-666.185348,-10955.047942,-7967.393179
20585.339128,-2072.576638,-11029.068536,-3447.429741
20585.339462,-74.020594,-14211.954086,-689.485948
20585.339795,-1850.514855,-10288.862594,-3370.820191
20585.340128,296.082377,-10955.047942,3294.210641
20585.340462,1480.411884,-9548.656652,4903.011187
20585.340795,1628.453072,-8734.430116,5745.716235
20585.341129,1924.535449,-8364.327145,6128.763984
20585.341462,2960.823768,-6883.915261,7737.564530
20585.341796,4515.256246,-2072.576638,3370.820191
20585.342129,3701.029710,-4737.318029,1608.800546
20585.342463,1036.288319,-6883.915261,-2451.505594
20585.342796,-2368.659014,-9548.656652,-6205.373534
20585.343130,-4737.318029,-11917.315666,-7201.297681
20585.343463,-3034.844362,-13915.871710,-6818.249932
20585.343797,-4219.173869,-13767.830521,-6511.811733
20585.344130,-2368.659014,-12065.356855,-76.609550
20585.344464,3775.050304,-11547.212695,4519.963438
20585.344797,4737.318029,-6587.832884,8580.269578
20585.345131,7105.977043,-5255.462188,8733.488677
20585.345464,6143.709319,-5847.626942,7967.393179
20585.345797,4885.359217,-4663.297435,4749.792088
20585.346131,3182.885551,-8586.388927,2068.457845
20585.346464,-1258.350101,-7698.141797,-6205.373534
20585.346798,-6513.812290,-10732.986159,-7354.516781
20585.347131,-4811.338623,-13619.789333,-7431.126331
20585.347465,-3627.009116,-10881.027347,-6128.763984
20585.347798,-1184.329507,-11177.109724,-76.609550
20585.348132,2368.659014,-9548.656652,2451.505594
20585.348465,2812.782580,-10066.800811,4366.744339
20585.348799,3923.091493,-9918.759623,3447.429741
20585.349132,3478.967927,-10658.965565,3294.210641
20585.349466,2886.803174,-7994.224174,306.438199
20585.349799,592.164754,-9770.718434,4213.525239
20585.350133,-74.020594,-11251.130318,1762.019645
20585.350466,-666.185348,-5403.503377,-2451.505594
20585.350800,-74.020594,-8290.306550,-1302.362347
20585.351133,0.000000,-7920.203579,-1608.800546
20585.351465,-2294.638420,-9474.636058,-2834.553343
20585.351798,-1258.350101,-10362.883188,-2604.724693
20585.352132,-1480.411884,-11325.150913,0.000000
20585.352466,-1628.453072,-11029.068536,1225.752797
20585.352799,-148.041188,-13619.789333,2374.896044
20585.353133,-962.267725,-9548.656652,3907.087040
20585.353466,2294.638420,-7698.141797,2451.505594
20585.353800,814.226536,-4663.297435,1838.629195
20585.354133,2368.659014,-8068.244768,4213.525239
20585.354467,-1258.350101,-6513.812290,-1915.238745
20585.354800,-2072.576638,-8142.265362,-1532.190996
20585.355134,-1184.329507,-7772.162391,-1685.410096
20585.355467,-2886.803174,-10732.986159,-2528.115143
20585.355801,-3182.885551,-10584.944971,-2834.553343
20585.356135,-1036.288319,-11473.192101,-76.609550
20585.356468,3034.844362,-9474.636058,2374.896044
20585.356802,3478.967927,-9326.594869,4826.401637
20585.357135,3775.050304,-7179.997637,3983.696590
20585.357469,4145.153275,-9696.697840,4903.011187
20585.357802,4663.297435,-9474.636058,1762.019645
20585.358136,2294.638420,-10362.883188,-76.609550
20585.358469,-2442.679609,-10066.800811,-3447.429741
20585.358803,-5107.421000,-10066.800811,-5439.278036
20585.359137,-2738.761985,-8216.285956,-3983.696590
20585.359470,1036.288319,-7846.182985,-459.657299
20585.359804,4589.276840,-7846.182985,3907.087040
20585.360137,1184.329507,-7179.997637,4903.011187
20585.360471,4811.338623,-9326.594869,3600.648841
20585.360804,4367.215058,-11251.130318,-76.609550
20585.361138,1776.494261,-11325.150913,919.314598
20585.361471,2294.638420,-10066.800811,-383.047749
20585.361805,-148.041188,-11251.130318,229.828649
20585.362138,370.102971,-8956.491898,-153.219100
20585.362472,74.020594,-8142.265362,-689.485948
20585.362806,1110.308913,-9178.553681,1149.143247
20585.363139,1776.494261,-7550.100608,3064.381992
20585.363473,1998.556043,-9474.636058,-76.609550
20585.363806,-518.144159,-7179.997637,-2298.286494
20585.364140,-1776.494261,-10140.821405,1838.629195
20585.364473,-1702.473667,-9548.656652,0.000000
20585.364807,-370.102971,-10510.924376,919.314598
20585.365140,1332.370696,-11547.212695,2604.724693
20585.365474,2516.700203,-7624.121203,4060.306139
20585.365808,740.205942,-6291.750507,306.438199
20585.366141,1554.432478,-10658.965565,2374.896044
20585.366475,-1850.514855,-11251.130318,-3140.991542
20585.366808,-3849.070898,-9548.656652,-2451.505594
20585.367142,-74.020594,-10658.965565,-1915.238745
20585.367475,-4145.153275,-10732.986159,-2145.067394
20585.367809,-3108.864956,-9696.697840,-2757.943793
20585.368142,-666.185348,-10955.047942,1455.581446
20585.368476,1776.494261,-7179.997637,4979.620737
20585.368809,2960.823768,-6291.750507,7354.516781
20585.369143,4663.297435,-8882.471304,4826.401637
20585.369477,1998.556043,-6587.832884,2451.505594
20585.369810,-2368.659014,-7179.997637,1225.752797
20585.370144,-666.185348,-11843.295072,-76.609550
20585.370477,-7105.977043,-11621.233289,-4749.792088
20585.370811,-6143.709319,-10807.006753,-5439.278036
20585.371144,-3923.091493,-10362.883188,-2528.115143
20585.371478,-1258.350101,-7105.977043,-76.609550
20585.371811,0.000000,-5995.668130,2451.505594
20585.372145,1406.391290,-6661.853478,2528.115143
20585.372479,3478.967927,-8586.388927,3370.820191
20585.372812,2072.576638,-9400.615463,3370.820191
20585.373146,1110.308913,-9030.512492,2068.457845
20585.373479,0.000000,-8660.409521,1225.752797
20585.373813,666.185348,-10510.924376,-76.609550
20585.374146,1110.308913,-7179.997637,0.000000
20585.374480,1184.329507,-9474.636058,-76.609550
20585.374813,2886.803174,-11251.130318,-76.609550
20585.375147,-1776.494261,-9548.656652,76.609550
20585.375480,370.102971,-8142.265362,-2298.286494
20585.375814,370.102971,-10362.883188,-842.705048
20585.376148,0.000000,-8364.327145,0.000000
20585.376481,296.082377,-8364.327145,2451.505594
20585.376815,2886.803174,-10658.965565,1455.581446
20585.377148,2960.823768,-7179.997637,1225.752797
20585.377482,5033.400406,-9178.553681,4826.401637
20585.377815,5551.544565,-5699.585753,2681.334243
20585.378149,3478.967927,-10066.800811,1149.143247
20585.378482,0.000000,-10066.800811,-2911.162892
20585.378816,-1036.288319,-11325.150913,-3907.087040
20585.379150,-3108.864956,-11843.295072,-3524.039291
20585.379483,-3849.070898,-9548.656652,-2911.162892
20585.379817,-1258.350101,-11547.212695,-3140.991542
20585.380150,1036.288319,-7179.997637,1225.752797
20585.380484,3552.988522,-8586.388927,7890.783629
20585.380817,5033.400406,-6735.874072,4903.011187
20585.381151,5847.626942,-8142.265362,4826.401637
20585.381484,3849.070898,-8734.430116,4366.744339
20585.381818,1850.514855,-9326.594869,995.924147
20585.382151,-3034.844362,-10510.924376,-2528.115143
20585.382485,-5329.482782,-12361.439231,-3447.429741
20585.382819,-7031.956449,-9474.636058,-6052.154434
20585.383152,-4737.318029,-8660.409521,-1225.752797
20585.383486,-370.102971,-8882.471304,306.438199
20585.383819,-666.185348,-9178.553681,-76.609550
20585.384153,-1776.494261,-7328.038826,536.266849
20585.384486,1406.391290,-9104.533087,3907.087040
20585.384820,1184.329507,-7476.080014,4136.915689
20585.385153,0.000000,-7179.997637,2451.505594
20585.385487,-74.020594,-9474.636058,-76.609550
20585.385821,-2368.659014,-8660.409521,1838.629195
20585.386154,3034.844362,-9474.636058,2987.772442
20585.386488,-962.267725,-8660.409521,-2145.067394
20585.386821,-2442.679609,-10214.842000,-766.095498
20585.387155,-2738.761985,-9030.512492,-3677.258390
20585.387488,-740.205942,-10510.924376,-1915.238745
20585.387822,-1480.411884,-8364.327145,-1838.629195
20585.388155,-2368.659014,-8364.327145,306.438199
20585.388489,-666.185348,-10066.800811,842.705048
20585.388822,444.123565,-9474.636058,2451.505594
20585.389156,2590.720797,-7179.997637,3064.381992
20585.389490,4663.297435,-5477.523971,3983.696590
20585.389823,2664.741391,-5699.585753,1225.752797
20585.390157,3775.050304,-8290.306550,-76.609550
20585.390490,0.000000,-8364.327145,-2451.505594
20585.390824,1702.473667,-12435.459826,-3753.867940
20585.391157,-2220.617826,-12731.542202,-2528.115143
20585.391491,-2960.823768,-10732.986159,-4596.572988
20585.391824,-740.205942,-10436.903782,-2298.286494
20585.392158,3775.050304,-8142.265362,995.924147
20585.392492,5033.400406,-7920.203579,5898.935335
20585.392825,7254.018232,-7994.224174,8963.317327
20585.393159,6439.791695,-8142.265362,3447.429741
20585.393492,3552.988522,-9696.697840,5515.887586
20585.393826,3478.967927,-9474.636058,-383.047749
20585.394159,-3552.988522,-8364.327145,-2145.067394
20585.394493,-3849.070898,-11843.295072,-2834.553343
20585.394826,-2886.803174,-9548.656652,-3830.477490
20585.395160,-2220.617826,-9548.656652,-766.095498
20585.395493,518.144159,-7772.162391,-919.314598
20585.395827,-74.020594,-10658.965565,-689.485948
20585.396161,-74.020594,-6587.832884,-4290.134789
20585.396494,1184.329507,-10807.006753,3294.210641
20585.396828,4071.132681,-11843.295072,4519.963438
20585.397161,814.226536,-9030.512492,1302.362347
20585.397495,1036.288319,-10362.883188,2374.896044
20585.397828,1332.370696,-7772.162391,2451.505594
20585.398162,2220.617826,-6957.935855,2834.553343
20585.398495,1258.350101,-8290.306550,1762.019645
20585.398829,-2368.659014,-7179.997637,-995.924147
20585.399163,-4145.153275,-9844.739029,-2451.505594
20585.399496,-2072.576638,-12435.459826,-2528.115143
20585.399830,-5107.421000,-9548.656652,-4366.744339
20585.400163,-5255.462188,-9548.656652,-1685.410096
20585.400497,-2442.679609,-10658.965565,-689.485948
20585.400830,370.102971,-7105.977043,2681.334243
20585.401164,4071.132681,-7698.141797,5286.058936
20585.401497,4293.194464,-6587.832884,5669.106685
20585.401831,2368.659014,-7179.997637,3677.258390
20585.402164,296.082377,-8734.430116,459.657299
20585.402498,740.205942,-9474.636058,-1302.362347
20585.402832,-2368.659014,-10140.821405,-3600.648841
20585.403165,-2442.679609,-11695.253884,-3447.429741
20585.403499,-1850.514855,-12731.542202,-3753.867940
20585.403832,-3849.070898,-10732.986159,-2451.505594
20585.404166,1554.432478,-9474.636058,2374.896044
20585.404499,3330.926739,-10066.800811,4060.306139
20585.404833,6439.791695,-5921.647536,6052.154434
20585.405166,4219.173869,-7179.997637,4979.620737
20585.405500,4589.276840,-8216.285956,3983.696590
20585.405834,1998.556043,-7846.182985,919.314598
20585.406167,-814.226536,-9992.780217,-1762.019645
20585.406501,-74.020594,-11769.274478,-1302.362347
20585.406834,-4737.318029,-9548.656652,-306.438199
20585.407168,-74.020594,-7105.977043,-4060.306139
20585.407501,592.164754,-7476.080014,-1838.629195
20585.407835,0.000000,-8734.430116,-1838.629195
20585.408168,814.226536,-10510.924376,-1838.629195
20585.408502,1554.432478,-10658.965565,1302.362347
20585.408835,2072.576638,-8660.409521,2145.067394
20585.409169,1406.391290,-8660.409521,2911.162892
20585.409503,1110.308913,-9474.636058,2374.896044
20585.409836,3775.050304,-8882.471304,6052.154434
20585.410170,3478.967927,-6513.812290,1072.533697
20585.410503,2368.659014,-8364.327145,3064.381992
20585.410837,-444.123565,-10214.842000,-842.705048
20585.411170,-3849.070898,-7772.162391,-4596.572988
20585.411504,-2442.679609,-10066.800811,-5056.230287
20585.411837,-4441.235652,-11325.150913,-4213.525239
20585.412171,-3182.885551,-11621.233289,-2221.676944
20585.412505,-4145.153275,-10140.821405,0.000000
20585.412838,3478.967927,-9474.636058,4213.525239
20585.413172,3775.050304,-7105.977043,4213.525239
20585.413505,2960.823768,-7179.997637,7967.393179
20585.413839,5847.626942,-8290.306550,5745.716235
20585.414172,1628.453072,-8438.347739,2604.724693
20585.414506,-222.061783,-9474.636058,-612.876398
20585.414839,-4885.359217,-10584.944971,-4213.525239
20585.415173,-6217.729913,-10436.903782,-5209.449386
20585.415506,-4145.153275,-11473.192101,-2221.676944
20585.415840,-1258.350101,-8290.306550,-3983.696590
20585.416174,-2368.659014,-7772.162391,1378.971896
20585.416507,0.000000,-9548.656652,6052.154434
20585.416841,4663.297435,-7698.141797,4826.401637
20585.417174,2368.659014,-8364.327145,5439.278036
20585.417508,1850.514855,-8956.491898,2834.553343
20585.417841,74.020594,-8512.368333,842.705048
20585.418175,-1554.432478,-9696.697840,-1302.362347
20585.418508,296.082377,-9548.656652,842.705048
20585.418842,888.247130,-8660.409521,-1072.533697
20585.419176,518.144159,-9104.533087,-1762.019645
20585.419509,444.123565,-8364.327145,-2451.505594
20585.419843,-666.185348,-10436.903782,-2911.162892
20585.420176,592.164754,-9548.656652,0.000000
20585.420510,3182.885551,-11843.295072,2987.772442
20585.420843,4663.297435,-9474.636058,1149.143247
20585.421177,1480.411884,-8512.368333,3217.601092
20585.421510,4071.132681,-11251.130318,4213.525239
20585.421844,5181.441594,-7328.038826,4749.792088
20585.422177,4367.215058,-6883.915261,3524.039291
20585.422511,3849.070898,-8364.327145,2221.676944
20585.422845,0.000000,-7179.997637,-2145.067394
20585.423178,-2368.659014,-9548.656652,-3064.381992
20585.423512,-74.020594,-9474.636058,-4826.401637
20585.423845,-4737.318029,-9548.656652,-5822.325785
20585.424179,-4737.318029,-12065.356855,-1991.848295
20585.424512,-2368.659014,-8364.327145,0.000000
20585.424846,2960.823768,-6513.812290,4826.401637
20585.425179,4441.235652,-5699.585753,6511.811733
20585.425513,3923.091493,-7624.121203,5515.887586
20585.425847,5255.462188,-9178.553681,4826.401637
20585.426180,296.082377,-8660.409521,3600.648841
20585.426514,1110.308913,-7846.182985,-3677.258390
20585.426847,-4145.153275,-10584.944971,-3217.601092
20585.427181,-2442.679609,-13027.624579,-4979.620737
20585.427514,-2664.741391,-9918.759623,-4596.572988
20585.427848,-1258.350101,-10288.862594,-1149.143247
20585.428181,222.061783,-10140.821405,766.095498
20585.428515,1036.288319,-8734.430116,2604.724693
20585.428848,1332.370696,-7105.977043,2604.724693
20585.429182,3775.050304,-9474.636058,4213.525239
20585.429516,0.000000,-8364.327145,1225.752797
20585.429849,-888.247130,-11251.130318,3294.210641
20585.430183,-2590.720797,-8068.244768,0.000000
20585.430516,-2368.659014,-7179.997637,-1225.752797
20585.430850,-370.102971,-7476.080014,-689.485948
20585.431183,-666.185348,-9030.512492,-1302.362347
20585.431517,-3404.947333,-9030.512492,-3064.381992
20585.431850,-2220.617826,-11251.130318,-3140.991542
20585.432184,-3330.926739,-8660.409521,-4596.572988
20585.432517,-518.144159,-11843.295072,-76.609550
20585.432851,-74.020594,-11251.130318,1762.019645
20585.433185,0.000000,-8660.409521,5669.106685
20585.433518,2664.741391,-7179.997637,4903.011187
20585.433852,5181.441594,-6587.832884,5822.325785
20585.434185,5477.523971,-7550.100608,5132.839837
20585.434519,2146.597232,-7624.121203,1225.752797
20585.434852,-74.020594,-11251.130318,-1302.362347
20585.435186,-1258.350101,-11843.295072,-4979.620737
20585.435519,-4737.318029,-10732.986159,-4596.572988
20585.435853,-4071.132681,-11769.274478,-4903.011187
20585.436187,-3034.844362,-11103.089130,-2911.162892
20585.436520,888.247130,-7179.997637,306.438199
20585.436854,4885.359217,-7179.997637,6665.030833
20585.437187,7031.956449,-8290.306550,6052.154434
20585.437521,4071.132681,-6291.750507,3677.258390
20585.437854,5773.606348,-9474.636058,3600.648841
20585.438188,4663.297435,-9474.636058,0.000000
20585.438521,2072.576638,-10436.903782,-995.924147
20585.438855,-1554.432478,-12139.377449,-4213.525239
20585.439188,-2294.638420,-12139.377449,-4903.011187
20585.439522,-2368.659014,-11029.068536,-1838.629195
20585.439856,296.082377,-11547.212695,-76.609550
20585.440189,-666.185348,-7476.080014,0.000000
20585.440523,1110.308913,-4811.338623,612.876398
20585.440856,4663.297435,-9474.636058,5745.716235
20585.441190,2368.659014,-5403.503377,4903.011187
20585.441523,370.102971,-9178.553681,2145.067394
20585.441857,-2294.638420,-9770.718434,-689.485948
20585.442190,-1406.391290,-9622.677246,-1072.533697
20585.442524,1702.473667,-8882.471304,-76.609550
20585.442858,1702.473667,-11843.295072,-76.609550
20585.443191,-2368.659014,-8364.327145,153.219100
20585.443525,-2368.659014,-10584.944971,-919.314598
20585.443858,-222.061783,-11547.212695,-2528.115143
20585.444192,-2072.576638,-10732.986159,-383.047749
20585.444525,-3034.844362,-11103.089130,-1838.629195
20585.444859,-1924.535449,-9770.718434,1532.190996
20585.445192,444.123565,-8216.285956,2604.724693
20585.445526,2738.761985,-6661.853478,4060.306139
20585.445859,4663.297435,-7105.977043,5439.278036
20585.446193,0.000000,-7179.997637,5515.887586
20585.446527,148.041188,-8290.306550,1455.581446
20585.446860,-2812.782580,-9474.636058,-4060.306139
20585.447194,-4737.318029,-11251.130318,-3753.867940
20585.447527,-5921.647536,-11103.089130,-4136.915689
20585.447861,-5107.421000,-10732.986159,-4290.134789
20585.448194,-2738.761985,-9992.780217,-1532.190996
20585.448528,1480.411884,-7772.162391,1838.629195
20585.448861,2072.576638,-6291.750507,2757.943793
20585.449195,4885.359217,-9474.636058,6665.030833
20585.449529,4071.132681,-9474.636058,842.705048
20585.449862,2960.823768,-9548.656652,4060.306139
20585.450196,4071.132681,-9474.636058,2374.896044
20585.450529,2220.617826,-9252.574275,1072.533697
20585.450863,-1332.370696,-10510.924376,-1608.800546
20585.451196,-2072.576638,-9918.759623,-3217.601092
20585.451530,-2368.659014,-10140.821405,-1532.190996
20585.451863,0.000000,-7179.997637,-1225.752797
20585.452196,0.000000,-8660.409521,0.000000
20585.452529,74.020594,-8142.265362,-459.657299
20585.452862,740.205942,-9326.594869,1378.971896
20585.453196,0.000000,-7772.162391,0.000000
20585.453529,1702.473667,-9474.636058,-76.609550
20585.453862,0.000000,-8660.409521,3370.820191
20585.454195,3478.967927,-9474.636058,2911.162892
20585.454528,4959.379811,-8290.306550,4826.401637
20585.454862,3034.844362,-9474.636058,-76.609550
20585.455195,296.082377,-7179.997637,-1838.629195
20585.455528,-74.020594,-11029.068536,-2681.334243
20585.455861,-74.020594,-10658.965565,-3140.991542
20585.456195,-222.061783,-11843.295072,-1915.238745
20585.456528,-3552.988522,-10140.821405,-4290.134789
20585.456861,0.000000,-11325.150913,4519.963438
20585.457194,4071.132681,-7105.977043,2757.943793
20585.457527,2368.659014,-6883.915261,6281.983084
20585.457861,6143.709319,-7105.977043,6052.154434
20585.458194,2590.720797,-7105.977043,3447.429741
20585.458527,1258.350101,-7698.141797,1225.752797
20585.458860,0.000000,-9326.594869,-995.924147
20585.459193,-3034.844362,-11695.253884,-4366.744339
20585.459527,-7698.141797,-9548.656652,-4903.011187
20585.459860,-4811.338623,-11843.295072,-3753.867940
20585.460193,-666.185348,-9474.636058,-3907.087040
20585.460526,-2368.659014,-7772.162391,0.000000
20585.460860,2294.638420,-5921.647536,1685.410096
20585.461193,3404.947333,-7328.038826,3600.648841
20585.461526,4737.318029,-8660.409521,4060.306139
20585.461859,5625.565159,-8734.430116,5132.839837
20585.462192,1924.535449,-7772.162391,1225.752797
20585.462526,0.000000,-9548.656652,1532.190996
20585.462859,-74.020594,-10658.965565,-3294.210641
20585.463192,0.000000,-7179.997637,-4903.011187
20585.463525,0.000000,-9548.656652,0.000000
20585.463858,-74.020594,-7994.224174,-2451.505594
20585.464192,-1332.370696,-9178.553681,-2374.896044
20585.464525,740.205942,-8660.409521,-689.485948
20585.464858,1628.453072,-9622.677246,2374.896044
20585.465191,0.000000,-8512.368333,1838.629195
20585.465525,-296.082377,-9252.574275,1608.800546
20585.465858,0.000000,-10214.842000,2068.457845
20585.466191,3701.029710,-6735.874072,4213.525239
20585.466524,6439.791695,-7994.224174,5439.278036
20585.466857,2886.803174,-7698.141797,0.000000
20585.467191,-4145.153275,-9548.656652,-2298.286494
20585.467524,-1258.350101,-13027.624579,-3140.991542
20585.467857,-2442.679609,-8364.327145,-4903.011187
20585.468190,-3552.988522,-11621.233289,-2451.505594
20585.468523,-4367.215058,-10584.944971,-3447.429741
20585.468857,-2590.720797,-10807.006753,0.000000
20585.469190,2590.720797,-7624.121203,4826.401637
20585.469523,4663.297435,-5773.606348,6665.030833
20585.469856,4885.359217,-7550.100608,6052.154434
20585.470190,3552.988522,-7920.203579,7277.907231
20585.470523,-74.020594,-7698.141797,0.000000
20585.470856,-1258.350101,-8068.244768,-3064.381992
20585.471189,-4219.173869,-11251.130318,-4060.306139
20585.471522,-6883.915261,-11103.089130,-5975.544884
20585.471856,-5995.668130,-9696.697840,-4903.011187
20585.472189,-3552.988522,-10214.842000,-1915.238745
20585.472522,-1776.494261,-7179.997637,0.000000
20585.472855,3478.967927,-8290.306550,2834.553343
20585.473188,4737.318029,-8512.368333,8503.660028
20585.473522,4663.297435,-7402.059420,4060.306139
20585.473855,1184.329507,-7772.162391,1532.190996
20585.474188,1184.329507,-7920.203579,1225.752797
20585.474521,-1184.329507,-10140.821405,766.095498
20585.474855,74.020594,-9622.677246,-1225.752797
20585.475188,-148.041188,-8956.491898,-1302.362347
20585.475521,1702.473667,-10658.965565,-383.047749
20585.475854,222.061783,-7179.997637,-3064.381992
20585.476187,1998.556043,-10658.965565,-76.609550
20585.476521,-74.020594,-10362.883188,-1991.848295
20585.476854,0.000000,-10732.986159,2221.676944
20585.477187,1702.473667,-10658.965565,2145.067394
20585.477520,296.082377,-9104.533087,2528.115143
20585.477854,2812.782580,-9178.553681,3600.648841
20585.478187,5033.400406,-6143.709319,4979.620737
20585.478520,4589.276840,-5921.647536,4213.525239
20585.478853,2368.659014,-7179.997637,3830.477490
20585.479186,-370.102971,-8364.327145,-4903.011187
20585.479520,-1776.494261,-11325.150913,-4290.134789
20585.479853,-666.185348,-12879.583391,-3753.867940
20585.480186,-666.185348,-12731.542202,-3140.991542
20585.480519,-2072.576638,-12065.356855,-1302.362347
20585.480852,1258.350101,-10436.903782,1225.752797
20585.481186,4071.132681,-8734.430116,5286.058936
20585.481519,5773.606348,-6513.812290,6818.249932
20585.481852,3849.070898,-8216.285956,6894.859482
20585.482185,3775.050304,-7772.162391,4060.306139
20585.482519,2146.597232,-8142.265362,2068.457845
20585.482852,-1406.391290,-10066.800811,-689.485948
20585.483185,-4219.173869,-10066.800811,-4366.744339
20585.483518,-7994.224174,-12509.480420,-3830.477490
20585.483851,-2442.679609,-9474.636058,-3140.991542
20585.484185,-2664.741391,-7179.997637,-2451.505594
20585.484518,-1184.329507,-9104.533087,1532.190996
20585.484851,2590.720797,-9474.636058,2374.896044
20585.485184,592.164754,-9918.759623,3370.820191
20585.485517,2812.782580,-7994.224174,4136.915689
20585.485851,1406.391290,-9104.533087,2911.162892
20585.486184,444.123565,-7179.997637,1225.752797
20585.486517,-2368.659014,-9548.656652,2451.505594
20585.486850,-74.020594,-9474.636058,-1302.362347
20585.487184,-1850.514855,-6587.832884,-3677.258390
20585.487517,-2368.659014,-9548.656652,-766.095498
20585.487850,-1554.432478,-7550.100608,-3677.258390
20585.488183,-2072.576638,-9918.759623,-1608.800546
20585.488516,-3552.988522,-9844.739029,-1455.581446
20585.488850,-2590.720797,-8956.491898,-1225.752797
20585.489183,-888.247130,-9548.656652,1838.629195
20585.489516,1184.329507,-9252.574275,6511.811733
20585.489849,1998.556043,-7772.162391,2451.505594
20585.490182,3552.988522,-6365.771101,6128.763984
20585.490516,4071.132681,-8882.471304,2374.896044
20585.490849,592.164754,-6587.832884,612.876398
20585.491182,2146.597232,-9622.677246,-995.924147
20585.491515,0.000000,-10732.986159,-2451.505594
20585.491849,-518.144159,-10362.883188,-3370.820191
20585.492182,-2442.679609,-13027.624579,-4366.744339
20585.492515,-666.185348,-11843.295072,-2068.457845
20585.492848,1110.308913,-8364.327145,-2451.505594
20585.493181,4885.359217,-9326.594869,6358.592633
20585.493515,6439.791695,-7105.977043,5745.716235
20585.493848,5255.462188,-9326.594869,6052.154434
20585.494181,5773.606348,-6143.709319,3830.477490
20585.494514,2146.597232,-9770.718434,2068.457845
20585.494847,2442.679609,-8882.471304,153.219100
20585.495181,-4589.276840,-9548.656652,-3677.258390
20585.495514,-1258.350101,-10658.965565,-5669.106685
20585.495847,-592.164754,-10140.821405,-2451.505594
20585.496180,2294.638420,-11843.295072,-76.609550
20585.496514,-370.102971,-8364.327145,-1838.629195
20585.496847,814.226536,-9252.574275,1455.581446
20585.497180,3701.029710,-8364.327145,2528.115143
20585.497513,3404.947333,-8438.347739,4136.915689
20585.497846,5255.462188,-8438.347739,3907.087040
20585.498180,2368.659014,-7476.080014,2451.505594
20585.498513,4663.297435,-8660.409521,2068.457845
20585.498846,4219.173869,-8586.388927,1838.629195
20585.499179,222.061783,-9770.718434,-995.924147
20585.499512,-1036.288319,-9400.615463,-4673.182538
20585.499846,-3404.947333,-9474.636058,-4979.620737
20585.500179,2294.638420,-11843.295072,-2528.115143
20585.500512,-2442.679609,-9548.656652,-2451.505594
20585.500845,-1036.288319,-10955.047942,-1225.752797
20585.501179,-2072.576638,-12435.459826,1915.238745
20585.501512,0.000000,-7476.080014,3677.258390
20585.501845,2886.803174,-7031.956449,5286.058936
20585.502178,1332.370696,-6291.750507,4673.182538
20585.502511,1110.308913,-7179.997637,2451.505594
20585.502845,-1776.494261,-8364.327145,612.876398
20585.503178,-2738.761985,-10436.903782,-3370.820191
20585.503511,-8290.306550,-9548.656652,-2145.067394
20585.503844,-8364.327145,-13027.624579,-6358.592633
20585.504178,-7772.162391,-9474.636058,-5592.497135
20585.504511,-6513.812290,-10362.883188,-1302.362347
20585.504844,-2368.659014,-7179.997637,1532.190996
20585.505177,2886.803174,-7328.038826,6358.592633
20585.505510,2220.617826,-6439.791695,6435.202183
20585.505844,4071.132681,-9178.553681,6971.469032
20585.506177,518.144159,-5995.668130,612.876398
20585.506510,296.082377,-10362.883188,2068.457845
20585.506843,-1850.514855,-10362.883188,-4060.306139
20585.507176,-7105.977043,-9548.656652,-4903.011187
20585.507510,-2738.761985,-10658.965565,-3753.867940
20585.507843,-888.247130,-9474.636058,-383.047749
20585.508176,2368.659014,-7179.997637,1072.533697
20585.508509,666.185348,-9474.636058,1149.143247
20585.508843,2294.638420,-7698.141797,-383.047749
20585.509176,0.000000,-7179.997637,1225.752797
20585.509509,4663.297435,-9474.636058,3294.210641
20585.509842,3182.885551,-8882.471304,1149.143247
20585.510175,0.000000,-7179.997637,1225.752797
20585.510509,5255.462188,-10362.883188,2374.896044
20585.510842,5403.503377,-7254.018232,2757.943793
20585.511175,5181.441594,-8660.409521,689.485948
20585.511508,2960.823768,-9844.739029,-2145.067394
20585.511841,1702.473667,-11843.295072,-3753.867940
20585.512175,1332.370696,-11843.295072,-2911.162892
20585.512508,222.061783,-10436.903782,-2451.505594
20585.512841,-1258.350101,-11325.150913,-1608.800546
20585.513174,0.000000,-10140.821405,1225.752797
20585.513508,4663.297435,-9474.636058,3600.648841
20585.513841,4737.318029,-4219.173869,5515.887586
20585.514174,8216.285956,-8290.306550,9116.536426
20585.514507,4515.256246,-4811.338623,1838.629195
20585.514840,1184.329507,-7476.080014,0.000000
20585.515174,1702.473667,-11399.171507,-1302.362347
20585.515507,-2590.720797,-11473.192101,-4903.011187
20585.515840,-5255.462188,-12213.398043,-5975.544884
20585.516173,-3034.844362,-13027.624579,-4366.744339
20585.516506,-3478.967927,-13027.624579,-1915.238745
20585.516840,-666.185348,-5995.668130,0.000000
20585.517173,1776.494261,-7179.997637,3677.258390
20585.517506,4367.215058,-8290.306550,6052.154434
20585.517839,2220.617826,-8068.244768,6128.763984
20585.518173,-74.020594,-9474.636058,3140.991542
20585.518506,-2146.597232,-8586.388927,536.266849
20585.518839,-4737.318029,-9548.656652,-1685.410096
20585.519172,-4885.359217,-8216.285956,-2681.334243
20585.519505,-3330.926739,-10214.842000,-1915.238745
20585.519839,-7105.977043,-7772.162391,0.000000
20585.520172,-4071.132681,-9474.636058,-1072.533697
20585.520505,-3034.844362,-12731.542202,-689.485948
20585.520838,-3923.091493,-9474.636058,-1838.629195
20585.521171,-1998.556043,-9104.533087,1378.971896
20585.521505,-74.020594,-7698.141797,2911.162892
20585.521838,-666.185348,-8882.471304,3600.648841
20585.522171,0.000000,-7179.997637,3677.258390
20585.522504,2294.638420,-7698.141797,2374.896044
20585.522838,2960.823768,-7402.059420,4903.011187
20585.523171,3182.885551,-9474.636058,1149.143247
20585.523504,-2368.659014,-7179.997637,-2451.505594
20585.523837,-2368.659014,-8956.491898,-3677.258390
20585.524170,-2368.659014,-10955.047942,-2834.553343
20585.524504,-2442.679609,-11251.130318,-3140.991542
20585.524837,-5329.482782,-11547.212695,-3294.210641
20585.525170,-666.185348,-11251.130318,-76.609550
20585.525503,296.082377,-5403.503377,3677.258390
20585.525837,8216.285956,-6513.812290,4826.401637
20585.526170,5773.606348,-6291.750507,4903.011187
20585.526503,7624.121203,-9474.636058,4213.525239
20585.526836,3034.844362,-8660.409521,919.314598
20585.527169,3034.844362,-10066.800811,-76.609550
20585.527503,-296.082377,-10140.821405,-3370.820191
20585.527836,-2146.597232,-12435.459826,-5056.230287
20585.528169,-74.020594,-11251.130318,-3140.991542
20585.528502,-1480.411884,-11473.192101,-2451.505594
20585.528835,4663.297435,-7624.121203,459.657299
20585.529169,4515.256246,-9030.512492,3370.820191
20585.529502,5921.647536,-7772.162391,4136.915689
20585.529835,7920.203579,-7994.224174,5439.278036
20585.530168,1776.494261,-9844.739029,1532.190996
20585.530502,4737.318029,-7179.997637,4903.011187
20585.530835,2146.597232,-11547.212695,-76.609550
20585.531168,3627.009116,-8364.327145,153.219100
20585.531501,0.000000,-10584.944971,-76.609550
20585.531834,518.144159,-7402.059420,-2987.772442
20585.532168,-888.247130,-9622.677246,-1532.190996
20585.532501,0.000000,-9030.512492,-3524.039291
20585.532834,3330.926739,-9474.636058,-1302.362347
20585.533167,-1184.329507,-9548.656652,1225.752797
20585.533500,5551.544565,-9474.636058,4826.401637
20585.533834,2294.638420,-9474.636058,2068.457845
20585.534167,5033.400406,-7179.997637,4290.134789
20585.534500,7031.956449,-7698.141797,4826.401637
20585.534833,4811.338623,-6809.894666,4060.306139
20585.535167,2072.576638,-9992.780217,689.485948
20585.535500,-2812.782580,-9696.697840,-4136.915689
20585.535833,-2072.576638,-9844.739029,-4903.011187
20585.536166,-8882.471304,-9548.656652,-4290.134789
20585.536499,-2442.679609,-11547.212695,-5286.058936
20585.536833,-8882.471304,-10732.986159,-5439.278036
20585.537166,-2368.659014,-8364.327145,2221.676944
20585.537499,1998.556043,-5181.441594,4443.353888
20585.537832,3182.885551,-6217.729913,7431.126331
20585.538165,2590.720797,-6957.935855,6052.154434
20585.538499,0.000000,-8734.430116,3524.039291
20585.538832,-740.205942,-10214.842000,2451.505594
20585.539165,-3330.926739,-11251.130318,-76.609550
20585.539498,-6587.832884,-11103.089130,-6205.373534
20585.539832,-9474.636058,-10732.986159,-4136.915689
20585.540165,-7105.977043,-9548.656652,-1149.143247
20585.540498,-4219.173869,-6661.853478,-2145.067394
20585.540831,-3108.864956,-7846.182985,1302.362347
20585.541164,-1998.556043,-7328.038826,1608.800546
20585.541498,962.267725,-6735.874072,2987.772442
20585.541831,1184.329507,-9474.636058,4290.134789
20585.542164,-814.226536,-9326.594869,995.924147
20585.542497,-3552.988522,-10436.903782,459.657299
20585.542830,-1850.514855,-9474.636058,-306.438199
20585.543164,1554.432478,-8586.388927,1455.581446
20585.543497,0.000000,-5477.523971,-842.705048
20585.543830,592.164754,-8956.491898,1608.800546
20585.544163,-1258.350101,-10066.800811,-2528.115143
20585.544497,1110.308913,-9474.636058,-4673.182538
20585.544830,-1554.432478,-10658.965565,-1302.362347
20585.545163,-74.020594,-11695.253884,-1608.800546
20585.545496,1184.329507,-8660.409521,995.924147
20585.545829,1924.535449,-10584.944971,3447.429741
20585.546163,7846.182985,-7402.059420,5439.278036
20585.546496,9400.615463,-8290.306550,7277.907231
20585.546829,9474.636058,-7476.080014,7890.783629
20585.547162,7031.956449,-9030.512492,612.876398
20585.547495,2960.823768,-9548.656652,-3677.258390
20585.547829,1554.432478,-11325.150913,-4290.134789
20585.548162,-1258.350101,-10732.986159,-4903.011187
20585.548495,-370.102971,-11843.295072,-4979.620737
20585.548828,-1998.556043,-10955.047942,-3140.991542
20585.549162,3627.009116,-7402.059420,-383.047749
20585.549495,4737.318029,-5107.421000,3677.258390
20585.549828,10288.862594,-7105.977043,7277.907231
20585.550161,7031.956449,-6069.688724,2451.505594
20585.550494,4737.318029,-8364.327145,4443.353888
20585.550828,7031.956449,-9474.636058,2374.896044
20585.551161,0.000000,-10732.986159,0.000000
20585.551494,-1702.473667,-10881.027347,-4290.134789
20585.551827,-3552.988522,-11621.233289,-4826.401637
20585.552161,-1998.556043,-10436.903782,-2911.162892
20585.552494,0.000000,-8956.491898,0.000000
20585.552827,-74.020594,-9178.553681,-536.266849
20585.553160,-1776.494261,-7179.997637,0.000000
20585.553493,-1776.494261,-8956.491898,5132.839837
20585.553827,-74.020594,-7105.977043,2681.334243
20585.554160,-2960.823768,-10288.862594,3600.648841
20585.554493,-4663.297435,-7328.038826,459.657299
20585.554826,-4737.318029,-8734.430116,1225.752797
20585.555159,-2516.700203,-6883.915261,919.314598
20585.555493,-74.020594,-9474.636058,-76.609550
20585.555826,-3034.844362,-8068.244768,-4290.134789
20585.556159,-6365.771101,-11769.274478,-1915.238745
20585.556492,-3627.009116,-14211.954086,-3753.867940
20585.556826,-7179.997637,-9992.780217,-3677.258390
20585.557159,-4515.256246,-11251.130318,-1302.362347
20585.557492,-4071.132681,-9844.739029,2221.676944
20585.557825,-296.082377,-7698.141797,4519.963438
20585.558158,1184.329507,-6587.832884,6741.640382
20585.558492,3775.050304,-6069.688724,8197.221829
20585.558825,2072.576638,-5699.585753,4903.011187
20585.559158,0.000000,-7105.977043,1072.533697
20585.559491,-1776.494261,-8660.409521,-2374.896044
20585.559824,-5921.647536,-8956.491898,-7048.078582
20585.560158,-7994.224174,-13101.645173,-5745.716235
20585.560491,-5995.668130,-10807.006753,-8120.612279
20585.560824,-5107.421000,-10732.986159,-4903.011187
20585.561157,592.164754,-8216.285956,2374.896044
20585.561491,3478.967927,-7105.977043,4213.525239
20585.561824,5625.565159,-6291.750507,6205.373534
20585.562157,6439.791695,-6957.935855,5822.325785
20585.562490,6809.894666,-8438.347739,5745.716235
20585.562823,7105.977043,-8068.244768,3677.258390
20585.563157,3552.988522,-11029.068536,2374.896044
20585.563490,1110.308913,-10362.883188,-6128.763984
20585.563823,0.000000,-12213.398043,-4903.011187
20585.564156,2368.659014,-10436.903782,-1455.581446
20585.564489,2664.741391,-10140.821405,-2298.286494
20585.564823,4663.297435,-9474.636058,-229.828649
20585.565156,4367.215058,-9474.636058,153.219100
20585.565489,6143.709319,-9622.677246,3294.210641
20585.565822,8216.285956,-8142.265362,4826.401637
20585.566156,3552.988522,-9474.636058,4673.182538
20585.566489,4071.132681,-7772.162391,0.000000
20585.566822,5329.482782,-8438.347739,3907.087040
20585.567155,6439.791695,-8882.471304,2374.896044
20585.567488,5847.626942,-7105.977043,1149.143247
20585.567822,1850.514855,-9326.594869,-2145.067394
20585.568155,148.041188,-10955.047942,-4826.401637
20585.568488,1702.473667,-11177.109724,-3600.648841
20585.568821,-3552.988522,-9844.739029,-4749.792088
20585.569154,-74.020594,-13619.789333,-2528.115143
20585.569488,-1776.494261,-11325.150913,0.000000
20585.569821,5329.482782,-8290.306550,7277.907231
20585.570154,3923.091493,-5995.668130,7354.516781
20585.570487,3552.988522,-4811.338623,5822.325785
20585.570821,1332.370696,-7179.997637,3217.601092
20585.571154,-222.061783,-7550.100608,459.657299
20585.571487,296.082377,-8586.388927,-536.266849
20585.571820,-7105.977043,-11695.253884,-3677.258390
20585.572153,-6587.832884,-8660.409521,-8580.269578
20585.572487,-9326.594869,-13915.871710,-4979.620737
20585.572820,-4811.338623,-14211.954086,-2528.115143
20585.573153,-5033.400406,-6291.750507,0.000000
20585.573486,-3552.988522,-7179.997637,4826.401637
20585.573819,-1480.411884,-6291.750507,4903.011187
20585.574153,-2072.576638,-7254.018232,4443.353888
20585.574486,-222.061783,-7994.224174,4290.134789
20585.574819,-2368.659014,-8808.450710,4060.306139
20585.575152,-4367.215058,-7624.121203,0.000000
20585.575486,-5551.544565,-10214.842000,-2298.286494
20585.575819,-5107.421000,-8882.471304,-2834.553343
20585.576152,-4145.153275,-8290.306550,-2757.943793
20585.576485,-4145.153275,-9548.656652,-1225.752797
20585.576818,-2146.597232,-8808.450710,-2451.505594
20585.577152,-5625.565159,-8364.327145,-1838.629195
20585.577485,-1258.350101,-11843.295072,-76.609550
20585.577818,-3256.906145,-9474.636058,-229.828649
20585.578151,0.000000,-7772.162391,3983.696590
20585.578485,1258.350101,-10214.842000,4596.572988
20585.578818,6587.832884,-5477.523971,5898.935335
20585.579151,6217.729913,-5847.626942,5362.668486
20585.579484,7031.956449,-8734.430116,3600.648841
20585.579817,3478.967927,-7031.956449,-4136.915689
20585.580151,-1184.329507,-13619.789333,-4903.011187
20585.580484,3256.906145,-9474.636058,-3140.991542
20585.580817,-2442.679609,-13101.645173,-4903.011187
20585.581150,2072.576638,-11399.171507,-2528.115143
20585.581483,2738.761985,-10732.986159,1072.533697
20585.581817,6661.853478,-9104.533087,4213.525239
20585.582150,10214.842000,-5329.482782,6971.469032
20585.582483,8512.368333,-8290.306550,5439.278036
20585.582816,10584.944971,-3627.009116,2451.505594
20585.583150,8142.265362,-10658.965565,4213.525239
20585.583483,8216.285956,-11843.295072,-76.609550
20585.583816,-740.205942,-10732.986159,-3677.258390
20585.584149,-1258.350101,-12731.542202,-7431.126331
20585.584482,-1406.391290,-11547.212695,-4979.620737
20585.584816,-814.226536,-10214.842000,-2298.286494
20585.585149,2442.679609,-6883.915261,-1072.533697
20585.585482,1332.370696,-7179.997637,1532.190996
20585.585815,4145.153275,-8068.244768,5515.887586
20585.586148,5255.462188,-9474.636058,3600.648841
20585.586482,1924.535449,-7772.162391,1532.190996
20585.586815,-1628.453072,-8660.409521,2911.162892
20585.587148,-1850.514855,-10362.883188,-1302.362347
20585.587481,-740.205942,-9252.574275,-1685.410096
20585.587815,-2738.761985,-10436.903782,-919.314598
20585.588148,-1702.473667,-8808.450710,-459.657299
20585.588481,-4737.318029,-9548.656652,-1685.410096
20585.588814,-4145.153275,-9252.574275,-536.266849
20585.589148,-5107.421000,-9548.656652,-766.095498
20585.589481,-6143.709319,-9844.739029,-689.485948
20585.589814,-5107.421000,-9474.636058,2987.772442
20585.590148,-5995.668130,-9474.636058,2374.896044
20585.590481,-2442.679609,-5995.668130,2451.505594
20585.590814,-1184.329507,-7105.977043,7277.907231
20585.591148,-74.020594,-6217.729913,2068.457845
20585.591481,-1258.350101,-9918.759623,2374.896044
20585.591814,-5625.565159,-10955.047942,-3140.991542
20585.592148,-5255.462188,-11325.150913,-2987.772442
20585.592481,-5329.482782,-10214.842000,-3447.429741
20585.592814,-3627.009116,-12731.542202,-3753.867940
20585.593148,-7105.977043,-9844.739029,-153.219100
20585.593481,592.164754,-9992.780217,3600.648841
20585.593814,2294.638420,-6809.894666,3294.210641
20585.594148,3256.906145,-4811.338623,4903.011187
20585.594481,2294.638420,-4811.338623,3677.258390
20585.594814,4367.215058,-5403.503377,2757.943793
20585.595147,2960.823768,-8142.265362,2068.457845
20585.595481,1702.473667,-8734.430116,-1455.581446
20585.595814,-2960.823768,-12361.439231,-4826.401637
20585.596147,-3034.844362,-10658.965565,-7431.126331
20585.596481,-148.041188,-13619.789333,-1915.238745
20585.596814,4663.297435,-9474.636058,-1302.362347
20585.597147,3478.967927,-7772.162391,0.000000
20585.597481,3552.988522,-8956.491898,2757.943793
20585.597814,5625.565159,-8364.327145,3677.258390
20585.598147,8142.265362,-6809.894666,4060.306139
20585.598481,7402.059420,-9030.512492,4290.134789
20585.598814,4959.379811,-8364.327145,1225.752797
20585.599147,1776.494261,-9548.656652,-2451.505594
20585.599481,6439.791695,-11251.130318,-1302.362347
20585.599814,4663.297435,-9474.636058,-689.485948
20585.600147,1184.329507,-9548.656652,612.876398
20585.600481,4367.215058,-10510.924376,-76.609550
20585.600814,1480.411884,-10214.842000,-2834.553343
20585.601147,1406.391290,-11177.109724,-2068.457845
20585.601480,1850.514855,-9622.677246,-1685.410096
20585.601814,814.226536,-10955.047942,1378.971896
20585.602147,4145.153275,-8956.491898,4213.525239
20585.602480,5551.544565,-7105.977043,1455.581446
20585.602814,4737.318029,-6291.750507,5975.544884
20585.603147,5921.647536,-7179.997637,6511.811733
20585.603480,4663.297435,-8882.471304,-76.609550
20585.603814,0.000000,-11177.109724,-1302.362347
20585.604147,-2516.700203,-13101.645173,-3447.429741
20585.604480,-4145.153275,-11177.109724,-3907.087040
20585.604814,-4737.318029,-12657.521608,-4136.915689
20585.605147,-2368.659014,-9104.533087,-383.047749
20585.605480,-2368.659014,-9548.656652,1225.752797
20585.605814,1258.350101,-6809.894666,4903.011187
20585.606147,666.185348,-6735.874072,5745.716235
20585.606480,-1258.350101,-5995.668130,2528.115143
20585.606814,0.000000,-7179.997637,5056.230287
20585.607147,-1850.514855,-10658.965565,2374.896044
20585.607480,-2442.679609,-5995.668130,-3064.381992
20585.607813,-7994.224174,-11251.130318,-1915.238745
20585.608147,-4811.338623,-12435.459826,-2528.115143
20585.608480,-6365.771101,-8956.491898,-1762.019645
20585.608813,-5329.482782,-7179.997637,-2145.067394
20585.609147,-4811.338623,-8142.265362,-2068.457845
20585.609480,-6513.812290,-7179.997637,0.000000
20585.609813,-4737.318029,-9548.656652,3370.820191
20585.610147,-1258.350101,-7105.977043,1072.533697
20585.610480,-2368.659014,-5995.668130,0.000000
20585.610813,-2368.659014,-9252.574275,3600.648841
20585.611147,592.164754,-6143.709319,1225.752797
20585.611480,1332.370696,-6809.894666,2528.115143
20585.611813,2294.638420,-8290.306550,1149.143247
20585.612147,296.082377,-8364.327145,-2068.457845
20585.612480,-74.020594,-13027.624579,-2528.115143
20585.612813,-1776.494261,-10140.821405,-3447.429741
20585.613147,-3627.009116,-11991.336260,-7354.516781
20585.613480,-4737.318029,-12805.562797,-3217.601092
20585.613813,-74.020594,-11251.130318,1149.143247
20585.614146,3627.009116,-9400.615463,5209.449386
20585.614480,8808.450710,-4737.318029,7967.393179
20585.614813,9252.574275,-6217.729913,8350.440928
20585.615146,8216.285956,-6957.935855,5745.716235
20585.615480,5921.647536,-4811.338623,1838.629195
20585.615813,5033.400406,-14063.912898,-383.047749
20585.616146,592.164754,-7179.997637,-6741.640382
20585.616480,-3552.988522,-14730.098246,-5286.058936
20585.616813,-74.020594,-11843.295072,-7124.688131
20585.617146,1110.308913,-10658.965565,-3600.648841
20585.617480,2664.741391,-9844.739029,766.095498
20585.617813,7698.141797,-7179.997637,5669.106685
20585.618146,6809.894666,-5847.626942,6741.640382
20585.618480,5921.647536,-5995.668130,5209.449386
20585.618813,9104.533087,-5921.647536,2451.505594
20585.619146,4737.318029,-9844.739029,4826.401637
20585.619480,2294.638420,-13027.624579,-76.609550
20585.619813,-2220.617826,-9844.739029,-4290.134789
20585.620146,-3478.967927,-11621.233289,-5362.668486
20585.620479,-1554.432478,-10807.006753,-3524.039291
20585.620813,-296.082377,-8882.471304,-1915.238745
20585.621146,-2220.617826,-9696.697840,-1225.752797
20585.621479,-2072.576638,-9548.656652,0.000000
20585.621813,-74.020594,-9178.553681,1532.190996
20585.622146,518.144159,-7772.162391,4213.525239
20585.622479,-1036.288319,-6957.935855,3830.477490
20585.622813,-2590.720797,-9178.553681,2068.457845
20585.623146,-2368.659014,-7179.997637,2451.505594
20585.623479,1110.308913,-6957.935855,2374.896044
20585.623813,-3256.906145,-7179.997637,1225.752797
20585.624146,-3923.091493,-11843.295072,-2528.115143
20585.624479,-5995.668130,-11251.130318,-3753.867940
20585.624813,-6365.771101,-9548.656652,-3064.381992
20585.625146,-6217.729913,-9696.697840,-2451.505594
20585.625479,-7920.203579,-10658.965565,-2068.457845
20585.625813,-5995.668130,-9252.574275,-76.609550
20585.626146,-814.226536,-8216.285956,5132.839837
20585.626479,3478.967927,-5329.482782,5132.839837
20585.626812,2960.823768,-6883.915261,6128.763984
20585.627146,3182.885551,-9474.636058,4213.525239
20585.627479,444.123565,-7031.956449,0.000000
20585.627812,0.000000,-10510.924376,-76.609550
20585.628146,-2590.720797,-9548.656652,-4903.011187
20585.628479,-4663.297435,-12065.356855,-6358.592633
20585.628812,-4145.153275,-11325.150913,-4903.011187
20585.629146,-1258.350101,-12435.459826,-1302.362347
20585.629479,2886.803174,-5625.565159,-2145.067394
20585.629812,4441.235652,-9918.759623,6511.811733
20585.630146,7031.956449,-9474.636058,7277.907231
20585.630479,5699.585753,-4959.379811,3064.381992
20585.630812,5255.462188,-9474.636058,3600.648841
20585.631146,3478.967927,-8290.306550,1762.019645
20585.631479,-370.102971,-10510.924376,-766.095498
20585.631812,296.082377,-10955.047942,-2374.896044
20585.632146,74.020594,-9548.656652,-2451.505594
20585.632479,0.000000,-8956.491898,-2451.505594
20585.632812,3256.906145,-10288.862594,-76.609550
20585.633145,1702.473667,-9030.512492,-2374.896044
20585.633479,2294.638420,-8660.409521,0.000000
20585.633812,5847.626942,-9474.636058,2068.457845
20585.634145,3997.112087,-9030.512492,2987.772442
20585.634479,2146.597232,-9252.574275,1838.629195
20585.634812,2368.659014,-9104.533087,1225.752797
20585.635145,3849.070898,-9548.656652,2451.505594
20585.635479,5699.585753,-6661.853478,3294.210641
20585.635812,4811.338623,-8660.409521,1608.800546
20585.636145,1480.411884,-10214.842000,-1532.190996
20585.636479,2590.720797,-10658.965565,-383.047749
20585.636812,1702.473667,-12435.459826,-383.047749
20585.637145,-370.102971,-9548.656652,-3677.258390
20585.637479,-4441.235652,-11917.315666,-3677.258390
20585.637812,-1258.350101,-11251.130318,-842.705048
20585.638145,2368.659014,-8068.244768,4290.134789
20585.638479,5255.462188,-5625.565159,4826.401637
20585.638812,4811.338623,-7105.977043,5439.278036
20585.639145,3108.864956,-6735.874072,3524.039291
20585.639478,2590.720797,-9474.636058,536.266849
20585.639812,0.000000,-10140.821405,153.219100
20585.640145,-4737.318029,-9548.656652,-3370.820191
20585.640478,-3108.864956,-13619.789333,-3907.087040
20585.640812,-3034.844362,-11843.295072,-3294.210641
20585.641145,-1850.514855,-10955.047942,-1302.362347
20585.641478,-74.020594,-8290.306550,689.485948
20585.641812,-666.185348,-8882.471304,2145.067394
20585.642145,592.164754,-6957.935855,3140.991542
20585.642478,962.267725,-6735.874072,3983.696590
20585.642812,-74.020594,-11251.130318,3600.648841
20585.643145,-2960.823768,-9252.574275,2451.505594
20585.643478,-2442.679609,-11251.130318,-689.485948
20585.643812,-3552.988522,-7772.162391,0.000000
20585.644145,-2368.659014,-8364.327145,0.000000
20585.644478,-2146.597232,-8660.409521,-2451.505594
20585.644812,-3552.988522,-9400.615463,-3600.648841
20585.645145,-4219.173869,-11177.109724,-3447.429741
20585.645478,-3997.112087,-11177.109724,-2757.943793
20585.645811,-2664.741391,-8142.265362,-1455.581446
20585.646145,-592.164754,-10510.924376,3600.648841
20585.646478,-370.102971,-9474.636058,3600.648841
20585.646811,296.082377,-5995.668130,4903.011187
20585.647145,6809.894666,-8290.306550,9652.803275
20585.647478,4737.318029,-5403.503377,6281.983084
20585.647811,3997.112087,-7476.080014,2757.943793
20585.648145,74.020594,-10066.800811,-1378.971896
20585.648478,-1850.514855,-10214.842000,-4749.792088
20585.648811,-5921.647536,-11473.192101,-7354.516781
20585.649145,-3627.009116,-14211.954086,-7431.126331
20585.649478,-5625.565159,-10436.903782,-5515.887586
20585.649811,-2368.659014,-8364.327145,0.000000
20585.650145,7105.977043,-7698.141797,7277.907231
20585.650478,7105.977043,-5107.421000,8580.269578
20585.650811,7105.977043,-5921.647536,6894.859482
20585.651144,6439.791695,-6735.874072,4366.744339
20585.651478,4663.297435,-9918.759623,2451.505594
20585.651811,1184.329507,-8956.491898,0.000000
20585.652144,-3997.112087,-12287.418637,-4673.182538
20585.652478,-2442.679609,-10140.821405,-7584.345430
20585.652811,888.247130,-11695.253884,-1608.800546
20585.653144,3478.967927,-10658.965565,-76.609550
20585.653478,2812.782580,-6735.874072,612.876398
20585.653811,1480.411884,-8660.409521,0.000000
20585.654144,5255.462188,-11547.212695,2374.896044
20585.654478,4293.194464,-5995.668130,2757.943793
20585.654811,4515.256246,-9844.739029,4673.182538
20585.655144,296.082377,-10436.903782,153.219100
20585.655478,0.000000,-9992.780217,-306.438199
20585.655811,3108.864956,-9622.677246,1455.581446
20585.656144,1332.370696,-6587.832884,0.000000
20585.656478,0.000000,-6587.832884,-2451.505594
20585.656811,-666.185348,-12731.542202,-2834.553343
20585.657144,-1702.473667,-9474.636058,-4060.306139
20585.657477,-3108.864956,-9548.656652,-1685.410096
20585.657811,-1850.514855,-10658.965565,-383.047749
20585.658144,-2368.659014,-9104.533087,1225.752797
20585.658477,-2886.803174,-9104.533087,2451.505594
20585.658811,1110.308913,-7328.038826,3677.258390
20585.659144,2368.659014,-6291.750507,5822.325785
20585.659477,1924.535449,-4811.338623,6128.763984
20585.659811,2294.638420,-9474.636058,2374.896044
20585.660144,-2368.659014,-7179.997637,-1838.629195
20585.660477,-6513.812290,-10140.821405,-2604.724693
20585.660811,-7698.141797,-11325.150913,-6741.640382
20585.661144,-8956.491898,-12731.542202,-6358.592633
20585.661477,-9326.594869,-11399.171507,-5439.278036
20585.661811,-4219.173869,-8586.388927,-1225.752797
20585.662144,2294.638420,-7994.224174,6052.154434
20585.662477,2960.823768,-5403.503377,8963.317327
20585.662811,2886.803174,-5921.647536,4213.525239
20585.663144,592.164754,-7772.162391,5822.325785
20585.663477,3330.926739,-8290.306550,1762.019645
20585.663810,-74.020594,-9474.636058,-76.609550
20585.664144,-2442.679609,-10955.047942,-3753.867940
20585.664477,-3108.864956,-10584.944971,-4749.792088
20585.664810,-3034.844362,-12583.501014,-3140.991542
20585.665144,0.000000,-6883.915261,-2145.067394
20585.665477,-74.020594,-11843.295072,-76.609550
20585.665810,0.000000,-6587.832884,919.314598
20585.666144,1184.329507,-7772.162391,4826.401637
20585.666477,4367.215058,-7105.977043,2451.505594
20585.666810,3182.885551,-7476.080014,2528.115143
20585.667144,370.102971,-10214.842000,995.924147
20585.667477,2590.720797,-9474.636058,1302.362347
20585.667810,1628.453072,-8512.368333,1455.581446
20585.668144,1258.350101,-6587.832884,0.000000
20585.668477,1702.473667,-10362.883188,-2528.115143
20585.668810,-1184.329507,-11177.109724,-3524.039291
20585.669144,1924.535449,-9030.512492,-2757.943793
20585.669477,1036.288319,-10436.903782,-1378.971896
20585.669810,1110.308913,-7994.224174,-1762.019645
20585.670143,1332.370696,-10955.047942,3600.648841
20585.670477,5255.462188,-7994.224174,1608.800546
20585.670810,4737.318029,-8068.244768,5515.887586
20585.671143,7698.141797,-8808.450710,6281.983084
20585.671477,6735.874072,-7550.100608,3140.991542
20585.671810,5255.462188,-7550.100608,0.000000
20585.672143,4145.153275,-9992.780217,-229.828649
20585.672477,-1480.411884,-11843.295072,-2987.772442
20585.672810,-2960.823768,-9548.656652,-5515.887586
20585.673143,-1258.350101,-14211.954086,-3753.867940
20585.673477,-1406.391290,-9474.636058,-2528.115143
20585.673810,296.082377,-5995.668130,2451.505594
20585.674143,4515.256246,-7105.977043,4826.401637
20585.674477,3552.988522,-5995.668130,5515.887586
20585.674810,1554.432478,-7179.997637,2757.943793
20585.675143,3552.988522,-9104.533087,2451.505594
20585.675477,888.247130,-10658.965565,2068.457845
20585.675810,888.247130,-10066.800811,995.924147
20585.676143,-74.020594,-13619.789333,-2528.115143
20585.676476,-3552.988522,-8956.491898,-2145.067394
20585.676810,-2368.659014,-10140.821405,383.047749
20585.677143,-74.020594,-9326.594869,-153.219100
20585.677476,-1184.329507,-10807.006753,-76.609550
20585.677810,-2664.741391,-8142.265362,-1302.362347
20585.678143,-444.123565,-9104.533087,1072.533697
20585.678476,-814.226536,-9104.533087,3677.258390
20585.678810,-666.185348,-8290.306550,2987.772442
20585.679143,-4515.256246,-7920.203579,0.000000
20585.679476,-1184.329507,-8512.368333,4826.401637
20585.679810,-74.020594,-6809.894666,1149.143247
20585.680143,-1258.350101,-7179.997637,-1838.629195
20585.680476,-4737.318029,-10066.800811,-1302.362347
20585.680810,-6513.812290,-10881.027347,-4673.182538
20585.681143,-3627.009116,-10362.883188,-2604.724693
20585.681476,-5699.585753,-9992.780217,-2221.676944
20585.681810,-4811.338623,-10658.965565,-2528.115143
20585.682143,-4441.235652,-9548.656652,153.219100
20585.682476,1184.329507,-7920.203579,4213.525239
20585.682809,3923.091493,-5921.647536,7354.516781
20585.683143,4737.318029,-5995.668130,7354.516781
20585.683476,4737.318029,-6587.832884,6435.202183
20585.683809,4367.215058,-8290.306550,689.485948
20585.684143,1480.411884,-7179.997637,-3677.258390
20585.684476,-3256.906145,-12509.480420,-3753.867940
20585.684809,-5921.647536,-11325.150913,-7660.954980
20585.685143,-5847.626942,-12435.459826,-4979.620737
20585.685476,-1258.350101,-9844.739029,-2451.505594
20585.685809,1850.514855,-7328.038826,1302.362347
20585.686143,6439.791695,-7105.977043,4826.401637
20585.686476,3478.967927,-5995.668130,5669.106685
20585.686809,7031.956449,-4737.318029,2145.067394
20585.687143,4737.318029,-9548.656652,5209.449386
20585.687476,6365.771101,-8586.388927,3600.648841
20585.687809,3478.967927,-10658.965565,842.705048
20585.688143,296.082377,-11769.274478,-689.485948
20585.688476,2368.659014,-10288.862594,-2068.457845
20585.688809,444.123565,-11473.192101,-1685.410096
20585.689142,2738.761985,-10066.800811,-995.924147
20585.689476,592.164754,-8364.327145,-383.047749
20585.689809,296.082377,-7179.997637,-2451.505594
20585.690142,2368.659014,-8956.491898,3064.381992
20585.690476,2590.720797,-7476.080014,1532.190996
20585.690809,222.061783,-7994.224174,1915.238745
20585.691142,1776.494261,-10510.924376,2987.772442
20585.691476,5329.482782,-7550.100608,3907.087040
20585.691809,3478.967927,-7920.203579,2987.772442
20585.692142,3478.967927,-8882.471304,-76.609550
20585.692475,-1258.350101,-13027.624579,-2528.115143
20585.692808,-3256.906145,-11029.068536,-2451.505594
20585.693141,-2368.659014,-10881.027347,-2145.067394
20585.693474,-3923.091493,-11547.212695,-4749.792088
20585.693808,-7105.977043,-9548.656652,-3370.820191
20585.694141,-5921.647536,-9548.656652,612.876398
20585.694474,1480.411884,-8068.244768,5898.935335
20585.694807,2220.617826,-5403.503377,7048.078582
20585.695140,2294.638420,-5995.668130,4596.572988
20585.695473,148.041188,-5551.544565,2451.505594
20585.695807,-74.020594,-8734.430116,2374.896044
20585.696140,-3034.844362,-7772.162391,-3677.258390
20585.696473,-7105.977043,-11843.295072,-3447.429741
20585.696806,-7994.224174,-11325.150913,-6128.763984
20585.697139,-6587.832884,-10807.006753,-3983.696590
20585.697472,-2516.700203,-9474.636058,-76.609550
20585.697806,-666.185348,-7402.059420,1685.410096
20585.698139,0.000000,-8512.368333,3294.210641
20585.698472,0.000000,-7179.997637,3140.991542
20585.698805,1110.308913,-9030.512492,3447.429741
20585.699138,2738.761985,-8734.430116,1608.800546
20585.699471,296.082377,-8956.491898,1915.238745
20585.699804,-74.020594,-10658.965565,-76.609550
20585.700138,1998.556043,-9178.553681,-689.485948
20585.700471,0.000000,-9548.656652,1225.752797
20585.700804,4663.297435,-10658.965565,2068.457845
20585.701137,-1776.494261,-7179.997637,0.000000
20585.701470,1702.473667,-8882.471304,-1302.362347
20585.701803,74.020594,-8882.471304,-1838.629195
20585.702137,888.247130,-11251.130318,-76.609550
20585.702470,1258.350101,-8068.244768,0.000000
20585.702803,-1628.453072,-9548.656652,0.000000
20585.703136,4367.215058,-9622.677246,-1378.971896
20585.703469,7031.956449,-9474.636058,5745.716235
20585.703802,5551.544565,-5403.503377,2451.505594
20585.704136,5921.647536,-7179.997637,3524.039291
20585.704469,2516.700203,-10140.821405,0.000000
20585.704802,2368.659014,-9844.739029,-1225.752797
20585.705135,-74.020594,-11843.295072,-4903.011187
20585.705468,-74.020594,-11177.109724,-4673.182538
20585.705801,-1332.370696,-13471.748144,-1685.410096
20585.706134,1406.391290,-7476.080014,-2451.505594
20585.706468,7031.956449,-11547.212695,6052.154434
20585.706801,4663.297435,-5773.606348,3677.258390
20585.707134,5033.400406,-8364.327145,4903.011187
20585.707467,4441.235652,-8290.306550,3830.477490
20585.707800,4737.318029,-8512.368333,2987.772442
20585.708133,1258.350101,-9030.512492,-229.828649
20585.708467,-2590.720797,-10732.986159,-4596.572988
20585.708800,-4219.173869,-13027.624579,-5745.716235
20585.709133,-4737.318029,-11029.068536,-1838.629195
20585.709466,-74.020594,-7402.059420,-3370.820191
20585.709799,-1554.432478,-6291.750507,-1532.190996
20585.710132,-1184.329507,-8734.430116,842.705048
20585.710466,2294.638420,-8882.471304,1762.019645
20585.710799,2590.720797,-8586.388927,3907.087040
20585.711132,2368.659014,-7550.100608,3907.087040
20585.711465,296.082377,-10140.821405,3294.210641
20585.711798,-518.144159,-9400.615463,1378.971896
20585.712131,1924.535449,-11251.130318,2987.772442
20585.712464,-1406.391290,-8364.327145,0.000000
20585.712798,-370.102971,-9178.553681,-2145.067394
20585.713131,-3701.029710,-13027.624579,-1302.362347
20585.713464,-1258.350101,-8882.471304,-3753.867940
20585.713797,-3404.947333,-11251.130318,-1608.800546
20585.714130,-5181.441594,-10214.842000,-1608.800546
20585.714463,-3552.988522,-8512.368333,536.266849
20585.714797,-1628.453072,-9104.533087,3294.210641
20585.715130,5255.462188,-7105.977043,6052.154434
20585.715463,3997.112087,-5773.606348,7277.907231
20585.715796,3923.091493,-6069.688724,3907.087040
20585.716129,1332.370696,-8586.388927,1149.143247
20585.716462,-1554.432478,-10732.986159,-3064.381992
20585.716796,-2220.617826,-13027.624579,-3140.991542
20585.717129,-5403.503377,-13619.789333,-5592.497135
20585.717462,-7105.977043,-9844.739029,-5822.325785
20585.717795,-5255.462188,-11399.171507,-2451.505594
20585.718128,-74.020594,-7698.141797,76.609550
20585.718461,3478.967927,-6809.894666,6511.811733
20585.718794,5625.565159,-4737.318029,6741.640382
20585.719128,5181.441594,-6291.750507,5592.497135
20585.719461,2960.823768,-8364.327145,3064.381992
20585.719794,4589.276840,-10362.883188,1762.019645
20585.720127,-2072.576638,-10881.027347,-3370.820191
20585.720460,-4737.318029,-11325.150913,-4136.915689
20585.720793,-4219.173869,-13915.871710,-6281.983084
20585.721127,-2146.597232,-9548.656652,-3677.258390
20585.721460,1998.556043,-9178.553681,0.000000
20585.721793,2516.700203,-8290.306550,1149.143247
20585.722126,1998.556043,-9252.574275,1915.238745
20585.722459,4663.297435,-8290.306550,4826.401637
20585.722792,6143.709319,-9474.636058,4826.401637
20585.723126,1332.370696,-4811.338623,3983.696590
20585.723459,2516.700203,-11695.253884,4826.401637
20585.723792,3478.967927,-7698.141797,-536.266849
20585.724125,1776.494261,-10732.986159,3600.648841
20585.724458,740.205942,-9104.533087,-1072.533697
20585.724791,592.164754,-9474.636058,-1532.190996
20585.725124,-1406.391290,-10732.986159,-3294.210641
20585.725458,0.000000,-9548.656652,-2681.334243
20585.725791,-666.185348,-10510.924376,-3140.991542
20585.726124,-7105.977043,-10732.986159,-612.876398
20585.726457,-370.102971,-8882.471304,-383.047749
20585.726790,1184.329507,-7179.997637,2451.505594
20585.727123,5551.544565,-7698.141797,6971.469032
20585.727457,5403.503377,-6143.709319,5822.325785
20585.727790,3034.844362,-6513.812290,3217.601092
20585.728123,2590.720797,-9474.636058,1149.143247
20585.728456,2516.700203,-10732.986159,1225.752797
20585.728789,-2442.679609,-10140.821405,-4903.011187
20585.729122,-5329.482782,-13101.645173,-4903.011187
20585.729456,-3923.091493,-13915.871710,-6205.373534
20585.729789,-3923.091493,-11621.233289,-3983.696590
20585.730122,0.000000,-6957.935855,2221.676944
20585.730455,2442.679609,-7402.059420,6052.154434
20585.730788,3478.967927,-5477.523971,6665.030833
20585.731121,2812.782580,-6809.894666,6052.154434
20585.731454,2442.679609,-8290.306550,5056.230287
20585.731788,-1184.329507,-7476.080014,1838.629195
20585.732121,-3034.844362,-9474.636058,-3064.381992
20585.732454,-3997.112087,-11621.233289,-3983.696590
20585.732787,-4441.235652,-11843.295072,-2451.505594
20585.733120,-592.164754,-8956.491898,-1225.752797
20585.733453,-1110.308913,-6587.832884,-3370.820191
20585.733787,-2072.576638,-9548.656652,0.000000
20585.734120,-74.020594,-10955.047942,-76.609550
20585.734453,74.020594,-8364.327145,0.000000
20585.734786,2590.720797,-8290.306550,3600.648841
20585.735119,518.144159,-8956.491898,1532.190996
20585.735452,-370.102971,-8364.327145,766.095498
20585.735786,2960.823768,-8438.347739,3600.648841
20585.736119,4071.132681,-7698.141797,4213.525239
20585.736452,1184.329507,-7476.080014,3830.477490
20585.736785,-74.020594,-11695.253884,-76.609550
20585.737118,-2442.679609,-8364.327145,-5822.325785
20585.737451,-2368.659014,-9548.656652,-2451.505594
20585.737784,-2442.679609,-11103.089130,-4979.620737
20585.738118,-4219.173869,-11029.068536,-3907.087040
20585.738451,-3923.091493,-10510.924376,-1302.362347
20585.738784,1036.288319,-7994.224174,3140.991542
20585.739117,3256.906145,-3923.091493,4290.134789
20585.739450,5921.647536,-7476.080014,9729.412825
20585.739783,5847.626942,-5847.626942,3983.696590
20585.740117,3034.844362,-7179.997637,3064.381992
20585.740450,5699.585753,-11843.295072,-76.609550
20585.740783,-1702.473667,-9548.656652,-3677.258390
20585.741116,-2146.597232,-11399.171507,-5362.668486
20585.741449,-3775.050304,-12731.542202,-4979.620737
20585.741782,-2220.617826,-11769.274478,-2221.676944
20585.742116,-1184.329507,-8068.244768,0.000000
20585.742449,4663.297435,-9178.553681,4826.401637
20585.742782,4663.297435,-5625.565159,3677.258390
20585.743115,2960.823768,-5107.421000,2451.505594
20585.743448,5551.544565,-9474.636058,4826.401637
20585.743781,1036.288319,-7179.997637,1225.752797
20585.744114,0.000000,-10288.862594,-459.657299
20585.744448,0.000000,-9770.718434,-1149.143247
20585.744781,370.102971,-10510.924376,-2221.676944
20585.745114,888.247130,-8956.491898,-3064.381992
20585.745447,1850.514855,-9474.636058,-1455.581446
20585.745780,-666.185348,-10066.800811,-2757.943793
20585.746113,-444.123565,-9400.615463,-2451.505594
20585.746447,1110.308913,-9474.636058,-1915.238745
20585.746780,2294.638420,-7550.100608,612.876398
20585.747113,1184.329507,-9104.533087,4366.744339
20585.747446,2886.803174,-9474.636058,2374.896044
20585.747779,3552.988522,-8364.327145,7354.516781
20585.748112,7031.956449,-7105.977043,6052.154434
20585.748446,4219.173869,-7920.203579,2604.724693
20585.748779,-1332.370696,-9844.739029,-1991.848295
20585.749112,-2590.720797,-10584.944971,-5209.449386
20585.749445,-7105.977043,-9548.656652,-4903.011187
20585.749778,-4811.338623,-11769.274478,-7048.078582
20585.750111,-6513.812290,-13027.624579,-1915.238745
20585.750444,-3923.091493,-9474.636058,-842.705048
20585.750778,814.226536,-4811.338623,3064.381992
20585.751111,2368.659014,-3182.885551,6205.373534
20585.751444,2960.823768,-5699.585753,6052.154434
20585.751777,3182.885551,-8142.265362,3907.087040
20585.752110,1480.411884,-9770.718434,2298.286494
20585.752443,-74.020594,-11843.295072,1149.143247
20585.752777,-4811.338623,-10436.903782,-5822.325785
20585.753110,-4811.338623,-14211.954086,-5592.497135
20585.753443,-5107.421000,-9844.739029,-5362.668486
20585.753776,-2368.659014,-10140.821405,0.000000
20585.754109,-592.164754,-7105.977043,2451.505594
20585.754442,740.205942,-6439.791695,3753.867940
20585.754776,888.247130,-6735.874072,4903.011187
20585.755109,2072.576638,-6957.935855,4596.572988
20585.755442,518.144159,-8882.471304,2374.896044
20585.755775,-3552.988522,-8660.409521,1532.190996
20585.756108,-3034.844362,-8512.368333,-3524.039291
20585.756441,-1258.350101,-8364.327145,-2451.505594
20585.756774,1258.350101,-10066.800811,-76.609550
20585.757108,2294.638420,-9474.636058,-689.485948
20585.757441,518.144159,-10362.883188,-1455.581446
20585.757774,0.000000,-11029.068536,-1915.238745
20585.758107,1184.329507,-9548.656652,-612.876398
20585.758440,1924.535449,-9844.739029,306.438199
20585.758773,4071.132681,-9474.636058,3600.648841
20585.759107,74.020594,-8364.327145,1225.752797
20585.759440,4663.297435,-9474.636058,4826.401637
20585.759773,8216.285956,-7105.977043,4213.525239
20585.760106,5847.626942,-6365.771101,3600.648841
20585.760439,6439.791695,-8290.306550,2068.457845
20585.760772,0.000000,-10732.986159,-2221.676944
20585.761106,592.164754,-10881.027347,-3753.867940
20585.761439,-3330.926739,-11399.171507,-4903.011187
20585.761772,-3108.864956,-14211.954086,-5592.497135
20585.762105,-3849.070898,-11029.068536,-3830.477490
20585.762438,1036.288319,-9178.553681,842.705048
20585.762771,5847.626942,-6439.791695,6128.763984
20585.763104,6069.688724,-4219.173869,6511.811733
20585.763438,6217.729913,-7846.182985,5745.716235
20585.763771,4663.297435,-9474.636058,3294.210641
20585.764104,2960.823768,-9548.656652,4060.306139
20585.764437,1554.432478,-11251.130318,-1302.362347
20585.764770,-3034.844362,-12139.377449,-6128.763984
20585.765103,-4811.338623,-13027.624579,-6052.154434
20585.765437,-3256.906145,-12065.356855,-2604.724693
20585.765770,0.000000,-8364.327145,612.876398
20585.766103,-1184.329507,-8364.327145,1532.190996
20585.766436,0.000000,-8734.430116,4213.525239
20585.766769,-1036.288319,-5995.668130,3064.381992
20585.767102,-3552.988522,-5403.503377,4903.011187
20585.767436,-1406.391290,-9104.533087,2987.772442
20585.767769,-5403.503377,-8660.409521,0.000000
20585.768102,-2590.720797,-9326.594869,-229.828649
20585.768435,-1406.391290,-9326.594869,-306.438199
20585.768768,296.082377,-8882.471304,536.266849
20585.769101,-1258.350101,-10288.862594,-76.609550
20585.769434,-1258.350101,-13619.789333,-1302.362347
20585.769768,-3108.864956,-9548.656652,-2451.505594
20585.770101,-3552.988522,-11029.068536,612.876398
20585.770434,-666.185348,-10658.965565,-995.924147
20585.770767,-2072.576638,-8068.244768,2068.457845
20585.771100,518.144159,-9178.553681,2145.067394
20585.771433,2886.803174,-7698.141797,4826.401637
20585.771767,4663.297435,-7105.977043,4826.401637
20585.772100,2664.741391,-6069.688724,3217.601092
20585.772433,3478.967927,-8290.306550,229.828649
20585.772766,0.000000,-9548.656652,1225.752797
20585.773099,-74.020594,-11251.130318,-3753.867940
20585.773432,-5255.462188,-10214.842000,-5898.935335
20585.773766,-5255.462188,-12435.459826,-5286.058936
20585.774099,-3923.091493,-11843.295072,-3447.429741
20585.774432,740.205942,-7476.080014,-536.266849
20585.774765,2960.823768,-7031.956449,3830.477490
20585.775098,4737.318029,-5403.503377,6128.763984
20585.775431,3775.050304,-5403.503377,3064.381992
20585.775764,7031.956449,-9474.636058,6052.154434
20585.776098,7031.956449,-8142.265362,2068.457845
20585.776431,2960.823768,-10288.862594,2987.772442
20585.776764,888.247130,-12435.459826,-2528.115143
20585.777097,-888.247130,-12065.356855,-4366.744339
20585.777430,518.144159,-11917.315666,-3447.429741
20585.777763,2294.638420,-9474.636058,-995.924147
20585.778097,1184.329507,-9252.574275,0.000000
20585.778430,370.102971,-8660.409521,0.000000
20585.778763,3182.885551,-7550.100608,2604.724693
20585.779096,2886.803174,-7105.977043,3370.820191
20585.779429,2368.659014,-8216.285956,3370.820191
20585.779762,0.000000,-7920.203579,612.876398
20585.780095,1998.556043,-9474.636058,1149.143247
20585.780429,2368.659014,-7179.997637,4596.572988
20585.780762,2294.638420,-8290.306550,-76.609550
20585.781095,-74.020594,-9474.636058,-2528.115143
20585.781428,-4145.153275,-10732.986159,-3524.039291
20585.781761,666.185348,-9178.553681,-4060.306139
20585.782094,-2516.700203,-12731.542202,-3447.429741
20585.782428,-2664.741391,-9844.739029,-3447.429741
20585.782761,-666.185348,-13027.624579,2374.896044
20585.783094,0.000000,-7476.080014,3677.258390
20585.783427,4737.318029,-7772.162391,9729.412825
20585.783760,5551.544565,-5921.647536,6665.030833
20585.784093,2960.823768,-3034.844362,5209.449386
20585.784427,2294.638420,-9474.636058,2221.676944
20585.784760,0.000000,-9622.677246,-612.876398
20585.785093,-5847.626942,-11547.212695,-4979.620737
20585.785426,-8586.388927,-12435.459826,-7048.078582
20585.785759,-8068.244768,-11843.295072,-6818.249932
20585.786092,-9474.636058,-9548.656652,-2451.505594
20585.786425,-1702.473667,-7994.224174,612.876398
20585.786759,2294.638420,-8290.306550,4213.525239
20585.787092,1184.329507,-4811.338623,4903.011187
20585.787425,2590.720797,-7105.977043,4596.572988
20585.787758,2590.720797,-9252.574275,4596.572988
20585.788091,666.185348,-9030.512492,2604.724693
20585.788424,-1110.308913,-9178.553681,0.000000
20585.788758,-2072.576638,-9548.656652,-3677.258390
20585.789091,-3552.988522,-10140.821405,-76.609550
20585.789424,-74.020594,-9474.636058,-2528.115143
20585.789757,-2368.659014,-6587.832884,-3677.258390
20585.790090,-2368.659014,-9548.656652,0.000000
20585.790423,1110.308913,-7994.224174,-1378.971896
20585.790757,2590.720797,-9474.636058,2987.772442
20585.791090,1554.432478,-7550.100608,3830.477490
20585.791423,0.000000,-8808.450710,1838.629195
20585.791756,592.164754,-8068.244768,1455.581446
20585.792089,4071.132681,-7476.080014,3600.648841
20585.792422,3923.091493,-6587.832884,2987.772442
20585.792756,2886.803174,-8512.368333,-689.485948
20585.793089,-74.020594,-11843.295072,-2834.553343
20585.793422,1110.308913,-12435.459826,-4366.744339
20585.793755,592.164754,-10881.027347,-612.876398
20585.794088,2294.638420,-13027.624579,-1302.362347
20585.794422,-1776.494261,-11325.150913,-1302.362347
20585.794755,0.000000,-9548.656652,153.219100
20585.795088,3552.988522,-8068.244768,5822.325785
20585.795421,7031.956449,-6513.812290,6358.592633
20585.795754,6143.709319,-7105.977043,6052.154434
20585.796088,4663.297435,-6513.812290,3524.039291
20585.796421,3256.906145,-8068.244768,0.000000
20585.796754,2812.782580,-12435.459826,-76.609550
20585.797087,-4219.173869,-11177.109724,-6435.202183
20585.797420,-5699.585753,-11029.068536,-8427.050478
20585.797753,-4811.338623,-12435.459826,-4979.620737
20585.798087,-2072.576638,-8956.491898,-1685.410096
20585.798420,222.061783,-7920.203579,1991.848295
20585.798753,2442.679609,-7031.956449,4826.401637
20585.799086,1332.370696,-5995.668130,4290.134789
20585.799419,3182.885551,-7698.141797,2834.553343
20585.799753,4589.276840,-10658.965565,6052.154434
20585.800086,-74.020594,-8586.388927,0.000000
20585.800419,-2220.617826,-11029.068536,0.000000
20585.800752,-2664.741391,-10140.821405,-2451.505594
20585.801085,-1924.535449,-10066.800811,-1072.533697
20585.801418,-814.226536,-8808.450710,-76.609550
20585.801752,-1776.494261,-8512.368333,-612.876398
20585.802085,-370.102971,-9474.636058,-76.609550
20585.802418,-1850.514855,-7179.997637,0.000000
20585.802751,1110.308913,-9474.636058,3600.648841
20585.803084,-74.020594,-7994.224174,1455.581446
20585.803418,-2368.659014,-9252.574275,2681.334243
20585.803751,-74.020594,-10955.047942,3600.648841
20585.804084,1776.494261,-7179.997637,3753.867940
20585.804417,2886.803174,-6513.812290,2451.505594
20585.804750,2146.597232,-7772.162391,153.219100
20585.805084,-1702.473667,-10732.986159,-2604.724693
20585.805417,-2368.659014,-11325.150913,-153.219100
20585.805750,-666.185348,-10658.965565,-3677.258390
20585.806083,-3552.988522,-10140.821405,-4903.011187
20585.806416,-1258.350101,-12435.459826,-2528.115143
20585.806749,-74.020594,-10362.883188,536.266849
20585.807083,3849.070898,-7476.080014,6052.154434
20585.807416,5921.647536,-4959.379811,7277.907231
20585.807749,6439.791695,-6217.729913,6511.811733
20585.808082,5403.503377,-6439.791695,4596.572988
20585.808415,3108.864956,-9548.656652,3907.087040
20585.808749,1184.329507,-9844.739029,-1378.971896
20585.809082,-4441.235652,-12805.562797,-5745.716235
20585.809415,-5699.585753,-13323.706956,-7431.126331
20585.809748,-4219.173869,-11843.295072,-5592.497135
20585.810081,-1776.494261,-9548.656652,-1225.752797
20585.810415,3256.906145,-8364.327145,3600.648841
20585.810748,2590.720797,-6439.791695,1838.629195
20585.811081,3552.988522,-6587.832884,5439.278036
20585.811414,5847.626942,-8882.471304,4826.401637
20585.811747,3256.906145,-7994.224174,3983.696590
20585.812080,2664.741391,-8290.306550,2068.457845
20585.812414,0.000000,-10214.842000,-919.314598
20585.812747,74.020594,-9548.656652,-2145.067394
20585.813080,-2368.659014,-10140.821405,0.000000
20585.813413,1110.308913,-11251.130318,-1608.800546
20585.813746,-666.185348,-8068.244768,-3370.820191
20585.814080,-1776.494261,-11029.068536,-689.485948
20585.814413,1702.473667,-8290.306550,-1455.581446
20585.814746,-1184.329507,-9400.615463,1378.971896
20585.815079,-1702.473667,-7698.141797,1455.581446
20585.815412,-1110.308913,-8586.388927,2834.553343
20585.815745,592.164754,-8068.244768,4903.011187
20585.816079,3552.988522,-5995.668130,8503.660028
20585.816412,1998.556043,-4811.338623,1225.752797
20585.816745,1480.411884,-9474.636058,612.876398
20585.817078,-2368.659014,-12879.583391,-1608.800546
20585.817411,-3478.967927,-10732.986159,-3677.258390
20585.817745,-3997.112087,-10288.862594,-4290.134789
20585.818078,-4219.173869,-11843.295072,-4366.744339
20585.818411,-5255.462188,-11029.068536,-3140.991542
20585.818744,1406.391290,-8290.306550,2374.896044
20585.819077,5625.565159,-7994.224174,7277.907231
20585.819411,5255.462188,-3627.009116,4903.011187
20585.819744,4145.153275,-7179.997637,6052.154434
20585.820077,3478.967927,-9474.636058,2987.772442
20585.820410,3182.885551,-9696.697840,2681.334243
20585.820743,-1480.411884,-11029.068536,-1991.848295
20585.821076,-3923.091493,-11843.295072,-4749.792088
20585.821410,-4959.379811,-13545.768739,-5132.839837
20585.821743,-2960.823768,-9548.656652,-2834.553343
20585.822076,1406.391290,-7994.224174,-2374.896044
20585.822409,0.000000,-7179.997637,0.000000
20585.822742,2368.659014,-9178.553681,2987.772442
20585.823076,1406.391290,-7846.182985,2451.505594
20585.823409,3182.885551,-8068.244768,6971.469032
20585.823742,0.000000,-7920.203579,2451.505594
20585.824075,0.000000,-7772.162391,766.095498
20585.824408,0.000000,-8660.409521,306.438199
20585.824742,2368.659014,-8068.244768,766.095498
20585.825075,2146.597232,-8808.450710,459.657299
20585.825408,592.164754,-8956.491898,-1838.629195
20585.825741,-814.226536,-10436.903782,-3064.381992
20585.826074,814.226536,-10955.047942,-2374.896044
20585.826407,0.000000,-10066.800811,-2221.676944
20585.826741,-74.020594,-13619.789333,-76.609550
20585.827074,-1258.350101,-7772.162391,0.000000
20585.827407,1998.556043,-10658.965565,4290.134789
20585.827740,4293.194464,-8438.347739,4903.011187
20585.828073,2960.823768,-4811.338623,5209.449386
20585.828407,2442.679609,-7254.018232,2451.505594
20585.828740,1332.370696,-8586.388927,0.000000
20585.829073,-1332.370696,-10807.006753,-1991.848295
20585.829406,-2960.823768,-10140.821405,-3677.258390
20585.829739,-2442.679609,-10362.883188,-4903.011187
20585.830073,-5625.565159,-9548.656652,-4903.011187
20585.830406,-3849.070898,-12287.418637,-2528.115143
20585.830739,-74.020594,-9474.636058,-76.609550
20585.831072,3034.844362,-7550.100608,5439.278036
20585.831405,4663.297435,-7105.977043,6741.640382
20585.831738,4293.194464,-6513.812290,5286.058936
20585.832072,3701.029710,-7179.997637,4519.963438
20585.832405,1998.556043,-10584.944971,3600.648841
20585.832738,-1258.350101,-8364.327145,-4290.134789
20585.833071,-5329.482782,-12509.480420,-4903.011187
20585.833404,-1258.350101,-11843.295072,-4060.306139
20585.833738,-3478.967927,-9548.656652,-3064.381992
20585.834071,1110.308913,-8586.388927,-383.047749
20585.834404,-814.226536,-7254.018232,-766.095498
20585.834737,74.020594,-8956.491898,-229.828649
20585.835070,2664.741391,-8734.430116,2681.334243
20585.835403,2294.638420,-8882.471304,2068.457845
20585.835737,0.000000,-7179.997637,612.876398
20585.836070,370.102971,-10362.883188,1762.019645
20585.836403,3478.967927,-11843.295072,2987.772442
20585.836736,2442.679609,-5551.544565,1532.190996
20585.837069,2294.638420,-10066.800811,842.705048
20585.837403,-592.164754,-8734.430116,-2298.286494
20585.837736,-2812.782580,-10436.903782,-3217.601092
20585.838069,74.020594,-9474.636058,-1838.629195
20585.838402,-666.185348,-11843.295072,-689.485948
20585.838735,-2220.617826,-10140.821405,-995.924147
20585.839069,-1924.535449,-9770.718434,536.266849
20585.839402,1036.288319,-9178.553681,3064.381992
20585.839735,3552.988522,-6291.750507,4903.011187
20585.840068,5773.606348,-7105.977043,5745.716235
20585.840401,3478.967927,-6587.832884,2451.505594
20585.840734,2368.659014,-10288.862594,4213.525239
20585.841068,1406.391290,-11103.089130,-1302.362347
20585.841401,-2368.659014,-9548.656652,-4903.011187
20585.841734,-4071.132681,-12435.459826,-3907.087040
20585.842067,-4737.318029,-11325.150913,-5669.106685
20585.842400,-3478.967927,-10288.862594,-2451.505594
20585.842734,1702.473667,-8882.471304,2374.896044
20585.843067,2886.803174,-8882.471304,6052.154434
20585.843400,1480.411884,-4811.338623,6741.640382
20585.843733,3849.070898,-7105.977043,7277.907231
20585.844066,5255.462188,-7698.141797,3600.648841
20585.844400,2220.617826,-7920.203579,1838.629195
20585.844733,-1554.432478,-10658.965565,-2068.457845
20585.845066,-4071.132681,-11843.295072,-4979.620737
20585.845399,-4145.153275,-11325.150913,-6588.421283
20585.845732,-3256.906145,-9770.718434,-4903.011187
20585.846065,1406.391290,-11695.253884,-1302.362347
20585.846399,-3552.988522,-8364.327145,0.000000
20585.846732,1332.370696,-10955.047942,2374.896044
20585.847065,3330.926739,-9474.636058,4826.401637
20585.847398,3775.050304,-7105.977043,6358.592633
20585.847731,2442.679609,-5847.626942,3677.258390
20585.848065,1924.535449,-9622.677246,2987.772442
20585.848398,2368.659014,-8142.265362,2528.115143
20585.848731,1480.411884,-7772.162391,2757.943793
20585.849064,2294.638420,-8882.471304,-1915.238745
20585.849397,-1628.453072,-9548.656652,-3677.258390
20585.849731,-2072.576638,-13027.624579,-3140.991542
20585.850064,-1554.432478,-10140.821405,-4903.011187
20585.850397,-5921.647536,-10732.986159,-4290.134789
20585.850730,-4663.297435,-10955.047942,-2528.115143
20585.851063,-1406.391290,-8512.368333,1838.629195
20585.851396,4071.132681,-6217.729913,6128.763984
20585.851730,8216.285956,-5921.647536,7890.783629
20585.852063,2812.782580,-3923.091493,4903.011187
20585.852396,5847.626942,-8882.471304,2374.896044
20585.852729,888.247130,-8364.327145,-2451.505594
20585.853062,0.000000,-11917.315666,-919.314598
20585.853396,-3552.988522,-11325.150913,-4903.011187
20585.853729,-5625.565159,-12657.521608,-6665.030833
20585.854062,-3701.029710,-11843.295072,-4596.572988
20585.854395,-1258.350101,-10658.965565,-383.047749
20585.854728,2886.803174,-8882.471304,2987.772442
20585.855061,1776.494261,-5995.668130,5669.106685
20585.855395,4219.173869,-5181.441594,5362.668486
20585.855728,3256.906145,-6291.750507,4596.572988
20585.856061,3256.906145,-9104.533087,3753.867940
20585.856394,1998.556043,-10510.924376,1455.581446
20585.856727,-4811.338623,-10807.006753,-3524.039291
20585.857061,-4737.318029,-10732.986159,-2451.505594
20585.857394,-1258.350101,-10362.883188,-4443.353888
20585.857727,0.000000,-8956.491898,-1225.752797
20585.858060,1184.329507,-10214.842000,1149.143247
20585.858393,-1480.411884,-10288.862594,-1532.190996
20585.858727,1184.329507,-9178.553681,383.047749
20585.859060,962.267725,-9474.636058,3064.381992
20585.859393,2294.638420,-7698.141797,3600.648841
20585.859726,-666.185348,-5699.585753,612.876398
20585.860059,1702.473667,-10510.924376,4213.525239
20585.860392,3478.967927,-6513.812290,1915.238745
20585.860726,1924.535449,-5551.544565,3370.820191
20585.861059,3182.885551,-10658.965565,-76.609550
20585.861392,-2146.597232,-9622.677246,-3677.258390
20585.861725,-2516.700203,-11103.089130,-4366.744339
20585.862058,-2442.679609,-10955.047942,-3753.867940
20585.862392,-4145.153275,-9696.697840,-4903.011187
20585.862725,-7698.141797,-9548.656652,-1225.752797
20585.863058,1702.473667,-10066.800811,1455.581446
20585.863391,3108.864956,-4811.338623,3677.258390
20585.863724,4885.359217,-4811.338623,7048.078582
20585.864058,4663.297435,-5107.421000,3677.258390
20585.864391,4367.215058,-7994.224174,3524.039291
20585.864724,2294.638420,-10436.903782,1915.238745
20585.865057,1702.473667,-10362.883188,-689.485948
20585.865390,-3552.988522,-11769.274478,-4596.572988
20585.865723,-4071.132681,-13915.871710,-3140.991542
20585.866057,-2442.679609,-11843.295072,-4366.744339
20585.866390,-4441.235652,-9548.656652,-1225.752797
20585.866723,-2368.659014,-7476.080014,2987.772442
20585.867056,-74.020594,-5107.421000,1225.752797
20585.867389,4293.194464,-5625.565159,5439.278036
20585.867723,4293.194464,-5625.565159,6435.202183
20585.868056,2368.659014,-8068.244768,4290.134789
20585.868389,592.164754,-9252.574275,1225.752797
20585.868722,-2442.679609,-12583.501014,-1915.238745
20585.869055,518.144159,-11547.212695,-2834.553343
20585.869389,74.020594,-10658.965565,-1302.362347
20585.869722,222.061783,-9474.636058,-2834.553343
20585.870055,0.000000,-8142.265362,-2221.676944
20585.870388,-3256.906145,-10140.821405,0.000000
20585.870721,2072.576638,-10066.800811,2987.772442
20585.871054,1702.473667,-8882.471304,1762.019645
20585.871388,-74.020594,-7105.977043,2374.896044
20585.871721,1110.308913,-9474.636058,2374.896044
20585.872054,1258.350101,-8290.306550,3677.258390
20585.872387,4663.297435,-5921.647536,3907.087040
20585.872720,2664.741391,-7994.224174,2834.553343
20585.873054,3478.967927,-11103.089130,-76.609550
20585.873387,-3552.988522,-11917.315666,-76.609550
20585.873720,-1850.514855,-10955.047942,-4903.011187
20585.874053,-3256.906145,-9548.656652,-4903.011187
20585.874386,-4737.318029,-11325.150913,-3064.381992
20585.874719,-3034.844362,-9918.759623,-2451.505594
20585.875053,1184.329507,-8142.265362,3370.820191
20585.875386,5033.400406,-5255.462188,7507.735880
20585.875719,5255.462188,-3997.112087,6741.640382
20585.876052,3775.050304,-4811.338623,3294.210641
20585.876385,5847.626942,-9474.636058,3600.648841
20585.876719,1554.432478,-7179.997637,0.000000
20585.877052,1480.411884,-12139.377449,-689.485948
20585.877385,-2738.761985,-12731.542202,-5515.887586
20585.877718,-6809.894666,-12213.398043,-7048.078582
20585.878051,-2442.679609,-10955.047942,-4290.134789
20585.878385,-1036.288319,-10510.924376,-536.266849
20585.878718,0.000000,-7179.997637,919.314598
20585.879051,592.164754,-7179.997637,2451.505594
20585.879384,6439.791695,-7105.977043,5286.058936
20585.879717,3552.988522,-3923.091493,4596.572988
20585.880050,2368.659014,-9474.636058,6052.154434
20585.880384,-74.020594,-9474.636058,-383.047749
20585.880717,-1628.453072,-11399.171507,-76.609550
20585.881050,814.226536,-10510.924376,-919.314598
20585.881383,-296.082377,-9474.636058,-1608.800546
20585.881716,-1406.391290,-9770.718434,-4136.915689
20585.882050,-1406.391290,-11547.212695,-2528.115143
20585.882383,-1258.350101,-9474.636058,-5209.449386
20585.882716,-1776.494261,-9548.656652,-612.876398
20585.883049,-74.020594,-11843.295072,2374.896044
20585.883382,1110.308913,-7105.977043,842.705048
20585.883716,1776.494261,-9474.636058,5745.716235
20585.884049,3478.967927,-6883.915261,5515.887586
20585.884382,5995.668130,-6735.874072,6511.811733
20585.884715,2812.782580,-7624.121203,3600.648841
20585.885048,2960.823768,-9252.574275,1762.019645
20585.885381,-2146.597232,-10584.944971,-3677.258390
20585.885715,-2516.700203,-11843.295072,-5286.058936
20585.886048,-5625.565159,-13027.624579,-5286.058936
20585.886381,-8512.368333,-11029.068536,-7354.516781
20585.886714,-5921.647536,-10288.862594,-2298.286494
20585.887047,-74.020594,-8290.306550,2374.896044
20585.887381,4663.297435,-3108.864956,4903.011187
20585.887714,4737.318029,-4811.338623,8656.879127
20585.888047,4663.297435,-7105.977043,4826.401637
20585.888380,4145.153275,-7476.080014,4366.744339
20585.888713,2590.720797,-9918.759623,1608.800546
20585.889047,444.123565,-10658.965565,-1762.019645
20585.889380,-5921.647536,-13101.645173,-5822.325785
20585.889713,-4737.318029,-11917.315666,-4290.134789
20585.890046,-666.185348,-11399.171507,-4290.134789
20585.890379,592.164754,-7772.162391,0.000000
20585.890712,1184.329507,-8882.471304,2374.896044
20585.891046,296.082377,-7772.162391,0.000000
20585.891379,3923.091493,-8142.265362,4673.182538
20585.891712,2368.659014,-7105.977043,4673.182538
20585.892045,740.205942,-7328.038826,2221.676944
20585.892378,-74.020594,-9474.636058,1762.019645
20585.892711,0.000000,-9104.533087,2987.772442
20585.893044,2886.803174,-4811.338623,0.000000
20585.893377,592.164754,-10436.903782,-383.047749
20585.893710,-74.020594,-11547.212695,-2528.115143
20585.894043,-1702.473667,-12213.398043,-3447.429741
20585.894377,518.144159,-11473.192101,-3064.381992
20585.894710,-296.082377,-10955.047942,-1762.019645
20585.895043,-296.082377,-11325.150913,0.000000
20585.895376,888.247130,-7328.038826,2068.457845
20585.895709,3182.885551,-9474.636058,6052.154434
20585.896042,4737.318029,-5403.503377,5515.887586
20585.896375,7476.080014,-7105.977043,6665.030833
20585.896708,2368.659014,-5403.503377,3677.258390
20585.897041,2812.782580,-8882.471304,1149.143247
20585.897374,-2368.659014,-10732.986159,-2451.505594
20585.897707,-4367.215058,-11473.192101,-6128.763984
20585.898041,-6809.894666,-12583.501014,-6818.249932
20585.898374,-7105.977043,-13101.645173,-6128.763984
20585.898707,-2442.679609,-10362.883188,-4596.572988
20585.899040,1776.494261,-7920.203579,5439.278036
20585.899373,6439.791695,-7105.977043,7890.783629
20585.899706,3552.988522,-3923.091493,6128.763984
20585.900039,3256.906145,-7105.977043,4673.182538
20585.900372,3404.947333,-7550.100608,3677.258390
20585.900705,1628.453072,-9030.512492,842.705048
20585.901038,-2072.576638,-10658.965565,-3294.210641
20585.901371,-5625.565159,-12213.398043,-4903.011187
20585.901705,-2442.679609,-11843.295072,-4903.011187
20585.902038,-740.205942,-10732.986159,-919.314598
20585.902371,-444.123565,-8586.388927,-919.314598
20585.902704,-2072.576638,-9104.533087,-612.876398
20585.903037,-2368.659014,-7179.997637,0.000000
20585.903370,1702.473667,-8290.306550,2987.772442
20585.903703,74.020594,-4811.338623,3064.381992
20585.904036,-1332.370696,-9474.636058,2374.896044
20585.904369,-74.020594,-10658.965565,1149.143247
20585.904702,0.000000,-6587.832884,2451.505594
20585.905035,3330.926739,-6883.915261,2451.505594
20585.905368,1184.329507,-8216.285956,-459.657299
20585.905702,-666.185348,-11843.295072,-3140.991542
20585.906035,-1702.473667,-13841.851115,-2145.067394
20585.906368,-370.102971,-11843.295072,-4673.182538
20585.906701,-2368.659014,-11917.315666,-2451.505594
20585.907034,222.061783,-10955.047942,-76.609550
20585.907367,1702.473667,-7772.162391,2451.505594
20585.907700,5921.647536,-7254.018232,7584.345430
20585.908033,5255.462188,-5699.585753,6128.763984
20585.908366,5699.585753,-5921.647536,5362.668486
20585.908699,2664.741391,-7698.141797,1225.752797
20585.909032,3182.885551,-9474.636058,-383.047749
20585.909366,-370.102971,-9548.656652,-6128.763984
20585.909699,-2812.782580,-13471.748144,-4979.620737
20585.910032,-4811.338623,-14211.954086,-5592.497135
20585.910365,-4737.318029,-10140.821405,-4290.134789
20585.910698,1998.556043,-9474.636058,-76.609550
20585.911031,2368.659014,-6513.812290,3600.648841
20585.911364,4441.235652,-6291.750507,5439.278036
20585.911697,3849.070898,-5699.585753,4749.792088
20585.912030,4145.153275,-6291.750507,3830.477490
20585.912363,3552.988522,-7772.162391,3677.258390
20585.912696,4367.215058,-11843.295072,-76.609550
20585.913030,-3552.988522,-9548.656652,-2145.067394
20585.913363,-4441.235652,-13397.727550,-3677.258390
20585.913696,-74.020594,-11843.295072,-3753.867940
20585.914029,-1480.411884,-10214.842000,-76.609550
20585.914362,-814.226536,-7994.224174,-842.705048
20585.914695,-1332.370696,-8068.244768,-76.609550
20585.915028,0.000000,-7772.162391,919.314598
20585.915361,592.164754,-7402.059420,3677.258390
20585.915694,-1628.453072,-8808.450710,2451.505594
20585.916027,-2738.761985,-9696.697840,-153.219100
20585.916360,-74.020594,-11695.253884,4826.401637
20585.916694,4071.132681,-8882.471304,4826.401637
20585.917027,2368.659014,-4811.338623,2451.505594
20585.917360,296.082377,-9992.780217,2374.896044
20585.917693,-666.185348,-10658.965565,-3447.429741
20585.918026,-2368.659014,-10436.903782,-2451.505594
20585.918359,-1332.370696,-11251.130318,-3600.648841
20585.918692,-4515.256246,-10955.047942,-4749.792088
20585.919025,-3627.009116,-10510.924376,-2528.115143
20585.919358,-370.102971,-8586.388927,1149.143247
20585.919691,3552.988522,-5995.668130,7048.078582
20585.920024,3849.070898,-3627.009116,7354.516781
20585.920358,8216.285956,-7105.977043,5745.716235
20585.920691,2664.741391,-7698.141797,1915.238745
20585.921024,2886.803174,-10658.965565,842.705048
20585.921357,-370.102971,-12435.459826,-3447.429741
20585.921690,-4071.132681,-12065.356855,-6435.202183
20585.922023,-5329.482782,-12583.501014,-5975.544884
20585.922356,-3478.967927,-12361.439231,-2834.553343
20585.922689,1998.556043,-9474.636058,1762.019645
20585.923022,1776.494261,-7254.018232,3064.381992
20585.923355,3552.988522,-6957.935855,6052.154434
20585.923688,3182.885551,-6365.771101,3600.648841
20585.924022,2368.659014,-5995.668130,3064.381992
20585.924355,3478.967927,-8216.285956,2145.067394
20585.924688,888.247130,-9844.739029,306.438199
20585.925021,-296.082377,-10955.047942,-1302.362347
20585.925354,-888.247130,-11917.315666,-2604.724693
20585.925687,74.020594,-9252.574275,-3447.429741
20585.926020,444.123565,-11843.295072,-76.609550
20585.926353,-74.020594,-11251.130318,-689.485948
20585.926686,-2146.597232,-7179.997637,-2451.505594
20585.927019,1184.329507,-10288.862594,2374.896044
20585.927352,592.164754,-7179.997637,2451.505594
20585.927686,-592.164754,-8438.347739,2298.286494
20585.928019,-1406.391290,-8956.491898,1455.581446
20585.928352,2368.659014,-8142.265362,4213.525239
20585.928685,592.164754,-5995.668130,3064.381992
20585.929018,7031.956449,-7105.977043,-76.609550
20585.929351,-1776.494261,-11325.150913,-1838.629195
20585.929684,-3552.988522,-9548.656652,-2451.505594
20585.930017,-666.185348,-14211.954086,-1302.362347
20585.930350,-4737.318029,-11029.068536,-3064.381992
20585.930683,-3923.091493,-9252.574275,-4443.353888
20585.931016,-4737.318029,-10436.903782,-1762.019645
20585.931350,1406.391290,-7476.080014,3677.258390
20585.931683,2368.659014,-4811.338623,8580.269578
20585.932016,5181.441594,-4589.276840,7048.078582
20585.932349,4441.235652,-7105.977043,4749.792088
20585.932682,2886.803174,-9178.553681,2681.334243
20585.933015,2294.638420,-11251.130318,-76.609550
20585.933348,-4145.153275,-10732.986159,-2451.505594
20585.933681,-4811.338623,-11843.295072,-6205.373534
20585.934014,-5403.503377,-13027.624579,-6894.859482
20585.934347,-2368.659014,-10140.821405,-536.266849
20585.934680,1998.556043,-8734.430116,2374.896044
20585.935013,888.247130,-6439.791695,1455.581446
20585.935347,2146.597232,-6883.915261,2451.505594
20585.935680,3404.947333,-7328.038826,3983.696590
20585.936013,3108.864956,-4811.338623,3064.381992
20585.936346,592.164754,-7179.997637,2451.505594
20585.936679,2294.638420,-9474.636058,-1608.800546
20585.937012,-1628.453072,-9548.656652,-3677.258390
20585.937345,1184.329507,-11177.109724,-76.609550
20585.937678,1036.288319,-9474.636058,-1608.800546
20585.938011,740.205942,-9548.656652,-1149.143247
20585.938344,0.000000,-9474.636058,-1915.238745
20585.938677,0.000000,-9178.553681,-1149.143247
20585.939011,0.000000,-9844.739029,0.000000
20585.939344,-2368.659014,-8364.327145,1532.190996
20585.939677,-74.020594,-9474.636058,-76.609550
20585.940010,-2368.659014,-8364.327145,1838.629195
20585.940343,4737.318029,-7105.977043,7277.907231
20585.940676,3923.091493,-5403.503377,3677.258390
20585.941009,4663.297435,-5773.606348,4060.306139
20585.941342,-148.041188,-10881.027347,-1072.533697
20585.941675,-962.267725,-11325.150913,-3064.381992
20585.942008,-1258.350101,-13027.624579,-3140.991542
20585.942341,-3552.988522,-11917.315666,-2757.943793
20585.942675,-5181.441594,-8364.327145,-6511.811733
20585.943008,-4441.235652,-10140.821405,-306.438199
20585.943341,2886.803174,-7550.100608,2681.334243
20585.943674,4663.297435,-5847.626942,7201.297681
20585.944007,4663.297435,-5329.482782,5286.058936
20585.944340,1776.494261,-7328.038826,4290.134789
20585.944673,2072.576638,-8586.388927,2451.505594
20585.945006,-1184.329507,-7179.997637,306.438199
20585.945339,-370.102971,-12435.459826,-2528.115143
20585.945672,-7105.977043,-11029.068536,-4749.792088
20585.946005,-7105.977043,-11325.150913,-3677.258390
20585.946339,-1554.432478,-10510.924376,-3294.210641
20585.946672,-74.020594,-9178.553681,-689.485948
20585.947005,-740.205942,-7994.224174,689.485948
20585.947338,222.061783,-9474.636058,2681.334243
20585.947671,3034.844362,-7179.997637,4903.011187
20585.948004,592.164754,-5107.421000,2911.162892
20585.948337,2294.638420,-9474.636058,2374.896044
20585.948670,0.000000,-7772.162391,995.924147
20585.949003,518.144159,-10362.883188,1302.362347
20585.949336,2294.638420,-9400.615463,459.657299
20585.949669,-666.185348,-7772.162391,-1762.019645
20585.950003,-370.102971,-10955.047942,-2528.115143
20585.950336,-74.020594,-7328.038826,-4290.134789
20585.950669,-1036.288319,-11843.295072,-229.828649
20585.951002,592.164754,-9992.780217,-612.876398
20585.951335,-1406.391290,-8956.491898,-1225.752797
20585.951668,-666.185348,-9696.697840,842.705048
20585.952001,3182.885551,-7031.956449,3600.648841
20585.952334,5699.585753,-7105.977043,6281.983084
20585.952667,5329.482782,-3627.009116,4903.011187
20585.953000,6735.874072,-8290.306550,1762.019645
20585.953333,2368.659014,-9548.656652,0.000000
20585.953667,2886.803174,-13027.624579,-3753.867940
20585.954000,-814.226536,-11843.295072,-5592.497135
20585.954333,-4737.318029,-11917.315666,-5515.887586
20585.954666,-3034.844362,-13175.665768,-3907.087040
20585.954999,888.247130,-8586.388927,153.219100
20585.955332,6883.915261,-7772.162391,5975.544884
20585.955665,11547.212695,-5625.565159,11338.213370
20585.955998,9400.615463,-4737.318029,6052.154434
20585.956331,5921.647536,-7476.080014,5592.497135
20585.956664,5921.647536,-10214.842000,4826.401637
20585.956997,2886.803174,-10214.842000,-1838.629195
20585.957331,-3108.864956,-15100.201217,-4060.306139
20585.957664,-5699.585753,-11621.233289,-9039.926876
20585.957997,-4367.215058,-14285.974681,-5209.449386
20585.958330,0.000000,-9252.574275,229.828649
20585.958663,2294.638420,-7105.977043,3294.210641
20585.958996,-2738.761985,-5995.668130,0.000000
20585.959329,2368.659014,-9326.594869,4826.401637
20585.959662,1406.391290,-6587.832884,3983.696590
20585.959995,1628.453072,-4811.338623,3677.258390
20585.960328,-2072.576638,-10510.924376,2987.772442
20585.960661,-3330.926739,-9622.677246,-1378.971896
20585.960995,-3552.988522,-10140.821405,-383.047749
20585.961328,-2294.638420,-10881.027347,-1072.533697
20585.961661,-3627.009116,-8882.471304,-1608.800546
20585.961994,-6069.688724,-8956.491898,-2987.772442
20585.962327,-3627.009116,-9844.739029,-1762.019645
20585.962660,-4293.194464,-9400.615463,-766.095498
20585.962993,-4737.318029,-9548.656652,612.876398
20585.963326,-4737.318029,-8660.409521,2987.772442
20585.963659,-3627.009116,-8290.306550,689.485948
20585.963992,-1184.329507,-7105.977043,4903.011187
20585.964325,1554.432478,-8586.388927,4826.401637
20585.964659,0.000000,-4811.338623,2451.505594
20585.964992,74.020594,-9400.615463,2145.067394
20585.965325,1184.329507,-8364.327145,0.000000
20585.965658,-1776.494261,-11991.336260,-1225.752797
20585.965991,-2442.679609,-11843.295072,-4060.306139
20585.966324,-5921.647536,-11917.315666,-4673.182538
20585.966657,-1258.350101,-9474.636058,-4979.620737
20585.966990,0.000000,-9548.656652,1225.752797
20585.967323,2368.659014,-5403.503377,5209.449386
20585.967656,8808.450710,-7105.977043,7124.688131
20585.967989,4885.359217,-7402.059420,4826.401637
20585.968322,7624.121203,-8586.388927,4673.182538
20585.968656,4663.297435,-8734.430116,2911.162892
20585.968989,2886.803174,-9622.677246,-383.047749
20585.969322,0.000000,-10732.986159,-2221.676944
20585.969655,-1628.453072,-11029.068536,-4903.011187
20585.969988,5255.462188,-11843.295072,-1302.362347
20585.970321,2738.761985,-8364.327145,0.000000
20585.970654,3108.864956,-8290.306550,-536.266849
20585.970987,1406.391290,-10362.883188,-1915.238745
20585.971320,4367.215058,-9474.636058,1149.143247
20585.971653,5847.626942,-7105.977043,3907.087040
20585.971986,5033.400406,-7476.080014,2911.162892
20585.972320,4663.297435,-11251.130318,2374.896044
20585.972653,592.164754,-9844.739029,2757.943793
20585.972986,4663.297435,-12361.439231,4826.401637
20585.973319,4663.297435,-7920.203579,229.828649
20585.973652,0.000000,-7772.162391,0.000000
20585.973985,222.061783,-9696.697840,-2451.505594
20585.974318,-370.102971,-9474.636058,-1991.848295
20585.974651,-2146.597232,-11177.109724,-1915.238745
20585.974984,-5107.421000,-10140.821405,-3370.820191
20585.975317,-7254.018232,-9918.759623,-4903.011187
20585.975650,-3552.988522,-10658.965565,3600.648841
20585.975984,-814.226536,-4367.215058,3064.381992
20585.976317,0.000000,-5403.503377,7967.393179
20585.976650,2368.659014,-5551.544565,6588.421283
20585.976983,0.000000,-7328.038826,3677.258390
20585.977316,-74.020594,-10362.883188,842.705048
20585.977649,-5033.400406,-12065.356855,-2528.115143
20585.977982,-7476.080014,-11769.274478,-5745.716235
20585.978315,-7772.162391,-10732.986159,-8886.707777
20585.978648,-5773.606348,-11621.233289,-2987.772442
20585.978981,-2886.803174,-8142.265362,1225.752797
20585.979314,-592.164754,-7031.956449,4826.401637
20585.979648,2368.659014,-5773.606348,7890.783629
20585.979981,518.144159,-6069.688724,4903.011187
20585.980314,592.164754,-4811.338623,2451.505594
20585.980647,0.000000,-7772.162391,3830.477490
20585.980980,-2738.761985,-10066.800811,-2681.334243
20585.981313,-4737.318029,-9548.656652,-2451.505594
20585.981646,-4219.173869,-11103.089130,-3907.087040
20585.981979,-814.226536,-10066.800811,-1991.848295
20585.982312,-962.267725,-8586.388927,-2221.676944
20585.982645,-74.020594,-9474.636058,-2528.115143
20585.982978,-74.020594,-8586.388927,-2911.162892
20585.983312,1776.494261,-9104.533087,3983.696590
20585.983645,3552.988522,-9252.574275,7277.907231
20585.983978,2294.638420,-6661.853478,1302.362347
20585.984311,2886.803174,-10584.944971,3447.429741
20585.984644,4811.338623,-8068.244768,3524.039291
20585.984977,5477.523971,-8586.388927,4213.525239
20585.985310,5403.503377,-6513.812290,1455.581446
20585.985643,1184.329507,-9548.656652,-2451.505594
20585.985976,2294.638420,-9548.656652,-6128.763984
20585.986309,3552.988522,-13027.624579,-689.485948
20585.986642,-74.020594,-11251.130318,-4979.620737
20585.986976,-1258.350101,-10732.986159,-5822.325785
20585.987309,-1036.288319,-11251.130318,-1608.800546
20585.987642,5477.523971,-8068.244768,4903.011187
20585.987975,8290.306550,-4145.153275,6128.763984
20585.988308,8438.347739,-6217.729913,6511.811733
20585.988641,7105.977043,-7698.141797,4903.011187
20585.988974,3701.029710,-7772.162391,2451.505594
20585.989307,7624.121203,-10658.965565,1762.019645
20585.989640,0.000000,-9548.656652,-4290.134789
20585.989973,-962.267725,-12435.459826,-4979.620737
20585.990306,-4145.153275,-12805.562797,-5975.544884
20585.990640,-222.061783,-11029.068536,-2987.772442
20585.990973,592.164754,-10584.944971,1149.143247
20585.991306,2516.700203,-8216.285956,4213.525239
20585.991639,5847.626942,-4737.318029,5745.716235
20585.991972,3552.988522,-8364.327145,8810.098227
20585.992305,4663.297435,-4589.276840,2757.943793
20585.992638,-1924.535449,-7772.162391,1838.629195
20585.992971,-1850.514855,-11103.089130,-1608.800546
20585.993304,-4663.297435,-10436.903782,-4903.011187
20585.993637,-5033.400406,-11695.253884,-4136.915689
20585.993970,-2516.700203,-8660.409521,-2911.162892
20585.994303,-4959.379811,-9326.594869,-2451.505594
20585.994636,-3034.844362,-10658.965565,-3140.991542
20585.994969,-4663.297435,-10584.944971,842.705048
20585.995302,-4145.153275,-8956.491898,3064.381992
20585.995635,-962.267725,-7698.141797,3753.867940
20585.995968,-4589.276840,-7476.080014,3677.258390
20585.996301,-74.020594,-9030.512492,4826.401637
20585.996634,-74.020594,-6661.853478,2068.457845
20585.996967,592.164754,-7179.997637,4826.401637
20585.997300,-74.020594,-9474.636058,2987.772442
20585.997633,-4219.173869,-7179.997637,-5975.544884
20585.997966,-3034.844362,-11029.068536,-6052.154434
20585.998299,-4959.379811,-13027.624579,-3753.867940
20585.998632,-5329.482782,-11251.130318,-4290.134789
20585.998965,-6439.791695,-10881.027347,-3064.381992
20585.999298,-2590.720797,-8142.265362,-689.485948
20585.999631,1776.494261,-8216.285956,7277.907231
20585.999964,6735.874072,-7105.977043,9729.412825
20586.000297,4071.132681,-4885.359217,4903.011187
20586.000630,4737.318029,-7624.121203,6894.859482
20586.000963,6439.791695,-7846.182985,1915.238745
20586.001296,3034.844362,-11399.171507,536.266849
20586.001629,-1036.288319,-10732.986159,-4826.401637
20586.001962,-4515.256246,-13915.871710,-7737.564530
20586.002295,-3552.988522,-11917.315666,-6128.763984
20586.002628,2960.823768,-12435.459826,-76.609550
20586.002961,2738.761985,-7328.038826,306.438199
20586.003294,5847.626942,-4589.276840,1991.848295
20586.003627,4737.318029,-8882.471304,5439.278036
20586.003960,8290.306550,-5699.585753,5209.449386
20586.004293,8660.409521,-8290.306550,3600.648841
20586.004626,3849.070898,-11473.192101,1149.143247
20586.004959,2294.638420,-10584.944971,-1838.629195
20586.005293,-74.020594,-10881.027347,-3677.258390
20586.005626,4293.194464,-11251.130318,-1302.362347
20586.005959,3478.967927,-12435.459826,-76.609550
20586.006292,814.226536,-8660.409521,-3677.258390
20586.006625,0.000000,-9992.780217,-1838.629195
20586.006958,-74.020594,-8142.265362,-2451.505594
20586.007291,888.247130,-8660.409521,1532.190996
20586.007624,518.144159,-7179.997637,3294.210641
20586.007957,222.061783,-8438.347739,3447.429741
20586.008290,0.000000,-8068.244768,2451.505594
20586.008623,3108.864956,-8586.388927,4519.963438
20586.008956,2738.761985,-7624.121203,3600.648841
20586.009289,1036.288319,-8660.409521,842.705048
20586.009622,-1554.432478,-12435.459826,-1915.238745
20586.009955,-3330.926739,-11843.295072,-3140.991542
20586.010288,-6439.791695,-11325.150913,-3983.696590
20586.010621,-5699.585753,-11251.130318,-2528.115143
20586.010954,-7179.997637,-12731.542202,-3447.429741
20586.011287,-1850.514855,-8142.265362,2374.896044
20586.011620,1480.411884,-7105.977043,6665.030833
20586.011953,1998.556043,-3701.029710,6818.249932
20586.012286,1110.308913,-6069.688724,3677.258390
20586.012619,-740.205942,-8586.388927,1915.238745
20586.012952,592.164754,-9770.718434,2374.896044
20586.013285,-3552.988522,-11325.150913,1762.019645
20586.013618,-4219.173869,-11547.212695,-6205.373534
20586.013951,-6809.894666,-11547.212695,-6128.763984
20586.014284,-3701.029710,-10881.027347,-2451.505594
20586.014617,-74.020594,-8882.471304,76.609550
20586.014950,-888.247130,-7179.997637,1685.410096
20586.015283,370.102971,-6291.750507,1762.019645
20586.015616,2368.659014,-6809.894666,3217.601092
20586.015949,4663.297435,-8290.306550,4826.401637
20586.016282,2368.659014,-8882.471304,4826.401637
20586.016615,-74.020594,-10658.965565,-383.047749
20586.016948,-3256.906145,-9548.656652,-1532.190996
20586.017281,888.247130,-11029.068536,612.876398
20586.017614,0.000000,-8512.368333,-2145.067394
20586.017947,962.267725,-9770.718434,-1762.019645
20586.018280,-666.185348,-10066.800811,-3140.991542
20586.018613,1480.411884,-9622.677246,-153.219100
20586.018946,962.267725,-7476.080014,0.000000
20586.019279,3478.967927,-11251.130318,1762.019645
20586.019612,0.000000,-5403.503377,-2451.505594
20586.019945,1184.329507,-11251.130318,2987.772442
20586.020278,5847.626942,-8882.471304,3294.210641
20586.020611,5921.647536,-6883.915261,7354.516781
20586.020944,6143.709319,-7550.100608,3370.820191
20586.021278,5107.421000,-7994.224174,1149.143247
20586.021611,962.267725,-11843.295072,-2834.553343
20586.021944,1184.329507,-11029.068536,-1991.848295
20586.022277,-74.020594,-13619.789333,-4979.620737
20586.022610,-2368.659014,-11029.068536,-4903.011187
20586.022943,-4145.153275,-9844.739029,-153.219100
20586.023276,4663.297435,-9474.636058,2374.896044
20586.023609,5921.647536,-4811.338623,7124.688131
20586.023942,4959.379811,-5033.400406,5592.497135
20586.024275,5255.462188,-7105.977043,3294.210641
20586.024608,3849.070898,-8364.327145,3524.039291
20586.024941,1184.329507,-8660.409521,1225.752797
20586.025274,814.226536,-9622.677246,-1685.410096
20586.025607,-1702.473667,-12361.439231,-4366.744339
20586.025940,-2590.720797,-12731.542202,-5286.058936
20586.026273,-814.226536,-13027.624579,-689.485948
20586.026606,0.000000,-8364.327145,919.314598
20586.026939,814.226536,-8882.471304,2374.896044
20586.027272,1702.473667,-5255.462188,0.000000
20586.027605,2960.823768,-7920.203579,6052.154434
20586.027938,3478.967927,-8882.471304,6052.154434
20586.028271,-1924.535449,-7772.162391,76.609550
20586.028604,-4515.256246,-9918.759623,-2068.457845
20586.028937,-3108.864956,-10510.924376,-995.924147
20586.029270,0.000000,-7179.997637,0.000000
20586.029603,-2368.659014,-8364.327145,0.000000
20586.029936,-1258.350101,-9474.636058,-4060.306139
20586.030269,-4737.318029,-9548.656652,-4826.401637
20586.030602,-3552.988522,-10436.903782,-1225.752797
20586.030935,-2368.659014,-9474.636058,-76.609550
20586.031268,-4145.153275,-10436.903782,612.876398
20586.031601,-2960.823768,-8586.388927,1838.629195
20586.031934,-1036.288319,-8142.265362,4903.011187
20586.032267,3256.906145,-7105.977043,7660.954980
20586.032600,2368.659014,-5699.585753,9346.365076
20586.032933,-74.020594,-5329.482782,383.047749
20586.033266,-1110.308913,-8364.327145,612.876398
20586.033599,-1776.494261,-11621.233289,-1302.362347
20586.033932,-4145.153275,-10807.006753,-6128.763984
20586.034265,-5995.668130,-11547.212695,-6511.811733
20586.034598,-7105.977043,-12509.480420,-5822.325785
20586.034931,-4589.276840,-9844.739029,-3370.820191
20586.035264,-74.020594,-8882.471304,842.705048
20586.035597,3552.988522,-4811.338623,4903.011187
20586.035930,5329.482782,-6883.915261,8197.221829
20586.036263,4663.297435,-7328.038826,3677.258390
20586.036596,4737.318029,-6291.750507,4903.011187
20586.036929,5847.626942,-7105.977043,2374.896044
20586.037263,666.185348,-9992.780217,-2145.067394
20586.037596,-1776.494261,-12287.418637,-4979.620737
20586.037929,-1850.514855,-13915.871710,-4826.401637
20586.038262,0.000000,-10140.821405,-1838.629195
20586.038595,4071.132681,-9474.636058,-995.924147
20586.038928,592.164754,-8364.327145,1455.581446
20586.039261,5847.626942,-9178.553681,4213.525239
20586.039594,3182.885551,-7328.038826,2451.505594
20586.039927,5107.421000,-6069.688724,3370.820191
20586.040260,1702.473667,-9400.615463,0.000000
20586.040593,3182.885551,-10658.965565,612.876398
20586.040926,5107.421000,-9178.553681,2681.334243
20586.041259,4737.318029,-7179.997637,3064.381992
20586.041592,4589.276840,-9326.594869,-76.609550
20586.041925,-370.102971,-9326.594869,-4443.353888
20586.042258,-1184.329507,-11917.315666,-3753.867940
20586.042591,370.102971,-11177.109724,-1762.019645
20586.042924,-1776.494261,-7476.080014,-1838.629195
20586.043257,-2442.679609,-11251.130318,-1302.362347
20586.043590,-666.185348,-8882.471304,-995.924147
20586.043923,592.164754,-8364.327145,5439.278036
20586.044256,5847.626942,-8142.265362,7890.783629
20586.044589,2738.761985,-5107.421000,4903.011187
20586.044922,1258.350101,-7254.018232,2757.943793
20586.045255,1036.288319,-8882.471304,995.924147
20586.045588,-1702.473667,-11325.150913,-306.438199
20586.045921,-5921.647536,-11695.253884,-3064.381992
20586.046254,-6291.750507,-11843.295072,-7431.126331
20586.046587,-8290.306550,-13249.686362,-4903.011187
20586.046920,-5033.400406,-10658.965565,-689.485948
20586.047253,-2146.597232,-8290.306550,689.485948
20586.047586,0.000000,-4515.256246,6052.154434
20586.047919,74.020594,-5699.585753,4903.011187
20586.048252,1702.473667,-7994.224174,4519.963438
20586.048585,1110.308913,-8808.450710,3600.648841
20586.048918,-666.185348,-10658.965565,-76.609550
20586.049251,-2442.679609,-10658.965565,-5286.058936
20586.049584,-5921.647536,-12805.562797,-3294.210641
20586.049917,-74.020594,-13619.789333,-76.609550
20586.050250,-1850.514855,-8956.491898,-919.314598
20586.050583,-74.020594,-9474.636058,-76.609550
20586.050916,-3330.926739,-8956.491898,-766.095498
20586.051249,74.020594,-7994.224174,1378.971896
20586.051582,1850.514855,-7846.182985,4213.525239
20586.051915,0.000000,-5847.626942,2374.896044
20586.052248,-1184.329507,-6587.832884,0.000000
20586.052581,888.247130,-11251.130318,3600.648841
20586.052914,3478.967927,-6661.853478,383.047749
20586.053248,1850.514855,-8364.327145,0.000000
20586.053581,2294.638420,-10362.883188,-1302.362347
20586.053914,-1036.288319,-10732.986159,-3524.039291
20586.054247,1998.556043,-10732.986159,-2068.457845
20586.054580,2886.803174,-10214.842000,-229.828649
20586.054913,-814.226536,-8586.388927,-2374.896044
20586.055246,296.082377,-7920.203579,-1225.752797
20586.055579,1998.556043,-9770.718434,1838.629195
20586.055912,7698.141797,-5995.668130,5592.497135
20586.056245,6513.812290,-8364.327145,7354.516781
20586.056578,8216.285956,-9178.553681,6052.154434
20586.056911,4663.297435,-6143.709319,0.000000
20586.057244,5773.606348,-11547.212695,2987.772442
20586.057577,4663.297435,-11843.295072,-1915.238745
20586.057910,-3552.988522,-11917.315666,-6741.640382
20586.058243,-1628.453072,-13027.624579,-5592.497135
20586.058576,-1702.473667,-11695.253884,-3064.381992
20586.058909,3478.967927,-8882.471304,995.924147
20586.059242,3478.967927,-7105.977043,2987.772442
20586.059575,1480.411884,-5995.668130,3217.601092
20586.059908,3775.050304,-3034.844362,1225.752797
20586.060241,2960.823768,-10362.883188,4826.401637
20586.060574,3775.050304,-8290.306550,1762.019645
20586.060907,1702.473667,-11251.130318,-76.609550
20586.061240,296.082377,-12879.583391,-766.095498
20586.061573,-370.102971,-10584.944971,-1608.800546
20586.061906,-1184.329507,-11399.171507,-766.095498
20586.062239,518.144159,-8142.265362,-995.924147
20586.062572,-370.102971,-11103.089130,-76.609550
20586.062905,-1776.494261,-8364.327145,0.000000
20586.063238,-3552.988522,-11621.233289,2451.505594
20586.063571,-666.185348,-5625.565159,0.000000
20586.063904,-4441.235652,-7772.162391,1302.362347
20586.064237,-3034.844362,-8290.306550,0.000000
20586.064570,0.000000,-7031.956449,3447.429741
20586.064903,-740.205942,-7328.038826,3677.258390
20586.065236,2368.659014,-6291.750507,2451.505594
20586.065569,-4219.173869,-11251.130318,-1915.238745
20586.065902,-3552.988522,-12287.418637,-1302.362347
20586.066235,-3627.009116,-13027.624579,-1915.238745
20586.066568,-5625.565159,-9548.656652,-2451.505594
20586.066901,-5625.565159,-8660.409521,-1225.752797
20586.067234,-7179.997637,-9696.697840,-2145.067394
20586.067567,-1776.494261,-7179.997637,2145.067394
20586.067900,296.082377,-7476.080014,6205.373534
20586.068233,2072.576638,-4219.173869,5362.668486
20586.068566,0.000000,-4811.338623,1225.752797
20586.068899,4071.132681,-9474.636058,1762.019645
20586.069233,1110.308913,-8364.327145,-919.314598
20586.069566,-4145.153275,-11325.150913,-1838.629195
20586.069899,-3478.967927,-13027.624579,-6588.421283
20586.070232,-7550.100608,-13101.645173,-6435.202183
20586.070565,-1924.535449,-10584.944971,-3064.381992
20586.070898,0.000000,-8882.471304,76.609550
20586.071231,3404.947333,-7105.977043,2528.115143
20586.071564,3775.050304,-5995.668130,3370.820191
20586.071897,7624.121203,-5847.626942,5515.887586
20586.072230,9104.533087,-6957.935855,6971.469032
20586.072563,4441.235652,-9104.533087,3677.258390
20586.072896,5847.626942,-8586.388927,-76.609550
20586.073229,-1776.494261,-12065.356855,-3064.381992
20586.073562,2516.700203,-11695.253884,-383.047749
20586.073895,4071.132681,-10066.800811,-2987.772442
20586.074228,0.000000,-9844.739029,-2757.943793
20586.074561,2368.659014,-7476.080014,-76.609550
20586.074894,0.000000,-11029.068536,-1455.581446
20586.075227,4959.379811,-8438.347739,2374.896044
20586.075560,2812.782580,-7698.141797,2757.943793
20586.075893,518.144159,-8586.388927,689.485948
20586.076226,4367.215058,-4811.338623,0.000000
20586.076559,5107.421000,-11695.253884,4826.401637
20586.076892,7254.018232,-4145.153275,1762.019645
20586.077225,2368.659014,-7920.203579,1532.190996
20586.077558,1998.556043,-11843.295072,-3140.991542
20586.077891,-1184.329507,-11843.295072,-3907.087040
20586.078224,-1406.391290,-12509.480420,-3524.039291
20586.078557,-1332.370696,-10584.944971,-3677.258390
20586.078890,-5773.606348,-10732.986159,-4596.572988
20586.079223,-2886.803174,-9696.697840,-3677.258390
20586.079556,-74.020594,-11843.295072,4826.401637
20586.079889,3775.050304,-3034.844362,6741.640382
20586.080222,2368.659014,-4811.338623,8197.221829
20586.080555,74.020594,-5995.668130,2221.676944
20586.080888,518.144159,-7624.121203,2068.457845
20586.081221,-4367.215058,-10955.047942,383.047749
20586.081554,-5847.626942,-10510.924376,-4826.401637
20586.081887,-8068.244768,-12583.501014,-5669.106685
20586.082220,-9474.636058,-12213.398043,-4136.915689
20586.082553,-3627.009116,-9474.636058,-2834.553343
20586.082886,-4145.153275,-8068.244768,153.219100
20586.083219,-1036.288319,-5551.544565,1225.752797
20586.083552,1184.329507,-9326.594869,4903.011187
20586.083885,1702.473667,-7105.977043,5132.839837
20586.084218,1110.308913,-8290.306550,4519.963438
20586.084551,-1776.494261,-8660.409521,1532.190996
20586.084884,-1554.432478,-7698.141797,-2374.896044
20586.085218,1184.329507,-13027.624579,1762.019645
20586.085551,1184.329507,-7772.162391,1225.752797
20586.085884,-1480.411884,-7179.997637,0.000000
20586.086217,-1332.370696,-11251.130318,-1302.362347
20586.086550,-74.020594,-9474.636058,-3370.820191
20586.086883,-666.185348,-10658.965565,-1149.143247
20586.087216,222.061783,-8882.471304,-536.266849
20586.087549,-2220.617826,-8660.409521,0.000000
20586.087882,-1258.350101,-7402.059420,-1072.533697
20586.088215,4145.153275,-8882.471304,4213.525239
20586.088548,5921.647536,-7328.038826,6588.421283
20586.088881,7105.977043,-5403.503377,5056.230287
20586.089214,5033.400406,-7698.141797,1455.581446
20586.089547,3775.050304,-10658.965565,-1608.800546
20586.089880,2368.659014,-11843.295072,-1225.752797
20586.090213,1702.473667,-14211.954086,-3753.867940
20586.090546,-2368.659014,-10732.986159,-3830.477490
20586.090879,-3552.988522,-11917.315666,-3677.258390
20586.091212,1702.473667,-8142.265362,-1225.752797
