#time,accel_x,accel_y,accel_z
21927.232342,7920.203579,-8068.244768,2374.896044
21927.232676,5921.647536,-8956.491898,-459.657299
21927.233010,4441.235652,-10066.800811,-2681.334243
21927.233345,3849.070898,-10658.965565,-2757.943793
21927.233679,4737.318029,-11621.233289,-76.609550
21927.234013,4071.132681,-8956.491898,-4903.011187
21927.234347,5625.565159,-8364.327145,-2451.505594
21927.234681,9770.718434,-10658.965565,4213.525239
21927.235016,9474.636058,-7179.997637,5515.887586
21927.235350,12139.377449,-8068.244768,5669.106685
21927.235684,12139.377449,-8216.285956,5056.230287
21927.236018,12731.542202,-7402.059420,2604.724693
21927.236353,11769.274478,-7994.224174,1762.019645
21927.236687,11029.068536,-11547.212695,-1302.362347
21927.237021,4071.132681,-9548.656652,-6741.640382
21927.237355,592.164754,-13545.768739,-4366.744339
21927.237689,2294.638420,-13915.871710,-3753.867940
21927.238024,1110.308913,-11843.295072,-2528.115143
21927.238358,2220.617826,-9548.656652,1532.190996
21927.238692,6809.894666,-6809.894666,6665.030833
21927.239026,10140.821405,-3701.029710,9039.926876
21927.239360,10955.047942,-2738.761985,8886.707777
21927.239695,12361.439231,-5181.441594,4903.011187
21927.240029,11843.295072,-4811.338623,1225.752797
21927.240363,10066.800811,-8216.285956,-76.609550
21927.240697,9400.615463,-9474.636058,-5592.497135
21927.241031,6439.791695,-13619.789333,-8044.002729
21927.241366,3997.112087,-13989.892304,-9193.145976
21927.241700,5107.421000,-13693.809927,-6435.202183
21927.242034,4959.379811,-13841.851115,-4596.572988
21927.242368,5329.482782,-11473.192101,-1225.752797
21927.242703,9252.574275,-9326.594869,4136.915689
21927.243037,13693.809927,-5847.626942,9193.145976
21927.243371,15618.345376,-3849.070898,11644.651570
21927.243705,15840.407159,-4367.215058,10955.165621
21927.244039,13027.624579,-4293.194464,6971.469032
21927.244374,11843.295072,-9474.636058,4826.401637
21927.244708,5847.626942,-8216.285956,-5286.058936
21927.245042,0.000000,-11029.068536,-9806.022374
21927.245376,-74.020594,-13471.748144,-8580.269578
21927.245710,0.000000,-10436.903782,-6741.640382
21927.246043,4293.194464,-9696.697840,-3524.039291
21927.246377,8586.388927,-8290.306550,919.314598
21927.246711,13471.748144,-8882.471304,4826.401637
21927.247044,14211.954086,-7772.162391,6128.763984
21927.247378,16210.510130,-8290.306550,4519.963438
21927.247712,14137.933492,-7328.038826,1378.971896
21927.248045,10955.047942,-8364.327145,2757.943793
21927.248379,11177.109724,-10658.965565,-689.485948
21927.248712,7105.977043,-11473.192101,-76.609550
21927.249046,2960.823768,-9696.697840,-1532.190996
21927.249380,6291.750507,-10362.883188,-1378.971896
21927.249713,9474.636058,-5551.544565,1532.190996
21927.250047,13989.892304,-6513.812290,2987.772442
21927.250381,12657.521608,-5403.503377,0.000000
21927.250714,13027.624579,-8808.450710,3064.381992
21927.251048,14137.933492,-11251.130318,-383.047749
21927.251382,9474.636058,-9548.656652,-2451.505594
21927.251715,10584.944971,-12435.459826,-2374.896044
21927.252049,9474.636058,-11399.171507,-536.266849
21927.252382,10214.842000,-9548.656652,612.876398
21927.252716,12213.398043,-7031.956449,1608.800546
21927.253050,11769.274478,-5921.647536,919.314598
21927.253383,9474.636058,-7179.997637,1838.629195
21927.253717,10658.965565,-9474.636058,3294.210641
21927.254051,10584.944971,-9474.636058,-76.609550
21927.254384,8290.306550,-7772.162391,0.000000
21927.254718,13545.768739,-7550.100608,1149.143247
21927.255051,9844.739029,-11843.295072,-76.609550
21927.255385,9770.718434,-6883.915261,-2298.286494
21927.255719,9252.574275,-11843.295072,-383.047749
21927.256052,9696.697840,-9474.636058,-76.609550
21927.256386,11621.233289,-9326.594869,2068.457845
21927.256720,9770.718434,-8068.244768,766.095498
21927.257053,11843.295072,-8142.265362,2145.067394
21927.257387,9474.636058,-9104.533087,1838.629195
21927.257720,12583.501014,-10658.965565,2374.896044
21927.258054,7328.038826,-9548.656652,0.000000
21927.258388,7105.977043,-9548.656652,-76.609550
21927.258721,12953.603985,-6513.812290,-2451.505594
21927.259055,13027.624579,-7179.997637,0.000000
21927.259389,11769.274478,-9178.553681,-76.609550
21927.259722,9104.533087,-10436.903782,-1072.533697
21927.260056,7920.203579,-10732.986159,-1838.629195
21927.260389,11769.274478,-10658.965565,2987.772442
21927.260723,13619.789333,-9474.636058,4826.401637
21927.261057,5329.482782,-7772.162391,2451.505594
21927.261390,7920.203579,-10066.800811,-76.609550
21927.261724,7031.956449,-8956.491898,-1149.143247
21927.262058,11473.192101,-8290.306550,1762.019645
21927.262391,9104.533087,-8660.409521,612.876398
21927.262725,5921.647536,-8512.368333,-766.095498
21927.263058,4663.297435,-11399.171507,-1608.800546
21927.263392,5921.647536,-5995.668130,-2451.505594
21927.263726,11029.068536,-11251.130318,-76.609550
21927.264059,9474.636058,-6587.832884,5822.325785
21927.264393,5773.606348,-12139.377449,1149.143247
21927.264727,7031.956449,-11843.295072,-76.609550
21927.265060,2368.659014,-11991.336260,-689.485948
21927.265394,7105.977043,-8512.368333,2757.943793
21927.265728,6735.874072,-5773.606348,2911.162892
21927.266061,2738.761985,-8364.327145,-536.266849
21927.266395,2368.659014,-8956.491898,919.314598
21927.266728,2294.638420,-10066.800811,-2374.896044
21927.267062,5033.400406,-8364.327145,4903.011187
21927.267396,3478.967927,-9474.636058,1149.143247
21927.267729,4515.256246,-7179.997637,-2145.067394
21927.268063,3552.988522,-10732.986159,2451.505594
21927.268397,5551.544565,-8808.450710,536.266849
21927.268730,3701.029710,-10214.842000,1532.190996
21927.269064,2072.576638,-8734.430116,-1455.581446
21927.269397,3478.967927,-10658.965565,-1302.362347
21927.269731,-1776.494261,-7179.997637,-1225.752797
21927.270065,5033.400406,-8882.471304,-76.609550
21927.270398,3478.967927,-11843.295072,1762.019645
21927.270732,5181.441594,-5995.668130,1225.752797
21927.271066,5329.482782,-8364.327145,4290.134789
21927.271399,7994.224174,-7994.224174,4213.525239
21927.271733,6291.750507,-9622.677246,536.266849
21927.272066,6957.935855,-9252.574275,153.219100
21927.272400,5255.462188,-12435.459826,-76.609550
21927.272734,0.000000,-7179.997637,-1838.629195
21927.273067,2442.679609,-11251.130318,-3830.477490
21927.273401,-370.102971,-12287.418637,-2528.115143
21927.273735,1332.370696,-11103.089130,-2757.943793
21927.274068,3478.967927,-10510.924376,2987.772442
21927.274402,518.144159,-7920.203579,766.095498
21927.274735,1776.494261,-5403.503377,4903.011187
21927.275069,5181.441594,-9474.636058,7584.345430
21927.275403,6143.709319,-2738.761985,3370.820191
21927.275736,3552.988522,-10510.924376,5132.839837
21927.276070,3108.864956,-8364.327145,0.000000
21927.276404,1702.473667,-11843.295072,-76.609550
21927.276737,-370.102971,-7179.997637,-4749.792088
21927.277071,-666.185348,-13027.624579,-4979.620737
21927.277404,-5107.421000,-9548.656652,-7354.516781
21927.277738,-74.020594,-11843.295072,-1302.362347
21927.278072,2294.638420,-9474.636058,-1302.362347
21927.278405,1702.473667,-8142.265362,0.000000
21927.278739,3478.967927,-9474.636058,4213.525239
21927.279073,6069.688724,-6809.894666,7660.954980
21927.279406,6735.874072,-7402.059420,7354.516781
21927.279740,4959.379811,-4589.276840,3983.696590
21927.280074,3108.864956,-9548.656652,-1838.629195
21927.280407,0.000000,-7179.997637,0.000000
21927.280741,4071.132681,-10658.965565,-4979.620737
21927.281074,-3552.988522,-12509.480420,-4903.011187
21927.281408,-2368.659014,-11621.233289,-2221.676944
21927.281742,-3034.844362,-9844.739029,-7354.516781
21927.282075,-1850.514855,-10584.944971,-383.047749
21927.282409,-1480.411884,-8216.285956,306.438199
21927.282743,1036.288319,-7624.121203,3524.039291
21927.283076,1480.411884,-8956.491898,7354.516781
21927.283410,5773.606348,-7105.977043,7660.954980
21927.283743,4663.297435,-9474.636058,4213.525239
21927.284077,0.000000,-9844.739029,3983.696590
21927.284411,2368.659014,-6069.688724,1762.019645
21927.284744,-370.102971,-8734.430116,0.000000
21927.285078,-1258.350101,-8290.306550,-2528.115143
21927.285412,-5329.482782,-9400.615463,-4903.011187
21927.285745,-6291.750507,-12879.583391,-5439.278036
21927.286079,-3552.988522,-9252.574275,-3677.258390
21927.286412,-4071.132681,-12435.459826,-1302.362347
21927.286746,-3182.885551,-10066.800811,2298.286494
21927.287080,-2368.659014,-7105.977043,1915.238745
21927.287413,-962.267725,-8290.306550,4213.525239
21927.287747,592.164754,-5921.647536,5745.716235
21927.288081,592.164754,-5995.668130,6894.859482
21927.288414,6439.791695,-7994.224174,6358.592633
21927.288748,1702.473667,-4515.256246,0.000000
21927.289081,1702.473667,-10658.965565,-383.047749
21927.289415,-962.267725,-10658.965565,-5745.716235
21927.289749,-1258.350101,-13915.871710,-4826.401637
21927.290082,-3775.050304,-10510.924376,-5669.106685
21927.290416,-1480.411884,-13397.727550,-4136.915689
21927.290750,-3627.009116,-12287.418637,-1608.800546
21927.291083,0.000000,-9548.656652,1225.752797
21927.291417,2590.720797,-10362.883188,8197.221829
21927.291750,5847.626942,-5921.647536,6052.154434
21927.292084,3552.988522,-5107.421000,6741.640382
21927.292418,4367.215058,-5773.606348,4519.963438
21927.292751,2368.659014,-5477.523971,1915.238745
21927.293085,2146.597232,-7476.080014,612.876398
21927.293419,296.082377,-8660.409521,-2068.457845
21927.293752,-2294.638420,-7402.059420,-4673.182538
21927.294086,-962.267725,-11843.295072,-5286.058936
21927.294419,-1258.350101,-15396.283594,-4366.744339
21927.294753,-2738.761985,-9030.512492,-7354.516781
21927.295087,1480.411884,-13471.748144,612.876398
21927.295420,3701.029710,-10140.821405,5822.325785
21927.295754,4811.338623,-8068.244768,5362.668486
21927.296088,4811.338623,-7698.141797,6818.249932
21927.296421,6957.935855,-5477.523971,5592.497135
21927.296755,3849.070898,-7179.997637,4903.011187
21927.297089,5847.626942,-8290.306550,2987.772442
21927.297422,1110.308913,-9474.636058,-2528.115143
21927.297756,-3256.906145,-8660.409521,-5975.544884
21927.298089,-74.020594,-13619.789333,-2528.115143
21927.298423,-3034.844362,-9548.656652,-4213.525239
21927.298757,-2590.720797,-12213.398043,-4060.306139
21927.299090,-2442.679609,-10362.883188,-2068.457845
21927.299424,-3552.988522,-12361.439231,689.485948
21927.299758,4145.153275,-5699.585753,4826.401637
21927.300091,-74.020594,-13619.789333,4213.525239
21927.300425,3701.029710,-4219.173869,7048.078582
21927.300758,1184.329507,-9252.574275,9116.536426
21927.301092,3478.967927,-4737.318029,1762.019645
21927.301426,-814.226536,-6587.832884,1225.752797
21927.301759,-4737.318029,-9474.636058,-3294.210641
21927.302093,-3923.091493,-8290.306550,-4673.182538
21927.302427,-5181.441594,-10732.986159,-3447.429741
21927.302760,-1184.329507,-9548.656652,-995.924147
21927.303094,-1850.514855,-11991.336260,306.438199
21927.303427,2664.741391,-11843.295072,3294.210641
21927.303761,-740.205942,-9030.512492,1149.143247
21927.304095,0.000000,-9622.677246,2911.162892
21927.304428,1184.329507,-6661.853478,6052.154434
21927.304762,1110.308913,-9326.594869,3907.087040
21927.305096,-74.020594,-5107.421000,0.000000
21927.305429,-2368.659014,-9400.615463,-153.219100
21927.305763,-74.020594,-9474.636058,-76.609550
21927.306096,-1184.329507,-5699.585753,919.314598
21927.306430,-2960.823768,-11029.068536,842.705048
21927.306764,-5773.606348,-7624.121203,-4443.353888
21927.307097,-2960.823768,-8364.327145,-3677.258390
21927.307431,-2368.659014,-10732.986159,1991.848295
21927.307765,5847.626942,-9474.636058,1915.238745
21927.308098,1776.494261,-7772.162391,306.438199
21927.308432,2960.823768,-10732.986159,2451.505594
21927.308765,2072.576638,-7772.162391,536.266849
21927.309099,888.247130,-9844.739029,-76.609550
21927.309433,1184.329507,-8068.244768,995.924147
21927.309766,296.082377,-7179.997637,0.000000
21927.310100,2294.638420,-9474.636058,-383.047749
21927.310434,0.000000,-9400.615463,2374.896044
21927.310767,518.144159,-7179.997637,0.000000
21927.311101,2960.823768,-9696.697840,1762.019645
21927.311435,6439.791695,-11547.212695,2987.772442
21927.311768,2886.803174,-9770.718434,306.438199
21927.312102,3997.112087,-10955.047942,689.485948
21927.312435,1554.432478,-12213.398043,0.000000
21927.312769,3182.885551,-9474.636058,4060.306139
21927.313103,0.000000,-7179.997637,842.705048
21927.313436,1554.432478,-8882.471304,-76.609550
21927.313770,-4737.318029,-7179.997637,-4903.011187
21927.314104,-148.041188,-9474.636058,-2528.115143
21927.314437,-1480.411884,-9548.656652,-2451.505594
21927.314771,-1184.329507,-8734.430116,612.876398
21927.315104,2368.659014,-8586.388927,842.705048
21927.315438,296.082377,-10807.006753,3140.991542
21927.315772,4293.194464,-6217.729913,2374.896044
21927.316105,-814.226536,-14656.077652,2987.772442
21927.316439,2886.803174,-6587.832884,612.876398
21927.316773,740.205942,-10658.965565,2374.896044
21927.317106,-1554.432478,-8364.327145,-2451.505594
21927.317440,1776.494261,-9474.636058,1762.019645
21927.317773,-6143.709319,-11917.315666,-2757.943793
21927.318107,-2960.823768,-9548.656652,-1302.362347
21927.318441,-5477.523971,-9178.553681,-1838.629195
21927.318774,-6069.688724,-7846.182985,-4519.963438
21927.319108,-74.020594,-9326.594869,2987.772442
21927.319442,-1036.288319,-5995.668130,3677.258390
21927.319775,2738.761985,-7031.956449,3907.087040
21927.320109,1184.329507,-9252.574275,3907.087040
21927.320442,2516.700203,-8512.368333,2374.896044
21927.320776,0.000000,-11843.295072,2298.286494
21927.321110,1702.473667,-6439.791695,-2451.505594
21927.321443,-7105.977043,-14285.974681,-1225.752797
21927.321777,-1258.350101,-11843.295072,-1608.800546
21927.322111,-2368.659014,-5995.668130,-2145.067394
21927.322444,0.000000,-10881.027347,1455.581446
21927.322778,962.267725,-7698.141797,1991.848295
21927.323111,-1998.556043,-7772.162391,-919.314598
21927.323445,1332.370696,-9622.677246,2068.457845
21927.323779,-1850.514855,-7698.141797,1762.019645
21927.324112,3478.967927,-4811.338623,612.876398
21927.324446,4071.132681,-10066.800811,6665.030833
21927.324780,6439.791695,-7105.977043,842.705048
21927.325113,888.247130,-8364.327145,306.438199
21927.325447,-74.020594,-14211.954086,-1302.362347
21927.325781,296.082377,-9326.594869,-3140.991542
21927.326114,-4219.173869,-13471.748144,-4060.306139
21927.326448,4071.132681,-7994.224174,-995.924147
21927.326781,-1850.514855,-8438.347739,-995.924147
21927.327115,0.000000,-5995.668130,0.000000
21927.327449,4663.297435,-9474.636058,2987.772442
21927.327782,4071.132681,-8882.471304,2681.334243
21927.328116,5329.482782,-5403.503377,6741.640382
21927.328450,2886.803174,-6661.853478,1072.533697
21927.328783,5921.647536,-8068.244768,-1225.752797
21927.329117,-740.205942,-13101.645173,842.705048
21927.329450,5181.441594,-7920.203579,-153.219100
21927.329784,-1184.329507,-14137.933492,0.000000
21927.330118,0.000000,-12287.418637,-76.609550
21927.330451,-1850.514855,-10658.965565,-4060.306139
21927.330785,-5329.482782,-8438.347739,-4903.011187
21927.331119,0.000000,-7772.162391,2068.457845
21927.331452,-74.020594,-7994.224174,0.000000
21927.331786,4959.379811,-5921.647536,5515.887586
21927.332119,1924.535449,-7105.977043,6052.154434
21927.332453,1998.556043,-9474.636058,2911.162892
21927.332787,0.000000,-7476.080014,2757.943793
21927.333120,740.205942,-9326.594869,-689.485948
21927.333454,1110.308913,-8660.409521,-383.047749
21927.333788,-4515.256246,-11621.233289,-2834.553343
21927.334121,-2738.761985,-11251.130318,-4366.744339
21927.334455,-6217.729913,-11843.295072,-2834.553343
21927.334788,-3552.988522,-10140.821405,-2451.505594
21927.335122,-1850.514855,-9474.636058,2374.896044
21927.335456,-666.185348,-10658.965565,1455.581446
21927.335789,-74.020594,-7550.100608,4826.401637
21927.336123,592.164754,-4737.318029,6665.030833
21927.336457,2738.761985,-4811.338623,4443.353888
21927.336790,2294.638420,-9178.553681,5056.230287
21927.337124,1776.494261,-6513.812290,1685.410096
21927.337457,-74.020594,-12435.459826,-2528.115143
21927.337791,-4737.318029,-10732.986159,-689.485948
21927.338125,-2442.679609,-9178.553681,-8044.002729
21927.338458,-4737.318029,-12731.542202,-4366.744339
21927.338792,-1776.494261,-9548.656652,-2451.505594
21927.339126,-3627.009116,-10807.006753,-2451.505594
21927.339459,2368.659014,-9474.636058,2068.457845
21927.339793,3034.844362,-7994.224174,5286.058936
21927.340127,4737.318029,-5403.503377,4826.401637
21927.340460,2368.659014,-7179.997637,3677.258390
21927.340794,5847.626942,-7105.977043,3447.429741
21927.341127,4441.235652,-8586.388927,4213.525239
21927.341461,2738.761985,-7476.080014,-1838.629195
21927.341795,2738.761985,-12731.542202,-1302.362347
21927.342128,-74.020594,-13027.624579,-3140.991542
21927.342462,-2146.597232,-11029.068536,-3217.601092
21927.342796,-1554.432478,-8808.450710,-4366.744339
21927.343129,-1480.411884,-12139.377449,-4366.744339
21927.343463,2886.803174,-9178.553681,-76.609550
21927.343796,1332.370696,-8364.327145,1225.752797
21927.344130,7994.224174,-9178.553681,7277.907231
21927.344464,5847.626942,-11843.295072,2604.724693
21927.344797,5329.482782,-5403.503377,8886.707777
21927.345131,1184.329507,-7179.997637,4290.134789
21927.345465,3627.009116,-8660.409521,2451.505594
21927.345803,-1258.350101,-5625.565159,-3064.381992
21927.346137,-1850.514855,-10955.047942,-2757.943793
21927.346470,0.000000,-9548.656652,-2451.505594
21927.346804,-2368.659014,-14878.139434,-1302.362347
21927.347137,-1554.432478,-11695.253884,-689.485948
21927.347471,-74.020594,-11843.295072,-1302.362347
21927.347805,2886.803174,-8364.327145,4903.011187
21927.348138,0.000000,-8364.327145,6052.154434
21927.348472,2886.803174,-5921.647536,612.876398
21927.348806,740.205942,-7920.203579,3830.477490
21927.349139,3404.947333,-8438.347739,2681.334243
21927.349473,3849.070898,-9104.533087,2451.505594
21927.349807,-592.164754,-9992.780217,306.438199
21927.350140,-3034.844362,-11547.212695,-2528.115143
21927.350474,-3108.864956,-7402.059420,-2221.676944
21927.350808,-3701.029710,-10362.883188,-5056.230287
21927.351141,-2146.597232,-8512.368333,-1838.629195
21927.351475,-1184.329507,-10436.903782,-76.609550
21927.351809,-74.020594,-13915.871710,3600.648841
21927.352142,2590.720797,-5699.585753,3983.696590
21927.352476,518.144159,-9474.636058,2987.772442
21927.352810,3552.988522,-7179.997637,4903.011187
21927.353143,370.102971,-7550.100608,2834.553343
21927.353477,740.205942,-8808.450710,536.266849
21927.353810,-3552.988522,-8364.327145,0.000000
21927.354144,-2442.679609,-8660.409521,-4903.011187
21927.354478,-370.102971,-11843.295072,-3753.867940
21927.354811,-3552.988522,-8068.244768,-3064.381992
21927.355145,-4589.276840,-7772.162391,-4290.134789
21927.355479,-2368.659014,-8068.244768,-2911.162892
21927.355812,1554.432478,-10436.903782,1991.848295
21927.356146,2812.782580,-8808.450710,4826.401637
21927.356480,3552.988522,-8660.409521,4366.744339
21927.356813,4663.297435,-9474.636058,6052.154434
21927.357147,3256.906145,-3923.091493,0.000000
21927.357481,962.267725,-9548.656652,-4060.306139
21927.357814,0.000000,-9548.656652,-1302.362347
21927.358148,1110.308913,-10955.047942,-5209.449386
21927.358482,2812.782580,-14211.954086,-76.609550
21927.358815,-592.164754,-13471.748144,383.047749
21927.359149,-518.144159,-8290.306550,-1072.533697
21927.359482,-74.020594,-10362.883188,459.657299
21927.359816,4959.379811,-6291.750507,4290.134789
21927.360150,1184.329507,-7476.080014,6052.154434
21927.360483,3182.885551,-4811.338623,2451.505594
21927.360817,0.000000,-9548.656652,2757.943793
21927.361151,-74.020594,-9474.636058,-1302.362347
21927.361484,296.082377,-6809.894666,-1608.800546
21927.361818,-814.226536,-11843.295072,-1608.800546
21927.362152,-444.123565,-9104.533087,-2987.772442
21927.362485,-5551.544565,-11177.109724,-2834.553343
21927.362819,-1554.432478,-7920.203579,-4136.915689
21927.363153,2294.638420,-13027.624579,1762.019645
21927.363486,0.000000,-7179.997637,2451.505594
21927.363820,6735.874072,-8586.388927,7277.907231
21927.364154,2294.638420,-7698.141797,2528.115143
21927.364487,0.000000,-8364.327145,3064.381992
21927.364821,4367.215058,-4737.318029,1455.581446
21927.365155,2072.576638,-9474.636058,1608.800546
21927.365488,962.267725,-11991.336260,-76.609550
21927.365822,-3552.988522,-10288.862594,-4366.744339
21927.366155,-2738.761985,-13619.789333,-6205.373534
21927.366489,-4515.256246,-9992.780217,-2298.286494
21927.366823,0.000000,-8364.327145,-612.876398
21927.367156,-1110.308913,-8438.347739,2681.334243
21927.367490,-2368.659014,-5995.668130,1225.752797
21927.367824,74.020594,-8142.265362,2681.334243
21927.368157,-74.020594,-10658.965565,3600.648841
21927.368491,0.000000,-5107.421000,3064.381992
21927.368825,2590.720797,-9474.636058,2374.896044
21927.369158,1110.308913,-5107.421000,-2145.067394
21927.369492,-74.020594,-9622.677246,-1685.410096
21927.369826,-222.061783,-9326.594869,-2911.162892
21927.370159,0.000000,-12509.480420,-2374.896044
21927.370493,-2072.576638,-10881.027347,-689.485948
21927.370827,1702.473667,-11843.295072,-689.485948
21927.371160,-3552.988522,-7179.997637,0.000000
21927.371494,-2368.659014,-7179.997637,-1225.752797
21927.371827,1924.535449,-8290.306550,2987.772442
21927.372161,1776.494261,-7179.997637,3677.258390
21927.372495,4959.379811,-8438.347739,4749.792088
21927.372828,3256.906145,-10732.986159,4213.525239
21927.373162,3552.988522,-7698.141797,4060.306139
21927.373496,1110.308913,-7105.977043,-76.609550
21927.373829,2294.638420,-13619.789333,-1915.238745
21927.374163,-2368.659014,-7179.997637,-1378.971896
21927.374497,-2738.761985,-12287.418637,-2528.115143
21927.374830,-74.020594,-10658.965565,-2528.115143
21927.375164,-4367.215058,-12657.521608,-1608.800546
21927.375498,-3404.947333,-10288.862594,-2068.457845
21927.375831,-444.123565,-5403.503377,2528.115143
21927.376165,2294.638420,-7698.141797,3600.648841
21927.376499,3552.988522,-4811.338623,4903.011187
21927.376832,2886.803174,-7994.224174,4290.134789
21927.377166,0.000000,-7772.162391,3983.696590
21927.377500,2886.803174,-9178.553681,1149.143247
21927.377833,2368.659014,-8290.306550,0.000000
21927.378167,888.247130,-7772.162391,-995.924147
21927.378500,-1036.288319,-11547.212695,-1302.362347
21927.378834,-1554.432478,-9474.636058,-4443.353888
21927.379168,-3997.112087,-9844.739029,-2834.553343
21927.379501,-296.082377,-9474.636058,-2757.943793
21927.379835,-3256.906145,-11917.315666,1225.752797
21927.380169,1702.473667,-9474.636058,2374.896044
21927.380502,1110.308913,-4811.338623,-2145.067394
21927.380836,2368.659014,-11029.068536,6665.030833
21927.381170,3775.050304,-5181.441594,4519.963438
21927.381503,5181.441594,-5329.482782,6052.154434
21927.381837,2738.761985,-9326.594869,2451.505594
21927.382171,-2960.823768,-9696.697840,-3217.601092
21927.382504,-2442.679609,-11843.295072,-3447.429741
21927.382838,-3997.112087,-11029.068536,-3294.210641
21927.383172,-2442.679609,-10436.903782,-3830.477490
21927.383505,-2812.782580,-10807.006753,-2298.286494
21927.383839,-592.164754,-8586.388927,-383.047749
21927.384172,1184.329507,-9252.574275,3677.258390
21927.384506,1998.556043,-5995.668130,1225.752797
21927.384840,2960.823768,-9474.636058,8503.660028
21927.385173,3478.967927,-4811.338623,4903.011187
21927.385507,3182.885551,-4737.318029,995.924147
21927.385841,2220.617826,-11769.274478,2374.896044
21927.386174,0.000000,-7179.997637,-2528.115143
21927.386508,-2368.659014,-13471.748144,-3064.381992
21927.386842,-1184.329507,-11325.150913,-2528.115143
21927.387175,-1850.514855,-13027.624579,-4979.620737
21927.387509,-4737.318029,-10436.903782,-1838.629195
21927.387843,592.164754,-8660.409521,2834.553343
21927.388176,2294.638420,-10066.800811,3600.648841
21927.388510,1184.329507,-3627.009116,4903.011187
21927.388844,3478.967927,-8290.306550,4213.525239
21927.389177,3478.967927,-7031.956449,4366.744339
21927.389511,222.061783,-9252.574275,2681.334243
21927.389845,-74.020594,-8290.306550,-612.876398
21927.390178,-1554.432478,-7476.080014,-4903.011187
21927.390512,-4737.318029,-11621.233289,-2145.067394
21927.390845,-1258.350101,-7402.059420,-4979.620737
21927.391179,-3034.844362,-8660.409521,-4903.011187
21927.391513,-74.020594,-13027.624579,-383.047749
21927.391846,0.000000,-10140.821405,306.438199
21927.392180,3034.844362,-10362.883188,5898.935335
21927.392514,5625.565159,-5329.482782,5362.668486
21927.392847,2886.803174,-11843.295072,5439.278036
21927.393181,4737.318029,-2738.761985,3983.696590
21927.393515,1480.411884,-11473.192101,4826.401637
21927.393848,4663.297435,-5995.668130,0.000000
21927.394182,-3256.906145,-13101.645173,0.000000
21927.394516,-1924.535449,-15396.283594,-1608.800546
21927.394849,-3923.091493,-5403.503377,-4903.011187
21927.395183,-3627.009116,-12731.542202,-3524.039291
21927.395517,1406.391290,-6513.812290,-1455.581446
21927.395850,-444.123565,-10732.986159,2451.505594
21927.396184,3552.988522,-6883.915261,2451.505594
21927.396518,-74.020594,-10510.924376,1608.800546
21927.396851,2072.576638,-9326.594869,3217.601092
21927.397185,5921.647536,-5995.668130,5132.839837
21927.397518,3478.967927,-11251.130318,3600.648841
21927.397852,2072.576638,-4219.173869,0.000000
21927.398186,-2960.823768,-11251.130318,-2528.115143
21927.398519,-74.020594,-10658.965565,-4366.744339
21927.398853,-3849.070898,-8068.244768,-2451.505594
21927.399187,-1258.350101,-10066.800811,-689.485948
21927.399520,-3627.009116,-6957.935855,-2757.943793
21927.399854,-2146.597232,-11621.233289,-2681.334243
21927.400188,3478.967927,-6217.729913,1915.238745
21927.400521,1184.329507,-9548.656652,3983.696590
21927.400855,7624.121203,-10140.821405,3677.258390
21927.401189,3552.988522,-10510.924376,4826.401637
21927.401522,2294.638420,-11029.068536,612.876398
21927.401856,1110.308913,-6587.832884,612.876398
21927.402190,148.041188,-9030.512492,-2911.162892
21927.402523,-740.205942,-10658.965565,-153.219100
21927.402857,-1406.391290,-7772.162391,-2451.505594
21927.403190,-1480.411884,-12953.603985,-1302.362347
21927.403524,-1776.494261,-8734.430116,-76.609550
21927.403858,-3034.844362,-10288.862594,-2451.505594
21927.404191,-148.041188,-8068.244768,5439.278036
21927.404525,2294.638420,-7105.977043,2374.896044
21927.404859,0.000000,-7772.162391,1532.190996
21927.405192,1480.411884,-5847.626942,1532.190996
21927.405526,1036.288319,-11251.130318,2757.943793
21927.405860,0.000000,-7846.182985,0.000000
21927.406193,-740.205942,-11917.315666,-919.314598
21927.406527,-1850.514855,-11251.130318,-1915.238745
21927.406861,-3552.988522,-9844.739029,-1838.629195
21927.407194,-1258.350101,-8586.388927,-3064.381992
21927.407528,-1554.432478,-5995.668130,-3677.258390
21927.407862,2072.576638,-11103.089130,4213.525239
21927.408195,3478.967927,-8882.471304,3600.648841
21927.408529,3404.947333,-7402.059420,2681.334243
21927.408863,1184.329507,-10658.965565,4213.525239
21927.409196,3701.029710,-6291.750507,2221.676944
21927.409530,-1702.473667,-10732.986159,3600.648841
21927.409863,888.247130,-8290.306550,-76.609550
21927.410197,-2368.659014,-7476.080014,0.000000
21927.410531,-1554.432478,-10362.883188,-2834.553343
21927.410864,-74.020594,-13027.624579,-4979.620737
21927.411198,-3627.009116,-11251.130318,-2834.553343
21927.411532,962.267725,-9474.636058,-689.485948
21927.411865,222.061783,-9548.656652,2681.334243
21927.412199,3108.864956,-8734.430116,4213.525239
21927.412533,2590.720797,-4441.235652,2681.334243
21927.412866,2812.782580,-12139.377449,4213.525239
21927.413200,5625.565159,-4885.359217,4749.792088
21927.413534,888.247130,-10732.986159,1532.190996
21927.413867,5403.503377,-6957.935855,1302.362347
21927.414201,-4071.132681,-11917.315666,-4673.182538
21927.414535,-222.061783,-8882.471304,-4979.620737
21927.414868,-2442.679609,-13619.789333,-3753.867940
21927.415202,-1406.391290,-8364.327145,-1225.752797
21927.415535,-888.247130,-7624.121203,-383.047749
21927.415869,-1850.514855,-10955.047942,-4366.744339
21927.416203,4219.173869,-8216.285956,3753.867940
21927.416536,1924.535449,-8142.265362,3370.820191
21927.416870,8956.491898,-7105.977043,3907.087040
21927.417204,2960.823768,-9548.656652,3677.258390
21927.417537,5329.482782,-13027.624579,6665.030833
21927.417871,2294.638420,-6883.915261,0.000000
21927.418205,-2294.638420,-11917.315666,0.000000
21927.418538,-1850.514855,-8734.430116,-4366.744339
21927.418872,-4441.235652,-8956.491898,-3677.258390
21927.419206,-2146.597232,-8586.388927,-2681.334243
21927.419539,-2738.761985,-7994.224174,-3370.820191
21927.419873,-5107.421000,-12287.418637,459.657299
21927.420207,2294.638420,-4145.153275,3600.648841
21927.420540,3478.967927,-13027.624579,4826.401637
21927.420874,2146.597232,-4811.338623,3677.258390
21927.421208,1776.494261,-9326.594869,5975.544884
21927.421541,1110.308913,-9178.553681,-76.609550
21927.421875,3552.988522,-8660.409521,1991.848295
21927.422208,-1480.411884,-13323.706956,-229.828649
21927.422542,814.226536,-8808.450710,-2528.115143
21927.422876,-5699.585753,-12139.377449,-4366.744339
21927.423209,-1998.556043,-10066.800811,-3830.477490
21927.423543,-1554.432478,-10955.047942,-995.924147
21927.423877,-3552.988522,-7772.162391,1838.629195
21927.424210,0.000000,-6217.729913,2068.457845
21927.424544,-74.020594,-8882.471304,4213.525239
21927.424878,4367.215058,-4737.318029,2987.772442
21927.425211,0.000000,-10510.924376,3830.477490
21927.425545,2442.679609,-8142.265362,3830.477490
21927.425879,1554.432478,-7772.162391,919.314598
21927.426212,1480.411884,-9548.656652,1838.629195
21927.426546,-2516.700203,-8364.327145,-4903.011187
21927.426880,-1406.391290,-13619.789333,-1302.362347
21927.427213,-2442.679609,-13915.871710,-3140.991542
21927.427547,-3849.070898,-8364.327145,-4213.525239
21927.427880,-1998.556043,-11251.130318,1762.019645
21927.428214,1184.329507,-6587.832884,2681.334243
21927.428548,2368.659014,-6957.935855,4673.182538
21927.428881,2442.679609,-4515.256246,1991.848295
21927.429215,3701.029710,-8364.327145,6435.202183
21927.429549,2368.659014,-5995.668130,3064.381992
21927.429882,3849.070898,-5551.544565,1225.752797
21927.430216,-222.061783,-12657.521608,-3447.429741
21927.430550,-592.164754,-12657.521608,-4749.792088
21927.430883,-1184.329507,-9548.656652,-7354.516781
21927.431217,1110.308913,-12805.562797,-7124.688131
21927.431551,0.000000,-15470.304188,1608.800546
21927.431884,2886.803174,-9474.636058,2374.896044
21927.432218,3478.967927,-9474.636058,4519.963438
21927.432552,3552.988522,-3923.091493,6971.469032
21927.432885,4071.132681,-7328.038826,4596.572988
21927.433219,3701.029710,-5181.441594,5286.058936
21927.433553,2442.679609,-6513.812290,2374.896044
21927.433886,1332.370696,-10066.800811,2374.896044
21927.434220,-2146.597232,-7179.997637,-1838.629195
21927.434553,-4737.318029,-9548.656652,-3370.820191
21927.434887,-1258.350101,-13027.624579,-5286.058936
21927.435221,-6069.688724,-11917.315666,-5669.106685
21927.435554,-2442.679609,-11843.295072,-1915.238745
21927.435888,-1332.370696,-7920.203579,-459.657299
21927.436222,3256.906145,-9696.697840,4290.134789
21927.436555,4145.153275,-7772.162391,7814.174080
21927.436889,4663.297435,-4737.318029,5439.278036
21927.437223,0.000000,-7772.162391,4903.011187
21927.437556,3478.967927,-8290.306550,4519.963438
21927.437890,3478.967927,-6513.812290,0.000000
21927.438224,-1776.494261,-10436.903782,306.438199
21927.438557,-3034.844362,-10288.862594,-5209.449386
21927.438891,-5995.668130,-13397.727550,-5439.278036
21927.439225,-5033.400406,-10807.006753,-3830.477490
21927.439558,-3997.112087,-8290.306550,-4213.525239
21927.439892,-4293.194464,-11325.150913,0.000000
21927.440226,0.000000,-4811.338623,6741.640382
21927.440559,4071.132681,-5625.565159,5132.839837
21927.440893,2368.659014,-5403.503377,4903.011187
21927.441226,2368.659014,-9104.533087,6128.763984
21927.441560,2294.638420,-7254.018232,306.438199
21927.441894,1702.473667,-9474.636058,-383.047749
21927.442227,518.144159,-12139.377449,-689.485948
21927.442561,-3552.988522,-10066.800811,-4826.401637
21927.442895,-3256.906145,-11325.150913,-4979.620737
21927.443228,-1406.391290,-10288.862594,-2145.067394
21927.443562,-888.247130,-10807.006753,-689.485948
21927.443896,-888.247130,-7624.121203,-766.095498
21927.444229,2886.803174,-10658.965565,2374.896044
21927.444563,3182.885551,-8882.471304,3600.648841
21927.444897,2368.659014,-4811.338623,4903.011187
21927.445230,5329.482782,-8364.327145,5439.278036
21927.445564,5551.544565,-9770.718434,2451.505594
21927.445897,2072.576638,-10140.821405,3677.258390
21927.446231,2294.638420,-5033.400406,-3370.820191
21927.446564,-2738.761985,-12361.439231,-5132.839837
21927.446898,-1702.473667,-10955.047942,-4366.744339
21927.447231,-1850.514855,-10362.883188,-5515.887586
21927.447565,-296.082377,-11547.212695,-689.485948
21927.447898,0.000000,-8364.327145,-229.828649
21927.448232,2294.638420,-12139.377449,3677.258390
21927.448565,4737.318029,-6513.812290,5439.278036
21927.448899,4663.297435,-8290.306550,2374.896044
21927.449232,1184.329507,-7179.997637,6741.640382
21927.449565,4367.215058,-9178.553681,1762.019645
21927.449899,148.041188,-8660.409521,766.095498
21927.450232,2368.659014,-8364.327145,-919.314598
21927.450566,-1258.350101,-14804.118840,-3140.991542
21927.450899,-3552.988522,-10436.903782,-689.485948
21927.451233,-1554.432478,-12435.459826,-3140.991542
21927.451566,-3330.926739,-9178.553681,-2834.553343
21927.451900,-2368.659014,-7179.997637,0.000000
21927.452233,-518.144159,-8660.409521,1915.238745
21927.452567,1184.329507,-5995.668130,4213.525239
21927.452900,-370.102971,-8734.430116,4749.792088
21927.453234,1998.556043,-7698.141797,4519.963438
21927.453567,0.000000,-7179.997637,1225.752797
21927.453901,2294.638420,-7698.141797,-1302.362347
21927.454234,444.123565,-9548.656652,1225.752797
21927.454568,1924.535449,-11251.130318,-76.609550
21927.454901,-370.102971,-11843.295072,-1378.971896
21927.455234,-3849.070898,-13175.665768,-2298.286494
21927.455568,-1628.453072,-10214.842000,-2681.334243
21927.455901,-2738.761985,-10584.944971,-2221.676944
21927.456235,-444.123565,-8808.450710,0.000000
21927.456568,1184.329507,-7772.162391,7277.907231
21927.456902,2886.803174,-4367.215058,3830.477490
21927.457235,2368.659014,-7476.080014,4903.011187
21927.457569,3478.967927,-9474.636058,4213.525239
21927.457902,1702.473667,-6513.812290,-76.609550
21927.458236,-1184.329507,-9844.739029,-1762.019645
21927.458569,-740.205942,-10584.944971,-3677.258390
21927.458903,-2516.700203,-11695.253884,-2987.772442
21927.459236,-2294.638420,-9992.780217,-3524.039291
21927.459570,-1776.494261,-11917.315666,-689.485948
21927.459903,-2664.741391,-10436.903782,-612.876398
21927.460236,-518.144159,-8882.471304,-76.609550
21927.460570,888.247130,-6143.709319,3370.820191
21927.460903,3478.967927,-4737.318029,2068.457845
21927.461237,2368.659014,-7179.997637,3677.258390
21927.461570,7031.956449,-10658.965565,7277.907231
21927.461904,4071.132681,-5107.421000,0.000000
21927.462237,3552.988522,-13545.768739,3600.648841
21927.462571,1998.556043,-10658.965565,-2528.115143
21927.462904,-888.247130,-12065.356855,-2221.676944
21927.463238,-3330.926739,-10807.006753,-3753.867940
21927.463571,1332.370696,-12287.418637,-1915.238745
21927.463905,-4145.153275,-7772.162391,0.000000
21927.464238,0.000000,-8364.327145,2298.286494
21927.464572,1998.556043,-6513.812290,3294.210641
21927.464905,1702.473667,-6957.935855,2298.286494
21927.465238,1480.411884,-6439.791695,4060.306139
21927.465572,2294.638420,-7254.018232,1838.629195
21927.465905,3849.070898,-7402.059420,1915.238745
21927.466239,814.226536,-9178.553681,2451.505594
21927.466572,1406.391290,-9252.574275,-2757.943793
21927.466906,-3256.906145,-13101.645173,-3677.258390
21927.467239,-2368.659014,-11917.315666,-76.609550
21927.467573,-2442.679609,-11103.089130,-3370.820191
21927.467906,-4145.153275,-7179.997637,-5975.544884
21927.468240,-3552.988522,-11917.315666,919.314598
21927.468573,296.082377,-2738.761985,2451.505594
21927.468907,3034.844362,-9918.759623,6358.592633
21927.469240,5477.523971,-6513.812290,6818.249932
21927.469574,3256.906145,-7031.956449,4136.915689
21927.469907,1998.556043,-9474.636058,3294.210641
21927.470240,2812.782580,-8734.430116,-76.609550
21927.470574,-2960.823768,-10140.821405,-2451.505594
21927.470907,592.164754,-11547.212695,-1915.238745
21927.471241,-3923.091493,-13027.624579,-5286.058936
21927.471574,-3034.844362,-12731.542202,-1455.581446
21927.471908,-2294.638420,-9474.636058,-612.876398
21927.472241,-2886.803174,-9474.636058,-229.828649
21927.472575,370.102971,-6809.894666,1608.800546
21927.472908,-1480.411884,-5403.503377,2604.724693
21927.473242,4663.297435,-5181.441594,2451.505594
21927.473575,1776.494261,-6883.915261,4903.011187
21927.473909,4663.297435,-9474.636058,3600.648841
21927.474242,370.102971,-9548.656652,1225.752797
21927.474576,-370.102971,-9474.636058,-689.485948
21927.474909,-2294.638420,-9696.697840,-4366.744339
21927.475242,-3627.009116,-11843.295072,-6052.154434
21927.475576,-1480.411884,-12139.377449,-4290.134789
21927.475909,-3404.947333,-10140.821405,-2374.896044
21927.476243,518.144159,-11251.130318,229.828649
21927.476576,2960.823768,-7772.162391,5439.278036
21927.476910,2960.823768,-7698.141797,4826.401637
21927.477243,4737.318029,-5921.647536,6665.030833
21927.477577,1258.350101,-6217.729913,2834.553343
21927.477910,6439.791695,-11843.295072,4213.525239
21927.478244,74.020594,-5403.503377,1838.629195
21927.478577,1702.473667,-10658.965565,-689.485948
21927.478911,-1480.411884,-11251.130318,-2911.162892
21927.479244,-3997.112087,-10140.821405,-5822.325785
21927.479578,-2738.761985,-12879.583391,-4213.525239
21927.479911,-1628.453072,-8660.409521,-1915.238745
21927.480245,-1258.350101,-10881.027347,-76.609550
21927.480578,0.000000,-7476.080014,1532.190996
21927.480911,3478.967927,-5033.400406,3447.429741
21927.481245,2368.659014,-3627.009116,1225.752797
21927.481578,4663.297435,-9474.636058,4213.525239
21927.481912,3478.967927,-8882.471304,2374.896044
21927.482245,2368.659014,-7624.121203,1762.019645
21927.482579,-814.226536,-11843.295072,1455.581446
21927.482912,-1406.391290,-9770.718434,-3753.867940
21927.483246,-3552.988522,-13027.624579,-2834.553343
21927.483579,-296.082377,-9326.594869,-76.609550
21927.483913,-74.020594,-8660.409521,-5822.325785
21927.484246,0.000000,-9548.656652,612.876398
21927.484580,0.000000,-7698.141797,2374.896044
21927.484913,148.041188,-7772.162391,2451.505594
21927.485247,4367.215058,-6513.812290,3294.210641
21927.485580,3478.967927,-10362.883188,3294.210641
21927.485913,4663.297435,-7254.018232,3907.087040
21927.486247,962.267725,-10732.986159,-383.047749
21927.486580,-1850.514855,-11547.212695,-3753.867940
21927.486914,-2960.823768,-7476.080014,-1838.629195
21927.487247,740.205942,-12139.377449,1762.019645
21927.487581,-74.020594,-9474.636058,-76.609550
21927.487914,-4737.318029,-5995.668130,-4290.134789
21927.488248,-666.185348,-10066.800811,-689.485948
21927.488581,-1184.329507,-7179.997637,1532.190996
21927.488915,0.000000,-8512.368333,1685.410096
21927.489248,296.082377,-7846.182985,3140.991542
21927.489582,222.061783,-11843.295072,1149.143247
21927.489915,666.185348,-8364.327145,1225.752797
21927.490249,3552.988522,-7846.182985,1915.238745
21927.490582,1776.494261,-11547.212695,2145.067394
21927.490915,1184.329507,-9548.656652,1838.629195
21927.491249,-74.020594,-12435.459826,-1915.238745
21927.491582,-2812.782580,-9548.656652,-2451.505594
21927.491916,-4145.153275,-8364.327145,-1838.629195
21927.492249,-222.061783,-10362.883188,-842.705048
21927.492583,0.000000,-6587.832884,0.000000
21927.492916,1554.432478,-9178.553681,2911.162892
21927.493250,3034.844362,-7624.121203,3600.648841
21927.493583,740.205942,-9770.718434,1608.800546
21927.493917,1998.556043,-10658.965565,4826.401637
21927.494250,1480.411884,-8882.471304,3600.648841
21927.494584,0.000000,-7179.997637,1225.752797
21927.494917,1110.308913,-8882.471304,-1302.362347
21927.495251,-1406.391290,-9548.656652,-4903.011187
21927.495584,-74.020594,-11695.253884,-76.609550
21927.495917,-1776.494261,-10066.800811,-3830.477490
21927.496251,-2960.823768,-10955.047942,-3294.210641
21927.496584,-1332.370696,-10362.883188,-76.609550
21927.496918,1184.329507,-5107.421000,1378.971896
21927.497251,5847.626942,-8882.471304,4826.401637
21927.497585,0.000000,-9548.656652,6128.763984
21927.497918,6439.791695,-7698.141797,3907.087040
21927.498252,-1776.494261,-9548.656652,0.000000
21927.498585,3256.906145,-9104.533087,-76.609550
21927.498919,-3256.906145,-9104.533087,-1225.752797
21927.499252,-1258.350101,-11843.295072,-2681.334243
21927.499586,-2220.617826,-8364.327145,-1762.019645
21927.499919,-4737.318029,-11325.150913,-3677.258390
21927.500253,1110.308913,-7550.100608,-3064.381992
21927.500586,-2664.741391,-11843.295072,612.876398
21927.500919,2886.803174,-8882.471304,2068.457845
21927.501253,0.000000,-6291.750507,3677.258390
21927.501586,1184.329507,-9548.656652,3677.258390
21927.501920,5255.462188,-5773.606348,3447.429741
21927.502253,1628.453072,-10658.965565,2987.772442
21927.502587,3552.988522,-9252.574275,1838.629195
21927.502920,-2442.679609,-12435.459826,-3140.991542
21927.503254,-4737.318029,-9548.656652,-2451.505594
21927.503587,-962.267725,-8882.471304,-4060.306139
21927.503921,-1850.514855,-11843.295072,-2528.115143
21927.504254,-2368.659014,-7772.162391,1225.752797
21927.504588,-1776.494261,-9252.574275,0.000000
21927.504921,2960.823768,-7105.977043,4213.525239
21927.505255,1924.535449,-7179.997637,3064.381992
21927.505588,3923.091493,-8364.327145,3524.039291
21927.505921,2294.638420,-9474.636058,2374.896044
21927.506255,0.000000,-9548.656652,-1225.752797
21927.506588,1406.391290,-10140.821405,-536.266849
21927.506922,1036.288319,-11547.212695,459.657299
21927.507255,444.123565,-9474.636058,-2221.676944
21927.507589,-370.102971,-10658.965565,-1302.362347
21927.507922,-2220.617826,-9548.656652,-2451.505594
21927.508256,-296.082377,-8956.491898,-76.609550
21927.508589,1110.308913,-10362.883188,689.485948
21927.508923,2072.576638,-3627.009116,3370.820191
21927.509256,3552.988522,-9326.594869,4213.525239
21927.509590,5921.647536,-7476.080014,1685.410096
21927.509923,592.164754,-12953.603985,3907.087040
21927.510257,3182.885551,-6069.688724,229.828649
21927.510590,-74.020594,-11251.130318,-383.047749
21927.510924,-1184.329507,-10140.821405,0.000000
21927.511257,-74.020594,-9178.553681,-3447.429741
21927.511590,-2442.679609,-7476.080014,-4290.134789
21927.511924,1258.350101,-9622.677246,-229.828649
21927.512257,-3034.844362,-11843.295072,-1915.238745
21927.512591,74.020594,-7105.977043,-306.438199
21927.512924,-1776.494261,-8068.244768,1838.629195
21927.513258,-518.144159,-7994.224174,1532.190996
21927.513591,-1480.411884,-5995.668130,612.876398
21927.513925,-2368.659014,-5403.503377,3677.258390
21927.514258,6439.791695,-8586.388927,3140.991542
21927.514592,0.000000,-7179.997637,0.000000
21927.514925,1184.329507,-8660.409521,153.219100
21927.515259,-4811.338623,-11399.171507,-5362.668486
21927.515592,444.123565,-11399.171507,-2681.334243
21927.515926,-4663.297435,-11029.068536,-3064.381992
21927.516259,-444.123565,-8734.430116,-2528.115143
21927.516592,-592.164754,-10066.800811,612.876398
21927.516926,-2368.659014,-10436.903782,6052.154434
21927.517259,4663.297435,-4737.318029,536.266849
21927.517593,-2368.659014,-8364.327145,5056.230287
21927.517926,6439.791695,-8290.306550,4213.525239
21927.518260,0.000000,-9548.656652,5515.887586
21927.518593,3478.967927,-5995.668130,3677.258390
21927.518927,-1184.329507,-9030.512492,-1838.629195
21927.519260,-1480.411884,-10584.944971,-2451.505594
21927.519594,-4811.338623,-11843.295072,-4519.963438
21927.519927,-1554.432478,-10658.965565,-4366.744339
21927.520261,-3552.988522,-9548.656652,-4290.134789
21927.520594,-2368.659014,-10140.821405,1149.143247
21927.520928,814.226536,-6069.688724,0.000000
21927.521261,2368.659014,-5995.668130,5822.325785
21927.521594,4219.173869,-9326.594869,5745.716235
21927.521928,3404.947333,-4959.379811,3600.648841
21927.522261,3404.947333,-8956.491898,2374.896044
21927.522595,2294.638420,-10066.800811,536.266849
21927.522928,1702.473667,-10658.965565,-76.609550
21927.523262,-444.123565,-8512.368333,-2528.115143
21927.523595,-222.061783,-11103.089130,-2834.553343
21927.523929,-666.185348,-10881.027347,-7354.516781
21927.524262,-1850.514855,-17764.942608,-76.609550
21927.524596,1184.329507,-5403.503377,2374.896044
21927.524929,1110.308913,-11843.295072,1762.019645
21927.525263,4737.318029,-2442.679609,3677.258390
21927.525596,4737.318029,-5403.503377,4903.011187
21927.525930,3478.967927,-6069.688724,3677.258390
21927.526263,4959.379811,-8586.388927,2374.896044
21927.526596,-1924.535449,-11769.274478,76.609550
21927.526930,2072.576638,-6661.853478,-2298.286494
21927.527263,-3552.988522,-10140.821405,-3064.381992
21927.527597,-1258.350101,-12731.542202,-3753.867940
21927.527930,-2738.761985,-9548.656652,-5515.887586
21927.528264,-4737.318029,-11029.068536,-1455.581446
21927.528597,1702.473667,-8290.306550,-76.609550
21927.528931,-1480.411884,-9548.656652,4443.353888
21927.529264,3034.844362,-5773.606348,3907.087040
21927.529598,2220.617826,-7179.997637,6511.811733
21927.529931,2516.700203,-7698.141797,3907.087040
21927.530265,3552.988522,-7179.997637,4903.011187
21927.530598,1702.473667,-10362.883188,-76.609550
21927.530932,-1184.329507,-9548.656652,-3677.258390
21927.531265,-5921.647536,-10288.862594,-2911.162892
21927.531598,-3034.844362,-12731.542202,-4979.620737
21927.531932,-4589.276840,-10510.924376,-2528.115143
21927.532265,-2368.659014,-10288.862594,-1532.190996
21927.532599,-1554.432478,-6809.894666,-1532.190996
21927.532932,2072.576638,-8586.388927,4596.572988
21927.533266,1702.473667,-10510.924376,6665.030833
21927.533599,4663.297435,-2886.803174,1225.752797
21927.533933,0.000000,-10881.027347,2068.457845
21927.534266,5847.626942,-11843.295072,4213.525239
21927.534600,2886.803174,-6809.894666,919.314598
21927.534933,1406.391290,-10955.047942,842.705048
21927.535267,-74.020594,-8586.388927,-2681.334243
21927.535600,-3404.947333,-14211.954086,-2374.896044
21927.535934,-1184.329507,-9252.574275,-2528.115143
21927.536267,-2442.679609,-9918.759623,-995.924147
21927.536600,-3552.988522,-9844.739029,-2451.505594
21927.536934,1036.288319,-6661.853478,1532.190996
21927.537267,666.185348,-6439.791695,2987.772442
21927.537601,2368.659014,-4811.338623,3064.381992
21927.537934,3552.988522,-7698.141797,4060.306139
21927.538268,4367.215058,-10658.965565,1149.143247
21927.538601,2886.803174,-5995.668130,0.000000
21927.538935,2368.659014,-12213.398043,689.485948
21927.539268,1998.556043,-10658.965565,-2528.115143
21927.539602,-740.205942,-12509.480420,-3064.381992
21927.539935,2812.782580,-11769.274478,-2757.943793
21927.540269,444.123565,-11621.233289,1149.143247
21927.540602,592.164754,-9474.636058,1378.971896
21927.540936,1628.453072,-8956.491898,4826.401637
21927.541269,814.226536,-5107.421000,2451.505594
21927.541603,2368.659014,-5995.668130,1225.752797
21927.541936,814.226536,-10658.965565,5745.716235
21927.542269,888.247130,-5403.503377,0.000000
21927.542603,370.102971,-9918.759623,1302.362347
21927.542936,0.000000,-7772.162391,-1225.752797
21927.543270,-2072.576638,-10584.944971,-4213.525239
21927.543603,-1554.432478,-10658.965565,-3753.867940
21927.543937,-3552.988522,-13397.727550,-689.485948
21927.544270,-2738.761985,-8364.327145,-4290.134789
21927.544604,0.000000,-9548.656652,1762.019645
21927.544937,1702.473667,-11843.295072,-76.609550
21927.545271,2886.803174,-7994.224174,5439.278036
21927.545604,2590.720797,-5033.400406,4903.011187
21927.545937,1702.473667,-7772.162391,3140.991542
21927.546271,2960.823768,-8142.265362,4903.011187
21927.546604,-2368.659014,-7179.997637,0.000000
21927.546937,2294.638420,-8290.306550,-2528.115143
21927.547271,-4145.153275,-14285.974681,-4290.134789
21927.547604,-2368.659014,-12213.398043,-995.924147
21927.547937,-3034.844362,-11251.130318,-3140.991542
21927.548271,-4219.173869,-9178.553681,-4596.572988
21927.548604,-1776.494261,-9326.594869,-383.047749
21927.548937,-518.144159,-9178.553681,2374.896044
21927.549270,3182.885551,-4811.338623,3064.381992
21927.549604,1480.411884,-9474.636058,6894.859482
21927.549937,4367.215058,-4589.276840,1225.752797
21927.550270,1702.473667,-6143.709319,612.876398
21927.550604,1924.535449,-8512.368333,1608.800546
21927.550937,1110.308913,-9474.636058,-995.924147
21927.551270,-4737.318029,-9548.656652,-4290.134789
21927.551604,-1184.329507,-9548.656652,-3064.381992
21927.551937,-4219.173869,-13027.624579,-2911.162892
21927.552270,2590.720797,-7105.977043,-3064.381992
21927.552603,-2738.761985,-13471.748144,-383.047749
21927.552937,962.267725,-5403.503377,-1838.629195
21927.553270,1702.473667,-11547.212695,4290.134789
21927.553603,4219.173869,-6587.832884,4443.353888
21927.553937,6957.935855,-6069.688724,4749.792088
21927.554270,6513.812290,-11177.109724,5515.887586
21927.554603,7031.956449,-8586.388927,4136.915689
21927.554937,0.000000,-8364.327145,2451.505594
21927.555270,2886.803174,-11251.130318,-4673.182538
21927.555603,-4737.318029,-9844.739029,-4903.011187
21927.555936,-4737.318029,-12805.562797,-4903.011187
21927.556270,-3627.009116,-9992.780217,-2145.067394
21927.556603,-2220.617826,-7772.162391,-1455.581446
21927.556936,-518.144159,-9252.574275,919.314598
21927.557270,3478.967927,-4737.318029,6052.154434
21927.557603,3478.967927,-4515.256246,2451.505594
21927.557936,2516.700203,-8068.244768,2451.505594
21927.558270,2664.741391,-11103.089130,3600.648841
21927.558603,-74.020594,-8882.471304,-1685.410096
21927.558936,3923.091493,-10658.965565,-76.609550
21927.559269,0.000000,-13693.809927,-1225.752797
21927.559603,-518.144159,-10362.883188,-2681.334243
21927.559936,-592.164754,-7328.038826,-2757.943793
21927.560269,-2368.659014,-12435.459826,-2911.162892
21927.560603,-5847.626942,-7179.997637,0.000000
21927.560936,-4441.235652,-10955.047942,1149.143247
21927.561269,-666.185348,-7105.977043,2374.896044
21927.561603,2738.761985,-2738.761985,3064.381992
21927.561936,1110.308913,-10066.800811,4596.572988
21927.562269,3552.988522,-4441.235652,1608.800546
21927.562602,-3627.009116,-12065.356855,0.000000
21927.562936,1036.288319,-10066.800811,1455.581446
21927.563269,0.000000,-9844.739029,-1532.190996
21927.563602,-1480.411884,-10658.965565,-76.609550
21927.563936,-74.020594,-11843.295072,-3753.867940
21927.564269,-3997.112087,-9548.656652,-1838.629195
21927.564602,-2368.659014,-8364.327145,536.266849
21927.564936,-666.185348,-6957.935855,306.438199
21927.565269,-888.247130,-9918.759623,2374.896044
21927.565602,518.144159,-4737.318029,2451.505594
21927.565936,2738.761985,-7402.059420,3370.820191
21927.566269,4737.318029,-6143.709319,4826.401637
21927.566602,3552.988522,-5107.421000,2068.457845
21927.566935,148.041188,-10732.986159,-2145.067394
21927.567269,296.082377,-11251.130318,-3217.601092
21927.567602,-2442.679609,-14211.954086,-4979.620737
21927.567935,0.000000,-12435.459826,-3753.867940
21927.568269,370.102971,-9548.656652,-2451.505594
21927.568602,2368.659014,-13027.624579,1762.019645
21927.568935,2886.803174,-11251.130318,2221.676944
21927.569269,4663.297435,-7105.977043,4826.401637
21927.569602,2812.782580,-7031.956449,4519.963438
21927.569935,2368.659014,-6365.771101,4903.011187
21927.570268,962.267725,-7920.203579,2068.457845
21927.570602,592.164754,-6735.874072,2451.505594
21927.570935,2294.638420,-7994.224174,2068.457845
21927.571268,0.000000,-10732.986159,2374.896044
21927.571602,-74.020594,-7402.059420,-3830.477490
21927.571935,-5625.565159,-11917.315666,-6741.640382
21927.572268,-2960.823768,-9548.656652,-5132.839837
21927.572602,-4219.173869,-13249.686362,-5592.497135
21927.572935,-1184.329507,-9030.512492,-2681.334243
21927.573268,2220.617826,-7698.141797,2528.115143
21927.573601,1702.473667,-9622.677246,4826.401637
21927.573935,5255.462188,-4441.235652,6358.592633
21927.574268,4663.297435,-8882.471304,6052.154434
21927.574601,5847.626942,-7031.956449,3983.696590
21927.574935,0.000000,-10214.842000,4519.963438
21927.575268,0.000000,-9918.759623,0.000000
21927.575601,-5625.565159,-7772.162391,-2451.505594
21927.575935,-2294.638420,-8882.471304,-5362.668486
21927.576268,-4885.359217,-12435.459826,-3830.477490
21927.576601,-2812.782580,-8660.409521,-3677.258390
21927.576934,-5921.647536,-11917.315666,-2451.505594
21927.577268,-370.102971,-9474.636058,1762.019645
21927.577601,-666.185348,-5329.482782,1762.019645
21927.577934,0.000000,-5403.503377,5822.325785
21927.578268,5847.626942,-9474.636058,6665.030833
21927.578601,1332.370696,-8512.368333,3140.991542
21927.578934,4071.132681,-7846.182985,3600.648841
21927.579268,1776.494261,-10436.903782,2911.162892
21927.579601,-444.123565,-9992.780217,-1915.238745
21927.579934,-2072.576638,-12213.398043,-2068.457845
21927.580267,-666.185348,-10658.965565,-6205.373534
21927.580601,-1776.494261,-8956.491898,76.609550
21927.580934,-1776.494261,-9252.574275,-76.609550
21927.581267,-74.020594,-9474.636058,-76.609550
21927.581601,0.000000,-9548.656652,4826.401637
21927.581934,1702.473667,-8882.471304,1991.848295
21927.582267,4663.297435,-7846.182985,4519.963438
21927.582601,3256.906145,-10214.842000,4213.525239
21927.582934,6513.812290,-6291.750507,6205.373534
21927.583267,1702.473667,-8216.285956,-766.095498
21927.583600,1628.453072,-11473.192101,-1532.190996
21927.583934,74.020594,-10510.924376,-2451.505594
21927.584267,-666.185348,-8660.409521,-6741.640382
21927.584600,0.000000,-12805.562797,-2068.457845
21927.584934,-1850.514855,-12435.459826,-76.609550
21927.585267,4071.132681,-8142.265362,-842.705048
21927.585600,296.082377,-7920.203579,5592.497135
21927.585934,4071.132681,-7105.977043,3600.648841
21927.586267,2072.576638,-7105.977043,3294.210641
21927.586600,814.226536,-9696.697840,3907.087040
21927.586933,1406.391290,-5847.626942,0.000000
21927.587267,-1184.329507,-11621.233289,0.000000
21927.587600,-592.164754,-8956.491898,1072.533697
21927.587933,-1554.432478,-10658.965565,-4519.963438
21927.588267,-4737.318029,-8364.327145,-6128.763984
21927.588600,-2072.576638,-9696.697840,-1532.190996
21927.588933,-5921.647536,-11325.150913,-3370.820191
21927.589267,3849.070898,-6809.894666,3907.087040
21927.589600,296.082377,-9030.512492,4826.401637
21927.589933,3775.050304,-5699.585753,5822.325785
21927.590266,2294.638420,-7698.141797,2987.772442
21927.590600,0.000000,-9548.656652,4213.525239
21927.590933,1702.473667,-6217.729913,-1455.581446
21927.591266,-1184.329507,-10732.986159,1225.752797
21927.591600,-2812.782580,-11695.253884,-1302.362347
21927.591933,-3182.885551,-9030.512492,-2221.676944
21927.592266,-3775.050304,-10362.883188,-3524.039291
21927.592600,-962.267725,-8068.244768,-2911.162892
21927.592933,-1702.473667,-12435.459826,995.924147
21927.593266,-2294.638420,-7846.182985,1838.629195
21927.593600,3478.967927,-9474.636058,4826.401637
21927.593933,-1628.453072,-6587.832884,2451.505594
21927.594266,3552.988522,-6291.750507,5439.278036
21927.594599,1702.473667,-9326.594869,2068.457845
21927.594933,1110.308913,-7105.977043,229.828649
21927.595266,-814.226536,-10140.821405,-306.438199
21927.595599,-1776.494261,-10214.842000,-306.438199
21927.595933,-370.102971,-8956.491898,-3830.477490
21927.596266,-2072.576638,-11621.233289,-1838.629195
21927.596599,2294.638420,-8734.430116,-3830.477490
21927.596933,-2368.659014,-10140.821405,1149.143247
21927.597266,-296.082377,-9548.656652,3600.648841
21927.597599,4071.132681,-4441.235652,-1838.629195
21927.597932,3182.885551,-11843.295072,4596.572988
21927.598266,6439.791695,-5033.400406,3064.381992
21927.598599,5107.421000,-10510.924376,2451.505594
21927.598932,3701.029710,-9992.780217,1149.143247
21927.599266,4737.318029,-9548.656652,3064.381992
21927.599599,1110.308913,-11547.212695,-2221.676944
21927.599932,1554.432478,-10214.842000,-1991.848295
21927.600266,-3701.029710,-10436.903782,-4136.915689
21927.600599,222.061783,-8956.491898,-1532.190996
21927.600932,-2220.617826,-7328.038826,306.438199
21927.601265,1110.308913,-8290.306550,-76.609550
21927.601599,-74.020594,-6587.832884,0.000000
21927.601932,0.000000,-8364.327145,4673.182538
21927.602265,2294.638420,-9474.636058,2374.896044
21927.602599,1702.473667,-6587.832884,2451.505594
21927.602932,814.226536,-11843.295072,1455.581446
21927.603265,1702.473667,-7105.977043,-766.095498
21927.603599,1110.308913,-12435.459826,-1378.971896
21927.603932,-74.020594,-12879.583391,-1302.362347
21927.604265,-666.185348,-8364.327145,-2451.505594
21927.604598,-2664.741391,-11843.295072,-3677.258390
21927.604932,-666.185348,-11251.130318,-383.047749
21927.605265,-1258.350101,-8364.327145,0.000000
21927.605598,3552.988522,-7550.100608,6971.469032
21927.605932,-1702.473667,-6587.832884,2757.943793
21927.606265,148.041188,-6587.832884,1915.238745
21927.606598,-370.102971,-9030.512492,1608.800546
21927.606932,-1184.329507,-7179.997637,-3064.381992
21927.607265,-4737.318029,-10732.986159,1225.752797
21927.607598,-1258.350101,-9474.636058,-1915.238745
21927.607931,-2590.720797,-11843.295072,-2528.115143
21927.608265,-5921.647536,-9548.656652,-1225.752797
21927.608598,-1554.432478,-10362.883188,-2834.553343
21927.608931,-2960.823768,-6957.935855,-766.095498
21927.609265,-1184.329507,-8660.409521,-306.438199
21927.609598,-592.164754,-7920.203579,2681.334243
21927.609931,3256.906145,-7402.059420,6128.763984
21927.610265,1924.535449,-7402.059420,4826.401637
21927.610598,6439.791695,-10658.965565,2987.772442
21927.610931,592.164754,-7179.997637,3064.381992
21927.611264,1480.411884,-8660.409521,3600.648841
21927.611598,-666.185348,-6365.771101,-4903.011187
21927.611931,-444.123565,-13471.748144,-6205.373534
21927.612264,-2812.782580,-13101.645173,-2834.553343
21927.612598,1036.288319,-9474.636058,-2068.457845
21927.612931,2960.823768,-10066.800811,-1532.190996
21927.613264,2442.679609,-11769.274478,2451.505594
21927.613598,4367.215058,-7994.224174,5745.716235
21927.613931,6513.812290,-3627.009116,5209.449386
21927.614264,4071.132681,-7994.224174,3907.087040
21927.614597,2664.741391,-5403.503377,0.000000
21927.614931,1184.329507,-8364.327145,1991.848295
21927.615264,2294.638420,-7105.977043,-1608.800546
21927.615597,-2368.659014,-8364.327145,-4290.134789
21927.615931,-2294.638420,-13767.830521,-2528.115143
21927.616264,-2738.761985,-11843.295072,-4673.182538
21927.616597,-3627.009116,-9696.697840,-5132.839837
21927.616931,-1924.535449,-10955.047942,-459.657299
21927.617264,-2368.659014,-9104.533087,536.266849
21927.617597,4663.297435,-4737.318029,4213.525239
21927.617931,4737.318029,-8956.491898,9729.412825
21927.618264,7624.121203,-6217.729913,6281.983084
21927.618597,2664.741391,-4219.173869,2451.505594
21927.618930,0.000000,-10140.821405,153.219100
21927.619264,814.226536,-8956.491898,-1532.190996
21927.619597,-2812.782580,-13323.706956,-4903.011187
21927.619930,-1258.350101,-9992.780217,-4366.744339
21927.620264,-6883.915261,-12953.603985,-5132.839837
21927.620597,-4145.153275,-8660.409521,-2451.505594
21927.620930,-1554.432478,-8290.306550,-2528.115143
21927.621264,-2738.761985,-11103.089130,0.000000
21927.621597,592.164754,-5403.503377,9116.536426
21927.621930,3478.967927,-7105.977043,7890.783629
21927.622263,4145.153275,-3034.844362,7967.393179
21927.622597,-2146.597232,-7402.059420,1991.848295
21927.622930,2294.638420,-7105.977043,842.705048
21927.623263,-3256.906145,-9400.615463,-2451.505594
21927.623597,-4145.153275,-13101.645173,-4903.011187
21927.623930,-3627.009116,-11695.253884,-7277.907231
21927.624263,-6513.812290,-11917.315666,-5975.544884
21927.624597,0.000000,-10140.821405,-689.485948
21927.624930,-370.102971,-10362.883188,1149.143247
21927.625263,4219.173869,-8290.306550,4826.401637
21927.625596,2960.823768,-4589.276840,5592.497135
21927.625930,3182.885551,-7031.956449,5669.106685
21927.626263,4441.235652,-3923.091493,4596.572988
21927.626596,4663.297435,-9474.636058,1762.019645
21927.626930,3182.885551,-7179.997637,-2451.505594
21927.627263,2368.659014,-11547.212695,-2528.115143
21927.627596,2294.638420,-16284.530724,-2528.115143
21927.627930,-1258.350101,-10584.944971,-4290.134789
21927.628263,-1850.514855,-13027.624579,-4366.744339
21927.628596,0.000000,-9548.656652,-1762.019645
21927.628929,-1850.514855,-8808.450710,-1838.629195
21927.629263,1998.556043,-6957.935855,1685.410096
21927.629596,3182.885551,-7624.121203,6052.154434
21927.629929,4293.194464,-5773.606348,5975.544884
21927.630263,2220.617826,-5181.441594,3447.429741
21927.630596,592.164754,-9918.759623,919.314598
21927.630929,-1776.494261,-9548.656652,0.000000
21927.631263,1184.329507,-10140.821405,1149.143247
21927.631596,4367.215058,-10066.800811,-2374.896044
21927.631929,-3552.988522,-11325.150913,-2451.505594
21927.632262,2442.679609,-11251.130318,-2528.115143
21927.632596,-962.267725,-10214.842000,-459.657299
21927.632929,-74.020594,-9918.759623,-766.095498
21927.633262,740.205942,-8216.285956,1532.190996
21927.633596,-2368.659014,-10807.006753,3600.648841
21927.633929,3849.070898,-6587.832884,4290.134789
21927.634262,1480.411884,-6883.915261,8503.660028
21927.634596,3182.885551,-4441.235652,0.000000
21927.634929,2368.659014,-7846.182985,3064.381992
21927.635262,-2664.741391,-10807.006753,-689.485948
21927.635595,-3552.988522,-14211.954086,612.876398
21927.635929,-2442.679609,-6365.771101,-1915.238745
21927.636262,-962.267725,-10436.903782,-2374.896044
21927.636595,-2516.700203,-13915.871710,919.314598
21927.636929,-1850.514855,-6513.812290,-2528.115143
21927.637262,-7994.224174,-12361.439231,-995.924147
21927.637595,-4811.338623,-7994.224174,-4136.915689
21927.637929,0.000000,-7179.997637,3447.429741
21927.638262,0.000000,-9548.656652,6052.154434
21927.638595,7031.956449,-4737.318029,4519.963438
21927.638928,1998.556043,-8290.306550,1072.533697
21927.639262,6217.729913,-7698.141797,5132.839837
21927.639595,2368.659014,-8438.347739,2528.115143
21927.639928,-3552.988522,-10732.986159,-4290.134789
21927.640262,1702.473667,-12435.459826,-1915.238745
21927.640595,-2368.659014,-12509.480420,-3064.381992
21927.640928,3552.988522,-7328.038826,1762.019645
21927.641262,-1258.350101,-10362.883188,-2374.896044
21927.641595,1480.411884,-4811.338623,0.000000
21927.641928,370.102971,-11251.130318,2604.724693
21927.642262,2220.617826,-8586.388927,995.924147
21927.642595,4219.173869,-8142.265362,1838.629195
21927.642928,5329.482782,-7550.100608,2298.286494
21927.643261,8808.450710,-7402.059420,2834.553343
21927.643595,2368.659014,-10584.944971,3600.648841
21927.643928,4071.132681,-11843.295072,-1302.362347
21927.644261,-4737.318029,-8660.409521,-3677.258390
21927.644595,-4441.235652,-11473.192101,-6741.640382
21927.644928,-1776.494261,-11843.295072,-2528.115143
21927.645261,-4145.153275,-11695.253884,-1685.410096
21927.645595,1110.308913,-7402.059420,842.705048
21927.645928,1776.494261,-6513.812290,6052.154434
21927.646261,3182.885551,-4515.256246,3217.601092
21927.646594,2590.720797,-7254.018232,4060.306139
21927.646927,5551.544565,-8438.347739,4519.963438
21927.647260,814.226536,-10584.944971,1149.143247
21927.647594,296.082377,-11473.192101,0.000000
21927.647927,-370.102971,-12139.377449,-3447.429741
21927.648260,-4737.318029,-9548.656652,-2451.505594
21927.648593,1702.473667,-11843.295072,-2528.115143
21927.648926,-1850.514855,-11251.130318,-1915.238745
21927.649260,-4145.153275,-8364.327145,-306.438199
21927.649593,-1924.535449,-7920.203579,766.095498
21927.649926,-444.123565,-9252.574275,4749.792088
21927.650259,-4145.153275,-3923.091493,6128.763984
21927.650592,3478.967927,-2368.659014,3600.648841
21927.650926,2886.803174,-8512.368333,0.000000
21927.651259,2368.659014,-12213.398043,3600.648841
21927.651592,-666.185348,-10510.924376,536.266849
21927.651925,-4811.338623,-9548.656652,-5975.544884
21927.652258,-2220.617826,-13027.624579,-4979.620737
21927.652591,-7476.080014,-13841.851115,-4903.011187
21927.652925,-1036.288319,-10362.883188,-1608.800546
21927.653258,-4367.215058,-7550.100608,-1302.362347
21927.653591,-814.226536,-7105.977043,995.924147
21927.653924,518.144159,-1850.514855,4903.011187
21927.654257,1036.288319,-6809.894666,6052.154434
21927.654591,3478.967927,-7105.977043,2987.772442
21927.654924,-1184.329507,-9548.656652,3064.381992
21927.655257,6439.791695,-5329.482782,1378.971896
21927.655590,2368.659014,-7105.977043,1608.800546
21927.655923,2368.659014,-10732.986159,-3524.039291
21927.656257,370.102971,-11843.295072,-4060.306139
21927.656590,-3552.988522,-15470.304188,-6128.763984
21927.656923,1184.329507,-10955.047942,-3370.820191
21927.657256,-666.185348,-14211.954086,-1915.238745
21927.657589,3034.844362,-7179.997637,0.000000
21927.657922,5033.400406,-3627.009116,8580.269578
21927.658256,9400.615463,-7698.141797,7124.688131
21927.658589,8512.368333,-5477.523971,7277.907231
21927.658922,5181.441594,-7402.059420,1762.019645
21927.659255,4811.338623,-10140.821405,-1991.848295
21927.659588,592.164754,-13101.645173,0.000000
21927.659922,2590.720797,-10807.006753,-3370.820191
21927.660255,-2442.679609,-13027.624579,-4826.401637
21927.660588,-2812.782580,-11843.295072,-3830.477490
21927.660921,-3627.009116,-10658.965565,-5592.497135
21927.661254,-1998.556043,-8290.306550,-1302.362347
21927.661588,-2368.659014,-7772.162391,2451.505594
21927.661921,1554.432478,-8290.306550,6665.030833
21927.662254,4071.132681,-7105.977043,6665.030833
21927.662587,2886.803174,-5773.606348,5745.716235
21927.662920,2368.659014,-8586.388927,3907.087040
21927.663254,1628.453072,-9030.512492,2298.286494
21927.663587,-2072.576638,-10807.006753,-2451.505594
21927.663920,-2590.720797,-11325.150913,-4903.011187
21927.664253,-3849.070898,-13989.892304,-459.657299
21927.664586,-7994.224174,-6587.832884,-2451.505594
21927.664919,-74.020594,-9474.636058,-689.485948
21927.665253,-2886.803174,-12435.459826,-76.609550
21927.665586,-3552.988522,-9622.677246,2604.724693
21927.665919,-2146.597232,-4441.235652,1532.190996
21927.666252,444.123565,-5329.482782,2374.896044
21927.666585,1480.411884,-6883.915261,3294.210641
21927.666919,814.226536,-7846.182985,4366.744339
21927.667252,-74.020594,-7105.977043,-76.609550
21927.667585,-2368.659014,-13915.871710,-1225.752797
21927.667918,-74.020594,-13619.789333,-2528.115143
21927.668251,-4145.153275,-10732.986159,-4903.011187
21927.668585,-2368.659014,-11325.150913,-1532.190996
21927.668918,-962.267725,-7772.162391,306.438199
21927.669251,666.185348,-8882.471304,1762.019645
21927.669584,2368.659014,-4885.359217,4213.525239
21927.669917,-1332.370696,-7994.224174,3983.696590
21927.670250,1480.411884,-3627.009116,1225.752797
21927.670584,1998.556043,-9474.636058,2374.896044
21927.670917,740.205942,-7179.997637,-3370.820191
21927.671250,0.000000,-8956.491898,2068.457845
21927.671583,3478.967927,-9474.636058,-1302.362347
21927.671916,888.247130,-11325.150913,-919.314598
21927.672250,444.123565,-10881.027347,-2451.505594
21927.672583,814.226536,-13471.748144,-995.924147
21927.672916,888.247130,-7476.080014,-459.657299
21927.673249,1776.494261,-9104.533087,-153.219100
21927.673582,4663.297435,-10658.965565,229.828649
21927.673916,4737.318029,-7179.997637,5592.497135
21927.674249,7031.956449,-9474.636058,3600.648841
21927.674582,7920.203579,-9474.636058,2834.553343
21927.674915,4145.153275,-11621.233289,5286.058936
21927.675248,3478.967927,-6809.894666,306.438199
21927.675581,962.267725,-9918.759623,-842.705048
21927.675915,-2146.597232,-11769.274478,-5132.839837
21927.676248,-4441.235652,-10881.027347,-3677.258390
21927.676581,-3478.967927,-9474.636058,-2221.676944
21927.676914,-2442.679609,-7179.997637,-1991.848295
21927.677247,-4515.256246,-8808.450710,-919.314598
21927.677581,-1850.514855,-7994.224174,-76.609550
21927.677914,-1776.494261,-5403.503377,3064.381992
21927.678247,1702.473667,-9474.636058,6665.030833
21927.678580,3478.967927,-7105.977043,2145.067394
21927.678913,0.000000,-9844.739029,3677.258390
21927.679247,3775.050304,-9474.636058,2374.896044
21927.679580,592.164754,-11029.068536,2221.676944
21927.679913,518.144159,-10510.924376,0.000000
21927.680246,-1258.350101,-10066.800811,-995.924147
21927.680579,-4145.153275,-9548.656652,-2451.505594
21927.680913,-4737.318029,-9844.739029,0.000000
21927.681246,-2738.761985,-9474.636058,-1608.800546
21927.681579,-2886.803174,-7105.977043,-1302.362347
21927.681912,-4145.153275,-6587.832884,2757.943793
21927.682245,-1110.308913,-4811.338623,1762.019645
21927.682578,-1406.391290,-7105.977043,2221.676944
21927.682912,-962.267725,-8956.491898,1378.971896
21927.683245,740.205942,-9474.636058,1762.019645
21927.683578,2294.638420,-11251.130318,1149.143247
21927.683911,296.082377,-9844.739029,4519.963438
21927.684244,-74.020594,-9326.594869,-2221.676944
21927.684578,-3552.988522,-10140.821405,-919.314598
21927.684911,-4441.235652,-9474.636058,-842.705048
21927.685244,-1776.494261,-7179.997637,-1838.629195
21927.685577,1332.370696,-6439.791695,1149.143247
21927.685910,592.164754,-9030.512492,1302.362347
21927.686244,3478.967927,-9770.718434,3907.087040
21927.686577,814.226536,-8586.388927,1762.019645
21927.686910,2368.659014,-11843.295072,1149.143247
21927.687243,0.000000,-7550.100608,-2604.724693
21927.687576,2368.659014,-8956.491898,2145.067394
21927.687909,4071.132681,-10658.965565,-76.609550
21927.688243,4663.297435,-8142.265362,-76.609550
21927.688576,2368.659014,-9326.594869,766.095498
21927.688909,4293.194464,-6809.894666,459.657299
21927.689242,3182.885551,-9104.533087,919.314598
21927.689575,-2368.659014,-10140.821405,-4290.134789
21927.689909,4071.132681,-9474.636058,-842.705048
21927.690242,-2368.659014,-9548.656652,1838.629195
21927.690575,7031.956449,-7994.224174,2374.896044
21927.690908,5255.462188,-9548.656652,612.876398
21927.691241,4663.297435,-10658.965565,3907.087040
21927.691575,1776.494261,-8364.327145,612.876398
21927.691908,1258.350101,-10732.986159,-1378.971896
21927.692241,-222.061783,-9992.780217,-1838.629195
21927.692574,-2960.823768,-9548.656652,-2451.505594
21927.692907,2294.638420,-6513.812290,-842.705048
21927.693240,-4071.132681,-10807.006753,-612.876398
21927.693574,-1184.329507,-6365.771101,-1149.143247
21927.693907,-814.226536,-7624.121203,2987.772442
21927.694240,-2072.576638,-6587.832884,1225.752797
21927.694573,2294.638420,-8882.471304,2374.896044
21927.694906,-3034.844362,-11621.233289,153.219100
21927.695240,3701.029710,-6883.915261,4213.525239
21927.695573,3478.967927,-9474.636058,6665.030833
21927.695906,1776.494261,-8364.327145,2451.505594
21927.696239,-518.144159,-9474.636058,-612.876398
21927.696572,-6513.812290,-11621.233289,-4366.744339
21927.696906,-2812.782580,-9992.780217,-4903.011187
21927.697239,-6809.894666,-13101.645173,-153.219100
21927.697572,-666.185348,-8882.471304,-1915.238745
21927.697905,-3256.906145,-7179.997637,612.876398
21927.698238,0.000000,-5995.668130,6052.154434
21927.698572,1702.473667,-7698.141797,4290.134789
21927.698905,-1184.329507,-7772.162391,5515.887586
21927.699238,-2146.597232,-8956.491898,919.314598
21927.699571,-1554.432478,-8216.285956,0.000000
21927.699904,518.144159,-8512.368333,536.266849
21927.700237,-666.185348,-9474.636058,-76.609550
21927.700571,-74.020594,-10362.883188,-3600.648841
21927.700904,-2368.659014,-12953.603985,-76.609550
21927.701237,-3701.029710,-13175.665768,-3140.991542
21927.701570,-5107.421000,-10362.883188,-3983.696590
21927.701903,-2442.679609,-11251.130318,-995.924147
21927.702237,1850.514855,-7846.182985,2987.772442
21927.702570,4145.153275,-4811.338623,6358.592633
21927.702903,4811.338623,-6439.791695,5515.887586
21927.703236,4737.318029,-5403.503377,6052.154434
21927.703569,1776.494261,-7179.997637,0.000000
21927.703903,2516.700203,-13915.871710,-76.609550
21927.704236,-962.267725,-10140.821405,-4903.011187
21927.704569,0.000000,-9548.656652,0.000000
21927.704902,1702.473667,-10658.965565,-2528.115143
21927.705235,4737.318029,-7254.018232,-3447.429741
21927.705568,1998.556043,-13545.768739,-995.924147
21927.705902,3775.050304,-10140.821405,1532.190996
21927.706235,6069.688724,-5995.668130,2911.162892
21927.706568,3775.050304,-10732.986159,6128.763984
21927.706901,7624.121203,-5847.626942,3447.429741
21927.707234,4441.235652,-6587.832884,4060.306139
21927.707568,7105.977043,-6809.894666,4290.134789
21927.707901,4071.132681,-11769.274478,2374.896044
21927.708234,-666.185348,-6143.709319,-7354.516781
21927.708567,-3256.906145,-14804.118840,-4979.620737
21927.708900,-370.102971,-11843.295072,-4979.620737
21927.709234,-1184.329507,-10436.903782,-3677.258390
21927.709567,-740.205942,-10732.986159,1915.238745
21927.709900,1924.535449,-7105.977043,1302.362347
21927.710233,3404.947333,-8586.388927,5132.839837
21927.710566,4219.173869,-8734.430116,4826.401637
21927.710899,1184.329507,-8364.327145,4596.572988
21927.711233,1702.473667,-7476.080014,306.438199
21927.711566,0.000000,-10732.986159,3217.601092
21927.711899,-2442.679609,-13027.624579,-76.609550
21927.712232,-74.020594,-5773.606348,-1455.581446
21927.712565,-3182.885551,-13471.748144,-1302.362347
21927.712899,-2664.741391,-8068.244768,-2451.505594
21927.713232,-4441.235652,-9104.533087,-2145.067394
21927.713565,-7772.162391,-11177.109724,-766.095498
21927.713898,-1850.514855,-8290.306550,1762.019645
21927.714231,-6513.812290,-9548.656652,612.876398
21927.714565,4145.153275,-5773.606348,4213.525239
21927.714898,-1406.391290,-12065.356855,1532.190996
21927.715231,0.000000,-5995.668130,1838.629195
21927.715564,-962.267725,-10955.047942,2068.457845
21927.715897,1776.494261,-5329.482782,536.266849
21927.716230,-2294.638420,-13545.768739,0.000000
21927.716564,-3034.844362,-10066.800811,-1991.848295
21927.716897,-1850.514855,-8290.306550,-3140.991542
21927.717230,-6513.812290,-9992.780217,-383.047749
21927.717563,0.000000,-9844.739029,2987.772442
21927.717896,-2738.761985,-7698.141797,-383.047749
21927.718230,592.164754,-8512.368333,2451.505594
21927.718563,-2368.659014,-7179.997637,2451.505594
21927.718896,444.123565,-9252.574275,1915.238745
21927.719229,4071.132681,-6439.791695,3370.820191
21927.719562,5847.626942,-8586.388927,2834.553343
21927.719896,1184.329507,-9548.656652,-2451.505594
21927.720229,-148.041188,-11251.130318,-2528.115143
21927.720562,-148.041188,-10436.903782,-6741.640382
21927.720895,2738.761985,-9844.739029,-2451.505594
21927.721228,2664.741391,-12509.480420,612.876398
21927.721562,3478.967927,-7179.997637,1378.971896
21927.721895,5921.647536,-8216.285956,0.000000
21927.722228,7031.956449,-10732.986159,6435.202183
21927.722561,6291.750507,-6957.935855,7048.078582
21927.722894,4441.235652,-6587.832884,612.876398
21927.723227,3627.009116,-9252.574275,3677.258390
21927.723561,-370.102971,-9696.697840,-2374.896044
21927.723894,3775.050304,-7698.141797,995.924147
21927.724227,-666.185348,-8290.306550,-2528.115143
21927.724560,-74.020594,-11399.171507,-5209.449386
21927.724893,-4145.153275,-8956.491898,-2451.505594
21927.725227,-666.185348,-12435.459826,-3140.991542
21927.725560,-814.226536,-8290.306550,-2374.896044
21927.725893,-2072.576638,-10732.986159,1991.848295
21927.726226,3552.988522,-4367.215058,3370.820191
21927.726559,4515.256246,-8068.244768,6511.811733
21927.726893,5847.626942,-8438.347739,6741.640382
21927.727226,0.000000,-9178.553681,1149.143247
21927.727559,2294.638420,-7179.997637,0.000000
21927.727892,2664.741391,-13027.624579,2987.772442
21927.728225,-4811.338623,-13027.624579,-2834.553343
21927.728558,-3849.070898,-6143.709319,-3370.820191
21927.728892,-4811.338623,-13619.789333,-3140.991542
21927.729225,-2368.659014,-10140.821405,-2451.505594
21927.729558,-4663.297435,-10955.047942,-2451.505594
21927.729891,-4663.297435,-10732.986159,1838.629195
21927.730224,-2368.659014,-3627.009116,3677.258390
21927.730558,-2294.638420,-8660.409521,4903.011187
21927.730891,2590.720797,-5921.647536,4826.401637
21927.731224,-370.102971,-4219.173869,919.314598
21927.731557,0.000000,-9548.656652,4519.963438
21927.731890,-666.185348,-3034.844362,-3677.258390
21927.732224,-6143.709319,-11843.295072,-3140.991542
21927.732557,-5329.482782,-10066.800811,-6818.249932
21927.732890,-4811.338623,-11917.315666,-5209.449386
21927.733223,-3627.009116,-13619.789333,-2528.115143
21927.733556,1184.329507,-5403.503377,3140.991542
21927.733889,-1258.350101,-7698.141797,2374.896044
21927.734223,4367.215058,-3923.091493,612.876398
21927.734556,4885.359217,-11695.253884,8273.831378
21927.734889,3775.050304,-11103.089130,2757.943793
21927.735222,6883.915261,-7402.059420,3524.039291
21927.735555,2294.638420,-7994.224174,1149.143247
21927.735889,4959.379811,-9104.533087,-1455.581446
21927.736222,1258.350101,-13027.624579,-536.266849
21927.736555,1110.308913,-14211.954086,-1608.800546
21927.736888,-1850.514855,-7772.162391,-4596.572988
21927.737221,-4145.153275,-10732.986159,-919.314598
21927.737555,1702.473667,-8882.471304,-3140.991542
21927.737888,-74.020594,-9326.594869,1532.190996
21927.738221,3552.988522,-4811.338623,1378.971896
21927.738554,1184.329507,-11843.295072,4443.353888
21927.738887,4959.379811,-3627.009116,2298.286494
21927.739221,3330.926739,-7179.997637,1532.190996
21927.739554,6143.709319,-7846.182985,1762.019645
21927.739887,2886.803174,-11251.130318,229.828649
21927.740220,-2738.761985,-11251.130318,-3753.867940
21927.740553,1480.411884,-6217.729913,-4596.572988
21927.740886,-74.020594,-12731.542202,-1455.581446
21927.741220,2960.823768,-12361.439231,4903.011187
21927.741553,1110.308913,-8882.471304,-76.609550
21927.741886,-518.144159,-8956.491898,0.000000
21927.742219,1776.494261,-10732.986159,5515.887586
21927.742552,2294.638420,-5625.565159,4136.915689
21927.742886,1776.494261,-5033.400406,2528.115143
21927.743219,1850.514855,-8216.285956,2374.896044
21927.743552,222.061783,-8364.327145,-3600.648841
21927.743885,-2368.659014,-11917.315666,306.438199
21927.744218,-74.020594,-9474.636058,-76.609550
21927.744552,-4071.132681,-10066.800811,-5132.839837
21927.744885,-4737.318029,-11325.150913,-1225.752797
21927.745218,-1850.514855,-11843.295072,-1302.362347
21927.745551,-4737.318029,-8364.327145,0.000000
21927.745884,-3627.009116,-8956.491898,0.000000
21927.746217,-962.267725,-7254.018232,1762.019645
21927.746551,-370.102971,-7772.162391,4443.353888
21927.746884,296.082377,-6883.915261,2757.943793
21927.747217,2294.638420,-9474.636058,-76.609550
21927.747550,-2368.659014,-7772.162391,1532.190996
21927.747883,2368.659014,-8956.491898,7277.907231
21927.748217,-1258.350101,-7846.182985,0.000000
21927.748550,-1776.494261,-8364.327145,-536.266849
21927.748883,-3701.029710,-8956.491898,-4826.401637
21927.749216,-3775.050304,-12731.542202,-4903.011187
21927.749549,-1258.350101,-12287.418637,-2221.676944
21927.749882,1110.308913,-5921.647536,-383.047749
21927.750215,2886.803174,-10658.965565,229.828649
21927.750549,3552.988522,-11325.150913,7967.393179
21927.750882,4367.215058,-8586.388927,7277.907231
21927.751215,3182.885551,-3627.009116,153.219100
21927.751548,4737.318029,-4219.173869,6128.763984
21927.751881,0.000000,-9548.656652,2221.676944
21927.752214,1184.329507,-8216.285956,-76.609550
21927.752547,-2516.700203,-9548.656652,-4673.182538
21927.752880,-1258.350101,-13619.789333,-3753.867940
21927.753213,-74.020594,-11843.295072,-2834.553343
21927.753546,-2368.659014,-8364.327145,-4290.134789
21927.753880,-1776.494261,-9548.656652,-1149.143247
21927.754213,1110.308913,-9918.759623,-76.609550
21927.754546,3849.070898,-7179.997637,4290.134789
21927.754879,4959.379811,-5329.482782,4136.915689
21927.755212,6809.894666,-9030.512492,5515.887586
21927.755545,4515.256246,-7550.100608,4826.401637
21927.755878,3478.967927,-7105.977043,1149.143247
21927.756211,4367.215058,-9178.553681,-1762.019645
21927.756544,222.061783,-12879.583391,-2911.162892
21927.756878,-1924.535449,-12361.439231,-2451.505594
21927.757211,-3404.947333,-10584.944971,-3294.210641
21927.757544,-2442.679609,-11843.295072,-1302.362347
21927.757877,-1184.329507,-7772.162391,1149.143247
21927.758210,-666.185348,-10066.800811,536.266849
21927.758543,2368.659014,-4811.338623,3983.696590
21927.758876,1184.329507,-5403.503377,4903.011187
21927.759209,2590.720797,-7179.997637,3830.477490
21927.759542,4071.132681,-7550.100608,5439.278036
21927.759876,-370.102971,-8734.430116,3294.210641
21927.760209,0.000000,-9918.759623,-2757.943793
21927.760542,-5625.565159,-11029.068536,-4749.792088
21927.760875,-2442.679609,-11843.295072,-6818.249932
21927.761208,-2442.679609,-11251.130318,-3447.429741
21927.761541,-5921.647536,-9548.656652,-2451.505594
21927.761874,-74.020594,-9474.636058,-76.609550
21927.762207,-2368.659014,-9104.533087,3677.258390
21927.762540,1110.308913,-5773.606348,2987.772442
21927.762874,1924.535449,-5255.462188,4213.525239
21927.763207,1258.350101,-7105.977043,2145.067394
21927.763540,1776.494261,-8660.409521,3677.258390
21927.763873,-74.020594,-6513.812290,-2757.943793
21927.764206,296.082377,-8364.327145,-3677.258390
21927.764539,-3552.988522,-13693.809927,-842.705048
21927.764872,-666.185348,-10066.800811,-4979.620737
21927.765205,-2146.597232,-12435.459826,-2528.115143
21927.765538,-1776.494261,-11399.171507,-1455.581446
21927.765871,-962.267725,-8734.430116,536.266849
21927.766205,2960.823768,-6069.688724,2221.676944
21927.766538,5551.544565,-9474.636058,5439.278036
21927.766871,2886.803174,-7179.997637,4903.011187
21927.767204,2664.741391,-7698.141797,4826.401637
21927.767537,4071.132681,-8290.306550,2374.896044
21927.767870,-74.020594,-6661.853478,-2298.286494
21927.768203,740.205942,-11547.212695,-1455.581446
21927.768536,-2960.823768,-13027.624579,-3753.867940
21927.768869,-1480.411884,-11325.150913,-5362.668486
21927.769203,-1924.535449,-13471.748144,-2604.724693
21927.769536,1110.308913,-10658.965565,-689.485948
21927.769869,0.000000,-8956.491898,0.000000
21927.770202,1184.329507,-9104.533087,1455.581446
21927.770535,5255.462188,-5847.626942,5898.935335
21927.770868,2664.741391,-4811.338623,4290.134789
21927.771201,6217.729913,-7698.141797,7277.907231
21927.771534,3478.967927,-7698.141797,2068.457845
21927.771867,0.000000,-7179.997637,3677.258390
21927.772201,518.144159,-9474.636058,-2681.334243
21927.772534,-2812.782580,-11843.295072,-5898.935335
21927.772867,-2368.659014,-11769.274478,-3830.477490
21927.773200,-1258.350101,-10066.800811,-2834.553343
21927.773533,-592.164754,-9770.718434,0.000000
21927.773866,-2368.659014,-10436.903782,153.219100
21927.774199,-1184.329507,-7920.203579,4136.915689
21927.774532,1110.308913,-6217.729913,-1225.752797
21927.774865,3552.988522,-10732.986159,3677.258390
21927.775199,5329.482782,-10066.800811,9116.536426
21927.775532,2368.659014,-4219.173869,2757.943793
21927.775865,1406.391290,-8882.471304,2681.334243
21927.776198,0.000000,-9992.780217,306.438199
21927.776531,-2146.597232,-11029.068536,-2757.943793
21927.776864,-1850.514855,-11251.130318,-3753.867940
21927.777197,-4737.318029,-11917.315666,-3753.867940
21927.777530,-3627.009116,-8956.491898,-3677.258390
21927.777863,-2368.659014,-9548.656652,766.095498
21927.778196,3478.967927,-8290.306550,3294.210641
21927.778530,2294.638420,-10658.965565,4826.401637
21927.778863,2516.700203,-5329.482782,3907.087040
21927.779196,-370.102971,-8142.265362,1455.581446
21927.779529,2738.761985,-5773.606348,1608.800546
21927.779862,0.000000,-9548.656652,612.876398
21927.780195,4071.132681,-8290.306550,-76.609550
21927.780528,592.164754,-9548.656652,-3677.258390
21927.780861,-2220.617826,-15100.201217,-2528.115143
21927.781194,1110.308913,-8068.244768,-2451.505594
21927.781528,-4737.318029,-10732.986159,-3064.381992
21927.781861,-370.102971,-10584.944971,229.828649
21927.782194,-2516.700203,-7624.121203,459.657299
21927.782527,3182.885551,-6809.894666,4673.182538
21927.782860,3997.112087,-7031.956449,7048.078582
21927.783193,2294.638420,-5107.421000,1225.752797
21927.783526,-74.020594,-12731.542202,2987.772442
21927.783859,-74.020594,-7105.977043,-689.485948
21927.784192,-1776.494261,-9548.656652,-1838.629195
21927.784526,296.082377,-9844.739029,153.219100
21927.784859,-2738.761985,-12213.398043,-2757.943793
21927.785192,-1850.514855,-8142.265362,-6511.811733
21927.785525,-592.164754,-14211.954086,-919.314598
21927.785858,-814.226536,-10955.047942,-76.609550
21927.786191,3182.885551,-6883.915261,2451.505594
21927.786524,1110.308913,-8734.430116,3217.601092
21927.786857,6291.750507,-9400.615463,5439.278036
21927.787190,1998.556043,-8512.368333,4290.134789
21927.787524,5329.482782,-6735.874072,5515.887586
21927.787857,-666.185348,-6809.894666,306.438199
21927.788190,-3256.906145,-8364.327145,612.876398
21927.788523,-1258.350101,-9474.636058,-5286.058936
21927.788856,-2442.679609,-10658.965565,-7431.126331
21927.789189,-3552.988522,-14285.974681,842.705048
21927.789522,1258.350101,-6439.791695,612.876398
21927.789855,-1776.494261,-10584.944971,229.828649
21927.790188,1998.556043,-6513.812290,1072.533697
21927.790522,2294.638420,-9474.636058,3600.648841
21927.790855,1406.391290,-5847.626942,1225.752797
21927.791188,2368.659014,-8364.327145,3064.381992
21927.791521,-74.020594,-11251.130318,995.924147
21927.791854,1776.494261,-8068.244768,2604.724693
21927.792187,-74.020594,-9326.594869,-76.609550
21927.792520,-1850.514855,-10881.027347,-3907.087040
21927.792853,-2664.741391,-9104.533087,-2834.553343
21927.793186,-2072.576638,-9548.656652,-1608.800546
21927.793519,-2516.700203,-7994.224174,-2834.553343
21927.793853,-1406.391290,-5995.668130,0.000000
21927.794186,-1036.288319,-11843.295072,-76.609550
21927.794519,3478.967927,-8882.471304,1762.019645
21927.794852,2960.823768,-7179.997637,2757.943793
21927.795185,4071.132681,-12435.459826,4903.011187
21927.795518,4737.318029,-6439.791695,2528.115143
21927.795851,666.185348,-9622.677246,1762.019645
21927.796184,1554.432478,-9844.739029,-919.314598
21927.796517,0.000000,-10140.821405,-1225.752797
21927.796851,-2368.659014,-9622.677246,-1302.362347
21927.797184,-74.020594,-10658.965565,-3140.991542
21927.797517,-2294.638420,-9844.739029,-2145.067394
21927.797850,-3997.112087,-8364.327145,-612.876398
21927.798183,-74.020594,-7698.141797,-1455.581446
21927.798516,0.000000,-9696.697840,1149.143247
21927.798849,2516.700203,-8216.285956,4903.011187
21927.799182,1628.453072,-5403.503377,1685.410096
21927.799515,1776.494261,-10288.862594,1838.629195
21927.799849,3404.947333,-7550.100608,1762.019645
21927.800182,0.000000,-9622.677246,766.095498
21927.800515,1776.494261,-7179.997637,-1149.143247
21927.800848,-1850.514855,-11843.295072,-2528.115143
21927.801181,-4145.153275,-13027.624579,-3140.991542
21927.801514,0.000000,-8364.327145,0.000000
21927.801847,-1628.453072,-13619.789333,3600.648841
21927.802180,2590.720797,-6513.812290,-76.609550
21927.802513,-74.020594,-9474.636058,3600.648841
21927.802847,5255.462188,-5921.647536,2681.334243
21927.803180,0.000000,-10584.944971,2221.676944
21927.803513,2516.700203,-9696.697840,4596.572988
21927.803846,1702.473667,-6883.915261,919.314598
21927.804179,888.247130,-10140.821405,3600.648841
21927.804512,0.000000,-7179.997637,0.000000
21927.804845,-3182.885551,-11843.295072,-3447.429741
21927.805178,-3775.050304,-8882.471304,-4673.182538
21927.805511,-5921.647536,-9030.512492,-4596.572988
21927.805844,-1258.350101,-11547.212695,-306.438199
21927.806178,0.000000,-7254.018232,2145.067394
21927.806511,1924.535449,-7179.997637,4136.915689
21927.806844,3627.009116,-6883.915261,3294.210641
21927.807177,2146.597232,-9474.636058,4826.401637
21927.807510,2812.782580,-9474.636058,3600.648841
21927.807843,2294.638420,-6217.729913,-995.924147
21927.808176,0.000000,-11325.150913,0.000000
21927.808509,1332.370696,-11029.068536,-1225.752797
21927.808842,148.041188,-7772.162391,-4903.011187
21927.809176,296.082377,-15248.242405,-2681.334243
21927.809509,1110.308913,-11843.295072,1915.238745
21927.809842,444.123565,-8586.388927,-1532.190996
21927.810175,-3404.947333,-9548.656652,0.000000
21927.810508,4663.297435,-5921.647536,1762.019645
21927.810841,-1036.288319,-5995.668130,229.828649
21927.811174,2368.659014,-5403.503377,7277.907231
21927.811507,2294.638420,-8882.471304,2068.457845
21927.811840,0.000000,-7772.162391,2451.505594
21927.812174,-1554.432478,-9622.677246,-1762.019645
21927.812507,-1554.432478,-9178.553681,-4673.182538
21927.812840,-3182.885551,-10881.027347,-3907.087040
21927.813173,-2368.659014,-12065.356855,-2298.286494
21927.813506,-74.020594,-7994.224174,-4519.963438
21927.813839,-1776.494261,-11621.233289,2145.067394
21927.814172,4737.318029,-9252.574275,4826.401637
21927.814505,3478.967927,-9474.636058,4826.401637
21927.814838,4737.318029,-7920.203579,6052.154434
21927.815172,2146.597232,-7772.162391,2604.724693
21927.815505,2220.617826,-9918.759623,3677.258390
21927.815838,1184.329507,-7179.997637,612.876398
21927.816171,-2368.659014,-10140.821405,3447.429741
21927.816504,-1036.288319,-7179.997637,-1838.629195
21927.816837,-4811.338623,-11251.130318,-3753.867940
21927.817170,-3775.050304,-9252.574275,-4060.306139
21927.817503,-4219.173869,-8882.471304,-2374.896044
21927.817836,0.000000,-7772.162391,4060.306139
21927.818169,518.144159,-6809.894666,4826.401637
21927.818503,4367.215058,-8290.306550,6665.030833
21927.818836,296.082377,-7772.162391,5515.887586
21927.819169,3182.885551,-9474.636058,3600.648841
21927.819502,740.205942,-7105.977043,153.219100
21927.819835,-1850.514855,-11621.233289,-1762.019645
21927.820168,2738.761985,-10436.903782,0.000000
21927.820501,-4441.235652,-9844.739029,-3677.258390
21927.820834,0.000000,-8364.327145,-1532.190996
21927.821167,-74.020594,-9326.594869,-1608.800546
21927.821501,0.000000,-7179.997637,-3370.820191
21927.821834,1184.329507,-8956.491898,1149.143247
21927.822167,-2664.741391,-9548.656652,-1455.581446
21927.822500,2590.720797,-9992.780217,2604.724693
21927.822833,1924.535449,-6513.812290,3370.820191
21927.823166,4737.318029,-7994.224174,-1072.533697
21927.823499,4071.132681,-15322.262999,6052.154434
21927.823832,2368.659014,-4811.338623,2681.334243
21927.824165,814.226536,-8364.327145,-3064.381992
21927.824499,0.000000,-9326.594869,1532.190996
21927.824832,-74.020594,-11843.295072,-3753.867940
21927.825165,148.041188,-8660.409521,1225.752797
21927.825498,962.267725,-6217.729913,-1762.019645
21927.825831,-1924.535449,-11473.192101,-536.266849
21927.826164,-888.247130,-8290.306550,459.657299
21927.826497,-962.267725,-9474.636058,-1762.019645
21927.826830,3552.988522,-10955.047942,5439.278036
21927.827163,1184.329507,-7179.997637,76.609550
21927.827497,0.000000,-11325.150913,3217.601092
21927.827830,2294.638420,-5329.482782,1149.143247
21927.828163,3478.967927,-10066.800811,1762.019645
21927.828496,3701.029710,-6883.915261,2757.943793
21927.828829,-74.020594,-9252.574275,-153.219100
21927.829162,-1554.432478,-9696.697840,-3217.601092
21927.829495,-2368.659014,-9548.656652,-1838.629195
21927.829828,-74.020594,-11843.295072,-3753.867940
21927.830161,0.000000,-8364.327145,2221.676944
21927.830494,-370.102971,-14063.912898,2068.457845
21927.830828,1110.308913,-7179.997637,306.438199
21927.831161,-2146.597232,-9992.780217,4519.963438
21927.831494,1998.556043,-5625.565159,1991.848295
21927.831827,592.164754,-7105.977043,4443.353888
21927.832160,814.226536,-6661.853478,-995.924147
21927.832493,0.000000,-10732.986159,0.000000
21927.832826,518.144159,-10955.047942,1608.800546
21927.833159,0.000000,-9252.574275,-3370.820191
21927.833492,-2368.659014,-9844.739029,-2145.067394
21927.833826,-3849.070898,-11843.295072,-3294.210641
21927.834159,-2368.659014,-8068.244768,0.000000
21927.834492,-74.020594,-10658.965565,2374.896044
21927.834825,0.000000,-4811.338623,0.000000
21927.835158,592.164754,-11103.089130,6052.154434
21927.835491,5847.626942,-7105.977043,5439.278036
21927.835824,740.205942,-7179.997637,2451.505594
21927.836157,1406.391290,-6513.812290,-689.485948
21927.836490,0.000000,-8956.491898,-1608.800546
21927.836824,-4515.256246,-12953.603985,-3140.991542
21927.837157,296.082377,-9548.656652,-1225.752797
21927.837490,-1850.514855,-9770.718434,-2298.286494
21927.837823,592.164754,-10584.944971,-306.438199
21927.838156,1702.473667,-9474.636058,-1915.238745
21927.838489,518.144159,-10140.821405,0.000000
21927.838822,4737.318029,-8660.409521,4443.353888
21927.839155,5551.544565,-11843.295072,4903.011187
21927.839488,5181.441594,-10955.047942,5822.325785
21927.839822,5255.462188,-5773.606348,4443.353888
21927.840155,4367.215058,-9474.636058,3907.087040
21927.840488,3478.967927,-6513.812290,-842.705048
21927.840821,-2960.823768,-9326.594869,-3140.991542
21927.841154,-74.020594,-11843.295072,-3140.991542
21927.841487,-5403.503377,-10288.862594,-5362.668486
21927.841820,-962.267725,-10066.800811,-1608.800546
21927.842153,-3701.029710,-8068.244768,-1225.752797
21927.842486,-666.185348,-10362.883188,1685.410096
21927.842819,1480.411884,-7624.121203,2987.772442
21927.843153,3182.885551,-7550.100608,3370.820191
21927.843486,1184.329507,-7772.162391,1225.752797
21927.843819,4145.153275,-10658.965565,2987.772442
21927.844152,1554.432478,-7920.203579,0.000000
21927.844485,4071.132681,-6587.832884,0.000000
21927.844818,2294.638420,-13027.624579,-76.609550
21927.845151,-2294.638420,-9992.780217,-4213.525239
21927.845484,-3923.091493,-12435.459826,-3140.991542
21927.845817,-3849.070898,-10584.944971,-4213.525239
21927.846151,-2664.741391,-10288.862594,2298.286494
21927.846484,-962.267725,-3034.844362,612.876398
21927.846817,0.000000,-10807.006753,3753.867940
21927.847150,2738.761985,-7105.977043,6358.592633
21927.847483,1480.411884,-7476.080014,3677.258390
21927.847816,3478.967927,-9474.636058,4213.525239
21927.848149,740.205942,-7179.997637,-1838.629195
21927.848482,-148.041188,-13767.830521,-76.609550
21927.848815,1110.308913,-10658.965565,-995.924147
21927.849149,-2294.638420,-7179.997637,-3677.258390
21927.849482,-222.061783,-12731.542202,-995.924147
21927.849815,-2368.659014,-9030.512492,-1608.800546
21927.850148,-3108.864956,-8808.450710,-1991.848295
21927.850481,-1332.370696,-9474.636058,-76.609550
21927.850814,0.000000,-7179.997637,3983.696590
21927.851148,1110.308913,-5995.668130,2451.505594
21927.851481,4737.318029,-6735.874072,8580.269578
21927.851814,4663.297435,-6809.894666,2374.896044
21927.852147,2886.803174,-9474.636058,-689.485948
21927.852480,2664.741391,-9844.739029,-4903.011187
21927.852813,-3256.906145,-13249.686362,-5515.887586
21927.853147,-1258.350101,-13027.624579,-3830.477490
21927.853480,-666.185348,-11103.089130,-2221.676944
21927.853813,4663.297435,-9474.636058,-76.609550
21927.854146,2368.659014,-8438.347739,5822.325785
21927.854479,3478.967927,-9474.636058,2374.896044
21927.854812,740.205942,-4811.338623,3830.477490
21927.855146,0.000000,-8660.409521,2451.505594
21927.855479,3478.967927,-8068.244768,3064.381992
21927.855812,444.123565,-9326.594869,1838.629195
21927.856145,3256.906145,-6069.688724,0.000000
21927.856478,814.226536,-11399.171507,-1149.143247
21927.856811,-1406.391290,-10436.903782,-3140.991542
21927.857145,592.164754,-10066.800811,-3140.991542
21927.857478,-2442.679609,-15988.448347,-1915.238745
21927.857811,-814.226536,-8364.327145,-3677.258390
21927.858144,-1776.494261,-10066.800811,1225.752797
21927.858477,0.000000,-6883.915261,2911.162892
21927.858810,3552.988522,-5403.503377,4979.620737
21927.859143,3108.864956,-10140.821405,6818.249932
21927.859477,4663.297435,-6143.709319,4213.525239
21927.859810,-2368.659014,-9844.739029,1225.752797
21927.860143,3478.967927,-9474.636058,-689.485948
21927.860476,-2368.659014,-10732.986159,1532.190996
21927.860809,-3256.906145,-7476.080014,-2451.505594
21927.861142,-1776.494261,-12583.501014,-1915.238745
21927.861476,-4145.153275,-9548.656652,-4136.915689
21927.861809,-1702.473667,-8660.409521,-3217.601092
21927.862142,-888.247130,-10584.944971,995.924147
21927.862475,-74.020594,-8142.265362,1762.019645
21927.862808,-2960.823768,-7179.997637,1838.629195
21927.863141,2294.638420,-7402.059420,3677.258390
21927.863475,2146.597232,-9252.574275,4749.792088
21927.863808,2960.823768,-8956.491898,4903.011187
21927.864141,1702.473667,-7105.977043,2374.896044
21927.864474,-1776.494261,-7476.080014,-2451.505594
21927.864807,-1998.556043,-14804.118840,-76.609550
21927.865140,-74.020594,-11251.130318,-689.485948
21927.865474,-1258.350101,-6069.688724,-3064.381992
21927.865807,1036.288319,-8660.409521,2987.772442
21927.866140,-4737.318029,-9548.656652,-1455.581446
21927.866473,-3404.947333,-8586.388927,-76.609550
21927.866806,-888.247130,-8068.244768,2374.896044
21927.867139,-814.226536,-4811.338623,0.000000
21927.867473,0.000000,-7179.997637,1225.752797
21927.867806,3478.967927,-11843.295072,-76.609550
21927.868139,1628.453072,-7179.997637,0.000000
21927.868472,2368.659014,-11251.130318,-76.609550
21927.868805,2220.617826,-13027.624579,-689.485948
21927.869138,148.041188,-8956.491898,-3524.039291
21927.869472,0.000000,-11325.150913,-1991.848295
21927.869805,1480.411884,-9104.533087,919.314598
21927.870138,1184.329507,-6291.750507,766.095498
21927.870471,1332.370696,-8956.491898,4290.134789
21927.870804,7031.956449,-7105.977043,4213.525239
21927.871137,0.000000,-10140.821405,3677.258390
21927.871471,7031.956449,-7698.141797,3600.648841
21927.871804,-2960.823768,-14285.974681,612.876398
21927.872137,2886.803174,-6513.812290,-76.609550
21927.872470,0.000000,-8882.471304,1455.581446
21927.872803,370.102971,-8734.430116,-2145.067394
21927.873136,2294.638420,-7698.141797,-1455.581446
21927.873470,-5329.482782,-10436.903782,-2298.286494
21927.873803,1110.308913,-7105.977043,-4366.744339
21927.874136,-5921.647536,-12213.398043,0.000000
21927.874469,4663.297435,-8882.471304,1762.019645
21927.874802,2294.638420,-9178.553681,4596.572988
21927.875135,3701.029710,-9178.553681,4290.134789
21927.875468,2664.741391,-6735.874072,3983.696590
21927.875802,1110.308913,-9918.759623,1762.019645
21927.876135,2368.659014,-6587.832884,842.705048
21927.876468,1406.391290,-13027.624579,1149.143247
21927.876801,0.000000,-10732.986159,0.000000
21927.877134,-4737.318029,-7179.997637,-689.485948
21927.877467,-666.185348,-8290.306550,-5592.497135
21927.877801,-74.020594,-9474.636058,1149.143247
21927.878134,-1998.556043,-9474.636058,229.828649
21927.878467,-3997.112087,-7772.162391,-2145.067394
21927.878800,-2146.597232,-11621.233289,1149.143247
21927.879133,-2072.576638,-7179.997637,0.000000
21927.879466,3478.967927,-8142.265362,1762.019645
21927.879800,2072.576638,-9326.594869,4903.011187
21927.880133,2442.679609,-8216.285956,4366.744339
21927.880466,3330.926739,-8808.450710,3064.381992
21927.880799,222.061783,-8586.388927,1225.752797
21927.881132,-2960.823768,-8808.450710,-1915.238745
21927.881465,-3034.844362,-8586.388927,-3907.087040
21927.881799,-6513.812290,-7772.162391,-5209.449386
21927.882132,-1776.494261,-13249.686362,-1378.971896
21927.882465,-1406.391290,-10140.821405,0.000000
21927.882798,1184.329507,-7402.059420,383.047749
21927.883131,0.000000,-8364.327145,2528.115143
21927.883464,1332.370696,-7846.182985,2681.334243
21927.883798,296.082377,-9548.656652,3983.696590
21927.884131,5847.626942,-8882.471304,4519.963438
21927.884464,1480.411884,-5995.668130,612.876398
21927.884797,2368.659014,-9548.656652,4826.401637
21927.885130,2886.803174,-7105.977043,-1915.238745
21927.885463,-2220.617826,-9548.656652,-3370.820191
21927.885797,-1258.350101,-11103.089130,-4213.525239
21927.886130,-3849.070898,-11917.315666,-4903.011187
21927.886463,-1406.391290,-11769.274478,-1762.019645
21927.886796,1480.411884,-10288.862594,4060.306139
21927.887129,7031.956449,-7105.977043,2374.896044
21927.887462,1776.494261,-7179.997637,4136.915689
21927.887796,4737.318029,-9548.656652,4826.401637
21927.888129,4515.256246,-10955.047942,3907.087040
21927.888462,3701.029710,-9252.574275,4060.306139
21927.888795,3552.988522,-8364.327145,1532.190996
21927.889128,666.185348,-8142.265362,-689.485948
21927.889461,2294.638420,-8586.388927,-1838.629195
21927.889795,-74.020594,-10066.800811,-995.924147
21927.890128,-2442.679609,-7772.162391,-7354.516781
21927.890461,-3552.988522,-11917.315666,-1225.752797
21927.890794,-666.185348,-10658.965565,-1302.362347
21927.891127,-1554.432478,-8956.491898,-2451.505594
21927.891460,0.000000,-8142.265362,4826.401637
21927.891793,3478.967927,-7179.997637,2911.162892
21927.892127,4293.194464,-9548.656652,6971.469032
21927.892460,2442.679609,-6365.771101,2221.676944
21927.892793,2294.638420,-9474.636058,-76.609550
21927.893126,-2220.617826,-10436.903782,-2374.896044
21927.893459,-2146.597232,-10658.965565,-3447.429741
21927.893792,-3627.009116,-10584.944971,-3677.258390
21927.894126,-2368.659014,-9548.656652,-3064.381992
21927.894459,-2368.659014,-10732.986159,1378.971896
21927.894792,-74.020594,-8882.471304,-1455.581446
21927.895125,0.000000,-7772.162391,4903.011187
21927.895458,1776.494261,-5773.606348,5745.716235
21927.895791,740.205942,-7476.080014,4290.134789
21927.896125,592.164754,-6143.709319,3217.601092
21927.896458,-148.041188,-10584.944971,383.047749
21927.896791,-370.102971,-8438.347739,-383.047749
21927.897124,-2442.679609,-11843.295072,-3753.867940
21927.897457,-5107.421000,-8956.491898,-6205.373534
21927.897790,-2442.679609,-10955.047942,-7660.954980
21927.898124,-3552.988522,-10732.986159,-1685.410096
21927.898457,-74.020594,-9474.636058,1762.019645
21927.898790,3478.967927,-9474.636058,3600.648841
21927.899123,4219.173869,-8216.285956,6665.030833
21927.899456,3552.988522,-5773.606348,5286.058936
21927.899789,3552.988522,-9252.574275,6205.373534
21927.900123,3404.947333,-7698.141797,2604.724693
21927.900456,2664.741391,-12065.356855,3140.991542
21927.900789,0.000000,-7624.121203,0.000000
21927.901122,-1036.288319,-13027.624579,-1302.362347
21927.901455,74.020594,-5403.503377,-6128.763984
21927.901788,-5921.647536,-11917.315666,-4903.011187
21927.902122,-1258.350101,-9030.512492,-4979.620737
21927.902455,-1480.411884,-10140.821405,-1685.410096
21927.902788,-2072.576638,-10140.821405,0.000000
21927.903121,5847.626942,-7624.121203,4060.306139
21927.903454,2442.679609,-7994.224174,4826.401637
21927.903787,9474.636058,-7550.100608,9729.412825
21927.904121,2886.803174,-11251.130318,3600.648841
21927.904454,3627.009116,-6661.853478,2451.505594
21927.904787,370.102971,-13027.624579,-76.609550
21927.905120,-74.020594,-7994.224174,-6128.763984
21927.905453,-1480.411884,-10066.800811,-3753.867940
21927.905786,-3997.112087,-9178.553681,-3294.210641
21927.906119,518.144159,-6069.688724,-2451.505594
21927.906453,-2590.720797,-8438.347739,-1608.800546
21927.906786,0.000000,-7179.997637,1838.629195
21927.907119,1702.473667,-11547.212695,3524.039291
21927.907452,518.144159,-9696.697840,229.828649
21927.907785,1332.370696,-6587.832884,919.314598
21927.908118,1110.308913,-13323.706956,1991.848295
21927.908452,5625.565159,-7550.100608,2987.772442
21927.908785,370.102971,-9252.574275,612.876398
21927.909118,296.082377,-8512.368333,-2298.286494
21927.909451,-1406.391290,-8290.306550,-2528.115143
21927.909784,-2960.823768,-11325.150913,-612.876398
21927.910117,0.000000,-7994.224174,306.438199
21927.910451,-3404.947333,-7476.080014,-459.657299
21927.910784,-74.020594,-10658.965565,-76.609550
21927.911117,1110.308913,-9474.636058,1455.581446
21927.911450,148.041188,-9548.656652,3064.381992
21927.911783,4145.153275,-12065.356855,6052.154434
21927.912116,1998.556043,-9474.636058,2145.067394
21927.912450,-1776.494261,-11029.068536,0.000000
21927.912783,-592.164754,-9992.780217,2681.334243
21927.913116,-2146.597232,-6957.935855,-1608.800546
21927.913449,-2072.576638,-6883.915261,-1608.800546
21927.913782,-2886.803174,-6661.853478,-3524.039291
21927.914115,-1850.514855,-8882.471304,-3677.258390
21927.914449,-74.020594,-11843.295072,-76.609550
21927.914782,-1258.350101,-7698.141797,-842.705048
21927.915115,0.000000,-10140.821405,4290.134789
21927.915448,3256.906145,-5699.585753,2757.943793
21927.915781,2368.659014,-9548.656652,3677.258390
21927.916114,2516.700203,-8956.491898,0.000000
21927.916448,3627.009116,-9844.739029,76.609550
21927.916781,4071.132681,-11547.212695,3294.210641
21927.917114,2368.659014,-7772.162391,0.000000
21927.917447,1998.556043,-13619.789333,-2834.553343
21927.917780,-74.020594,-10066.800811,-1225.752797
21927.918113,0.000000,-7179.997637,-1838.629195
21927.918447,1480.411884,-9474.636058,2681.334243
21927.918780,148.041188,-8142.265362,919.314598
21927.919113,-1628.453072,-10214.842000,689.485948
21927.919446,370.102971,-9178.553681,1762.019645
21927.919779,814.226536,-9474.636058,383.047749
21927.920112,0.000000,-10140.821405,4596.572988
21927.920446,1702.473667,-4219.173869,612.876398
21927.920779,-2368.659014,-5995.668130,1378.971896
21927.921112,1702.473667,-9474.636058,-2681.334243
21927.921445,0.000000,-7920.203579,-1991.848295
21927.921778,-2442.679609,-12435.459826,-1915.238745
21927.922111,1480.411884,-4885.359217,-2528.115143
21927.922444,-2960.823768,-14285.974681,-1225.752797
21927.922778,3478.967927,-7328.038826,2374.896044
21927.923111,3478.967927,-11843.295072,4826.401637
21927.923444,0.000000,-9548.656652,4903.011187
21927.923777,3849.070898,-8882.471304,4826.401637
21927.924110,-1258.350101,-11695.253884,-1991.848295
21927.924443,1406.391290,-5699.585753,1149.143247
21927.924777,-4811.338623,-11843.295072,1149.143247
21927.925110,2072.576638,-1998.556043,-1685.410096
21927.925443,-4959.379811,-12731.542202,-2834.553343
21927.925776,-444.123565,-9918.759623,536.266849
21927.926109,-666.185348,-7105.977043,-995.924147
21927.926442,-2738.761985,-9992.780217,-306.438199
21927.926776,-1406.391290,-7550.100608,-383.047749
21927.927109,-5699.585753,-12139.377449,-612.876398
21927.927442,3552.988522,-4811.338623,1225.752797
21927.927775,-1258.350101,-12435.459826,1149.143247
21927.928108,3849.070898,-4811.338623,612.876398
21927.928441,592.164754,-10881.027347,5745.716235
21927.928775,1554.432478,-9622.677246,229.828649
21927.929108,-74.020594,-7328.038826,-2911.162892
21927.929441,-2516.700203,-10214.842000,-2068.457845
21927.929774,2294.638420,-7772.162391,76.609550
21927.930107,-1776.494261,-6217.729913,-1072.533697
21927.930440,1776.494261,-9030.512492,-1225.752797
21927.930774,888.247130,-10658.965565,-76.609550
21927.931107,1258.350101,-8364.327145,0.000000
21927.931440,2960.823768,-8660.409521,1225.752797
21927.931773,6291.750507,-16284.530724,4826.401637
21927.932106,3256.906145,-9548.656652,4903.011187
21927.932439,4663.297435,-8216.285956,2681.334243
21927.932773,2368.659014,-9992.780217,1608.800546
21927.933106,1332.370696,-7254.018232,76.609550
21927.933439,-666.185348,-8882.471304,-3140.991542
21927.933772,-666.185348,-9474.636058,-3140.991542
21927.934105,-6513.812290,-8364.327145,-2911.162892
21927.934438,-962.267725,-9474.636058,-76.609550
21927.934772,-2442.679609,-7698.141797,-383.047749
21927.935105,2294.638420,-8956.491898,2987.772442
21927.935438,2368.659014,-9696.697840,3830.477490
21927.935771,3701.029710,-8586.388927,3677.258390
21927.936104,3627.009116,-9844.739029,2145.067394
21927.936437,740.205942,-8660.409521,0.000000
21927.936771,4663.297435,-10955.047942,306.438199
21927.937104,0.000000,-9548.656652,2757.943793
21927.937437,2294.638420,-9474.636058,-1302.362347
21927.937770,-4145.153275,-7994.224174,-4136.915689
21927.938103,-1776.494261,-8882.471304,-1915.238745
21927.938436,-2220.617826,-9326.594869,0.000000
21927.938769,-2220.617826,-7624.121203,689.485948
21927.939103,-3701.029710,-8956.491898,153.219100
21927.939436,-1184.329507,-7772.162391,3677.258390
21927.939769,-1850.514855,-7179.997637,-919.314598
21927.940102,2294.638420,-13619.789333,4826.401637
21927.940435,3478.967927,-9474.636058,919.314598
21927.940768,-3552.988522,-9548.656652,0.000000
21927.941102,1110.308913,-10658.965565,1762.019645
21927.941435,-5033.400406,-10140.821405,-2757.943793
21927.941768,-222.061783,-8364.327145,229.828649
21927.942101,-5255.462188,-8068.244768,-2834.553343
21927.942434,-1480.411884,-8216.285956,-2145.067394
21927.942767,-2442.679609,-8882.471304,1149.143247
21927.943101,-2072.576638,-9104.533087,1149.143247
21927.943434,3256.906145,-8142.265362,4443.353888
21927.943767,296.082377,-7402.059420,1838.629195
21927.944100,2368.659014,-9548.656652,2145.067394
21927.944433,1480.411884,-4811.338623,0.000000
21927.944766,4737.318029,-10288.862594,2451.505594
21927.945100,3478.967927,-9474.636058,-1915.238745
21927.945433,-370.102971,-11695.253884,-4673.182538
21927.945766,1110.308913,-11843.295072,-4673.182538
21927.946099,592.164754,-11473.192101,-536.266849
21927.946432,592.164754,-8512.368333,-1225.752797
21927.946765,296.082377,-9252.574275,-1838.629195
21927.947099,5551.544565,-9474.636058,1149.143247
21927.947432,2368.659014,-10732.986159,8044.002729
21927.947765,8216.285956,-8290.306550,9116.536426
21927.948098,2442.679609,-5995.668130,3677.258390
21927.948431,1184.329507,-8956.491898,3677.258390
21927.948764,1110.308913,-6513.812290,-2451.505594
21927.949098,-74.020594,-11695.253884,-995.924147
21927.949431,-1554.432478,-10732.986159,-4443.353888
21927.949764,-3627.009116,-11399.171507,-6511.811733
21927.950097,-4515.256246,-7846.182985,-6435.202183
21927.950430,-2368.659014,-10732.986159,-76.609550
21927.950763,2294.638420,-8882.471304,-76.609550
21927.951096,-74.020594,-9918.759623,0.000000
21927.951430,3182.885551,-7105.977043,4213.525239
21927.951763,2664.741391,-6883.915261,5515.887586
21927.952096,5033.400406,-8586.388927,8350.440928
21927.952429,6439.791695,-8290.306550,5439.278036
21927.952762,0.000000,-9326.594869,2987.772442
21927.953095,-2368.659014,-9622.677246,-1072.533697
21927.953429,-740.205942,-9474.636058,-4060.306139
21927.953762,-4219.173869,-9844.739029,-3677.258390
21927.954095,-4737.318029,-5995.668130,-3370.820191
21927.954428,-2886.803174,-12287.418637,-383.047749
21927.954761,-5403.503377,-9474.636058,-76.609550
21927.955094,-1184.329507,-4811.338623,-2145.067394
21927.955427,-1628.453072,-14804.118840,3447.429741
21927.955761,3701.029710,-6365.771101,2451.505594
21927.956094,-1258.350101,-12879.583391,1762.019645
21927.956427,2664.741391,-11547.212695,4826.401637
21927.956760,1998.556043,-5329.482782,536.266849
21927.957093,1184.329507,-8364.327145,7277.907231
21927.957426,2590.720797,-5921.647536,1762.019645
21927.957760,-6217.729913,-7476.080014,-3370.820191
21927.958093,-2072.576638,-7550.100608,-3140.991542
21927.958426,-3997.112087,-8808.450710,-2145.067394
21927.958759,-1184.329507,-9178.553681,-1532.190996
21927.959092,-666.185348,-12731.542202,-1915.238745
21927.959425,-814.226536,-10658.965565,-76.609550
21927.959758,0.000000,-8068.244768,-995.924147
21927.960092,1998.556043,-11399.171507,2451.505594
21927.960425,4071.132681,-8808.450710,3677.258390
21927.960758,2886.803174,-11251.130318,4826.401637
21927.961091,0.000000,-3923.091493,3983.696590
21927.961424,2368.659014,-6809.894666,-383.047749
21927.961757,1702.473667,-8290.306550,-1915.238745
21927.962091,-1776.494261,-5995.668130,-3064.381992
21927.962424,-74.020594,-10658.965565,-4443.353888
21927.962757,2442.679609,-13767.830521,536.266849
21927.963090,-888.247130,-12583.501014,153.219100
21927.963423,3701.029710,-8734.430116,919.314598
21927.963756,2590.720797,-11843.295072,3600.648841
21927.964089,4293.194464,-8882.471304,4213.525239
21927.964423,4071.132681,-9474.636058,1455.581446
21927.964756,0.000000,-8364.327145,1838.629195
21927.965089,592.164754,-9844.739029,995.924147
21927.965422,-2738.761985,-8512.368333,-1225.752797
21927.965755,-74.020594,-5033.400406,-1915.238745
21927.966088,-444.123565,-7402.059420,-459.657299
21927.966422,-1332.370696,-9918.759623,-995.924147
21927.966755,-2368.659014,-5403.503377,-2451.505594
21927.967088,-1850.514855,-13027.624579,-2528.115143
21927.967421,4959.379811,-8290.306550,1762.019645
21927.967754,0.000000,-11917.315666,6128.763984
21927.968087,7031.956449,-8290.306550,4826.401637
21927.968420,592.164754,-11621.233289,3524.039291
21927.968754,1406.391290,-11325.150913,766.095498
21927.969087,740.205942,-10362.883188,1149.143247
21927.969420,0.000000,-7772.162391,-612.876398
21927.969753,592.164754,-10510.924376,-2298.286494
21927.970086,-3627.009116,-11251.130318,-5745.716235
21927.970419,-2960.823768,-7476.080014,1225.752797
21927.970753,-2368.659014,-7179.997637,3447.429741
21927.971086,2294.638420,-9474.636058,3600.648841
21927.971419,-1776.494261,-4811.338623,4596.572988
21927.971752,740.205942,-8734.430116,4366.744339
21927.972085,1406.391290,-7994.224174,3447.429741
21927.972418,-222.061783,-10955.047942,536.266849
21927.972751,-1184.329507,-9844.739029,766.095498
21927.973085,-962.267725,-10362.883188,-1378.971896
21927.973418,-1554.432478,-9622.677246,-4903.011187
21927.973751,-4589.276840,-10288.862594,-3830.477490
21927.974084,-962.267725,-6513.812290,-4979.620737
21927.974417,0.000000,-8364.327145,1532.190996
21927.974750,3182.885551,-7994.224174,4213.525239
21927.975084,-74.020594,-7994.224174,2068.457845
21927.975417,0.000000,-6735.874072,3524.039291
21927.975750,4515.256246,-11695.253884,3600.648841
21927.976083,2368.659014,-10510.924376,4443.353888
21927.976416,2294.638420,-7476.080014,-919.314598
21927.976749,3256.906145,-14063.912898,766.095498
21927.977082,0.000000,-11917.315666,1225.752797
21927.977416,0.000000,-4811.338623,0.000000
21927.977749,-1258.350101,-10658.965565,-4366.744339
21927.978082,-3404.947333,-8364.327145,-3983.696590
21927.978415,-4737.318029,-7179.997637,-1149.143247
21927.978748,-1480.411884,-4515.256246,-3140.991542
21927.979081,370.102971,-10362.883188,1149.143247
21927.979415,740.205942,-8586.388927,1991.848295
21927.979748,-222.061783,-8956.491898,2604.724693
21927.980081,4367.215058,-7994.224174,3294.210641
21927.980414,0.000000,-12213.398043,2987.772442
21927.980747,4663.297435,-9474.636058,1149.143247
21927.981080,1628.453072,-8660.409521,2451.505594
21927.981413,1184.329507,-5995.668130,1225.752797
21927.981747,5625.565159,-8882.471304,1225.752797
21927.982080,-1036.288319,-8734.430116,-2451.505594
21927.982413,1998.556043,-7550.100608,-2145.067394
21927.982746,-2294.638420,-12805.562797,-1072.533697
21927.983079,-2738.761985,-9918.759623,-3447.429741
21927.983412,-1332.370696,-10066.800811,2374.896044
21927.983746,0.000000,-7772.162391,0.000000
21927.984079,1184.329507,-9844.739029,4366.744339
21927.984412,4663.297435,-7105.977043,3294.210641
21927.984745,-74.020594,-11843.295072,2681.334243
21927.985078,4811.338623,-6587.832884,4136.915689
21927.985411,-1776.494261,-10436.903782,0.000000
21927.985744,1036.288319,-5847.626942,-995.924147
21927.986078,-2960.823768,-8660.409521,-2451.505594
21927.986411,-74.020594,-5921.647536,-4979.620737
21927.986744,-3552.988522,-9548.656652,-1225.752797
21927.987077,-4737.318029,-7772.162391,-1838.629195
21927.987410,-370.102971,-17616.901420,0.000000
21927.987743,962.267725,-2220.617826,766.095498
21927.988077,148.041188,-17987.004391,3524.039291
21927.988410,2590.720797,-4367.215058,1838.629195
21927.988743,3627.009116,-4811.338623,3064.381992
21927.989076,-3552.988522,-16654.633695,3983.696590
21927.989409,3478.967927,-16284.530724,4673.182538
21927.989742,2516.700203,5181.441594,-2528.115143
21927.990075,3701.029710,0.000000,-4060.306139
21927.990409,-5551.544565,-10584.944971,-3677.258390
21927.990742,-5921.647536,-16654.633695,-3677.258390
21927.991075,-2738.761985,-16580.613101,-76.609550
21927.991408,-222.061783,-11917.315666,0.000000
21927.991741,296.082377,-8808.450710,-2528.115143
21927.992074,7031.956449,-9474.636058,-76.609550
21927.992408,4145.153275,-4811.338623,1225.752797
21927.992741,3849.070898,-5995.668130,4596.572988
21927.993074,1850.514855,-8734.430116,5592.497135
21927.993407,962.267725,-7624.121203,4136.915689
21927.993740,-592.164754,-4367.215058,3677.258390
21927.994073,-666.185348,-5329.482782,-2374.896044
21927.994406,-3256.906145,-9252.574275,-3677.258390
21927.994740,-2220.617826,-8290.306550,-1915.238745
21927.995073,-5699.585753,-10214.842000,-3907.087040
21927.995406,-3552.988522,-14434.015869,995.924147
21927.995739,518.144159,-12509.480420,3370.820191
21927.996072,2516.700203,-13471.748144,6665.030833
21927.996405,3256.906145,-9548.656652,2757.943793
21927.996739,5255.462188,-12435.459826,3600.648841
21927.997072,2294.638420,-10214.842000,-2451.505594
21927.997405,3404.947333,-8142.265362,2374.896044
21927.997738,-2442.679609,-13027.624579,-3140.991542
21927.998071,1702.473667,-4811.338623,-6741.640382
21927.998404,-74.020594,-13027.624579,-4979.620737
21927.998737,0.000000,-9548.656652,-3983.696590
21927.999071,0.000000,-9844.739029,-459.657299
21927.999404,444.123565,-9992.780217,-1455.581446
21927.999737,2072.576638,-7476.080014,1838.629195
21928.000070,0.000000,-9548.656652,0.000000
21928.000403,5921.647536,-8734.430116,4519.963438
21928.000736,-1554.432478,-9474.636058,995.924147
21928.001070,1554.432478,-4811.338623,0.000000
21928.001403,-666.185348,-10362.883188,995.924147
21928.001736,-1036.288319,-7476.080014,-1225.752797
21928.002069,-3552.988522,-6143.709319,-3140.991542
21928.002402,-3775.050304,-7994.224174,-2145.067394
21928.002735,0.000000,-7476.080014,0.000000
21928.003068,0.000000,-5403.503377,1915.238745
21928.003402,1776.494261,-7920.203579,1838.629195
21928.003735,1776.494261,-9918.759623,3907.087040
21928.004068,6513.812290,-10658.965565,8733.488677
21928.004401,2294.638420,-14211.954086,6665.030833
21928.004734,4663.297435,-8068.244768,1225.752797
21928.005067,3256.906145,-12287.418637,2068.457845
21928.005401,4367.215058,-13027.624579,4213.525239
21928.005734,1184.329507,-5107.421000,-919.314598
21928.006067,-962.267725,-8882.471304,-2068.457845
21928.006400,-2294.638420,-6365.771101,-2911.162892
21928.006733,-3552.988522,-7105.977043,-1991.848295
21928.007066,-1554.432478,-8142.265362,536.266849
21928.007399,-2960.823768,-6587.832884,306.438199
21928.007733,-2294.638420,-9548.656652,2451.505594
21928.008066,2294.638420,-11843.295072,4213.525239
21928.008399,1184.329507,-8882.471304,536.266849
21928.008732,1110.308913,-12731.542202,1149.143247
21928.009065,-74.020594,-12435.459826,-995.924147
21928.009398,-666.185348,-9400.615463,-1608.800546
21928.009732,296.082377,-11177.109724,-459.657299
21928.010065,1554.432478,-6143.709319,-1149.143247
21928.010398,-74.020594,-10658.965565,-76.609550
21928.010731,0.000000,-5995.668130,-4903.011187
21928.011064,0.000000,-12065.356855,995.924147
21928.011397,-74.020594,-10658.965565,-383.047749
21928.011730,1776.494261,-7179.997637,2451.505594
21928.012064,-1332.370696,-13767.830521,1532.190996
21928.012397,3034.844362,-6143.709319,1915.238745
21928.012730,-2294.638420,-11177.109724,76.609550
21928.013063,2738.761985,-9474.636058,1072.533697
21928.013396,222.061783,-6809.894666,229.828649
21928.013729,-2368.659014,-10658.965565,-76.609550
21928.014063,-74.020594,-6587.832884,-76.609550
21928.014396,-2442.679609,-6587.832884,-6128.763984
21928.014729,1480.411884,-7624.121203,3983.696590
21928.015062,0.000000,-4367.215058,2451.505594
21928.015395,-222.061783,-8586.388927,459.657299
21928.015728,888.247130,-9474.636058,3524.039291
21928.016061,592.164754,-10584.944971,3140.991542
21928.016395,592.164754,-7179.997637,2451.505594
21928.016728,3478.967927,-14211.954086,2987.772442
21928.017061,2294.638420,-8956.491898,1838.629195
21928.017394,-3552.988522,-8364.327145,3677.258390
21928.017727,2294.638420,-10658.965565,-689.485948
21928.018060,-2368.659014,-7328.038826,-1225.752797
21928.018394,-814.226536,-9178.553681,-842.705048
21928.018727,1628.453072,-5255.462188,2451.505594
21928.019060,-962.267725,-6069.688724,-383.047749
21928.019393,0.000000,-7772.162391,0.000000
21928.019726,-666.185348,-11177.109724,612.876398
21928.020059,3701.029710,-10214.842000,-229.828649
21928.020392,3775.050304,-14211.954086,1915.238745
21928.020726,4663.297435,-13619.789333,4519.963438
21928.021059,3404.947333,-8068.244768,612.876398
21928.021392,740.205942,-11399.171507,4213.525239
21928.021725,5847.626942,-6513.812290,-2528.115143
21928.022058,-3552.988522,-8956.491898,-1225.752797
21928.022391,-592.164754,-7328.038826,-1302.362347
21928.022725,-2220.617826,-9918.759623,-2221.676944
21928.023058,-3997.112087,-9696.697840,-1915.238745
21928.023391,-2664.741391,-6809.894666,-1915.238745
21928.023724,-3034.844362,-9770.718434,-2374.896044
21928.024057,2220.617826,-6587.832884,612.876398
21928.024390,2294.638420,-12731.542202,2987.772442
21928.024723,3775.050304,-5921.647536,-536.266849
