#time,accel_x,accel_y,accel_z
22108.917584,6661.853478,-8068.244768,1762.019645
22108.917918,4589.276840,-9104.533087,-1302.362347
22108.918252,1184.329507,-9548.656652,-4136.915689
22108.918586,4663.297435,-10658.965565,-5592.497135
22108.918920,0.000000,-10140.821405,-2298.286494
22108.919254,5255.462188,-11843.295072,-2681.334243
22108.919588,6291.750507,-8364.327145,-1225.752797
22108.919922,9474.636058,-8364.327145,4290.134789
22108.920256,10807.006753,-8364.327145,5898.935335
22108.920590,11473.192101,-8068.244768,4596.572988
22108.920924,12879.583391,-7698.141797,4903.011187
22108.921259,12361.439231,-9326.594869,4519.963438
22108.921593,11177.109724,-7031.956449,-1838.629195
22108.921927,9104.533087,-11251.130318,-76.609550
22108.922261,8808.450710,-11843.295072,-4979.620737
22108.922595,2960.823768,-10732.986159,-3524.039291
22108.922929,2368.659014,-13397.727550,-3677.258390
22108.923263,740.205942,-12731.542202,-3753.867940
22108.923597,1184.329507,-10436.903782,0.000000
22108.923931,5551.544565,-9030.512492,5439.278036
22108.924265,8512.368333,-5921.647536,8503.660028
22108.924599,8290.306550,-3034.844362,10418.898773
22108.924933,12953.603985,-5625.565159,7890.783629
22108.925267,9622.677246,-5625.565159,4826.401637
22108.925601,7698.141797,-4811.338623,612.876398
22108.925935,7402.059420,-9104.533087,-2911.162892
22108.926269,6735.874072,-10362.883188,-7201.297681
22108.926603,4737.318029,-11029.068536,-8273.831378
22108.926938,5699.585753,-13249.686362,-7967.393179
22108.927272,6439.791695,-13619.789333,-6818.249932
22108.927606,5921.647536,-13101.645173,-1532.190996
22108.927940,9104.533087,-11843.295072,2451.505594
22108.928274,11769.274478,-9474.636058,6052.154434
22108.928608,13619.789333,-6513.812290,8810.098227
22108.928942,16210.510130,-5921.647536,9729.412825
22108.929276,15248.242405,-3627.009116,8580.269578
22108.929610,11843.295072,-5699.585753,7890.783629
22108.929944,10584.944971,-7698.141797,-1455.581446
22108.930278,4441.235652,-10140.821405,-4673.182538
22108.930612,2294.638420,-12731.542202,-7431.126331
22108.930946,-222.061783,-12287.418637,-8810.098227
22108.931280,370.102971,-11621.233289,-7277.907231
22108.931614,4663.297435,-10807.006753,-2528.115143
22108.931948,9030.512492,-7772.162391,2451.505594
22108.932283,12065.356855,-5403.503377,7354.516781
22108.932617,15322.262999,-7698.141797,9729.412825
22108.932951,15914.427753,-6809.894666,3600.648841
22108.933285,11251.130318,-6291.750507,3064.381992
22108.933619,11769.274478,-7105.977043,-1608.800546
22108.933953,8956.491898,-9326.594869,-3753.867940
22108.934287,5551.544565,-12657.521608,-4826.401637
22108.934621,4737.318029,-11547.212695,-3907.087040
22108.934955,5329.482782,-10732.986159,-2451.505594
22108.935289,5921.647536,-8364.327145,2451.505594
22108.935623,15026.180623,-5921.647536,1455.581446
22108.935957,14952.160028,-5107.421000,3753.867940
22108.936291,15396.283594,-5551.544565,5975.544884
22108.936625,13767.830521,-8364.327145,1225.752797
22108.936959,12805.562797,-10436.903782,689.485948
22108.937293,8216.285956,-12139.377449,-2528.115143
22108.937627,6513.812290,-11473.192101,-4366.744339
22108.937961,7328.038826,-11547.212695,-2834.553343
22108.938294,9474.636058,-9400.615463,-76.609550
22108.938628,13545.768739,-6809.894666,1455.581446
22108.938962,11177.109724,-6143.709319,2451.505594
22108.939295,8290.306550,-8956.491898,3064.381992
22108.939629,10658.965565,-9696.697840,4213.525239
22108.939963,11695.253884,-9474.636058,3907.087040
22108.940297,13323.706956,-7624.121203,4136.915689
22108.940630,13101.645173,-8068.244768,459.657299
22108.940964,11177.109724,-7550.100608,-2145.067394
22108.941298,11769.274478,-9474.636058,-2528.115143
22108.941631,9918.759623,-5995.668130,-4290.134789
22108.941965,6513.812290,-11325.150913,-2068.457845
22108.942299,8216.285956,-13323.706956,-76.609550
22108.942633,9622.677246,-8364.327145,2911.162892
22108.942966,10881.027347,-7846.182985,2681.334243
22108.943300,10436.903782,-7772.162391,3140.991542
22108.943634,9622.677246,-9252.574275,3524.039291
22108.943968,10510.924376,-7105.977043,2528.115143
22108.944301,12953.603985,-6513.812290,1762.019645
22108.944635,13175.665768,-6957.935855,-766.095498
22108.944969,8808.450710,-10066.800811,-1762.019645
22108.945302,8364.327145,-9844.739029,-4060.306139
22108.945636,8068.244768,-12731.542202,-2834.553343
22108.945970,7105.977043,-12213.398043,-76.609550
22108.946304,11769.274478,-8290.306550,-459.657299
22108.946637,8586.388927,-7698.141797,-842.705048
22108.946971,6513.812290,-10140.821405,612.876398
22108.947305,6809.894666,-9548.656652,1838.629195
22108.947639,12731.542202,-7698.141797,4290.134789
22108.947972,14878.139434,-8142.265362,7660.954980
22108.948306,13693.809927,-6439.791695,5132.839837
22108.948640,4737.318029,-7179.997637,-1838.629195
22108.948973,8216.285956,-11843.295072,-1302.362347
22108.949307,11769.274478,-8882.471304,-3140.991542
22108.949641,9474.636058,-8068.244768,0.000000
22108.949975,10288.862594,-9400.615463,-383.047749
22108.950308,5921.647536,-10436.903782,-2528.115143
22108.950642,6439.791695,-13027.624579,-2451.505594
22108.950976,12287.418637,-8660.409521,1838.629195
22108.951310,10658.965565,-9030.512492,1149.143247
22108.951643,10066.800811,-9474.636058,2757.943793
22108.951977,11177.109724,-10066.800811,2374.896044
22108.952311,11843.295072,-7179.997637,2757.943793
22108.952644,10955.047942,-7920.203579,6665.030833
22108.952978,9104.533087,-7994.224174,689.485948
22108.953312,7698.141797,-11695.253884,1149.143247
22108.953646,4589.276840,-8512.368333,0.000000
22108.953979,5847.626942,-9474.636058,-995.924147
22108.954313,5033.400406,-6439.791695,0.000000
22108.954647,5847.626942,-9474.636058,-2528.115143
22108.954980,4663.297435,-9326.594869,-2451.505594
22108.955314,1184.329507,-8216.285956,-1991.848295
22108.955648,3478.967927,-13027.624579,-1915.238745
22108.955982,2368.659014,-9548.656652,1225.752797
22108.956315,8660.409521,-9474.636058,4213.525239
22108.956649,5477.523971,-9030.512492,5132.839837
22108.956983,6957.935855,-5551.544565,1685.410096
22108.957317,8216.285956,-10066.800811,4596.572988
22108.957650,8216.285956,-7105.977043,2374.896044
22108.957984,2960.823768,-13693.809927,-1838.629195
22108.958318,2368.659014,-7698.141797,-5898.935335
22108.958651,-592.164754,-13767.830521,-2451.505594
22108.958985,1184.329507,-8364.327145,-2451.505594
22108.959319,2368.659014,-7179.997637,919.314598
22108.959653,1702.473667,-9474.636058,-1838.629195
22108.959986,3627.009116,-4811.338623,2451.505594
22108.960320,5033.400406,-9474.636058,4826.401637
22108.960654,7476.080014,-6365.771101,5132.839837
22108.960988,7994.224174,-6069.688724,3217.601092
22108.961321,6217.729913,-11251.130318,3753.867940
22108.961655,5329.482782,-6217.729913,383.047749
22108.961989,2220.617826,-14211.954086,-1685.410096
22108.962322,2368.659014,-7772.162391,-1302.362347
22108.962656,-74.020594,-9844.739029,-4903.011187
22108.962990,1332.370696,-7179.997637,-3677.258390
22108.963324,2886.803174,-10658.965565,-2528.115143
22108.963657,0.000000,-11029.068536,-2451.505594
22108.963991,6143.709319,-5329.482782,2374.896044
22108.964325,4663.297435,-10807.006753,5056.230287
22108.964658,7846.182985,-7402.059420,6665.030833
22108.964992,6439.791695,-9474.636058,2374.896044
22108.965326,7402.059420,-11399.171507,6052.154434
22108.965660,4663.297435,-7179.997637,306.438199
22108.965993,3849.070898,-7772.162391,919.314598
22108.966327,2886.803174,-11843.295072,-76.609550
22108.966661,-1554.432478,-11251.130318,-4979.620737
22108.966995,-2886.803174,-8882.471304,-6971.469032
22108.967328,-2442.679609,-13101.645173,-2451.505594
22108.967662,-1702.473667,-8512.368333,-2145.067394
22108.967996,-2368.659014,-7179.997637,612.876398
22108.968329,2886.803174,-9474.636058,4213.525239
22108.968663,1184.329507,-2442.679609,612.876398
22108.968997,4737.318029,-9992.780217,7890.783629
22108.969331,7031.956449,-6365.771101,4366.744339
22108.969664,1776.494261,-6587.832884,1532.190996
22108.969998,888.247130,-9252.574275,-1225.752797
22108.970332,0.000000,-12435.459826,-2987.772442
22108.970666,-1406.391290,-10584.944971,-4596.572988
22108.970999,-666.185348,-11843.295072,-3524.039291
22108.971333,-3627.009116,-11991.336260,-4903.011187
22108.971667,-5625.565159,-11769.274478,766.095498
22108.972000,-3034.844362,-11251.130318,-76.609550
22108.972334,0.000000,-7179.997637,8120.612279
22108.972668,3552.988522,-3923.091493,6818.249932
22108.973002,888.247130,-5551.544565,7967.393179
22108.973335,-148.041188,-4885.359217,3370.820191
22108.973669,0.000000,-8586.388927,919.314598
22108.974003,296.082377,-8142.265362,1915.238745
22108.974336,-1554.432478,-8660.409521,-3524.039291
22108.974670,-2294.638420,-9474.636058,-5975.544884
22108.975004,-5181.441594,-10288.862594,-5975.544884
22108.975338,-5403.503377,-14211.954086,-7584.345430
22108.975671,0.000000,-10732.986159,-612.876398
22108.976005,-666.185348,-13915.871710,-689.485948
22108.976339,2146.597232,-8660.409521,2451.505594
22108.976673,4737.318029,-6365.771101,8503.660028
22108.977006,4071.132681,-9474.636058,6052.154434
22108.977340,5329.482782,-2590.720797,9346.365076
22108.977674,1480.411884,-7179.997637,4903.011187
22108.978007,4219.173869,-4885.359217,-229.828649
22108.978341,-2960.823768,-10066.800811,-2757.943793
22108.978675,-74.020594,-9474.636058,-5592.497135
22108.979009,-1258.350101,-10658.965565,-7048.078582
22108.979342,0.000000,-12953.603985,-4903.011187
22108.979676,1110.308913,-15396.283594,-4366.744339
22108.980010,-2146.597232,-13767.830521,536.266849
22108.980344,4219.173869,-7846.182985,2987.772442
22108.980677,2146.597232,-11177.109724,6052.154434
22108.981011,6587.832884,-6439.791695,7890.783629
22108.981345,3256.906145,-6661.853478,4903.011187
22108.981678,-518.144159,-9326.594869,4366.744339
22108.982012,4071.132681,-1480.411884,-3677.258390
22108.982346,-888.247130,-14211.954086,-76.609550
22108.982680,-666.185348,-7105.977043,-2834.553343
22108.983013,-3923.091493,-7179.997637,-5822.325785
22108.983347,-3034.844362,-10066.800811,-6205.373534
22108.983681,0.000000,-10881.027347,-2987.772442
22108.984014,-1480.411884,-12509.480420,-1072.533697
22108.984348,1480.411884,-11843.295072,2911.162892
22108.984682,1184.329507,-10140.821405,1838.629195
22108.985016,2368.659014,-9696.697840,1225.752797
22108.985349,7772.162391,-11251.130318,6665.030833
22108.985683,4663.297435,-8734.430116,7431.126331
22108.986017,2072.576638,-3627.009116,4903.011187
22108.986351,-74.020594,-9474.636058,-76.609550
22108.986684,-4589.276840,-8290.306550,-4826.401637
22108.987018,-2368.659014,-6365.771101,-2221.676944
22108.987352,-3256.906145,-7846.182985,-3524.039291
22108.987685,-3404.947333,-8660.409521,-2145.067394
22108.988019,-4441.235652,-9622.677246,-2834.553343
22108.988353,1480.411884,-9992.780217,0.000000
22108.988687,-518.144159,-11473.192101,2298.286494
22108.989020,814.226536,-11843.295072,2374.896044
22108.989354,0.000000,-8882.471304,1149.143247
22108.989688,-2368.659014,-8660.409521,2451.505594
22108.990022,4663.297435,-6513.812290,4826.401637
22108.990355,1702.473667,-7105.977043,2987.772442
22108.990689,3478.967927,-6217.729913,-842.705048
22108.991023,-4145.153275,-12435.459826,-1608.800546
22108.991356,-1776.494261,-6883.915261,-4213.525239
22108.991690,-2368.659014,-11695.253884,-3600.648841
22108.992024,888.247130,-10955.047942,-76.609550
22108.992358,3256.906145,-10584.944971,1149.143247
22108.992691,-3552.988522,-11917.315666,1838.629195
22108.993025,3330.926739,-10658.965565,2987.772442
22108.993359,2294.638420,-7994.224174,3907.087040
22108.993692,3701.029710,-9104.533087,6128.763984
22108.994026,4663.297435,-4737.318029,3983.696590
22108.994360,-3923.091493,-10807.006753,-689.485948
22108.994694,1036.288319,-6365.771101,-995.924147
22108.995027,-3849.070898,-7476.080014,-2604.724693
22108.995361,-1998.556043,-9474.636058,-4366.744339
22108.995695,-2960.823768,-10658.965565,-4290.134789
22108.996029,-2664.741391,-9474.636058,-3753.867940
22108.996362,-74.020594,-11991.336260,229.828649
22108.996696,2368.659014,-4811.338623,2451.505594
22108.997030,3034.844362,-10510.924376,4366.744339
22108.997363,3701.029710,-8068.244768,3524.039291
22108.997697,2294.638420,-13471.748144,4060.306139
22108.998031,2812.782580,-6291.750507,3370.820191
22108.998365,1480.411884,-7476.080014,0.000000
22108.998698,2886.803174,-10658.965565,-689.485948
22108.999032,2146.597232,-13027.624579,-76.609550
22108.999366,-5921.647536,-8364.327145,-2451.505594
22108.999700,-1998.556043,-8882.471304,-689.485948
22109.000033,-6957.935855,-9548.656652,-3600.648841
22109.000367,2960.823768,-5773.606348,842.705048
22109.000701,1924.535449,-8660.409521,4903.011187
22109.001034,2812.782580,-6957.935855,3447.429741
22109.001368,1184.329507,-8364.327145,3294.210641
22109.001702,-74.020594,-14211.954086,536.266849
22109.002036,592.164754,-6587.832884,1532.190996
22109.002369,0.000000,-11325.150913,4060.306139
22109.002703,-74.020594,-8882.471304,-1915.238745
22109.003037,-4145.153275,-10140.821405,-2987.772442
22109.003371,-1554.432478,-9400.615463,-1378.971896
22109.003704,-3108.864956,-10584.944971,-1685.410096
22109.004038,74.020594,-7105.977043,2221.676944
22109.004372,0.000000,-5403.503377,3064.381992
22109.004705,444.123565,-10807.006753,1838.629195
22109.005039,3108.864956,-5107.421000,2451.505594
22109.005373,1702.473667,-12287.418637,-689.485948
22109.005707,5107.421000,-10807.006753,4673.182538
22109.006040,2368.659014,-6587.832884,4290.134789
22109.006374,3478.967927,-13027.624579,2221.676944
22109.006708,-1554.432478,-6291.750507,-3677.258390
22109.007041,-5329.482782,-12213.398043,-5898.935335
22109.007375,-814.226536,-11843.295072,-2528.115143
22109.007709,-3330.926739,-10214.842000,-1762.019645
22109.008043,-1998.556043,-8290.306550,-995.924147
22109.008376,-2738.761985,-6957.935855,1378.971896
22109.008710,-1776.494261,-7772.162391,612.876398
22109.009044,0.000000,-3034.844362,3064.381992
22109.009378,4663.297435,-8586.388927,1608.800546
22109.009711,2664.741391,-8956.491898,2451.505594
22109.010045,2368.659014,-8216.285956,1762.019645
22109.010379,0.000000,-11103.089130,-1378.971896
22109.010712,592.164754,-11769.274478,-536.266849
22109.011046,148.041188,-9844.739029,-4060.306139
22109.011380,-3256.906145,-16506.592507,-1302.362347
22109.011714,-74.020594,-8882.471304,1762.019645
22109.012047,-4441.235652,-9104.533087,-76.609550
22109.012381,3478.967927,-5329.482782,842.705048
22109.012715,-2220.617826,-9548.656652,4290.134789
22109.013049,5551.544565,-5773.606348,6052.154434
22109.013382,2516.700203,-9474.636058,4903.011187
22109.013716,1924.535449,-6439.791695,1608.800546
22109.014050,1628.453072,-8068.244768,-76.609550
22109.014383,-2220.617826,-10584.944971,-1378.971896
22109.014717,-666.185348,-9622.677246,-3600.648841
22109.015051,-2886.803174,-12731.542202,-2528.115143
22109.015385,-1776.494261,-9918.759623,-2145.067394
22109.015718,-4737.318029,-8364.327145,-2451.505594
22109.016052,-74.020594,-12435.459826,-76.609550
22109.016386,1110.308913,-7105.977043,1762.019645
22109.016719,2516.700203,-5995.668130,4366.744339
22109.017053,5699.585753,-5625.565159,7277.907231
22109.017387,1628.453072,-9104.533087,6511.811733
22109.017721,4737.318029,-2738.761985,1225.752797
22109.018054,-74.020594,-11843.295072,-2681.334243
22109.018388,0.000000,-8956.491898,-2681.334243
22109.018722,-666.185348,-14211.954086,-1915.238745
22109.019056,-1258.350101,-11843.295072,-4290.134789
22109.019389,-1554.432478,-11251.130318,-2221.676944
22109.019723,-2738.761985,-11325.150913,-2221.676944
22109.020057,-222.061783,-9252.574275,153.219100
22109.020390,-1184.329507,-8142.265362,0.000000
22109.020724,1184.329507,-8364.327145,3677.258390
22109.021058,2590.720797,-6957.935855,2911.162892
22109.021392,3108.864956,-7846.182985,5669.106685
22109.021725,4959.379811,-4663.297435,3983.696590
22109.022059,1850.514855,-9104.533087,3294.210641
22109.022393,0.000000,-5995.668130,-2451.505594
22109.022727,-3627.009116,-13027.624579,-5592.497135
22109.023060,-6217.729913,-11029.068536,-4903.011187
22109.023394,-2368.659014,-13027.624579,-1915.238745
22109.023728,-3627.009116,-11843.295072,-2528.115143
22109.024061,-4737.318029,-7179.997637,-1532.190996
22109.024395,-1406.391290,-7698.141797,-1225.752797
22109.024729,2886.803174,-8290.306550,5439.278036
22109.025063,5181.441594,-5107.421000,5898.935335
22109.025396,6143.709319,-9474.636058,7277.907231
22109.025730,5255.462188,-7105.977043,3140.991542
22109.026064,3552.988522,-9696.697840,0.000000
22109.026397,2220.617826,-14211.954086,2987.772442
22109.026731,-74.020594,-8068.244768,-2451.505594
22109.027065,-2368.659014,-11029.068536,-1762.019645
22109.027399,-740.205942,-8586.388927,-4213.525239
22109.027732,-4145.153275,-14582.057057,-3447.429741
22109.028066,-1480.411884,-8142.265362,-1225.752797
22109.028400,-1850.514855,-11843.295072,995.924147
22109.028734,-74.020594,-5995.668130,0.000000
22109.029067,2960.823768,-5329.482782,4826.401637
22109.029401,4663.297435,-8290.306550,4213.525239
22109.029735,2960.823768,-5995.668130,3064.381992
22109.030068,6735.874072,-8882.471304,4213.525239
22109.030402,3849.070898,-8808.450710,3370.820191
22109.030736,1554.432478,-10658.965565,-766.095498
22109.031070,-2516.700203,-12139.377449,-6665.030833
22109.031403,-6513.812290,-14285.974681,-5745.716235
22109.031737,-1776.494261,-7476.080014,-3677.258390
22109.032071,1110.308913,-10658.965565,1762.019645
22109.032405,370.102971,-7476.080014,-1838.629195
22109.032738,0.000000,-7179.997637,4290.134789
22109.033072,-74.020594,-9474.636058,-76.609550
22109.033406,5551.544565,-5847.626942,4213.525239
22109.033739,2368.659014,-10436.903782,5515.887586
22109.034073,4737.318029,-5181.441594,2451.505594
22109.034407,0.000000,-8660.409521,1225.752797
22109.034741,518.144159,-10732.986159,-3524.039291
22109.035074,1036.288319,-12139.377449,-3753.867940
22109.035408,-5551.544565,-13101.645173,-995.924147
22109.035742,1554.432478,-9474.636058,-1302.362347
22109.036075,-3627.009116,-14804.118840,-76.609550
22109.036409,-1258.350101,-7031.956449,-2451.505594
22109.036743,-4145.153275,-9548.656652,1838.629195
22109.037077,2294.638420,-7105.977043,3600.648841
22109.037410,1776.494261,-7476.080014,5209.449386
22109.037744,2664.741391,-4737.318029,5669.106685
22109.038077,3182.885551,-7328.038826,2528.115143
22109.038411,444.123565,-7920.203579,0.000000
22109.038744,296.082377,-9992.780217,-3140.991542
22109.039077,-3256.906145,-12805.562797,-2068.457845
22109.039411,-4737.318029,-9548.656652,-3370.820191
22109.039744,-2442.679609,-14211.954086,-3907.087040
22109.040078,-2442.679609,-14211.954086,-1915.238745
22109.040411,-74.020594,-8438.347739,1149.143247
22109.040745,6439.791695,-8290.306550,3600.648841
22109.041078,2960.823768,-7476.080014,9806.022374
22109.041412,3404.947333,-4737.318029,4136.915689
22109.041745,148.041188,-10362.883188,3753.867940
22109.042079,2294.638420,-4737.318029,1149.143247
22109.042412,2368.659014,-8142.265362,2298.286494
22109.042746,4071.132681,-9474.636058,-689.485948
22109.043079,-2960.823768,-9548.656652,-3677.258390
22109.043413,-7105.977043,-11917.315666,-5515.887586
22109.043746,-4811.338623,-11621.233289,-5822.325785
22109.044080,-3404.947333,-11991.336260,-3600.648841
22109.044413,0.000000,-9178.553681,-919.314598
22109.044746,3330.926739,-7846.182985,3524.039291
22109.045080,1628.453072,-5403.503377,4136.915689
22109.045413,6513.812290,-7105.977043,8503.660028
22109.045747,1332.370696,-7105.977043,3830.477490
22109.046080,5921.647536,-6291.750507,3600.648841
22109.046414,5847.626942,-9178.553681,3600.648841
22109.046747,592.164754,-9844.739029,-1838.629195
22109.047081,740.205942,-8956.491898,-3753.867940
22109.047414,-3404.947333,-13471.748144,-5822.325785
22109.047748,888.247130,-12731.542202,-4979.620737
22109.048081,-4145.153275,-13693.809927,0.000000
22109.048415,-74.020594,-10658.965565,-689.485948
22109.048748,296.082377,-6291.750507,2451.505594
22109.049082,0.000000,-7179.997637,9193.145976
22109.049415,5847.626942,-4737.318029,4826.401637
22109.049749,0.000000,-9844.739029,5822.325785
22109.050082,3478.967927,-5699.585753,3907.087040
22109.050415,-2960.823768,-8068.244768,229.828649
22109.050749,-74.020594,-6661.853478,-1991.848295
22109.051082,-3256.906145,-8956.491898,-3677.258390
22109.051416,-4293.194464,-12435.459826,-4826.401637
22109.051749,148.041188,-8808.450710,-3217.601092
22109.052083,-4145.153275,-14582.057057,-3983.696590
22109.052416,-2146.597232,-10658.965565,-2528.115143
22109.052750,0.000000,-9844.739029,0.000000
22109.053083,1776.494261,-13027.624579,9729.412825
22109.053417,9400.615463,-2368.659014,6052.154434
22109.053750,592.164754,-10732.986159,9193.145976
22109.054084,8216.285956,-5329.482782,7277.907231
22109.054417,-5329.482782,-11325.150913,2757.943793
22109.054751,-2220.617826,-2590.720797,-2068.457845
22109.055084,-4885.359217,-11251.130318,-3907.087040
22109.055418,-5329.482782,-8364.327145,-7354.516781
22109.055751,-4145.153275,-7772.162391,-3677.258390
22109.056084,-3034.844362,-13619.789333,-4060.306139
22109.056418,-2294.638420,-6513.812290,-3907.087040
22109.056751,-3552.988522,-11029.068536,2451.505594
22109.057085,3182.885551,-7698.141797,2987.772442
22109.057418,5625.565159,-4515.256246,4903.011187
22109.057752,2072.576638,-11769.274478,3370.820191
22109.058085,5995.668130,-6513.812290,3753.867940
22109.058419,3330.926739,-11103.089130,6128.763984
22109.058752,2368.659014,-7179.997637,2451.505594
22109.059086,2294.638420,-10658.965565,-1302.362347
22109.059419,-1480.411884,-8068.244768,-3064.381992
22109.059753,-4145.153275,-9844.739029,-1532.190996
22109.060086,-2220.617826,-7328.038826,-3064.381992
22109.060420,148.041188,-7920.203579,-2681.334243
22109.060753,-370.102971,-11917.315666,-766.095498
22109.061087,2442.679609,-7476.080014,1302.362347
22109.061420,2294.638420,-9474.636058,842.705048
22109.061753,2960.823768,-11695.253884,5132.839837
22109.062087,2886.803174,-7105.977043,1762.019645
22109.062420,2368.659014,-8956.491898,4903.011187
22109.062754,3478.967927,-10658.965565,2374.896044
22109.063087,-666.185348,-9474.636058,-2221.676944
22109.063421,-2590.720797,-11029.068536,-3370.820191
22109.063754,-1776.494261,-8956.491898,-3217.601092
22109.064088,-1184.329507,-7772.162391,-1072.533697
22109.064421,-2072.576638,-7772.162391,0.000000
22109.064755,-74.020594,-11251.130318,-1302.362347
22109.065088,0.000000,-7772.162391,2834.553343
22109.065422,2368.659014,-10140.821405,4826.401637
22109.065755,5847.626942,-7920.203579,2145.067394
22109.066089,2886.803174,-9178.553681,5132.839837
22109.066422,2590.720797,-8882.471304,612.876398
22109.066756,148.041188,-11473.192101,2834.553343
22109.067089,-3256.906145,-8068.244768,-4596.572988
22109.067422,-2368.659014,-9548.656652,-2451.505594
22109.067756,-3923.091493,-9770.718434,-1302.362347
22109.068089,-5107.421000,-6291.750507,-3600.648841
22109.068423,-6217.729913,-8660.409521,-3140.991542
22109.068756,-370.102971,-9030.512492,-1532.190996
22109.069090,0.000000,-7179.997637,2451.505594
22109.069423,2590.720797,-7105.977043,2374.896044
22109.069757,1998.556043,-7179.997637,2451.505594
22109.070090,4071.132681,-8290.306550,3294.210641
22109.070424,5847.626942,-12435.459826,4213.525239
22109.070757,2590.720797,-8512.368333,1838.629195
22109.071091,740.205942,-12139.377449,-1991.848295
22109.071424,-1184.329507,-11251.130318,-2834.553343
22109.071758,-2960.823768,-10881.027347,-1685.410096
22109.072091,-2368.659014,-9252.574275,-2145.067394
22109.072425,-1258.350101,-11251.130318,229.828649
22109.072758,-2220.617826,-4219.173869,0.000000
22109.073091,2960.823768,-5107.421000,3600.648841
22109.073425,518.144159,-7105.977043,2068.457845
22109.073758,2368.659014,-5995.668130,3907.087040
22109.074092,2738.761985,-9252.574275,2604.724693
22109.074425,2738.761985,-9622.677246,1455.581446
22109.074759,1702.473667,-9474.636058,-2221.676944
22109.075092,1702.473667,-14211.954086,-76.609550
22109.075426,-74.020594,-11843.295072,-5286.058936
22109.075759,-2368.659014,-11029.068536,-1838.629195
22109.076093,0.000000,-10732.986159,1455.581446
22109.076426,-1036.288319,-10658.965565,-76.609550
22109.076760,1110.308913,-6809.894666,-995.924147
22109.077093,0.000000,-10881.027347,3600.648841
22109.077427,3256.906145,-5847.626942,5515.887586
22109.077760,3997.112087,-6809.894666,4979.620737
22109.078094,4145.153275,-5699.585753,4290.134789
22109.078427,3552.988522,-5995.668130,0.000000
22109.078760,0.000000,-12139.377449,3907.087040
22109.079094,1702.473667,-9178.553681,-4673.182538
22109.079427,-5107.421000,-16210.510130,-6128.763984
22109.079761,-1258.350101,-9474.636058,-6205.373534
22109.080094,-6143.709319,-12287.418637,-5286.058936
22109.080428,-666.185348,-8586.388927,-383.047749
22109.080761,-3552.988522,-9548.656652,1608.800546
22109.081095,-1258.350101,-6735.874072,4443.353888
22109.081428,1480.411884,-3330.926739,6511.811733
22109.081762,2220.617826,-5921.647536,4213.525239
22109.082095,4589.276840,-7772.162391,4596.572988
22109.082429,3552.988522,-7994.224174,7277.907231
22109.082762,3478.967927,-9474.636058,-689.485948
22109.083096,592.164754,-9548.656652,-1838.629195
22109.083429,-666.185348,-14211.954086,-3753.867940
22109.083763,-1258.350101,-12287.418637,-5822.325785
22109.084096,-4441.235652,-14211.954086,-3677.258390
22109.084429,-666.185348,-11251.130318,-2911.162892
22109.084763,-3108.864956,-12361.439231,1302.362347
22109.085096,2368.659014,-5921.647536,5132.839837
22109.085430,1998.556043,-5329.482782,4213.525239
22109.085763,1776.494261,-5403.503377,6128.763984
22109.086097,1258.350101,-3627.009116,2451.505594
22109.086430,1480.411884,-8290.306550,5745.716235
22109.086764,3182.885551,-4737.318029,2374.896044
22109.087097,518.144159,-7994.224174,-1302.362347
22109.087431,-1258.350101,-11251.130318,-4979.620737
22109.087764,-4145.153275,-12953.603985,-7890.783629
22109.088098,-3330.926739,-15026.180623,-6128.763984
22109.088431,-740.205942,-11843.295072,-3447.429741
22109.088765,-74.020594,-14211.954086,-76.609550
22109.089098,1776.494261,-11325.150913,6128.763984
22109.089431,5033.400406,-5329.482782,6052.154434
22109.089765,4071.132681,-8142.265362,5209.449386
22109.090098,5329.482782,-3627.009116,8580.269578
22109.090432,2886.803174,-5995.668130,2757.943793
22109.090765,2294.638420,-8586.388927,2834.553343
22109.091099,3552.988522,-6439.791695,-995.924147
22109.091432,-2294.638420,-15322.262999,-3830.477490
22109.091766,814.226536,-5773.606348,-2068.457845
22109.092099,-4441.235652,-15396.283594,-4979.620737
22109.092433,-1258.350101,-14211.954086,-2528.115143
22109.092766,-7105.977043,-7179.997637,-4903.011187
22109.093100,-74.020594,-11695.253884,919.314598
22109.093433,592.164754,-5699.585753,7354.516781
22109.093767,592.164754,-5403.503377,3370.820191
22109.094100,1110.308913,-7846.182985,5515.887586
22109.094434,1332.370696,-5181.441594,3677.258390
22109.094767,2368.659014,-5403.503377,0.000000
22109.095100,5847.626942,-10658.965565,4826.401637
22109.095434,0.000000,-8364.327145,-2145.067394
22109.095767,-3552.988522,-9548.656652,-3064.381992
22109.096101,-1258.350101,-17172.777854,-3140.991542
22109.096434,0.000000,-9548.656652,-4903.011187
22109.096768,-4219.173869,-14137.933492,-1378.971896
22109.097101,518.144159,-9252.574275,1685.410096
22109.097435,-370.102971,-7624.121203,3370.820191
22109.097768,666.185348,-4811.338623,5515.887586
22109.098102,2590.720797,-6957.935855,3447.429741
22109.098435,1332.370696,-5255.462188,5056.230287
22109.098769,-444.123565,-6291.750507,2451.505594
22109.099102,-1258.350101,-7698.141797,-2528.115143
22109.099436,-4145.153275,-9548.656652,-2145.067394
22109.099769,-4515.256246,-10658.965565,-2528.115143
22109.100103,-666.185348,-5995.668130,-6128.763984
22109.100436,-3552.988522,-13397.727550,-2451.505594
22109.100769,-74.020594,-11251.130318,-1915.238745
22109.101103,0.000000,-11769.274478,995.924147
22109.101436,2368.659014,-10732.986159,3370.820191
22109.101770,4145.153275,-8586.388927,3064.381992
22109.102103,592.164754,-9548.656652,3677.258390
22109.102437,3552.988522,-4811.338623,3983.696590
22109.102770,4071.132681,-9474.636058,3294.210641
22109.103104,3182.885551,-5625.565159,1455.581446
22109.103437,-2960.823768,-7920.203579,-612.876398
22109.103771,-962.267725,-10658.965565,-1608.800546
22109.104104,-2664.741391,-9696.697840,-1378.971896
22109.104438,-2146.597232,-10732.986159,-2681.334243
22109.104771,-1110.308913,-8586.388927,-1838.629195
22109.105105,-3256.906145,-12065.356855,-1225.752797
22109.105438,2516.700203,-5181.441594,1072.533697
22109.105772,4071.132681,-10658.965565,4213.525239
22109.106105,2960.823768,-7920.203579,4596.572988
22109.106438,3552.988522,-8660.409521,5439.278036
22109.106772,1776.494261,-13767.830521,1838.629195
22109.107105,740.205942,-8068.244768,842.705048
22109.107439,-2146.597232,-8586.388927,-1991.848295
22109.107772,3182.885551,-10288.862594,-1762.019645
22109.108106,2146.597232,-9104.533087,306.438199
22109.108439,-888.247130,-11843.295072,1608.800546
22109.108773,0.000000,-4811.338623,-2451.505594
22109.109106,-3108.864956,-9548.656652,-1225.752797
22109.109440,2886.803174,-11547.212695,2451.505594
22109.109773,3182.885551,-5329.482782,3600.648841
22109.110107,1480.411884,-7920.203579,2911.162892
22109.110440,1628.453072,-9030.512492,2451.505594
22109.110774,2294.638420,-7698.141797,1149.143247
22109.111107,0.000000,-10288.862594,766.095498
22109.111441,-1258.350101,-9474.636058,-5439.278036
22109.111774,-2368.659014,-10140.821405,-4749.792088
22109.112107,-74.020594,-14211.954086,-76.609550
22109.112441,-3034.844362,-7179.997637,-3677.258390
22109.112774,-2368.659014,-6735.874072,0.000000
22109.113108,-1332.370696,-8586.388927,2374.896044
22109.113441,2886.803174,-5625.565159,2221.676944
22109.113775,444.123565,-9548.656652,2528.115143
22109.114108,2590.720797,-10066.800811,3140.991542
22109.114442,2368.659014,-7920.203579,0.000000
22109.114775,3108.864956,-10658.965565,4673.182538
22109.115109,3552.988522,-9992.780217,2987.772442
22109.115442,148.041188,-11621.233289,612.876398
22109.115776,-1776.494261,-8808.450710,-2757.943793
22109.116109,-5403.503377,-10140.821405,-5515.887586
22109.116443,-3552.988522,-9548.656652,1378.971896
22109.116776,-2442.679609,-9474.636058,-689.485948
22109.117110,-4737.318029,-6661.853478,-1225.752797
22109.117443,1924.535449,-8290.306550,2374.896044
22109.117776,-592.164754,-7772.162391,3524.039291
22109.118110,3330.926739,-4071.132681,2374.896044
22109.118443,4145.153275,-8364.327145,4366.744339
22109.118777,-962.267725,-9770.718434,-229.828649
22109.119110,1480.411884,-6291.750507,0.000000
22109.119444,-1554.432478,-16580.613101,-76.609550
22109.119777,-74.020594,-8068.244768,-4903.011187
22109.120111,-4441.235652,-11473.192101,-3677.258390
22109.120444,2294.638420,-9474.636058,-2528.115143
22109.120778,2368.659014,-10066.800811,689.485948
22109.121111,74.020594,-10140.821405,5362.668486
22109.121445,4367.215058,-5403.503377,3294.210641
22109.121778,592.164754,-8660.409521,4903.011187
22109.122112,1184.329507,-1850.514855,4903.011187
22109.122445,4071.132681,-7994.224174,306.438199
22109.122779,3552.988522,-6587.832884,2451.505594
22109.123112,-74.020594,-12435.459826,-689.485948
22109.123445,-2590.720797,-11917.315666,-3677.258390
22109.123779,-1406.391290,-9030.512492,-3753.867940
22109.124112,-7328.038826,-14878.139434,-5822.325785
22109.124446,-2738.761985,-7920.203579,-4903.011187
22109.124779,-2442.679609,-11843.295072,-995.924147
22109.125113,0.000000,-8512.368333,6052.154434
22109.125446,4663.297435,-2960.823768,5439.278036
22109.125780,592.164754,-5995.668130,7507.735880
22109.126113,4737.318029,-3034.844362,3294.210641
22109.126447,2368.659014,-10732.986159,3983.696590
22109.126780,3997.112087,-7254.018232,0.000000
22109.127114,2072.576638,-11029.068536,-1991.848295
22109.127447,1258.350101,-12953.603985,-3677.258390
22109.127781,-3034.844362,-13471.748144,-5515.887586
22109.128114,1110.308913,-13619.789333,-2528.115143
22109.128448,-2960.823768,-8364.327145,-3447.429741
22109.128781,-3552.988522,-11325.150913,-229.828649
22109.129114,1110.308913,-6217.729913,1149.143247
22109.129448,0.000000,-7772.162391,7660.954980
22109.129781,4515.256246,-592.164754,5975.544884
22109.130115,1184.329507,-6809.894666,5362.668486
22109.130448,444.123565,-8438.347739,3370.820191
22109.130782,2072.576638,-4145.153275,76.609550
22109.131115,2294.638420,-10658.965565,-1762.019645
22109.131449,-444.123565,-12583.501014,-1302.362347
22109.131782,-3923.091493,-9474.636058,-6818.249932
22109.132116,-1554.432478,-14804.118840,-3524.039291
22109.132449,-3034.844362,-14211.954086,-689.485948
22109.132783,0.000000,-8660.409521,-383.047749
22109.133116,-1850.514855,-11695.253884,-229.828649
22109.133450,4145.153275,-2442.679609,306.438199
22109.133783,0.000000,-11325.150913,8886.707777
22109.134117,7031.956449,666.185348,8580.269578
22109.134450,2146.597232,-9474.636058,4596.572988
22109.134783,3182.885551,-5921.647536,2987.772442
22109.135117,3923.091493,-6069.688724,-1378.971896
22109.135450,-4145.153275,-11325.150913,-3370.820191
22109.135784,2294.638420,-8290.306550,-5592.497135
22109.136117,-6143.709319,-14285.974681,-8580.269578
22109.136451,-3552.988522,-13693.809927,-1762.019645
22109.136784,-2442.679609,-11547.212695,-3140.991542
22109.137118,-4145.153275,-12805.562797,-306.438199
22109.137451,814.226536,-5403.503377,1685.410096
22109.137785,2886.803174,-6661.853478,6588.421283
22109.138118,4219.173869,-2738.761985,6435.202183
22109.138452,2960.823768,-7179.997637,7967.393179
22109.138785,4071.132681,-7105.977043,2374.896044
22109.139119,1776.494261,-10436.903782,3064.381992
22109.139452,2368.659014,-9104.533087,1149.143247
22109.139786,-1258.350101,-7550.100608,-6052.154434
22109.140119,-1628.453072,-11843.295072,-7124.688131
22109.140452,-4737.318029,-15470.304188,-6052.154434
22109.140786,-1110.308913,-8438.347739,-7814.174080
22109.141119,-4811.338623,-15914.427753,-2374.896044
22109.141453,1998.556043,-7698.141797,536.266849
22109.141786,1480.411884,-5995.668130,4903.011187
22109.142120,2886.803174,-7402.059420,6511.811733
22109.142453,6143.709319,-4145.153275,7277.907231
22109.142786,0.000000,-9548.656652,1225.752797
22109.143120,3034.844362,-4811.338623,3064.381992
22109.143453,-74.020594,-10658.965565,2374.896044
22109.143787,-370.102971,-7550.100608,-2298.286494
22109.144120,-740.205942,-10140.821405,-2221.676944
22109.144454,-4441.235652,-9548.656652,-5592.497135
22109.144787,-1406.391290,-12731.542202,-1838.629195
22109.145120,-5699.585753,-11769.274478,-3830.477490
22109.145454,-962.267725,-8216.285956,-2221.676944
22109.145787,-1258.350101,-13471.748144,4519.963438
22109.146121,4663.297435,-666.185348,0.000000
22109.146454,1480.411884,-7476.080014,6435.202183
22109.146787,8290.306550,-7328.038826,8503.660028
22109.147121,4367.215058,-9622.677246,3524.039291
22109.147454,2368.659014,-7179.997637,3064.381992
22109.147788,1998.556043,-11103.089130,-3447.429741
22109.148121,-2516.700203,-15470.304188,-1991.848295
22109.148455,2368.659014,-6661.853478,-2604.724693
22109.148788,-666.185348,-13027.624579,-1302.362347
22109.149121,-1628.453072,-7772.162391,-1532.190996
22109.149455,-2442.679609,-10436.903782,-3370.820191
22109.149788,0.000000,-6883.915261,3064.381992
22109.150122,2368.659014,-5995.668130,4673.182538
22109.150455,3478.967927,-10066.800811,4826.401637
22109.150789,3552.988522,-6217.729913,3294.210641
22109.151122,-2072.576638,-11029.068536,2221.676944
22109.151455,1184.329507,-5847.626942,-2451.505594
22109.151789,-5995.668130,-16580.613101,-2528.115143
22109.152122,2886.803174,-5921.647536,-76.609550
22109.152456,-2368.659014,-11029.068536,0.000000
22109.152789,592.164754,-7920.203579,-2528.115143
22109.153123,-370.102971,-11621.233289,-2221.676944
22109.153456,-2368.659014,-7179.997637,0.000000
22109.153789,5847.626942,-9104.533087,3677.258390
22109.154123,2960.823768,-7698.141797,4213.525239
22109.154456,3849.070898,-10140.821405,1991.848295
22109.154790,1554.432478,-8216.285956,2757.943793
22109.155123,3775.050304,-9326.594869,-689.485948
22109.155456,0.000000,-13915.871710,2374.896044
22109.155790,-74.020594,-11177.109724,3600.648841
22109.156123,-2738.761985,-5699.585753,-4290.134789
22109.156457,-2368.659014,-11769.274478,919.314598
22109.156790,-3256.906145,-5995.668130,-1838.629195
22109.157124,-4663.297435,-8364.327145,-2374.896044
22109.157457,-740.205942,-8586.388927,2145.067394
22109.157790,-1924.535449,-6883.915261,306.438199
22109.158124,-2368.659014,-8364.327145,0.000000
22109.158457,2146.597232,-11251.130318,2374.896044
22109.158791,1554.432478,-6587.832884,-1225.752797
22109.159124,0.000000,-9548.656652,3064.381992
22109.159458,5329.482782,-10584.944971,5669.106685
22109.159791,-3552.988522,-11325.150913,-612.876398
22109.160124,-1258.350101,-10362.883188,-2451.505594
22109.160458,-2368.659014,-9918.759623,-2221.676944
22109.160791,444.123565,-8660.409521,-2757.943793
22109.161125,1776.494261,-9548.656652,2451.505594
22109.161458,-74.020594,-8586.388927,4213.525239
22109.161792,962.267725,-7846.182985,1762.019645
22109.162125,1628.453072,-8808.450710,4826.401637
22109.162458,1998.556043,-9178.553681,1762.019645
22109.162792,5551.544565,-2442.679609,1838.629195
22109.163125,1332.370696,-10362.883188,4826.401637
22109.163459,-74.020594,-8586.388927,-3677.258390
22109.163792,-3552.988522,-12509.480420,-1762.019645
22109.164125,-2960.823768,-10732.986159,-2604.724693
22109.164459,-3701.029710,-11473.192101,-4749.792088
22109.164792,-3256.906145,-9400.615463,-2757.943793
22109.165126,1258.350101,-8586.388927,-612.876398
22109.165459,-1998.556043,-4811.338623,0.000000
22109.165793,1702.473667,-4811.338623,4903.011187
22109.166126,6439.791695,-4737.318029,4519.963438
22109.166459,3478.967927,-6587.832884,383.047749
22109.166793,3849.070898,-10140.821405,2681.334243
22109.167126,4219.173869,-11251.130318,-383.047749
22109.167460,0.000000,-12657.521608,-76.609550
22109.167793,3552.988522,-9104.533087,-2987.772442
22109.168127,370.102971,-15840.407159,-2298.286494
22109.168460,-3404.947333,-10732.986159,-2757.943793
22109.168793,-2738.761985,-9844.739029,-2451.505594
22109.169127,-1258.350101,-11843.295072,-76.609550
22109.169460,-1258.350101,-7179.997637,0.000000
22109.169794,-2368.659014,-4811.338623,6128.763984
22109.170127,2960.823768,-3330.926739,3983.696590
22109.170461,1110.308913,-7105.977043,4673.182538
22109.170794,592.164754,-6439.791695,1302.362347
22109.171127,-592.164754,-9326.594869,229.828649
22109.171461,1110.308913,-10955.047942,-76.609550
22109.171794,-2368.659014,-9844.739029,-2987.772442
22109.172128,-1554.432478,-13619.789333,-4366.744339
22109.172461,-3330.926739,-10140.821405,-4290.134789
22109.172794,-888.247130,-11547.212695,-1838.629195
22109.173128,-370.102971,-14211.954086,2068.457845
22109.173461,1406.391290,-6217.729913,919.314598
22109.173795,222.061783,-12731.542202,5132.839837
22109.174128,1702.473667,-5847.626942,8044.002729
22109.174462,888.247130,-2442.679609,3677.258390
22109.174795,4367.215058,-7105.977043,4826.401637
22109.175128,0.000000,-5995.668130,2451.505594
22109.175462,1184.329507,-7772.162391,3907.087040
22109.175795,-74.020594,-10658.965565,-2834.553343
22109.176129,-2442.679609,-10955.047942,-5286.058936
22109.176462,-3108.864956,-13323.706956,-5975.544884
22109.176796,-3404.947333,-13027.624579,-4213.525239
22109.177129,-666.185348,-9474.636058,-2528.115143
22109.177462,-4145.153275,-9548.656652,-2451.505594
22109.177796,4071.132681,-9474.636058,4519.963438
22109.178129,3849.070898,-3997.112087,5592.497135
22109.178463,5033.400406,-7328.038826,6971.469032
22109.178796,5107.421000,-7698.141797,6052.154434
22109.179130,1480.411884,-6217.729913,4979.620737
22109.179463,3108.864956,-4293.194464,3294.210641
22109.179796,2294.638420,-9918.759623,-6588.421283
22109.180130,-1184.329507,-12657.521608,-3753.867940
22109.180463,-2368.659014,-12361.439231,-6741.640382
22109.180797,-2146.597232,-12213.398043,-6128.763984
22109.181130,-1850.514855,-11843.295072,-5592.497135
22109.181463,-518.144159,-13249.686362,1225.752797
22109.181797,2812.782580,-6217.729913,5209.449386
22109.182130,4737.318029,-5403.503377,6128.763984
22109.182464,5551.544565,-6513.812290,7890.783629
22109.182797,2368.659014,-3923.091493,3294.210641
22109.183131,0.000000,-8512.368333,5515.887586
22109.183464,1998.556043,-8290.306550,-76.609550
22109.183797,-1776.494261,-10140.821405,-2451.505594
22109.184131,-2960.823768,-11843.295072,-3294.210641
22109.184464,-2664.741391,-9400.615463,-6205.373534
22109.184798,-5181.441594,-14063.912898,-5286.058936
22109.185131,-74.020594,-11103.089130,-1838.629195
22109.185465,-74.020594,-11843.295072,-1302.362347
22109.185798,0.000000,-7772.162391,3830.477490
22109.186131,2960.823768,-6883.915261,8656.879127
22109.186465,2294.638420,-7698.141797,6052.154434
22109.186798,5033.400406,-6069.688724,4673.182538
22109.187132,370.102971,-11843.295072,5132.839837
22109.187465,1332.370696,-6439.791695,2451.505594
22109.187799,222.061783,-8290.306550,-229.828649
22109.188132,-666.185348,-9474.636058,-1915.238745
22109.188465,-4737.318029,-9548.656652,-5822.325785
22109.188799,-5921.647536,-8364.327145,-2528.115143
22109.189132,-1258.350101,-10658.965565,-3753.867940
22109.189466,-4811.338623,-15470.304188,-4213.525239
22109.189799,3552.988522,-7105.977043,4826.401637
22109.190132,-2442.679609,-10658.965565,2298.286494
22109.190466,6143.709319,-2590.720797,4826.401637
22109.190799,-148.041188,-8586.388927,3524.039291
22109.191133,4811.338623,-5921.647536,1455.581446
22109.191466,2368.659014,-9104.533087,2834.553343
22109.191800,-3478.967927,-12287.418637,-2911.162892
22109.192133,370.102971,-9918.759623,-2528.115143
22109.192466,-3849.070898,-11029.068536,-1838.629195
22109.192800,2960.823768,-11695.253884,-76.609550
22109.193133,-1554.432478,-7772.162391,-2145.067394
22109.193467,0.000000,-8808.450710,0.000000
22109.193800,-1184.329507,-10362.883188,1762.019645
22109.194134,3552.988522,-5995.668130,4903.011187
22109.194467,3552.988522,-5847.626942,5745.716235
22109.194800,3552.988522,-6809.894666,1762.019645
22109.195134,2664.741391,-9548.656652,0.000000
22109.195467,1702.473667,-11843.295072,-1302.362347
22109.195801,0.000000,-13841.851115,-3677.258390
22109.196134,1110.308913,-8364.327145,-3524.039291
22109.196468,592.164754,-11769.274478,-689.485948
22109.196801,3849.070898,-11473.192101,3294.210641
22109.197134,1702.473667,-9326.594869,3294.210641
22109.197468,-814.226536,-8586.388927,-383.047749
22109.197801,1110.308913,-9696.697840,3140.991542
22109.198135,888.247130,-5847.626942,3447.429741
22109.198468,1184.329507,-7476.080014,2528.115143
22109.198801,2368.659014,-6143.709319,3600.648841
22109.199135,0.000000,-9548.656652,0.000000
22109.199468,3478.967927,-7698.141797,-1302.362347
22109.199802,666.185348,-14285.974681,1225.752797
22109.200135,-4145.153275,-10066.800811,-3983.696590
22109.200469,-74.020594,-10362.883188,-3753.867940
22109.200802,-3256.906145,-13545.768739,-1378.971896
22109.201135,2146.597232,-8734.430116,1378.971896
22109.201469,-518.144159,-8438.347739,919.314598
22109.201802,4071.132681,-9474.636058,3600.648841
22109.202136,-2368.659014,-7476.080014,3600.648841
22109.202469,888.247130,-8290.306550,6052.154434
22109.202803,2886.803174,-4737.318029,0.000000
22109.203136,2368.659014,-10732.986159,2451.505594
22109.203469,3404.947333,-11029.068536,3064.381992
22109.203803,-74.020594,-9992.780217,919.314598
22109.204136,-296.082377,-9548.656652,-3830.477490
22109.204470,-4219.173869,-11473.192101,-3524.039291
22109.204803,-4737.318029,-10732.986159,-4903.011187
22109.205137,1332.370696,-8882.471304,-76.609550
22109.205470,-4219.173869,-11251.130318,-1532.190996
22109.205803,-1702.473667,-5995.668130,0.000000
22109.206137,0.000000,-6883.915261,5669.106685
22109.206470,1480.411884,-4811.338623,4290.134789
22109.206804,0.000000,-7328.038826,1608.800546
22109.207137,1924.535449,-5625.565159,3140.991542
22109.207470,2294.638420,-9474.636058,1378.971896
22109.207804,5551.544565,-3627.009116,-1225.752797
22109.208137,222.061783,-16210.510130,-1378.971896
22109.208471,-222.061783,-10288.862594,-3600.648841
22109.208804,-2294.638420,-12139.377449,-6358.592633
22109.209138,-666.185348,-17764.942608,-2528.115143
22109.209471,-222.061783,-9548.656652,-2451.505594
22109.209804,-2368.659014,-9252.574275,0.000000
22109.210138,7105.977043,-5181.441594,6665.030833
22109.210471,4071.132681,-7105.977043,6971.469032
22109.210805,5921.647536,-2442.679609,8120.612279
22109.211138,2516.700203,-7328.038826,6128.763984
22109.211472,1332.370696,-6883.915261,-536.266849
22109.211805,-148.041188,-11103.089130,-1915.238745
22109.212138,-1850.514855,-11843.295072,-4213.525239
22109.212472,-74.020594,-8660.409521,-8503.660028
22109.212805,-5625.565159,-15396.283594,-4979.620737
22109.213139,-74.020594,-13619.789333,-3753.867940
22109.213472,-4737.318029,-9548.656652,-2451.505594
22109.213806,1998.556043,-11251.130318,3600.648841
22109.214139,592.164754,-5699.585753,4443.353888
22109.214472,2516.700203,-6069.688724,6052.154434
22109.214806,6587.832884,-4441.235652,6281.983084
22109.215139,2960.823768,-6587.832884,6128.763984
22109.215473,5255.462188,-2812.782580,0.000000
22109.215806,3627.009116,-13027.624579,-76.609550
22109.216139,518.144159,-13175.665768,-6665.030833
22109.216473,-6439.791695,-14878.139434,-6128.763984
22109.216806,-5329.482782,-10732.986159,-5515.887586
22109.217140,-3627.009116,-11843.295072,-1915.238745
22109.217473,-5625.565159,-7550.100608,-2757.943793
22109.217807,-444.123565,-6291.750507,919.314598
22109.218140,2294.638420,-9474.636058,8503.660028
22109.218473,1184.329507,-4219.173869,7048.078582
22109.218807,2886.803174,-8290.306550,4826.401637
22109.219140,0.000000,-7920.203579,0.000000
22109.219474,2960.823768,-6809.894666,1378.971896
22109.219807,1776.494261,-10881.027347,0.000000
22109.220141,1554.432478,-10288.862594,-2757.943793
22109.220474,-1924.535449,-10510.924376,-4979.620737
22109.220807,-962.267725,-14952.160028,-3064.381992
22109.221141,-1110.308913,-11695.253884,-1455.581446
22109.221474,-1332.370696,-11547.212695,-76.609550
22109.221808,-1258.350101,-8364.327145,1532.190996
22109.222141,-2368.659014,-5403.503377,5822.325785
22109.222475,4663.297435,-3849.070898,995.924147
22109.222808,888.247130,-7476.080014,4903.011187
22109.223141,2886.803174,-8290.306550,76.609550
22109.223475,1406.391290,-8586.388927,689.485948
22109.223808,1776.494261,-8142.265362,1532.190996
22109.224142,2294.638420,-6513.812290,-1762.019645
22109.224475,518.144159,-12731.542202,-76.609550
22109.224808,148.041188,-10881.027347,-3217.601092
22109.225142,-3627.009116,-12879.583391,-2987.772442
22109.225475,-1776.494261,-11473.192101,-2451.505594
22109.225809,-1850.514855,-11251.130318,-1915.238745
22109.226142,1184.329507,-7328.038826,2451.505594
22109.226476,1184.329507,-10362.883188,4673.182538
22109.226809,-222.061783,-4811.338623,612.876398
22109.227142,1184.329507,-7179.997637,2757.943793
22109.227476,4663.297435,-7402.059420,2681.334243
22109.227809,2960.823768,-6883.915261,4213.525239
22109.228143,4219.173869,-9474.636058,2221.676944
22109.228476,-222.061783,-9844.739029,-3907.087040
22109.228810,-2368.659014,-12213.398043,-5822.325785
22109.229143,-74.020594,-15396.283594,-1608.800546
22109.229476,2294.638420,-9474.636058,-1608.800546
22109.229810,-3923.091493,-11325.150913,-1838.629195
22109.230143,-74.020594,-7698.141797,2987.772442
22109.230477,-2368.659014,-4811.338623,3830.477490
22109.230810,2220.617826,-3552.988522,4366.744339
22109.231144,2664.741391,-9400.615463,6205.373534
22109.231477,3923.091493,-8734.430116,5898.935335
22109.231810,-1184.329507,-8364.327145,2451.505594
22109.232144,-74.020594,-9474.636058,-3140.991542
22109.232477,-3552.988522,-10732.986159,-2451.505594
22109.232811,2664.741391,-11843.295072,1149.143247
22109.233144,2294.638420,-9474.636058,-3447.429741
22109.233477,-3552.988522,-12805.562797,-2834.553343
22109.233811,-2590.720797,-11473.192101,-2374.896044
22109.234144,-1184.329507,-7328.038826,0.000000
22109.234478,3478.967927,-10066.800811,4136.915689
22109.234811,4663.297435,-6809.894666,7277.907231
22109.235145,1702.473667,-4737.318029,4060.306139
22109.235478,0.000000,-5995.668130,4596.572988
22109.235811,2146.597232,-7105.977043,-76.609550
22109.236145,-74.020594,-11843.295072,-4136.915689
22109.236478,0.000000,-9548.656652,-76.609550
22109.236812,-2146.597232,-13027.624579,-2528.115143
22109.237145,-1628.453072,-10955.047942,-2911.162892
22109.237478,-2442.679609,-10436.903782,-3064.381992
22109.237811,-1258.350101,-10066.800811,-1302.362347
22109.238145,2960.823768,-7772.162391,3370.820191
22109.238478,-296.082377,-8216.285956,4060.306139
22109.238811,4885.359217,-5107.421000,4519.963438
22109.239144,-1184.329507,-8660.409521,3064.381992
22109.239477,0.000000,-6883.915261,2681.334243
22109.239810,1998.556043,-8882.471304,0.000000
22109.240143,0.000000,-10881.027347,1225.752797
22109.240477,-1258.350101,-8882.471304,-4979.620737
22109.240810,-4145.153275,-11917.315666,-2145.067394
22109.241143,0.000000,-8068.244768,-2451.505594
22109.241476,444.123565,-10362.883188,-2528.115143
22109.241809,-1184.329507,-10362.883188,1378.971896
22109.242142,0.000000,-7179.997637,0.000000
22109.242476,1702.473667,-11843.295072,3600.648841
22109.242809,2664.741391,-4811.338623,2451.505594
22109.243142,0.000000,-9548.656652,6128.763984
22109.243475,3182.885551,-5625.565159,4519.963438
22109.243808,2812.782580,-7105.977043,0.000000
22109.244141,0.000000,-11325.150913,1225.752797
22109.244474,-1258.350101,-11103.089130,-2757.943793
22109.244808,-5921.647536,-12139.377449,-4519.963438
22109.245141,-3997.112087,-10881.027347,-2451.505594
22109.245474,592.164754,-8956.491898,0.000000
22109.245807,518.144159,-7772.162391,0.000000
22109.246140,1184.329507,-4811.338623,4290.134789
22109.246473,2886.803174,-8882.471304,2374.896044
22109.246806,1998.556043,-5403.503377,2451.505594
22109.247140,5403.503377,-9474.636058,5439.278036
22109.247473,2664.741391,-6735.874072,1685.410096
22109.247806,1850.514855,-12287.418637,229.828649
22109.248139,-296.082377,-9548.656652,-2911.162892
22109.248472,-814.226536,-13619.789333,-76.609550
22109.248805,-3404.947333,-4811.338623,-3677.258390
22109.249138,-2368.659014,-9844.739029,-4903.011187
22109.249472,-74.020594,-13619.789333,-76.609550
22109.249805,-3552.988522,-7772.162391,0.000000
22109.250138,-74.020594,-7994.224174,229.828649
22109.250471,2368.659014,-7179.997637,4213.525239
22109.250804,2368.659014,-7698.141797,5132.839837
22109.251137,3627.009116,-6809.894666,3370.820191
22109.251471,4589.276840,-6513.812290,2068.457845
22109.251804,0.000000,-9548.656652,612.876398
22109.252137,2886.803174,-10066.800811,-1915.238745
22109.252470,-3627.009116,-13027.624579,-5745.716235
22109.252803,-4737.318029,-13101.645173,-2451.505594
22109.253136,-2442.679609,-7994.224174,-2681.334243
22109.253469,-1776.494261,-10288.862594,-2221.676944
22109.253803,-74.020594,-8586.388927,1915.238745
22109.254136,1258.350101,-6809.894666,1072.533697
22109.254469,2294.638420,-7698.141797,4213.525239
22109.254802,2664.741391,-6587.832884,5669.106685
22109.255135,518.144159,-9030.512492,1072.533697
22109.255468,1554.432478,-8216.285956,2374.896044
22109.255801,0.000000,-9548.656652,-76.609550
22109.256135,1110.308913,-10658.965565,-1302.362347
22109.256468,-5625.565159,-9548.656652,0.000000
22109.256801,-370.102971,-13027.624579,-3753.867940
22109.257134,-4071.132681,-12435.459826,-3064.381992
22109.257467,-2368.659014,-10732.986159,0.000000
22109.257800,-370.102971,-7402.059420,-842.705048
22109.258133,0.000000,-8512.368333,2911.162892
22109.258467,1628.453072,-7179.997637,2757.943793
22109.258800,2886.803174,-9474.636058,4826.401637
22109.259133,4737.318029,-9474.636058,4826.401637
22109.259466,1184.329507,-7179.997637,3983.696590
22109.259799,4071.132681,-9178.553681,2987.772442
22109.260132,3182.885551,-6883.915261,-1838.629195
22109.260465,-1258.350101,-13619.789333,-2528.115143
22109.260799,-1406.391290,-12435.459826,-4979.620737
22109.261132,-3775.050304,-11621.233289,-3370.820191
22109.261465,-4589.276840,-9548.656652,-1685.410096
22109.261798,-4737.318029,-4811.338623,-4290.134789
22109.262131,-370.102971,-11843.295072,-76.609550
22109.262464,0.000000,-5995.668130,4903.011187
22109.262798,5847.626942,-6365.771101,6971.469032
22109.263131,2368.659014,-8364.327145,4903.011187
22109.263464,3627.009116,-6365.771101,2987.772442
22109.263797,0.000000,-8512.368333,1225.752797
22109.264130,3552.988522,-9770.718434,229.828649
22109.264463,0.000000,-10140.821405,-919.314598
22109.264796,-592.164754,-11177.109724,-3524.039291
22109.265130,-74.020594,-10214.842000,-6128.763984
22109.265463,-4811.338623,-15988.448347,-1302.362347
22109.265796,-666.185348,-7994.224174,-4366.744339
22109.266129,-2368.659014,-10732.986159,1225.752797
22109.266462,3552.988522,-6143.709319,6128.763984
22109.266795,2294.638420,-8142.265362,5975.544884
22109.267128,4145.153275,-5033.400406,5132.839837
22109.267462,5329.482782,-6735.874072,1838.629195
22109.267795,2886.803174,-12879.583391,3600.648841
22109.268128,4737.318029,-4811.338623,3064.381992
22109.268461,-74.020594,-11843.295072,-5132.839837
22109.268794,-2072.576638,-9548.656652,-6741.640382
22109.269127,-7105.977043,-14582.057057,-3753.867940
22109.269460,-1184.329507,-9770.718434,-2221.676944
22109.269794,-4293.194464,-9474.636058,-2528.115143
22109.270127,-1776.494261,-12287.418637,-995.924147
22109.270460,2664.741391,-6439.791695,5132.839837
22109.270793,-74.020594,-8142.265362,3600.648841
22109.271126,3849.070898,-5403.503377,6128.763984
22109.271459,814.226536,-7254.018232,4443.353888
22109.271793,5033.400406,-8364.327145,4290.134789
22109.272126,2590.720797,-7031.956449,3140.991542
22109.272459,2294.638420,-10658.965565,-2528.115143
22109.272792,-3552.988522,-9844.739029,-4903.011187
22109.273125,-74.020594,-14063.912898,-1302.362347
22109.273458,-1850.514855,-11843.295072,-5515.887586
22109.273791,-4441.235652,-10732.986159,-1838.629195
22109.274125,-1702.473667,-10362.883188,1149.143247
22109.274458,-3108.864956,-6883.915261,1685.410096
22109.274791,3627.009116,-4589.276840,3983.696590
22109.275124,2738.761985,-5921.647536,5439.278036
22109.275457,2146.597232,-5107.421000,3064.381992
22109.275790,2368.659014,-5995.668130,4903.011187
22109.276123,-74.020594,-10658.965565,-76.609550
22109.276457,3478.967927,-8290.306550,-6128.763984
22109.276790,-1184.329507,-14656.077652,-76.609550
22109.277123,1702.473667,-11843.295072,-2221.676944
22109.277456,1776.494261,-9326.594869,-536.266849
22109.277789,-3552.988522,-10881.027347,-1225.752797
22109.278122,-1998.556043,-7994.224174,-3064.381992
22109.278455,-3552.988522,-9548.656652,1225.752797
22109.278789,-4737.318029,-8364.327145,4596.572988
22109.279122,1702.473667,-7105.977043,3600.648841
22109.279455,0.000000,-3627.009116,919.314598
22109.279788,2664.741391,-6587.832884,4213.525239
22109.280121,1480.411884,-5995.668130,2451.505594
22109.280454,2516.700203,-9844.739029,-612.876398
22109.280788,-1924.535449,-10362.883188,-3677.258390
22109.281121,-2146.597232,-13545.768739,-6205.373534
22109.281454,-666.185348,-15988.448347,-2221.676944
22109.281787,-592.164754,-10510.924376,-76.609550
22109.282120,-74.020594,-7846.182985,0.000000
22109.282453,2368.659014,-6883.915261,2911.162892
22109.282786,7031.956449,-11843.295072,6052.154434
22109.283120,4293.194464,-8956.491898,10035.851024
22109.283453,3552.988522,-5255.462188,4826.401637
22109.283786,444.123565,-8512.368333,1915.238745
22109.284119,1554.432478,-6439.791695,76.609550
22109.284452,-2220.617826,-11917.315666,-1608.800546
22109.284785,-74.020594,-5921.647536,-4366.744339
22109.285118,-5921.647536,-9548.656652,-7354.516781
22109.285452,-3552.988522,-10140.821405,-2757.943793
22109.285785,-1258.350101,-8290.306550,-2834.553343
22109.286118,-1850.514855,-10881.027347,-2298.286494
22109.286451,740.205942,-8586.388927,-1225.752797
22109.286784,-666.185348,-12509.480420,3830.477490
22109.287117,4663.297435,-6883.915261,6741.640382
22109.287450,3404.947333,-3923.091493,6971.469032
22109.287784,5699.585753,-6513.812290,3447.429741
22109.288117,2220.617826,-7105.977043,2681.334243
22109.288450,2812.782580,-11399.171507,1149.143247
22109.288783,-1036.288319,-9918.759623,-2451.505594
22109.289116,-148.041188,-10658.965565,-2528.115143
22109.289449,-74.020594,-14211.954086,-76.609550
22109.289783,-1258.350101,-6735.874072,-5822.325785
22109.290116,-2960.823768,-12509.480420,-4903.011187
22109.290449,592.164754,-11621.233289,4903.011187
22109.290782,1850.514855,-4219.173869,3370.820191
22109.291115,2886.803174,-7105.977043,6281.983084
22109.291448,-1850.514855,-7550.100608,2987.772442
22109.291781,1036.288319,-7698.141797,2681.334243
22109.292115,-2960.823768,-5995.668130,612.876398
22109.292448,1110.308913,-9474.636058,-2834.553343
22109.292781,-1850.514855,-6587.832884,-2451.505594
22109.293114,-3997.112087,-11843.295072,-3753.867940
22109.293447,-74.020594,-8882.471304,-6205.373534
22109.293780,-2072.576638,-13989.892304,-1915.238745
22109.294113,-592.164754,-11325.150913,-1762.019645
22109.294447,3256.906145,-7402.059420,842.705048
22109.294780,-370.102971,-13101.645173,4903.011187
22109.295113,6735.874072,-5625.565159,4213.525239
22109.295446,4071.132681,-8290.306550,766.095498
22109.295779,7105.977043,-9548.656652,5515.887586
22109.296112,2664.741391,-9474.636058,6665.030833
22109.296445,1406.391290,-6883.915261,-536.266849
22109.296779,-2886.803174,-11843.295072,-3217.601092
22109.297112,-4737.318029,-10288.862594,-4979.620737
22109.297445,-1258.350101,-7550.100608,-3140.991542
22109.297778,-4811.338623,-9474.636058,-3064.381992
22109.298111,-666.185348,-9474.636058,-383.047749
22109.298444,-3701.029710,-5995.668130,1225.752797
22109.298777,2220.617826,-8882.471304,4060.306139
22109.299111,3478.967927,-7105.977043,2374.896044
22109.299444,0.000000,-7179.997637,1225.752797
22109.299777,5847.626942,-9178.553681,1762.019645
22109.300110,2664.741391,-9770.718434,4749.792088
22109.300443,1850.514855,-8438.347739,-76.609550
22109.300776,666.185348,-10658.965565,-3447.429741
22109.301110,-370.102971,-13027.624579,-2528.115143
22109.301443,-1776.494261,-10140.821405,-4903.011187
22109.301776,-666.185348,-10510.924376,76.609550
22109.302109,0.000000,-8364.327145,-842.705048
22109.302442,0.000000,-9844.739029,2451.505594
22109.302775,4589.276840,-7105.977043,4826.401637
22109.303108,2442.679609,-4219.173869,3064.381992
22109.303442,0.000000,-8364.327145,3217.601092
22109.303775,4071.132681,-8882.471304,536.266849
22109.304108,-3552.988522,-13693.809927,919.314598
22109.304441,3256.906145,-6439.791695,229.828649
22109.304774,-3404.947333,-13101.645173,-536.266849
22109.305107,-592.164754,-7328.038826,-2911.162892
22109.305440,-666.185348,-10362.883188,-76.609550
22109.305774,-1776.494261,-11843.295072,-76.609550
22109.306107,-3775.050304,-4811.338623,-3064.381992
22109.306440,-2812.782580,-11177.109724,0.000000
22109.306773,4663.297435,-9178.553681,2374.896044
22109.307106,1776.494261,-7476.080014,2451.505594
22109.307439,4367.215058,-9178.553681,2374.896044
22109.307772,2960.823768,-7920.203579,2528.115143
22109.308106,2294.638420,-9474.636058,842.705048
22109.308439,2294.638420,-9622.677246,0.000000
22109.308772,-74.020594,-13027.624579,-383.047749
22109.309105,-5329.482782,-9548.656652,-2451.505594
22109.309438,-592.164754,-9474.636058,-1302.362347
22109.309771,-1850.514855,-13027.624579,-1302.362347
22109.310105,-3330.926739,-10362.883188,536.266849
22109.310438,0.000000,-5107.421000,0.000000
22109.310771,814.226536,-9622.677246,0.000000
22109.311104,4737.318029,-10807.006753,3064.381992
22109.311437,1776.494261,-6587.832884,6128.763984
22109.311770,2886.803174,-6809.894666,1149.143247
22109.312103,1480.411884,-9474.636058,4826.401637
22109.312437,-666.185348,-9474.636058,-3294.210641
22109.312770,1776.494261,-9474.636058,1608.800546
22109.313103,-4145.153275,-9548.656652,-2757.943793
22109.313436,-1184.329507,-9252.574275,-1991.848295
22109.313769,-5773.606348,-12065.356855,1991.848295
22109.314102,74.020594,-2146.597232,-2451.505594
22109.314435,-1850.514855,-11843.295072,-76.609550
22109.314769,-2812.782580,-6587.832884,0.000000
22109.315102,7624.121203,-9474.636058,4213.525239
22109.315435,3552.988522,-5403.503377,689.485948
22109.315768,6513.812290,-14211.954086,7277.907231
22109.316101,4145.153275,-5403.503377,919.314598
22109.316434,2960.823768,-10732.986159,1225.752797
22109.316767,2886.803174,-12287.418637,-229.828649
22109.317101,444.123565,-10807.006753,-3217.601092
22109.317434,-1850.514855,-13619.789333,-2528.115143
22109.317767,-1998.556043,-8660.409521,-4060.306139
22109.318100,-2072.576638,-10955.047942,1762.019645
22109.318433,-518.144159,-7624.121203,3294.210641
22109.318766,-2442.679609,-6217.729913,2757.943793
22109.319100,2886.803174,-4589.276840,5439.278036
22109.319433,-666.185348,-7328.038826,2757.943793
22109.319766,592.164754,-4811.338623,4903.011187
22109.320099,2886.803174,-7105.977043,229.828649
22109.320432,-3256.906145,-11621.233289,-2911.162892
22109.320765,0.000000,-11917.315666,-2528.115143
22109.321098,-4737.318029,-13471.748144,-5209.449386
22109.321432,222.061783,-12435.459826,-3524.039291
22109.321765,-3108.864956,-10658.965565,-766.095498
22109.322098,-666.185348,-8882.471304,-1302.362347
22109.322431,370.102971,-6587.832884,1225.752797
22109.322764,3849.070898,-9030.512492,6128.763984
22109.323097,6513.812290,-7105.977043,7277.907231
22109.323430,4071.132681,-8290.306550,3294.210641
22109.323764,5107.421000,-10955.047942,2374.896044
22109.324097,666.185348,-10510.924376,3294.210641
22109.324430,1554.432478,-8068.244768,-2145.067394
22109.324763,-5107.421000,-13545.768739,-4979.620737
22109.325096,-5921.647536,-8364.327145,-7277.907231
22109.325429,-8290.306550,-9548.656652,-2451.505594
22109.325762,-3034.844362,-7698.141797,-2221.676944
22109.326096,-3923.091493,-8290.306550,-3140.991542
22109.326429,-4145.153275,-7772.162391,3064.381992
22109.326762,1406.391290,-3627.009116,2451.505594
22109.327095,2812.782580,-5625.565159,5975.544884
22109.327428,2664.741391,-7476.080014,5362.668486
22109.327761,4737.318029,-5477.523971,2604.724693
22109.328094,2516.700203,-11473.192101,0.000000
22109.328428,4959.379811,-12435.459826,-76.609550
22109.328761,-74.020594,-13619.789333,-4519.963438
22109.329094,-1184.329507,-11917.315666,-4903.011187
22109.329427,0.000000,-12509.480420,2451.505594
22109.329760,-74.020594,-9104.533087,-1225.752797
22109.330093,1702.473667,-6957.935855,2681.334243
22109.330427,-740.205942,-6957.935855,2374.896044
22109.330760,3849.070898,-6291.750507,3677.258390
22109.331093,2664.741391,-7402.059420,8886.707777
22109.331426,3478.967927,-4441.235652,2987.772442
22109.331759,1924.535449,-9548.656652,2145.067394
22109.332092,-2072.576638,-9548.656652,-1225.752797
22109.332425,-444.123565,-8882.471304,-4673.182538
22109.332759,-4737.318029,-9548.656652,-5669.106685
22109.333092,-3552.988522,-9548.656652,-4903.011187
22109.333425,-3923.091493,-12435.459826,-5592.497135
22109.333758,-666.185348,-9548.656652,-3677.258390
22109.334091,-1258.350101,-11843.295072,-76.609550
22109.334424,-74.020594,-8290.306550,1149.143247
22109.334757,3627.009116,-6883.915261,5439.278036
22109.335091,3478.967927,-5477.523971,6894.859482
22109.335424,6069.688724,-7031.956449,7507.735880
22109.335757,4663.297435,-9474.636058,4826.401637
22109.336090,3552.988522,-9252.574275,4826.401637
22109.336423,2294.638420,-8142.265362,-3677.258390
22109.336756,0.000000,-11917.315666,-1838.629195
22109.337089,-4737.318029,-11621.233289,-3983.696590
22109.337423,-6291.750507,-13249.686362,-6435.202183
22109.337756,-5847.626942,-10362.883188,-5669.106685
22109.338089,-2738.761985,-9918.759623,76.609550
22109.338422,0.000000,-4071.132681,1915.238745
22109.338755,-3478.967927,-6587.832884,3064.381992
22109.339088,2294.638420,-5625.565159,3600.648841
22109.339422,-666.185348,-8290.306550,1302.362347
22109.339755,2368.659014,-5995.668130,5362.668486
22109.340088,4663.297435,-9474.636058,2374.896044
22109.340421,0.000000,-8364.327145,1532.190996
22109.340754,1406.391290,-8734.430116,-2604.724693
22109.341087,-814.226536,-11473.192101,-2757.943793
22109.341420,962.267725,-9474.636058,-1915.238745
22109.341753,-4441.235652,-11917.315666,-1838.629195
22109.342086,2294.638420,-9178.553681,-3140.991542
22109.342419,-3552.988522,-10362.883188,-383.047749
22109.342753,-2960.823768,-9844.739029,2757.943793
22109.343086,4071.132681,-4737.318029,3600.648841
22109.343419,3478.967927,-9474.636058,4826.401637
22109.343752,4737.318029,-5403.503377,2451.505594
22109.344085,1702.473667,-10362.883188,3600.648841
22109.344418,4811.338623,-5699.585753,2374.896044
22109.344751,2590.720797,-9474.636058,-689.485948
22109.345084,-1554.432478,-10658.965565,-4979.620737
22109.345417,-4737.318029,-11917.315666,-3064.381992
22109.345750,-2590.720797,-10955.047942,-4979.620737
22109.346083,-74.020594,-10066.800811,-3140.991542
22109.346416,-3552.988522,-9548.656652,-76.609550
22109.346750,74.020594,-8586.388927,1378.971896
22109.347083,1110.308913,-8068.244768,4366.744339
22109.347416,3256.906145,-8068.244768,3983.696590
22109.347749,7031.956449,-9474.636058,6971.469032
22109.348082,4811.338623,-8512.368333,4290.134789
22109.348415,4663.297435,-6439.791695,1225.752797
22109.348748,2664.741391,-9252.574275,-153.219100
22109.349081,0.000000,-10140.821405,-6741.640382
22109.349414,0.000000,-13101.645173,-3064.381992
22109.349747,-666.185348,-13619.789333,-3753.867940
22109.350080,-3849.070898,-8364.327145,-7354.516781
22109.350413,-5921.647536,-11917.315666,-383.047749
22109.350747,-2960.823768,-7328.038826,-2987.772442
22109.351080,0.000000,-8068.244768,6128.763984
22109.351413,1110.308913,-2072.576638,6281.983084
22109.351746,2294.638420,-5625.565159,6205.373534
22109.352079,4515.256246,-5625.565159,6358.592633
22109.352412,1998.556043,-6883.915261,3140.991542
22109.352745,2294.638420,-8882.471304,-2911.162892
22109.353078,0.000000,-9548.656652,-3217.601092
22109.353411,-2442.679609,-15988.448347,-6818.249932
22109.353744,-3997.112087,-14878.139434,-5515.887586
22109.354077,-2368.659014,-11103.089130,-2834.553343
22109.354410,-4145.153275,-13989.892304,0.000000
22109.354743,2516.700203,-5033.400406,3677.258390
22109.355077,2220.617826,-9474.636058,9729.412825
22109.355410,2368.659014,-5107.421000,8886.707777
22109.355743,2516.700203,-1258.350101,4903.011187
22109.356076,0.000000,-8068.244768,5439.278036
22109.356409,4663.297435,-4737.318029,2068.457845
22109.356742,-1850.514855,-7402.059420,-2987.772442
22109.357075,-74.020594,-10658.965565,-5898.935335
22109.357408,-6217.729913,-13545.768739,-8503.660028
22109.357741,-3627.009116,-11917.315666,-7814.174080
22109.358074,-2146.597232,-14359.995275,-5669.106685
22109.358407,-666.185348,-14211.954086,-76.609550
22109.358740,0.000000,-7772.162391,4903.011187
22109.359074,4737.318029,-7772.162391,11414.822920
22109.359407,8216.285956,-3997.112087,9193.145976
22109.359740,592.164754,-4811.338623,6741.640382
22109.360073,2590.720797,-6661.853478,2374.896044
22109.360406,-222.061783,-9770.718434,-76.609550
22109.360739,1184.329507,-9992.780217,-1532.190996
22109.361072,-3034.844362,-10955.047942,-4213.525239
22109.361405,-1554.432478,-7698.141797,-8350.440928
22109.361738,-5921.647536,-14582.057057,-4979.620737
22109.362071,1998.556043,-9770.718434,-3217.601092
22109.362404,-4737.318029,-10732.986159,0.000000
22109.362737,0.000000,-8364.327145,0.000000
22109.363071,2590.720797,-9548.656652,2757.943793
22109.363404,4737.318029,-6957.935855,6818.249932
22109.363737,11251.130318,-4071.132681,7048.078582
22109.364070,4367.215058,-13397.727550,6205.373534
22109.364403,7031.956449,-6217.729913,5056.230287
22109.364736,1184.329507,-6069.688724,-2604.724693
22109.365069,518.144159,-12435.459826,-1838.629195
22109.365402,-1258.350101,-8808.450710,-5975.544884
22109.365735,-2368.659014,-11029.068536,-3064.381992
22109.366068,-666.185348,-9474.636058,-4673.182538
22109.366401,-5329.482782,-8364.327145,-4903.011187
22109.366734,-3552.988522,-9548.656652,459.657299
22109.367068,-666.185348,-8290.306550,842.705048
22109.367401,-2368.659014,-5995.668130,3064.381992
22109.367734,1998.556043,-8734.430116,3753.867940
22109.368067,2590.720797,-10214.842000,6358.592633
22109.368400,4145.153275,-2590.720797,2374.896044
22109.368733,2294.638420,-9474.636058,1149.143247
22109.369066,-74.020594,-10658.965565,-1915.238745
22109.369399,-3552.988522,-8956.491898,-612.876398
22109.369732,-1776.494261,-12509.480420,-76.609550
22109.370065,2294.638420,-10362.883188,-2221.676944
22109.370398,-2442.679609,-13249.686362,-1302.362347
22109.370731,1850.514855,-9918.759623,-766.095498
22109.371065,-2072.576638,-9326.594869,1762.019645
22109.371398,0.000000,-9844.739029,1762.019645
22109.371731,-1184.329507,-7772.162391,2451.505594
22109.372064,-74.020594,-7179.997637,0.000000
22109.372397,1184.329507,-11547.212695,3600.648841
22109.372730,3182.885551,-6809.894666,6665.030833
22109.373063,2738.761985,-666.185348,2451.505594
22109.373396,-74.020594,-6513.812290,2374.896044
22109.373729,-2960.823768,-7254.018232,-2528.115143
22109.374062,-3627.009116,-9400.615463,-6435.202183
22109.374395,-5033.400406,-13915.871710,-3907.087040
22109.374728,-2368.659014,-12509.480420,-4903.011187
22109.375061,-3552.988522,-10140.821405,0.000000
22109.375395,-592.164754,-9400.615463,-76.609550
22109.375728,3478.967927,-8882.471304,-689.485948
22109.376061,4145.153275,-9548.656652,4903.011187
22109.376394,5625.565159,-7772.162391,5515.887586
22109.376727,3627.009116,-7994.224174,4596.572988
22109.377060,2590.720797,-9252.574275,1455.581446
22109.377393,3775.050304,-9178.553681,-1225.752797
22109.377726,2294.638420,-11843.295072,2374.896044
22109.378059,3552.988522,-7476.080014,1915.238745
22109.378392,-3034.844362,-10140.821405,-4903.011187
22109.378725,-3330.926739,-8364.327145,-3677.258390
22109.379058,-2738.761985,-12731.542202,-2834.553343
22109.379392,-1110.308913,-8586.388927,-1225.752797
22109.379725,-296.082377,-10140.821405,-1225.752797
22109.380058,2072.576638,-9992.780217,2834.553343
22109.380391,2960.823768,-4663.297435,6818.249932
22109.380724,2294.638420,-5625.565159,3600.648841
22109.381057,2960.823768,-8956.491898,2757.943793
22109.381390,-740.205942,-9992.780217,-1685.410096
22109.381723,-666.185348,-11621.233289,-3064.381992
22109.382056,444.123565,-9178.553681,-2987.772442
22109.382389,1110.308913,-10658.965565,-76.609550
22109.382722,0.000000,-11325.150913,2451.505594
22109.383055,4071.132681,-9474.636058,2374.896044
22109.383389,2146.597232,-10140.821405,3064.381992
22109.383722,1184.329507,-5403.503377,3064.381992
22109.384055,2886.803174,-7105.977043,2987.772442
22109.384388,518.144159,-9474.636058,4213.525239
22109.384721,0.000000,-5107.421000,2145.067394
22109.385054,-1480.411884,-9548.656652,-2604.724693
22109.385387,-4219.173869,-9548.656652,-4060.306139
22109.385720,-4737.318029,-10955.047942,-5286.058936
22109.386053,-4811.338623,-15988.448347,-3140.991542
22109.386386,-2442.679609,-7772.162391,0.000000
22109.386719,2368.659014,-7772.162391,3524.039291
22109.387052,2294.638420,-6735.874072,3677.258390
22109.387386,3775.050304,-8586.388927,5209.449386
22109.387719,3256.906145,-5995.668130,3907.087040
22109.388052,962.267725,-9178.553681,2451.505594
22109.388385,-1776.494261,-11029.068536,0.000000
22109.388718,592.164754,-13619.789333,-76.609550
22109.389051,-3627.009116,-11917.315666,-1838.629195
22109.389384,-4145.153275,-7179.997637,-3370.820191
22109.389717,-74.020594,-11843.295072,-1915.238745
22109.390050,-2072.576638,-7772.162391,612.876398
22109.390383,518.144159,-7698.141797,0.000000
22109.390716,-962.267725,-9474.636058,689.485948
22109.391049,3182.885551,-7402.059420,1915.238745
22109.391383,3775.050304,-8142.265362,3600.648841
22109.391716,7031.956449,-9474.636058,2374.896044
22109.392049,-1480.411884,-10140.821405,3677.258390
22109.392382,3330.926739,-7105.977043,-76.609550
22109.392715,1702.473667,-13619.789333,-1302.362347
22109.393048,0.000000,-8660.409521,-612.876398
22109.393381,-1332.370696,-8808.450710,-2298.286494
22109.393714,-2738.761985,-10436.903782,-2298.286494
22109.394047,-740.205942,-9104.533087,0.000000
22109.394380,-1258.350101,-10066.800811,1608.800546
22109.394713,1628.453072,-5847.626942,306.438199
22109.395046,2886.803174,-7698.141797,3753.867940
22109.395380,3775.050304,-6587.832884,2911.162892
22109.395713,2442.679609,-7179.997637,2145.067394
22109.396046,0.000000,-8956.491898,1838.629195
22109.396379,3775.050304,-12435.459826,-76.609550
22109.396712,-1702.473667,-11325.150913,0.000000
22109.397045,2368.659014,-6883.915261,0.000000
22109.397378,-2886.803174,-11251.130318,-1915.238745
22109.397711,-2072.576638,-10288.862594,0.000000
22109.398044,-2812.782580,-6735.874072,-3830.477490
22109.398377,-2664.741391,-12435.459826,-689.485948
22109.398710,0.000000,-7179.997637,1225.752797
22109.399043,-74.020594,-8882.471304,2451.505594
22109.399376,7031.956449,-7698.141797,2987.772442
22109.399710,0.000000,-7179.997637,3677.258390
22109.400043,1480.411884,-5995.668130,4290.134789
22109.400376,3701.029710,-6735.874072,2451.505594
22109.400709,-370.102971,-11621.233289,919.314598
22109.401042,-962.267725,-10955.047942,-2834.553343
22109.401375,-3256.906145,-8956.491898,-3064.381992
22109.401708,-3923.091493,-11843.295072,-4979.620737
22109.402041,-2960.823768,-9548.656652,-612.876398
22109.402374,-5847.626942,-11251.130318,-1608.800546
22109.402707,-4145.153275,-5699.585753,0.000000
22109.403040,1110.308913,-8290.306550,2681.334243
22109.403373,2886.803174,-5033.400406,6205.373534
22109.403707,6143.709319,-6513.812290,6358.592633
22109.404040,2664.741391,-5699.585753,2221.676944
22109.404373,5847.626942,-10436.903782,0.000000
22109.404706,-2442.679609,-13693.809927,1762.019645
22109.405039,3182.885551,-8882.471304,-2528.115143
22109.405372,-5625.565159,-16654.633695,-383.047749
22109.405705,0.000000,-8068.244768,-383.047749
22109.406038,-2442.679609,-10066.800811,-3907.087040
22109.406371,-2960.823768,-12509.480420,1838.629195
22109.406704,0.000000,-5995.668130,1762.019645
22109.407037,-1998.556043,-7402.059420,2604.724693
22109.407370,2516.700203,-6143.709319,4136.915689
22109.407704,962.267725,-9844.739029,3370.820191
22109.408037,2960.823768,-5995.668130,2451.505594
22109.408370,7031.956449,-9474.636058,2374.896044
22109.408703,4293.194464,-5995.668130,766.095498
22109.409036,0.000000,-10732.986159,0.000000
22109.409369,2294.638420,-10658.965565,-2528.115143
22109.409702,-3330.926739,-13693.809927,-5822.325785
22109.410035,-592.164754,-12287.418637,-2528.115143
22109.410368,-296.082377,-12361.439231,995.924147
22109.410701,-370.102971,-7105.977043,1608.800546
22109.411034,1184.329507,-5995.668130,3677.258390
22109.411367,1554.432478,-5699.585753,3677.258390
22109.411701,3256.906145,-5255.462188,4903.011187
22109.412034,4663.297435,-5921.647536,3140.991542
22109.412367,2294.638420,-13323.706956,3600.648841
22109.412700,1776.494261,-5995.668130,3524.039291
22109.413033,148.041188,-10510.924376,-1455.581446
22109.413366,-1554.432478,-9548.656652,-4596.572988
22109.413699,-2886.803174,-11843.295072,-4519.963438
22109.414032,-2442.679609,-9474.636058,-4519.963438
22109.414365,-4441.235652,-11991.336260,-1149.143247
22109.414698,-2886.803174,-10362.883188,-2298.286494
22109.415031,-2442.679609,-12435.459826,2374.896044
22109.415364,0.000000,-3330.926739,4903.011187
22109.415698,3552.988522,-6291.750507,7890.783629
22109.416031,8216.285956,-4145.153275,6052.154434
22109.416364,2368.659014,-12805.562797,4903.011187
22109.416697,2960.823768,-7624.121203,1149.143247
22109.417030,1776.494261,-12509.480420,-3677.258390
22109.417363,-2368.659014,-14582.057057,-1378.971896
22109.417696,0.000000,-7994.224174,-3677.258390
22109.418029,-6365.771101,-13989.892304,-5286.058936
22109.418362,-74.020594,-8290.306550,-4673.182538
22109.418695,-5921.647536,-11547.212695,-2528.115143
22109.419028,0.000000,-7772.162391,4903.011187
22109.419361,1554.432478,-7994.224174,6665.030833
22109.419694,1406.391290,-8290.306550,4826.401637
22109.420028,2294.638420,-5329.482782,2681.334243
22109.420361,2294.638420,-8586.388927,3677.258390
22109.420694,2220.617826,-7994.224174,229.828649
22109.421027,444.123565,-8512.368333,766.095498
22109.421360,-4737.318029,-10732.986159,-5822.325785
22109.421693,-1258.350101,-9474.636058,-5592.497135
22109.422026,-1628.453072,-13101.645173,0.000000
22109.422359,3034.844362,-9474.636058,-1302.362347
22109.422692,74.020594,-9104.533087,766.095498
22109.423025,-2072.576638,-9548.656652,0.000000
22109.423358,2664.741391,-6291.750507,3983.696590
22109.423691,222.061783,-9844.739029,3907.087040
22109.424025,4663.297435,-5773.606348,4519.963438
22109.424358,2294.638420,-11251.130318,2987.772442
22109.424691,2146.597232,-7772.162391,0.000000
22109.425024,1406.391290,-9474.636058,1762.019645
22109.425357,-666.185348,-7254.018232,-1915.238745
22109.425690,0.000000,-11325.150913,-919.314598
22109.426023,-2960.823768,-11029.068536,-2451.505594
22109.426356,0.000000,-7179.997637,-1608.800546
22109.426689,222.061783,-8068.244768,-1838.629195
22109.427022,296.082377,-10658.965565,459.657299
22109.427355,2294.638420,-11251.130318,3294.210641
22109.427688,370.102971,-11325.150913,2451.505594
22109.428022,2220.617826,-6587.832884,-383.047749
22109.428355,-222.061783,-12509.480420,1532.190996
22109.428688,6143.709319,-6365.771101,3600.648841
22109.429021,3552.988522,-9474.636058,4596.572988
22109.429354,592.164754,-7772.162391,0.000000
22109.429687,-3552.988522,-8660.409521,612.876398
22109.430020,-1258.350101,-10066.800811,-4060.306139
22109.430353,296.082377,-9548.656652,-1532.190996
22109.430686,0.000000,-9992.780217,-383.047749
22109.431019,-1628.453072,-9548.656652,3830.477490
22109.431352,-740.205942,-6513.812290,76.609550
22109.431685,1036.288319,-10066.800811,2681.334243
22109.432019,1110.308913,-9474.636058,2374.896044
22109.432352,1702.473667,-5995.668130,2757.943793
22109.432685,-1480.411884,-11177.109724,2834.553343
22109.433018,3478.967927,-9474.636058,-76.609550
22109.433351,-3849.070898,-9696.697840,-2298.286494
22109.433684,2294.638420,-7105.977043,-1302.362347
22109.434017,-1554.432478,-10288.862594,-1225.752797
22109.434350,-1258.350101,-9474.636058,-2145.067394
22109.434683,-2368.659014,-11103.089130,-459.657299
22109.435016,-1776.494261,-5403.503377,-2221.676944
22109.435349,-2368.659014,-7772.162391,2451.505594
22109.435682,3478.967927,-12435.459826,4060.306139
22109.436016,2368.659014,-5995.668130,612.876398
22109.436349,0.000000,-9548.656652,4290.134789
22109.436682,2294.638420,-7402.059420,1991.848295
22109.437015,1702.473667,-5107.421000,-1685.410096
22109.437348,0.000000,-12213.398043,-536.266849
22109.437681,-296.082377,-7550.100608,-2528.115143
22109.438014,-4737.318029,-10436.903782,-5515.887586
22109.438347,-888.247130,-10362.883188,-76.609550
22109.438680,-1850.514855,-11547.212695,-3447.429741
22109.439013,0.000000,-7328.038826,0.000000
22109.439346,592.164754,-7772.162391,2221.676944
22109.439679,1998.556043,-9474.636058,4290.134789
22109.440012,7031.956449,-5329.482782,5439.278036
22109.440346,1776.494261,-11769.274478,7584.345430
22109.440679,3330.926739,-6291.750507,2298.286494
22109.441012,2294.638420,-9474.636058,1762.019645
22109.441345,-2072.576638,-12657.521608,-689.485948
22109.441678,-2590.720797,-5921.647536,-5592.497135
22109.442012,-7105.977043,-9548.656652,-2451.505594
22109.442345,-2146.597232,-11843.295072,-3753.867940
22109.442678,-1998.556043,-7328.038826,-2451.505594
22109.443011,0.000000,-10881.027347,-76.609550
22109.443344,3552.988522,-6587.832884,4443.353888
22109.443678,2664.741391,-8882.471304,4136.915689
22109.444011,4663.297435,-11251.130318,3600.648841
22109.444344,4515.256246,-11843.295072,3600.648841
22109.444677,5699.585753,-7772.162391,-383.047749
22109.445010,2146.597232,-14211.954086,3217.601092
22109.445344,4811.338623,-6957.935855,995.924147
22109.445677,-4589.276840,-9178.553681,-3753.867940
22109.446010,-814.226536,-8586.388927,-2528.115143
22109.446343,-1258.350101,-8882.471304,-4979.620737
22109.446676,-4737.318029,-9548.656652,612.876398
22109.447010,1184.329507,-8068.244768,2604.724693
22109.447343,-4145.153275,-6587.832884,3064.381992
22109.447676,2812.782580,-6291.750507,3677.258390
22109.448009,2812.782580,-5699.585753,2528.115143
22109.448342,1332.370696,-11769.274478,3140.991542
22109.448676,592.164754,-9548.656652,0.000000
22109.449009,-3627.009116,-11251.130318,-2528.115143
22109.449342,-3552.988522,-8512.368333,-5745.716235
22109.449675,592.164754,-8512.368333,1608.800546
22109.450008,-1258.350101,-9474.636058,-2528.115143
22109.450342,592.164754,-5995.668130,1378.971896
22109.450675,-2738.761985,-7994.224174,-2374.896044
22109.451008,0.000000,-12139.377449,1149.143247
22109.451341,1998.556043,-10510.924376,3370.820191
22109.451674,4663.297435,-7105.977043,4213.525239
22109.452008,5551.544565,-9178.553681,0.000000
22109.452341,0.000000,-11103.089130,4826.401637
22109.452674,7624.121203,-7698.141797,3294.210641
22109.453007,-666.185348,-11029.068536,612.876398
22109.453340,2516.700203,-9326.594869,-1608.800546
22109.453674,-6809.894666,-12287.418637,-5132.839837
22109.454007,-4589.276840,-10658.965565,-3447.429741
22109.454340,-1036.288319,-5699.585753,-3140.991542
22109.454673,-3923.091493,-7254.018232,-383.047749
22109.455006,-2368.659014,-5995.668130,0.000000
22109.455340,-592.164754,-10066.800811,3600.648841
22109.455673,2590.720797,-9104.533087,2068.457845
22109.456006,2960.823768,-4811.338623,4903.011187
22109.456339,5255.462188,-9474.636058,3294.210641
22109.456672,2960.823768,-9548.656652,3677.258390
22109.457006,962.267725,-10658.965565,689.485948
22109.457339,1628.453072,-7772.162391,-2068.457845
22109.457672,-1480.411884,-10140.821405,-5745.716235
22109.458005,1184.329507,-12731.542202,-3753.867940
22109.458339,-888.247130,-14804.118840,0.000000
22109.458672,1406.391290,-6439.791695,1149.143247
22109.459005,-1776.494261,-10288.862594,2757.943793
22109.459338,4663.297435,-8290.306550,4826.401637
22109.459671,1702.473667,-7550.100608,3064.381992
22109.460005,2960.823768,-2442.679609,2451.505594
22109.460338,3404.947333,-10658.965565,2987.772442
22109.460671,740.205942,-8512.368333,153.219100
22109.461004,-444.123565,-9400.615463,-383.047749
22109.461337,-2220.617826,-10732.986159,-4290.134789
22109.461671,-2812.782580,-12583.501014,-4903.011187
22109.462004,-3182.885551,-12435.459826,-3140.991542
22109.462337,0.000000,-7179.997637,0.000000
22109.462670,-1850.514855,-6735.874072,-4903.011187
22109.463003,592.164754,-10288.862594,3753.867940
22109.463337,4367.215058,-7105.977043,4826.401637
22109.463670,7031.956449,-7698.141797,7277.907231
22109.464003,4071.132681,-8290.306550,5132.839837
22109.464336,1924.535449,-8512.368333,2298.286494
22109.464669,3256.906145,-9474.636058,2911.162892
22109.465003,2368.659014,-9030.512492,76.609550
22109.465336,3478.967927,-8808.450710,-76.609550
22109.465669,-5625.565159,-10436.903782,-3677.258390
22109.466002,-4367.215058,-11547.212695,-5286.058936
22109.466335,-7476.080014,-13841.851115,-4290.134789
22109.466669,-4441.235652,-7920.203579,-3370.820191
22109.467002,-666.185348,-9178.553681,2221.676944
22109.467335,1258.350101,-6513.812290,7431.126331
22109.467668,3404.947333,-5181.441594,7354.516781
22109.468001,1776.494261,-5329.482782,6971.469032
22109.468335,1702.473667,-6513.812290,-76.609550
22109.468668,2960.823768,-10881.027347,3600.648841
22109.469001,-666.185348,-9178.553681,-3753.867940
22109.469334,0.000000,-9844.739029,-3677.258390
22109.469667,-3256.906145,-14211.954086,-3753.867940
22109.470001,-3404.947333,-10288.862594,-5975.544884
22109.470334,-2886.803174,-12287.418637,-1838.629195
22109.470667,-444.123565,-11325.150913,1225.752797
22109.471000,-740.205942,-6883.915261,919.314598
22109.471333,-2368.659014,-6587.832884,3064.381992
22109.471667,5847.626942,-8882.471304,4826.401637
22109.472000,4811.338623,-7179.997637,5209.449386
22109.472333,1184.329507,-7772.162391,9806.022374
22109.472666,5921.647536,-6217.729913,3830.477490
22109.472999,-1480.411884,-11621.233289,766.095498
22109.473333,0.000000,-6587.832884,-6281.983084
22109.473666,-1258.350101,-11843.295072,-6281.983084
22109.473999,-4293.194464,-14285.974681,-5132.839837
22109.474332,-2294.638420,-7772.162391,-4903.011187
22109.474665,-5107.421000,-14137.933492,-1608.800546
22109.474999,2664.741391,-5477.523971,2298.286494
22109.475332,1480.411884,-7402.059420,4213.525239
22109.475665,5847.626942,-8882.471304,8197.221829
22109.475998,2960.823768,-3627.009116,7354.516781
22109.476331,2664.741391,-8290.306550,7354.516781
22109.476665,6439.791695,-4145.153275,-536.266849
22109.476998,-2960.823768,-11473.192101,-1378.971896
22109.477331,4589.276840,-9844.739029,-2068.457845
22109.477664,-2368.659014,-11695.253884,-5592.497135
22109.477997,-1628.453072,-12065.356855,-5669.106685
22109.478331,-1258.350101,-12287.418637,-2374.896044
22109.478664,-2072.576638,-9548.656652,-1455.581446
22109.478997,-1110.308913,-6587.832884,1225.752797
22109.479330,1702.473667,-10658.965565,4826.401637
22109.479663,3775.050304,-4737.318029,4213.525239
22109.479997,0.000000,-6587.832884,5515.887586
22109.480330,-740.205942,-11251.130318,-76.609550
22109.480663,1332.370696,-9696.697840,919.314598
22109.480996,-1628.453072,-11917.315666,3294.210641
22109.481329,5847.626942,-2368.659014,536.266849
22109.481663,-2072.576638,-12657.521608,612.876398
22109.481996,-3775.050304,-7772.162391,-4290.134789
22109.482329,-1258.350101,-9474.636058,-6205.373534
22109.482662,-3627.009116,-16580.613101,-3140.991542
22109.482995,-1184.329507,-7179.997637,-1838.629195
22109.483329,-6513.812290,-11473.192101,0.000000
22109.483662,-74.020594,-9474.636058,4213.525239
22109.483995,0.000000,-3034.844362,2145.067394
22109.484328,2220.617826,-9474.636058,5362.668486
22109.484661,7624.121203,-7698.141797,7890.783629
22109.484995,0.000000,-9548.656652,5132.839837
22109.485328,2590.720797,-9474.636058,-1302.362347
22109.485661,0.000000,-10140.821405,-3064.381992
22109.485994,2368.659014,-14211.954086,-3370.820191
22109.486328,3478.967927,-10658.965565,-76.609550
22109.486661,0.000000,-9844.739029,-3064.381992
22109.486994,-296.082377,-9326.594869,-1225.752797
22109.487327,-4441.235652,-11325.150913,-612.876398
22109.487660,1184.329507,-5995.668130,1838.629195
22109.487994,2294.638420,-9474.636058,5439.278036
22109.488327,1776.494261,-6587.832884,4903.011187
22109.488660,2368.659014,-9400.615463,7890.783629
22109.488993,-666.185348,-5181.441594,0.000000
22109.489326,-74.020594,-4885.359217,-1455.581446
22109.489660,-1924.535449,-10510.924376,-4443.353888
22109.489993,444.123565,-11769.274478,-2298.286494
22109.490326,-1184.329507,-7920.203579,-3524.039291
22109.490659,0.000000,-9548.656652,-4290.134789
22109.490992,2738.761985,-12287.418637,-383.047749
22109.491326,2220.617826,-11621.233289,1762.019645
22109.491659,3034.844362,-9844.739029,2681.334243
22109.491992,5847.626942,-7031.956449,3140.991542
22109.492325,0.000000,-10436.903782,1532.190996
22109.492658,5403.503377,-9474.636058,7277.907231
22109.492992,2886.803174,-5477.523971,0.000000
22109.493325,2368.659014,-10362.883188,-689.485948
22109.493658,740.205942,-11843.295072,2451.505594
22109.493991,-2738.761985,-5403.503377,-2451.505594
22109.494324,-2442.679609,-8586.388927,-3830.477490
22109.494658,-3330.926739,-9918.759623,-2451.505594
22109.494991,-3552.988522,-8512.368333,-3140.991542
22109.495324,-2368.659014,-7476.080014,0.000000
22109.495657,-74.020594,-8290.306550,-76.609550
22109.495990,-3256.906145,-7698.141797,-1608.800546
22109.496324,0.000000,-9696.697840,3677.258390
22109.496657,1554.432478,-13915.871710,1762.019645
22109.496990,2368.659014,-7179.997637,3677.258390
22109.497323,1628.453072,-7846.182985,1762.019645
22109.497656,740.205942,-10436.903782,1149.143247
22109.497990,-296.082377,-8660.409521,995.924147
22109.498323,-2738.761985,-14211.954086,1762.019645
22109.498656,3478.967927,-5921.647536,-2834.553343
22109.498989,-4737.318029,-10436.903782,-1225.752797
22109.499322,2368.659014,-8808.450710,2374.896044
22109.499656,-370.102971,-10066.800811,3140.991542
22109.499989,1850.514855,-10955.047942,2374.896044
22109.500322,0.000000,-9548.656652,2834.553343
22109.500655,-1924.535449,-10732.986159,0.000000
22109.500988,2812.782580,-7402.059420,1225.752797
22109.501322,-962.267725,-9178.553681,-383.047749
22109.501655,1554.432478,-4811.338623,-4596.572988
22109.501988,-4737.318029,-9918.759623,-383.047749
22109.502321,1702.473667,-7402.059420,-1915.238745
22109.502654,-1258.350101,-9548.656652,-2451.505594
22109.502988,-740.205942,-10510.924376,-76.609550
22109.503321,740.205942,-9400.615463,2451.505594
22109.503654,3701.029710,-4367.215058,2604.724693
22109.503987,6661.853478,-9104.533087,3524.039291
22109.504320,2442.679609,-9326.594869,689.485948
22109.504654,4145.153275,-8660.409521,-1072.533697
22109.504987,1554.432478,-12213.398043,0.000000
22109.505320,3775.050304,-12287.418637,842.705048
22109.505653,0.000000,-9548.656652,-2451.505594
22109.505986,1776.494261,-11029.068536,-689.485948
22109.506320,-1258.350101,-8586.388927,-2451.505594
22109.506653,1776.494261,-6587.832884,0.000000
22109.506986,296.082377,-7772.162391,3447.429741
22109.507319,592.164754,-7179.997637,1225.752797
22109.507652,-1776.494261,-10658.965565,-76.609550
22109.507986,1924.535449,-9770.718434,2221.676944
22109.508319,0.000000,-9622.677246,919.314598
22109.508652,1702.473667,-9474.636058,1149.143247
22109.508985,296.082377,-8512.368333,766.095498
22109.509318,-2368.659014,-7179.997637,0.000000
22109.509652,-592.164754,-11843.295072,-2528.115143
22109.509985,-1258.350101,-10658.965565,-2528.115143
22109.510318,-666.185348,-10066.800811,-76.609550
22109.510651,0.000000,-9992.780217,1685.410096
22109.510984,592.164754,-8290.306550,3294.210641
22109.511318,222.061783,-7772.162391,1915.238745
22109.511651,3404.947333,-6143.709319,2681.334243
22109.511984,2960.823768,-11621.233289,3600.648841
22109.512317,-2072.576638,-12805.562797,3677.258390
22109.512650,1110.308913,-9474.636058,-76.609550
22109.512984,-2812.782580,-10140.821405,-1225.752797
22109.513317,0.000000,-8882.471304,3600.648841
22109.513650,-4219.173869,-6957.935855,-2298.286494
22109.513983,-814.226536,-4737.318029,-2681.334243
22109.514317,-3552.988522,-10584.944971,-2374.896044
22109.514650,-1258.350101,-9104.533087,-536.266849
22109.514983,-2738.761985,-11843.295072,-76.609550
22109.515316,0.000000,-8364.327145,-76.609550
22109.515649,-74.020594,-14211.954086,4213.525239
22109.515983,3478.967927,-7624.121203,2757.943793
22109.516316,3552.988522,-8364.327145,5515.887586
22109.516649,2664.741391,-6365.771101,1225.752797
22109.516982,4663.297435,-8734.430116,3524.039291
22109.517315,1924.535449,-6809.894666,1838.629195
22109.517649,4219.173869,-6513.812290,-1455.581446
22109.517982,-3849.070898,-10881.027347,-4903.011187
22109.518315,-148.041188,-11843.295072,-1608.800546
22109.518648,-5995.668130,-8734.430116,-4443.353888
22109.518981,-4737.318029,-7772.162391,-3064.381992
22109.519315,-3552.988522,-10436.903782,-919.314598
22109.519648,0.000000,-7476.080014,1532.190996
22109.519981,3034.844362,-6291.750507,3370.820191
22109.520314,1850.514855,-10658.965565,4749.792088
22109.520647,5255.462188,-7624.121203,4213.525239
22109.520981,2146.597232,-6883.915261,2451.505594
22109.521314,5625.565159,-9104.533087,5132.839837
22109.521647,5255.462188,-7105.977043,612.876398
22109.521980,814.226536,-10584.944971,-1608.800546
22109.522313,1702.473667,-9474.636058,-3140.991542
22109.522647,-4441.235652,-10732.986159,-6128.763984
22109.522980,-3923.091493,-15396.283594,-2528.115143
22109.523313,-962.267725,-10066.800811,-3753.867940
22109.523646,-2368.659014,-11325.150913,766.095498
22109.523979,3552.988522,-5995.668130,6665.030833
22109.524313,2294.638420,-7031.956449,5592.497135
22109.524646,1924.535449,-7031.956449,3983.696590
22109.524979,4293.194464,-6513.812290,4596.572988
22109.525312,-1554.432478,-9474.636058,-76.609550
22109.525645,3478.967927,-6587.832884,0.000000
22109.525979,-666.185348,-11547.212695,-1915.238745
22109.526312,-2664.741391,-9770.718434,-7431.126331
22109.526645,-2368.659014,-9548.656652,0.000000
22109.526978,-74.020594,-9474.636058,-1302.362347
22109.527311,-1776.494261,-12657.521608,-995.924147
22109.527645,1110.308913,-8290.306550,3600.648841
22109.527978,-2146.597232,-11399.171507,0.000000
22109.528311,4737.318029,-3627.009116,7967.393179
22109.528644,-74.020594,-8364.327145,2451.505594
22109.528977,5255.462188,-7698.141797,4213.525239
22109.529311,-1406.391290,-6291.750507,612.876398
22109.529644,-3108.864956,-7328.038826,-3677.258390
22109.529977,-3552.988522,-9696.697840,-4213.525239
22109.530310,-2294.638420,-7920.203579,-3140.991542
22109.530643,-1924.535449,-9918.759623,-3370.820191
22109.530977,-1554.432478,-8660.409521,-1302.362347
22109.531310,1110.308913,-10288.862594,2374.896044
22109.531643,-2368.659014,-8364.327145,3830.477490
22109.531976,6439.791695,-7105.977043,2987.772442
22109.532309,592.164754,-9548.656652,3677.258390
22109.532643,4663.297435,-8586.388927,4596.572988
22109.532976,3478.967927,-9474.636058,2451.505594
22109.533309,1702.473667,-10510.924376,2068.457845
22109.533642,4515.256246,-8290.306550,689.485948
22109.533975,-2590.720797,-10140.821405,-1762.019645
22109.534309,518.144159,-5921.647536,-6128.763984
22109.534642,-296.082377,-14211.954086,-2528.115143
22109.534975,-1628.453072,-9548.656652,306.438199
22109.535308,0.000000,-4811.338623,2451.505594
22109.535641,-74.020594,-11843.295072,3294.210641
22109.535975,2886.803174,-7994.224174,3064.381992
22109.536308,-1332.370696,-7994.224174,2604.724693
22109.536641,222.061783,-7105.977043,1072.533697
22109.536974,-666.185348,-8438.347739,0.000000
22109.537307,-1184.329507,-8882.471304,0.000000
22109.537641,3478.967927,-6513.812290,-76.609550
22109.537974,-1480.411884,-12139.377449,-1302.362347
22109.538307,-1184.329507,-7698.141797,-5056.230287
22109.538640,-592.164754,-11843.295072,-2528.115143
22109.538973,1702.473667,-11251.130318,-2528.115143
22109.539307,2368.659014,-10362.883188,2068.457845
22109.539640,2294.638420,-12435.459826,383.047749
22109.539973,3552.988522,-9548.656652,4290.134789
22109.540306,3552.988522,-10140.821405,3064.381992
22109.540640,4071.132681,-12435.459826,4290.134789
22109.540973,4071.132681,-5033.400406,5975.544884
22109.541306,-1776.494261,-10436.903782,1608.800546
22109.541639,-2368.659014,-5847.626942,919.314598
22109.541972,-8734.430116,-5995.668130,-3677.258390
22109.542306,-74.020594,-3552.988522,-4060.306139
22109.542639,-5625.565159,-7920.203579,-3447.429741
22109.542972,-4737.318029,-11029.068536,-1302.362347
22109.543305,-3034.844362,-11843.295072,-2528.115143
22109.543638,-5625.565159,-11917.315666,-3370.820191
22109.543972,814.226536,-12287.418637,229.828649
22109.544305,0.000000,-10288.862594,3217.601092
22109.544638,4737.318029,-10510.924376,6971.469032
22109.544971,5625.565159,-5847.626942,7277.907231
22109.545304,3849.070898,-8364.327145,7277.907231
22109.545637,3478.967927,-6587.832884,2757.943793
22109.545971,0.000000,-7179.997637,0.000000
22109.546304,-1184.329507,-10658.965565,-76.609550
22109.546637,888.247130,-7105.977043,2068.457845
22109.546970,-3182.885551,-7772.162391,-6128.763984
22109.547303,1110.308913,-9178.553681,-3370.820191
22109.547637,-1776.494261,-9770.718434,-3447.429741
22109.547970,444.123565,-13027.624579,-3600.648841
22109.548303,4663.297435,-13915.871710,4826.401637
22109.548636,0.000000,-10140.821405,5515.887586
22109.548969,6143.709319,-7846.182985,6665.030833
22109.549303,0.000000,-4885.359217,3064.381992
22109.549636,4367.215058,-7105.977043,2374.896044
22109.549969,0.000000,-7476.080014,1532.190996
22109.550302,592.164754,-6809.894666,-1608.800546
22109.550635,-5255.462188,-10732.986159,-6128.763984
22109.550968,-4737.318029,-11917.315666,-2451.505594
22109.551302,-1702.473667,-5995.668130,-4290.134789
22109.551635,2294.638420,-11843.295072,2374.896044
22109.551968,7031.956449,-11251.130318,2987.772442
22109.552301,1184.329507,-7476.080014,3983.696590
22109.552634,2960.823768,-12435.459826,2374.896044
22109.552968,3108.864956,-10658.965565,2911.162892
22109.553301,1480.411884,-11177.109724,2451.505594
22109.553634,2664.741391,-6143.709319,-459.657299
22109.553967,296.082377,-10732.986159,-2145.067394
22109.554300,-3552.988522,-11621.233289,-1685.410096
22109.554634,-2368.659014,-7772.162391,-1685.410096
22109.554967,-4219.173869,-6957.935855,-3983.696590
22109.555300,-2368.659014,-10658.965565,-1608.800546
22109.555633,-5921.647536,-9548.656652,-2451.505594
22109.555966,2886.803174,-5921.647536,1455.581446
22109.556299,0.000000,-8956.491898,4290.134789
22109.556633,2886.803174,-9474.636058,3294.210641
22109.556966,-74.020594,-8586.388927,2374.896044
22109.557299,296.082377,-9992.780217,3524.039291
22109.557632,1554.432478,-5847.626942,0.000000
22109.557965,-3775.050304,-13989.892304,-2757.943793
22109.558299,-1258.350101,-8364.327145,-2528.115143
22109.558632,-3108.864956,-10362.883188,-689.485948
22109.558965,-4737.318029,-6587.832884,-1225.752797
22109.559298,-4145.153275,-7179.997637,2451.505594
22109.559631,1110.308913,-8882.471304,3907.087040
22109.559965,592.164754,-3627.009116,1225.752797
22109.560298,3478.967927,-8586.388927,4213.525239
22109.560631,666.185348,-9844.739029,1225.752797
22109.560964,1406.391290,-9770.718434,153.219100
22109.561297,1036.288319,-13101.645173,0.000000
22109.561630,2294.638420,-12435.459826,-4366.744339
22109.561964,-4145.153275,-12213.398043,1225.752797
22109.562297,1998.556043,-7105.977043,-1302.362347
22109.562630,3478.967927,-9474.636058,-76.609550
22109.562963,0.000000,-5995.668130,4903.011187
22109.563296,-370.102971,-4737.318029,-1838.629195
22109.563630,-2368.659014,-9918.759623,1149.143247
22109.563963,1702.473667,-9178.553681,2604.724693
22109.564296,-518.144159,-9474.636058,2528.115143
22109.564629,740.205942,-5107.421000,0.000000
22109.564962,0.000000,-11325.150913,1149.143247
22109.565296,4367.215058,-8290.306550,-1455.581446
22109.565629,1776.494261,-9548.656652,0.000000
22109.565962,3552.988522,-10881.027347,-612.876398
22109.566295,-74.020594,-9622.677246,-5822.325785
22109.566628,-1628.453072,-13175.665768,-2145.067394
22109.566961,1776.494261,-8364.327145,-1225.752797
22109.567295,-1036.288319,-10732.986159,0.000000
22109.567628,2664.741391,-7476.080014,2451.505594
22109.567961,2072.576638,-6143.709319,2757.943793
22109.568294,5403.503377,-11177.109724,5822.325785
22109.568627,1776.494261,-8512.368333,4673.182538
22109.568961,2294.638420,-9474.636058,-76.609550
22109.569294,2294.638420,-7698.141797,-919.314598
22109.569627,-3256.906145,-9548.656652,-1608.800546
22109.569960,2294.638420,-11843.295072,-76.609550
22109.570293,-3923.091493,-7476.080014,-4903.011187
22109.570627,-592.164754,-9474.636058,-3370.820191
22109.570960,-4441.235652,-11843.295072,-2451.505594
22109.571293,-1554.432478,-6809.894666,-1302.362347
22109.571626,-2590.720797,-11399.171507,76.609550
22109.571959,2294.638420,-7105.977043,3907.087040
22109.572292,3108.864956,-9104.533087,4903.011187
22109.572626,1776.494261,-6291.750507,7584.345430
22109.572959,3478.967927,-7698.141797,3600.648841
22109.573292,-74.020594,-7772.162391,-1838.629195
22109.573625,1998.556043,-9474.636058,842.705048
22109.573958,-2368.659014,-8956.491898,-3370.820191
22109.574292,-444.123565,-10881.027347,-3907.087040
22109.574625,-2960.823768,-11325.150913,-1378.971896
22109.574958,1184.329507,-6587.832884,306.438199
22109.575291,-74.020594,-8586.388927,-995.924147
22109.575624,-74.020594,-11843.295072,3600.648841
22109.575958,-2590.720797,-10955.047942,-995.924147
22109.576291,0.000000,-10140.821405,1838.629195
22109.576624,-1184.329507,-8956.491898,919.314598
22109.576957,962.267725,-8068.244768,1915.238745
22109.577290,2294.638420,-8290.306550,3907.087040
22109.577624,740.205942,-4959.379811,612.876398
22109.577957,2294.638420,-8882.471304,-76.609550
22109.578290,-2738.761985,-6291.750507,-3064.381992
22109.578623,2294.638420,-9474.636058,-3140.991542
22109.578956,-666.185348,-9622.677246,-3447.429741
22109.579289,0.000000,-10436.903782,1149.143247
22109.579623,1998.556043,-10066.800811,1455.581446
22109.579956,3849.070898,-10658.965565,2374.896044
22109.580289,4219.173869,-11695.253884,2451.505594
22109.580622,888.247130,-11621.233289,4979.620737
22109.580955,74.020594,-8512.368333,766.095498
22109.581289,0.000000,-11917.315666,4519.963438
22109.581622,2294.638420,-5033.400406,1225.752797
22109.581955,888.247130,-6587.832884,1225.752797
22109.582288,-370.102971,-7698.141797,-2528.115143
22109.582621,-3627.009116,-9474.636058,-7431.126331
22109.582955,-2590.720797,-10658.965565,-4136.915689
22109.583288,-1480.411884,-10955.047942,-1838.629195
22109.583621,888.247130,-8660.409521,0.000000
22109.583954,-74.020594,-10658.965565,689.485948
22109.584287,4293.194464,-9918.759623,4826.401637
22109.584620,1924.535449,-9400.615463,4519.963438
22109.584954,5847.626942,-8660.409521,4290.134789
22109.585287,3627.009116,-9770.718434,5745.716235
22109.585620,2516.700203,-5625.565159,1149.143247
22109.585953,2368.659014,-8586.388927,-76.609550
22109.586286,-74.020594,-11251.130318,-1915.238745
22109.586620,-2960.823768,-7772.162391,-4903.011187
22109.586953,-1258.350101,-10362.883188,-1915.238745
22109.587286,1110.308913,-11843.295072,-5132.839837
22109.587619,-2368.659014,-13397.727550,-1455.581446
22109.587952,1776.494261,-9474.636058,4596.572988
22109.588286,3404.947333,-6143.709319,3677.258390
22109.588619,2960.823768,-6587.832884,7967.393179
22109.588952,0.000000,-8512.368333,6665.030833
22109.589285,1998.556043,-5995.668130,1378.971896
22109.589618,-4219.173869,-8364.327145,0.000000
22109.589951,-3997.112087,-12435.459826,-1302.362347
22109.590285,-5403.503377,-6587.832884,-4903.011187
22109.590618,-3552.988522,-7624.121203,-4366.744339
22109.590951,-1480.411884,-6291.750507,-3677.258390
22109.591284,-666.185348,-10066.800811,-306.438199
22109.591617,3034.844362,-8586.388927,1149.143247
22109.591951,2886.803174,-14063.912898,4826.401637
22109.592284,2590.720797,-9548.656652,2451.505594
22109.592617,4737.318029,-8808.450710,5515.887586
22109.592950,3478.967927,-15692.365970,2374.896044
22109.593283,2368.659014,-10288.862594,6128.763984
22109.593617,-296.082377,-8586.388927,2604.724693
22109.593950,740.205942,-7476.080014,-1532.190996
22109.594283,-3923.091493,-9178.553681,-1532.190996
22109.594616,-4219.173869,-5773.606348,-4366.744339
22109.594949,-3627.009116,-7994.224174,-2528.115143
22109.595282,-5329.482782,-5403.503377,-4290.134789
22109.595616,-1036.288319,-11695.253884,-76.609550
22109.595949,814.226536,-8882.471304,1149.143247
22109.596282,4071.132681,-9474.636058,2987.772442
22109.596615,592.164754,-9992.780217,1838.629195
22109.596948,4293.194464,-10140.821405,2451.505594
22109.597282,1998.556043,-11103.089130,2374.896044
22109.597615,4737.318029,-7772.162391,1838.629195
22109.597948,222.061783,-7179.997637,-2145.067394
22109.598281,-1110.308913,-14137.933492,1378.971896
22109.598614,1702.473667,-9178.553681,1455.581446
22109.598948,-2442.679609,-2442.679609,-2451.505594
22109.599281,1702.473667,-10658.965565,-76.609550
22109.599614,-1110.308913,0.000000,-2374.896044
22109.599947,-666.185348,-15396.283594,-383.047749
22109.600280,518.144159,-21762.054695,3447.429741
22109.600613,5329.482782,-8364.327145,3983.696590
22109.600947,7550.100608,5551.544565,-919.314598
22109.601280,3849.070898,-9474.636058,2068.457845
22109.601613,-4737.318029,-18579.169144,3600.648841
22109.601946,0.000000,-9400.615463,2987.772442
22109.602279,-4737.318029,-12213.398043,306.438199
22109.602613,-74.020594,-11843.295072,-4979.620737
22109.602946,-4145.153275,-4811.338623,-6435.202183
22109.603279,1702.473667,-5921.647536,-5898.935335
22109.603612,2886.803174,-5625.565159,1149.143247
22109.603945,-1776.494261,-9696.697840,4213.525239
22109.604279,3108.864956,-9030.512492,7048.078582
22109.604612,1776.494261,-6957.935855,5898.935335
22109.604945,3997.112087,-6291.750507,3370.820191
22109.605278,4959.379811,-8290.306550,6741.640382
22109.605611,370.102971,-8660.409521,1532.190996
22109.605944,-4145.153275,-5995.668130,919.314598
22109.606278,-3627.009116,-13619.789333,-2374.896044
22109.606611,-3330.926739,-12879.583391,-3064.381992
22109.606944,-1110.308913,-13027.624579,-689.485948
22109.607277,-1480.411884,-11029.068536,-2834.553343
22109.607610,-2146.597232,-11917.315666,-1608.800546
22109.607944,814.226536,-9474.636058,2374.896044
22109.608277,3478.967927,-8882.471304,1149.143247
22109.608610,2960.823768,-8364.327145,6741.640382
22109.608943,3034.844362,-10955.047942,2374.896044
22109.609276,4663.297435,-8290.306550,-1915.238745
22109.609610,-3552.988522,-9548.656652,-3677.258390
22109.609943,2294.638420,-9918.759623,-5286.058936
22109.610276,-518.144159,-11399.171507,-3294.210641
22109.610609,-1554.432478,-11325.150913,-4290.134789
22109.610942,-5181.441594,-10140.821405,-5592.497135
22109.611276,-5033.400406,-5403.503377,-4903.011187
22109.611609,-4145.153275,-6587.832884,1991.848295
22109.611942,3478.967927,-4737.318029,536.266849
22109.612275,0.000000,-7179.997637,2451.505594
22109.612608,2960.823768,-5403.503377,4903.011187
22109.612941,3775.050304,-8586.388927,3064.381992
22109.613275,3997.112087,-10066.800811,2987.772442
22109.613608,3997.112087,-10140.821405,2987.772442
22109.613941,666.185348,-7846.182985,766.095498
22109.614274,1036.288319,-8142.265362,-2528.115143
22109.614607,-1480.411884,-11769.274478,-1149.143247
22109.614941,-962.267725,-11399.171507,0.000000
22109.615274,1702.473667,-7031.956449,2068.457845
22109.615607,-148.041188,-10955.047942,2374.896044
22109.615940,2294.638420,-7105.977043,2987.772442
22109.616273,-1998.556043,-7476.080014,3677.258390
22109.616607,2368.659014,-3034.844362,7660.954980
22109.616940,3182.885551,-9178.553681,4826.401637
22109.617273,2368.659014,-6291.750507,2451.505594
22109.617606,370.102971,-9252.574275,0.000000
22109.617939,-1628.453072,-9622.677246,-3140.991542
22109.618272,-1554.432478,-9844.739029,-4903.011187
22109.618606,-3034.844362,-9474.636058,-5286.058936
22109.618939,-1258.350101,-9918.759623,-2451.505594
22109.619272,-370.102971,-10658.965565,-2528.115143
22109.619605,-888.247130,-8660.409521,-1225.752797
22109.619938,0.000000,-10732.986159,2604.724693
22109.620272,3849.070898,-14211.954086,7277.907231
22109.620605,3256.906145,-10658.965565,5439.278036
22109.620938,2960.823768,-9178.553681,3217.601092
22109.621271,2072.576638,-10955.047942,1762.019645
22109.621604,2368.659014,-7179.997637,-383.047749
22109.621938,1184.329507,-7179.997637,459.657299
22109.622271,-3552.988522,-7772.162391,-6128.763984
22109.622604,-4441.235652,-10881.027347,-4979.620737
22109.622937,-6143.709319,-10732.986159,-6128.763984
22109.623270,-3627.009116,-9474.636058,-4366.744339
22109.623603,-1258.350101,-11251.130318,-2221.676944
22109.623937,-1406.391290,-8734.430116,1149.143247
22109.624270,0.000000,-6735.874072,3524.039291
22109.624603,2368.659014,-6439.791695,5975.544884
22109.624936,4071.132681,-9474.636058,2374.896044
22109.625269,2368.659014,-8956.491898,5362.668486
22109.625603,4145.153275,-7920.203579,4826.401637
22109.625936,3182.885551,-7031.956449,0.000000
22109.626269,-1776.494261,-8364.327145,0.000000
22109.626602,-1406.391290,-7698.141797,-4673.182538
22109.626935,-1036.288319,-10658.965565,-1991.848295
22109.627269,962.267725,-7698.141797,76.609550
22109.627602,296.082377,-8290.306550,153.219100
22109.627935,-666.185348,-8216.285956,0.000000
22109.628268,1184.329507,-11177.109724,6052.154434
22109.628601,0.000000,-8660.409521,2604.724693
22109.628934,1184.329507,-8364.327145,5975.544884
22109.629268,2368.659014,-11029.068536,3217.601092
22109.629601,3923.091493,-6883.915261,5515.887586
22109.629934,1406.391290,-7994.224174,1762.019645
22109.630267,-740.205942,-8142.265362,-995.924147
22109.630600,-2960.823768,-7550.100608,-3677.258390
22109.630934,-2738.761985,-8808.450710,-5209.449386
22109.631267,-1110.308913,-9474.636058,-2221.676944
22109.631600,-3701.029710,-10288.862594,-4213.525239
22109.631933,-814.226536,-10732.986159,-3064.381992
22109.632266,1702.473667,-12583.501014,4519.963438
22109.632600,3478.967927,-8734.430116,229.828649
22109.632933,3701.029710,-10288.862594,6818.249932
22109.633266,4663.297435,-13619.789333,2374.896044
22109.633599,2368.659014,-8660.409521,3983.696590
22109.633932,-4145.153275,-9548.656652,1532.190996
22109.634265,3256.906145,-4811.338623,-1455.581446
22109.634599,-74.020594,-7254.018232,-2987.772442
22109.634932,444.123565,-12731.542202,-459.657299
22109.635265,-74.020594,-7105.977043,-1302.362347
22109.635598,-4811.338623,-9474.636058,-7737.564530
22109.635931,0.000000,-11399.171507,-76.609550
22109.636265,-1702.473667,-12361.439231,4213.525239
22109.636598,5255.462188,-6513.812290,2604.724693
22109.636931,1110.308913,-11547.212695,5745.716235
22109.637264,1628.453072,-9178.553681,2451.505594
22109.637597,1554.432478,-7846.182985,4903.011187
22109.637931,1184.329507,-7179.997637,2757.943793
22109.638264,1776.494261,-7179.997637,306.438199
22109.638597,-3034.844362,-6291.750507,-3677.258390
22109.638930,0.000000,-6365.771101,-3753.867940
22109.639263,-4811.338623,-11251.130318,-5898.935335
22109.639596,-666.185348,-5995.668130,-4903.011187
22109.639930,-1184.329507,-8586.388927,-2834.553343
22109.640263,2516.700203,-11251.130318,2681.334243
22109.640596,2442.679609,-11399.171507,3524.039291
22109.640929,2294.638420,-11103.089130,4443.353888
22109.641262,6883.915261,-7476.080014,6435.202183
22109.641596,592.164754,-8956.491898,3677.258390
22109.641929,7031.956449,-9474.636058,4213.525239
22109.642262,0.000000,-5995.668130,1225.752797
22109.642595,-2590.720797,-12731.542202,-4979.620737
22109.642928,-4441.235652,-9400.615463,-4903.011187
22109.643262,-2516.700203,-11251.130318,-689.485948
22109.643595,2960.823768,-4219.173869,1302.362347
22109.643928,-1184.329507,-10140.821405,3217.601092
22109.644261,-2738.761985,-7105.977043,-3753.867940
22109.644594,1184.329507,-10955.047942,4826.401637
22109.644928,-74.020594,-10436.903782,306.438199
22109.645261,4959.379811,-10288.862594,5439.278036
22109.645594,-4589.276840,-11029.068536,2451.505594
22109.645927,4367.215058,-10362.883188,2987.772442
22109.646260,-1258.350101,-7179.997637,-2145.067394
22109.646594,0.000000,-8364.327145,0.000000
22109.646927,-814.226536,-7698.141797,-153.219100
22109.647260,-2738.761985,-5995.668130,-3677.258390
22109.647593,-74.020594,-12435.459826,-1915.238745
22109.647926,-1776.494261,-7920.203579,1455.581446
22109.648260,1776.494261,-7550.100608,-76.609550
22109.648593,3701.029710,-9548.656652,1685.410096
22109.648926,2590.720797,-12139.377449,1455.581446
22109.649259,4589.276840,-10658.965565,6052.154434
22109.649592,4663.297435,-12435.459826,2681.334243
22109.649926,0.000000,-7476.080014,2451.505594
22109.650259,-1776.494261,-8364.327145,-612.876398
22109.650592,-666.185348,-6217.729913,-2145.067394
22109.650925,-3701.029710,-9104.533087,-2834.553343
22109.651258,-4367.215058,-5847.626942,-2145.067394
22109.651592,-2294.638420,-4663.297435,-1302.362347
22109.651925,-4737.318029,-7179.997637,-4903.011187
22109.652258,1702.473667,-11843.295072,-76.609550
22109.652591,2220.617826,-11251.130318,1762.019645
22109.652925,4737.318029,-8364.327145,6128.763984
22109.653258,4367.215058,-13027.624579,2374.896044
22109.653591,3701.029710,-11917.315666,2451.505594
22109.653924,3478.967927,-9104.533087,919.314598
22109.654257,4663.297435,-10066.800811,1149.143247
22109.654591,3997.112087,-8438.347739,1302.362347
22109.654924,-296.082377,-9030.512492,612.876398
22109.655257,2294.638420,-8290.306550,-3140.991542
22109.655590,-3849.070898,-9548.656652,-3064.381992
22109.655923,0.000000,-9548.656652,2757.943793
22109.656257,-74.020594,-9474.636058,1608.800546
22109.656590,592.164754,-8586.388927,4826.401637
22109.656923,-2368.659014,-9548.656652,2145.067394
22109.657256,-2442.679609,-8290.306550,-76.609550
22109.657589,1184.329507,-8438.347739,2145.067394
22109.657923,1406.391290,-9474.636058,1608.800546
22109.658256,0.000000,-6587.832884,-2145.067394
22109.658589,-3552.988522,-11325.150913,1149.143247
22109.658922,-3330.926739,-9030.512492,-5745.716235
22109.659255,-3923.091493,-8364.327145,-4290.134789
22109.659589,-444.123565,-12287.418637,-1915.238745
22109.659922,0.000000,-7772.162391,2145.067394
22109.660255,0.000000,-8142.265362,536.266849
22109.660588,2220.617826,-10362.883188,4596.572988
22109.660921,5847.626942,-7105.977043,5439.278036
22109.661255,5699.585753,-9770.718434,1762.019645
22109.661588,3849.070898,-14211.954086,5898.935335
22109.661921,1480.411884,-8956.491898,689.485948
22109.662254,0.000000,-9548.656652,-2451.505594
22109.662587,-666.185348,-13619.789333,-76.609550
22109.662921,-1850.514855,-5995.668130,-5822.325785
22109.663254,-4441.235652,-7994.224174,-3064.381992
22109.663587,-2960.823768,-6513.812290,-1915.238745
22109.663920,-5181.441594,-7179.997637,-4596.572988
22109.664254,-1924.535449,-9252.574275,2068.457845
22109.664587,592.164754,-8808.450710,3370.820191
22109.664920,1184.329507,-9992.780217,4213.525239
22109.665253,6439.791695,-10658.965565,6052.154434
22109.665586,1554.432478,-8660.409521,3600.648841
22109.665920,5847.626942,-5329.482782,306.438199
22109.666253,1184.329507,-7179.997637,1302.362347
22109.666586,2294.638420,-11843.295072,-4979.620737
22109.666919,1110.308913,-11177.109724,-2911.162892
22109.667252,-2960.823768,-13249.686362,-3140.991542
22109.667586,1184.329507,-9104.533087,-2681.334243
22109.667919,-1406.391290,-12509.480420,2681.334243
22109.668252,2442.679609,-7031.956449,1455.581446
22109.668585,3552.988522,-8068.244768,6894.859482
22109.668918,1480.411884,-9548.656652,1225.752797
22109.669252,7328.038826,-8882.471304,7890.783629
22109.669585,1998.556043,-7476.080014,3064.381992
22109.669918,1776.494261,-7772.162391,1225.752797
22109.670251,-2442.679609,-11251.130318,-1302.362347
22109.670584,-1332.370696,-6957.935855,-5286.058936
22109.670918,-4293.194464,-12657.521608,-3753.867940
22109.671251,-2590.720797,-8438.347739,-4979.620737
22109.671584,-1850.514855,-9474.636058,-3753.867940
22109.671917,-4737.318029,-9548.656652,1072.533697
22109.672250,-3552.988522,-7772.162391,306.438199
22109.672584,2294.638420,-9474.636058,3600.648841
22109.672917,4737.318029,-8364.327145,6741.640382
22109.673250,1924.535449,-10436.903782,5592.497135
22109.673583,4441.235652,-9918.759623,4826.401637
22109.673916,3923.091493,-10510.924376,1608.800546
22109.674250,2146.597232,-10584.944971,1608.800546
22109.674583,-962.267725,-8216.285956,-1838.629195
22109.674916,-4145.153275,-9474.636058,-3753.867940
22109.675249,-3923.091493,-9474.636058,-6971.469032
22109.675583,-3627.009116,-8956.491898,-6128.763984
22109.675916,0.000000,-5699.585753,919.314598
22109.676249,-5255.462188,-9548.656652,0.000000
22109.676582,592.164754,-6439.791695,2298.286494
22109.676915,-1258.350101,-8734.430116,1532.190996
22109.677249,4145.153275,-8512.368333,4519.963438
22109.677582,2294.638420,-8734.430116,3064.381992
22109.677915,2072.576638,-8882.471304,1302.362347
22109.678248,1258.350101,-9548.656652,1838.629195
22109.678581,-444.123565,-8364.327145,-919.314598
22109.678915,1998.556043,-8882.471304,-76.609550
22109.679248,-2442.679609,-7254.018232,-3064.381992
22109.679581,-1776.494261,-7772.162391,-4903.011187
22109.679914,148.041188,-9474.636058,-76.609550
22109.680247,-74.020594,-9918.759623,-1149.143247
22109.680581,0.000000,-7772.162391,3677.258390
22109.680914,2886.803174,-9326.594869,4519.963438
22109.681247,2516.700203,-6587.832884,2834.553343
22109.681580,1850.514855,-12953.603985,-1072.533697
22109.681913,2590.720797,-12287.418637,1455.581446
22109.682247,2294.638420,-8364.327145,0.000000
22109.682580,2812.782580,-9474.636058,-76.609550
22109.682913,-2368.659014,-8364.327145,-3677.258390
22109.683246,-2072.576638,-6587.832884,-1838.629195
22109.683579,-1554.432478,-7994.224174,-1915.238745
22109.683913,0.000000,-8364.327145,-1225.752797
22109.684246,-740.205942,-9770.718434,-306.438199
22109.684579,222.061783,-9030.512492,1991.848295
22109.684912,0.000000,-9548.656652,612.876398
22109.685245,-370.102971,-9548.656652,-2451.505594
22109.685579,5847.626942,-11843.295072,-76.609550
22109.685912,2442.679609,-11325.150913,3064.381992
22109.686245,0.000000,-6291.750507,3064.381992
22109.686578,222.061783,-7328.038826,-995.924147
22109.686912,-3182.885551,-10362.883188,-1302.362347
22109.687245,0.000000,-6883.915261,-2221.676944
22109.687578,-2368.659014,-8808.450710,-536.266849
22109.687911,-74.020594,-9178.553681,-76.609550
22109.688244,-5921.647536,-7179.997637,306.438199
22109.688578,-666.185348,-9474.636058,-2834.553343
22109.688911,2368.659014,-10732.986159,3064.381992
22109.689244,5847.626942,-10658.965565,8503.660028
22109.689577,4737.318029,-9918.759623,2451.505594
22109.689910,2516.700203,-11843.295072,4213.525239
22109.690244,-1110.308913,-7031.956449,-1225.752797
22109.690577,370.102971,-7994.224174,-1378.971896
22109.690910,-518.144159,-7698.141797,383.047749
22109.691243,-814.226536,-10658.965565,-1915.238745
22109.691576,-4441.235652,-7179.997637,-1838.629195
22109.691910,-4737.318029,-5995.668130,0.000000
22109.692243,-666.185348,-10066.800811,-1608.800546
22109.692576,2220.617826,-6809.894666,1838.629195
22109.692909,2886.803174,-9326.594869,2911.162892
22109.693242,1184.329507,-9030.512492,766.095498
22109.693576,1258.350101,-11621.233289,3447.429741
22109.693909,1554.432478,-7698.141797,842.705048
22109.694242,2072.576638,-10066.800811,1149.143247
22109.694575,1702.473667,-10584.944971,919.314598
22109.694908,-296.082377,-8216.285956,-2145.067394
22109.695242,-2590.720797,-9474.636058,-3217.601092
22109.695575,-74.020594,-8882.471304,-2528.115143
22109.695908,-2368.659014,-11473.192101,-76.609550
22109.696241,3478.967927,-8882.471304,842.705048
22109.696574,0.000000,-8660.409521,3370.820191
22109.696908,2368.659014,-9548.656652,3677.258390
22109.697241,2294.638420,-9474.636058,4213.525239
22109.697574,1258.350101,-9548.656652,2068.457845
22109.697907,4219.173869,-8882.471304,2221.676944
22109.698241,-3627.009116,-10881.027347,0.000000
22109.698574,0.000000,-6587.832884,-3064.381992
22109.698907,-5921.647536,-13323.706956,-76.609550
22109.699240,-3923.091493,-9474.636058,-5592.497135
22109.699573,-4515.256246,-5995.668130,-2451.505594
22109.699907,-370.102971,-9474.636058,-76.609550
22109.700240,-1184.329507,-7179.997637,0.000000
22109.700573,-962.267725,-8586.388927,2681.334243
22109.700906,3182.885551,-7920.203579,1455.581446
22109.701239,3849.070898,-9548.656652,4826.401637
22109.701573,6513.812290,-11769.274478,4673.182538
22109.701906,7031.956449,-11843.295072,2987.772442
22109.702239,1184.329507,-10732.986159,1838.629195
22109.702572,6143.709319,-11251.130318,-76.609550
22109.702905,-370.102971,-14952.160028,0.000000
22109.703239,1332.370696,-7698.141797,-995.924147
22109.703572,-2442.679609,-7772.162391,-2528.115143
22109.703905,-3627.009116,-7920.203579,-76.609550
22109.704238,-2368.659014,-5699.585753,-1149.143247
22109.704571,-740.205942,-7698.141797,2298.286494
22109.704905,1184.329507,-5995.668130,2451.505594
22109.705238,1776.494261,-7179.997637,4903.011187
22109.705571,1702.473667,-8808.450710,1762.019645
22109.705904,2886.803174,-7179.997637,-2451.505594
22109.706237,-3552.988522,-10732.986159,612.876398
22109.706571,1998.556043,-10510.924376,-3370.820191
22109.706904,-3108.864956,-13841.851115,-2145.067394
22109.707237,-4737.318029,-10214.842000,-3753.867940
22109.707570,-1258.350101,-10658.965565,-1302.362347
22109.707903,-1702.473667,-10362.883188,1762.019645
22109.708237,-1110.308913,-5033.400406,1762.019645
22109.708570,0.000000,-7179.997637,6435.202183
22109.708903,-74.020594,-7550.100608,4213.525239
22109.709236,-2368.659014,-7772.162391,6128.763984
