#time,accel_x,accel_y,accel_z
22302.091963,6439.791695,-10881.027347,-995.924147
22302.092297,4219.173869,-11251.130318,-3294.210641
22302.092630,3849.070898,-10362.883188,-4443.353888
22302.092964,4219.173869,-10807.006753,-3447.429741
22302.093297,5625.565159,-9696.697840,-1685.410096
22302.093630,9474.636058,-9696.697840,4213.525239
22302.093964,10658.965565,-5995.668130,2757.943793
22302.094297,11843.295072,-7179.997637,6971.469032
22302.094631,12953.603985,-7994.224174,3600.648841
22302.094964,10658.965565,-5995.668130,2451.505594
22302.095297,12361.439231,-8882.471304,995.924147
22302.095631,9696.697840,-9844.739029,-1072.533697
22302.095964,5181.441594,-12065.356855,-4213.525239
22302.096297,1554.432478,-13471.748144,-5592.497135
22302.096631,-74.020594,-14211.954086,-4979.620737
22302.096964,-2960.823768,-10140.821405,-3064.381992
22302.097298,0.000000,-9548.656652,612.876398
22302.097631,7031.956449,-7105.977043,5745.716235
22302.097964,8290.306550,-3034.844362,9806.022374
22302.098298,10214.842000,-3034.844362,9806.022374
22302.098631,11843.295072,-5033.400406,7431.126331
22302.098965,11325.150913,-5551.544565,3907.087040
22302.099298,9918.759623,-6291.750507,-995.924147
22302.099631,8068.244768,-8068.244768,-7354.516781
22302.099965,4737.318029,-11769.274478,-7737.564530
22302.100298,5847.626942,-13915.871710,-9882.631924
22302.100632,5847.626942,-13027.624579,-8886.707777
22302.100965,4737.318029,-14285.974681,-2451.505594
22302.101298,5847.626942,-11917.315666,-2987.772442
22302.101632,9030.512492,-10658.965565,2834.553343
22302.101965,12731.542202,-6661.853478,8580.269578
22302.102298,16654.633695,-4293.194464,12793.794817
22302.102632,16802.674883,-1850.514855,10725.336972
22302.102965,14878.139434,-5181.441594,8886.707777
22302.103299,11547.212695,-6735.874072,3370.820191
22302.103632,7550.100608,-9474.636058,-2451.505594
22302.103965,2886.803174,-12731.542202,-7431.126331
22302.104299,-370.102971,-12731.542202,-10801.946522
22302.104632,-1184.329507,-10732.986159,-9806.022374
22302.104966,2368.659014,-9844.739029,-3677.258390
22302.105299,8216.285956,-10510.924376,-229.828649
22302.105632,9474.636058,-7772.162391,4903.011187
22302.105966,13249.686362,-6957.935855,6435.202183
22302.106299,14730.098246,-6439.791695,6665.030833
22302.106633,14804.118840,-6217.729913,4749.792088
22302.106966,12361.439231,-7402.059420,1762.019645
22302.107299,11769.274478,-9474.636058,-1302.362347
22302.107633,6217.729913,-9548.656652,-1838.629195
22302.107966,5329.482782,-11917.315666,-383.047749
22302.108299,9400.615463,-11769.274478,-2068.457845
22302.108633,12953.603985,-8882.471304,2068.457845
22302.108966,13175.665768,-7402.059420,1149.143247
22302.109300,12731.542202,-8734.430116,919.314598
22302.109633,12435.459826,-8438.347739,2068.457845
22302.109966,11843.295072,-8956.491898,2451.505594
22302.110300,11769.274478,-8364.327145,-2451.505594
22302.110633,9474.636058,-12731.542202,-689.485948
22302.110967,8808.450710,-9474.636058,-2374.896044
22302.111300,9548.656652,-7179.997637,0.000000
22302.111633,11843.295072,-4811.338623,536.266849
22302.111967,11177.109724,-7550.100608,2068.457845
22302.112300,10066.800811,-8068.244768,1685.410096
22302.112634,9992.780217,-9178.553681,689.485948
22302.112967,10584.944971,-11843.295072,1608.800546
22302.113300,10658.965565,-7476.080014,766.095498
22302.113634,15322.262999,-11843.295072,2987.772442
22302.113967,14137.933492,-7772.162391,0.000000
22302.114301,11399.171507,-11547.212695,-1225.752797
22302.114634,10584.944971,-13027.624579,-1225.752797
22302.114967,9252.574275,-11547.212695,0.000000
22302.115301,8586.388927,-8808.450710,612.876398
22302.115634,10584.944971,-7698.141797,1685.410096
22302.115967,9104.533087,-7402.059420,1455.581446
22302.116301,10955.047942,-6439.791695,2987.772442
22302.116634,9400.615463,-7624.121203,1378.971896
22302.116968,8216.285956,-7179.997637,0.000000
22302.117301,9030.512492,-10288.862594,842.705048
22302.117634,11695.253884,-9178.553681,-919.314598
22302.117968,12509.480420,-7550.100608,-1072.533697
22302.118301,9400.615463,-9474.636058,-2987.772442
22302.118635,10584.944971,-11473.192101,-1915.238745
22302.118968,9992.780217,-10214.842000,-1762.019645
22302.119301,12213.398043,-11695.253884,842.705048
22302.119635,13175.665768,-9400.615463,2987.772442
22302.119968,8660.409521,-10362.883188,2068.457845
22302.120302,9622.677246,-9474.636058,2987.772442
22302.120635,10584.944971,-8882.471304,3600.648841
22302.120968,10658.965565,-5995.668130,2451.505594
22302.121302,10658.965565,-10214.842000,3294.210641
22302.121635,5329.482782,-7179.997637,0.000000
22302.121968,2960.823768,-10140.821405,-3064.381992
22302.122302,6735.874072,-11251.130318,-2528.115143
22302.122635,9326.594869,-8216.285956,919.314598
22302.122969,11843.295072,-7031.956449,3983.696590
22302.123302,11843.295072,-4737.318029,2221.676944
22302.123635,7254.018232,-10140.821405,-2298.286494
22302.123969,11251.130318,-11621.233289,1149.143247
22302.124302,11769.274478,-13249.686362,3600.648841
22302.124636,11473.192101,-6143.709319,0.000000
22302.124969,8734.430116,-11621.233289,-76.609550
22302.125302,7328.038826,-9992.780217,-1225.752797
22302.125636,9770.718434,-8364.327145,536.266849
22302.125969,11843.295072,-7772.162391,3983.696590
22302.126303,12879.583391,-7254.018232,4673.182538
22302.126636,10955.047942,-6587.832884,1991.848295
22302.126969,12435.459826,-13619.789333,5439.278036
22302.127303,11029.068536,-6069.688724,306.438199
22302.127636,7254.018232,-7772.162391,0.000000
22302.127969,10362.883188,-6143.709319,-5132.839837
22302.128303,7698.141797,-16654.633695,-3447.429741
22302.128636,7476.080014,-10584.944971,-76.609550
22302.128970,6217.729913,-11177.109724,-919.314598
22302.129303,5403.503377,-9770.718434,-459.657299
22302.129636,9400.615463,-7550.100608,1149.143247
22302.129970,10881.027347,-7105.977043,1762.019645
22302.130303,11843.295072,-4811.338623,8273.831378
22302.130637,13323.706956,-8142.265362,2451.505594
22302.130970,12953.603985,-11251.130318,2374.896044
22302.131303,9474.636058,-10584.944971,2681.334243
22302.131637,6365.771101,-11103.089130,-2451.505594
22302.131970,4515.256246,-10881.027347,-4826.401637
22302.132304,5033.400406,-13397.727550,-3830.477490
22302.132637,5847.626942,-8290.306550,-689.485948
22302.132970,3330.926739,-10658.965565,-612.876398
22302.133304,4441.235652,-6809.894666,383.047749
22302.133637,3034.844362,-9696.697840,2604.724693
22302.133971,2960.823768,-8364.327145,3983.696590
22302.134304,6143.709319,-3775.050304,5209.449386
22302.134637,3552.988522,-10362.883188,-76.609550
22302.134971,4071.132681,-5921.647536,536.266849
22302.135304,3552.988522,-6587.832884,2911.162892
22302.135637,7179.997637,-6439.791695,1455.581446
22302.135971,1776.494261,-10807.006753,-536.266849
22302.136304,-1406.391290,-9992.780217,-6358.592633
22302.136638,-1776.494261,-12213.398043,-4213.525239
22302.136971,3478.967927,-8586.388927,-3753.867940
22302.137304,1998.556043,-11103.089130,-1838.629195
22302.137638,5847.626942,-8882.471304,1149.143247
22302.137971,5625.565159,-8364.327145,4290.134789
22302.138305,3849.070898,-8660.409521,6435.202183
22302.138638,11547.212695,-8068.244768,6894.859482
22302.138971,6513.812290,-9918.759623,4673.182538
22302.139305,11547.212695,-5107.421000,5286.058936
22302.139638,6439.791695,-6587.832884,919.314598
22302.139972,4071.132681,-10658.965565,-3140.991542
22302.140305,0.000000,-9548.656652,-6435.202183
22302.140638,-4071.132681,-16580.613101,-9882.631924
22302.140972,0.000000,-11917.315666,-3064.381992
22302.141305,296.082377,-8956.491898,0.000000
22302.141638,2294.638420,-11251.130318,-76.609550
22302.141972,3627.009116,-5477.523971,4903.011187
22302.142305,2368.659014,-7698.141797,5362.668486
22302.142639,5995.668130,-4589.276840,7201.297681
22302.142972,5181.441594,-8068.244768,6588.421283
22302.143305,4663.297435,-9178.553681,2374.896044
22302.143639,-1776.494261,-11325.150913,0.000000
22302.143972,0.000000,-5403.503377,-3677.258390
22302.144306,2294.638420,-12435.459826,-4979.620737
22302.144639,-1184.329507,-9844.739029,-3064.381992
22302.144972,814.226536,-8290.306550,-6281.983084
22302.145306,-2368.659014,-14804.118840,-3524.039291
22302.145639,2072.576638,-9474.636058,0.000000
22302.145973,1702.473667,-10881.027347,3217.601092
22302.146306,5107.421000,-6217.729913,2987.772442
22302.146639,2960.823768,-8364.327145,6894.859482
22302.146973,2886.803174,-9326.594869,3600.648841
22302.147306,2886.803174,-3330.926739,1378.971896
22302.147639,1184.329507,-5403.503377,1225.752797
22302.147973,-74.020594,-9400.615463,-919.314598
22302.148306,-1332.370696,-6661.853478,-2145.067394
22302.148640,-2072.576638,-6587.832884,-4596.572988
22302.148973,-1184.329507,-11917.315666,-4366.744339
22302.149306,-1258.350101,-9622.677246,-4903.011187
22302.149640,-1110.308913,-11769.274478,-3524.039291
22302.149973,740.205942,-11917.315666,995.924147
22302.150307,2442.679609,-7550.100608,1762.019645
22302.150640,3552.988522,-12657.521608,7354.516781
22302.150973,7031.956449,-7105.977043,7277.907231
22302.151307,592.164754,-7179.997637,2528.115143
22302.151640,1184.329507,-7476.080014,5132.839837
22302.151974,3182.885551,-8290.306550,-2604.724693
22302.152307,-2960.823768,-11917.315666,3677.258390
22302.152640,-370.102971,-5181.441594,-2221.676944
22302.152974,-4737.318029,-9992.780217,-1838.629195
22302.153307,-5107.421000,-5847.626942,-4749.792088
22302.153641,-2442.679609,-11251.130318,-2834.553343
22302.153974,-74.020594,-12435.459826,-689.485948
22302.154307,-2368.659014,-7179.997637,2145.067394
22302.154641,-3552.988522,-9844.739029,4060.306139
22302.154974,-74.020594,-7105.977043,0.000000
22302.155307,4663.297435,-9474.636058,4213.525239
22302.155641,296.082377,-11103.089130,3677.258390
22302.155974,814.226536,-7476.080014,-229.828649
22302.156308,-1036.288319,-8512.368333,-229.828649
22302.156641,-3182.885551,-9548.656652,-2528.115143
22302.156974,2294.638420,-7846.182985,-2681.334243
22302.157308,-3552.988522,-8956.491898,-76.609550
22302.157641,962.267725,-10658.965565,-76.609550
22302.157975,2294.638420,-8142.265362,1225.752797
22302.158308,2886.803174,-7105.977043,2374.896044
22302.158641,3923.091493,-8586.388927,1608.800546
22302.158975,1702.473667,-10066.800811,4060.306139
22302.159308,4219.173869,-5329.482782,995.924147
22302.159642,-2072.576638,-13471.748144,3524.039291
22302.159975,0.000000,-3627.009116,-2145.067394
22302.160308,-4145.153275,-13323.706956,-4979.620737
22302.160642,-3627.009116,-11177.109724,-4596.572988
22302.160975,-2368.659014,-7179.997637,-6741.640382
22302.161308,-4145.153275,-13249.686362,-1225.752797
22302.161642,888.247130,-6735.874072,1455.581446
22302.161975,2590.720797,-9252.574275,5209.449386
22302.162309,7031.956449,-5551.544565,6128.763984
22302.162642,7624.121203,-7105.977043,6052.154434
22302.162975,4737.318029,-9844.739029,5898.935335
22302.163309,4071.132681,-8512.368333,306.438199
22302.163642,2664.741391,-9548.656652,0.000000
22302.163976,2812.782580,-13619.789333,2987.772442
22302.164309,-444.123565,-10066.800811,-3370.820191
22302.164642,-1924.535449,-11991.336260,-2681.334243
22302.164976,-5107.421000,-8808.450710,-4673.182538
22302.165309,-3997.112087,-11325.150913,-3217.601092
22302.165643,-3034.844362,-8290.306550,1455.581446
22302.165976,0.000000,-6513.812290,2374.896044
22302.166309,2220.617826,-3775.050304,5592.497135
22302.166643,2590.720797,-4811.338623,3753.867940
22302.166976,3404.947333,-9474.636058,2834.553343
22302.167309,4071.132681,-9178.553681,3600.648841
22302.167643,2516.700203,-9252.574275,1225.752797
22302.167976,3478.967927,-12731.542202,-689.485948
22302.168310,-2960.823768,-11325.150913,-4596.572988
22302.168643,-4737.318029,-12509.480420,-3677.258390
22302.168976,-3627.009116,-11843.295072,-6205.373534
22302.169310,-2072.576638,-12509.480420,-1532.190996
22302.169643,-1258.350101,-11843.295072,2451.505594
22302.169977,2072.576638,-6217.729913,5439.278036
22302.170310,1554.432478,-5403.503377,7660.954980
22302.170643,2368.659014,-4737.318029,7890.783629
22302.170977,1258.350101,-4885.359217,4519.963438
22302.171310,-2072.576638,-3627.009116,3217.601092
22302.171644,3775.050304,-9474.636058,-76.609550
22302.171977,-4811.338623,-10732.986159,-3677.258390
22302.172310,-4515.256246,-11103.089130,-9116.536426
22302.172644,-6217.729913,-13545.768739,-5745.716235
22302.172977,-3182.885551,-11103.089130,-5209.449386
22302.173311,-2072.576638,-13989.892304,612.876398
22302.173644,1776.494261,-10658.965565,3600.648841
22302.173977,814.226536,-9770.718434,1915.238745
22302.174311,1702.473667,-7179.997637,4903.011187
22302.174644,4145.153275,-4145.153275,4826.401637
22302.174977,4737.318029,-7031.956449,7048.078582
22302.175311,5921.647536,-5403.503377,4673.182538
22302.175644,666.185348,-10510.924376,3294.210641
22302.175978,1554.432478,-6143.709319,-2451.505594
22302.176311,-370.102971,-12435.459826,-1302.362347
22302.176644,-962.267725,-10658.965565,-5592.497135
22302.176977,-3849.070898,-8364.327145,-4290.134789
22302.177311,-1702.473667,-11769.274478,-3064.381992
22302.177644,-2738.761985,-14211.954086,-5592.497135
22302.177977,0.000000,-10140.821405,1608.800546
22302.178311,962.267725,-9400.615463,3294.210641
22302.178644,1776.494261,-8512.368333,4290.134789
22302.178977,888.247130,-8068.244768,7201.297681
22302.179311,4663.297435,-4737.318029,4673.182538
22302.179644,2886.803174,-5995.668130,2757.943793
22302.179977,1554.432478,-9474.636058,2987.772442
22302.180311,1332.370696,-7772.162391,-2451.505594
22302.180644,-2368.659014,-11917.315666,-2451.505594
22302.180977,1702.473667,-8882.471304,-4060.306139
22302.181311,-666.185348,-10066.800811,-4903.011187
22302.181644,-4737.318029,-11325.150913,-2757.943793
22302.181977,0.000000,-11917.315666,-383.047749
22302.182311,-2664.741391,-13101.645173,1991.848295
22302.182644,1924.535449,-7328.038826,5745.716235
22302.182977,3108.864956,-6513.812290,5286.058936
22302.183311,4737.318029,-6513.812290,8810.098227
22302.183644,3478.967927,-4737.318029,8810.098227
22302.183977,0.000000,-4219.173869,-612.876398
22302.184311,-1554.432478,-8586.388927,-4903.011187
22302.184644,-6217.729913,-11621.233289,-5822.325785
22302.184977,-2072.576638,-11695.253884,-2834.553343
22302.185311,-2738.761985,-11695.253884,-3907.087040
22302.185644,-4293.194464,-13693.809927,-2681.334243
22302.185977,-1184.329507,-8660.409521,-459.657299
22302.186311,2812.782580,-10288.862594,3064.381992
22302.186644,5551.544565,-7105.977043,5592.497135
22302.186977,2368.659014,-11695.253884,8350.440928
22302.187311,3552.988522,-2442.679609,1225.752797
22302.187644,3552.988522,-13693.809927,8044.002729
22302.187977,7920.203579,-1628.453072,3524.039291
22302.188311,-2590.720797,-13915.871710,153.219100
22302.188644,814.226536,-5181.441594,-3294.210641
22302.188977,-7846.182985,-12287.418637,-7201.297681
22302.189311,-5329.482782,-9622.677246,-6281.983084
22302.189644,-3775.050304,-7994.224174,-4213.525239
22302.189977,-3034.844362,-14211.954086,-1302.362347
22302.190311,3552.988522,-7179.997637,7890.783629
22302.190644,-444.123565,-9474.636058,7277.907231
22302.190977,7328.038826,-222.061783,306.438199
22302.191311,0.000000,-10732.986159,4903.011187
22302.191644,4663.297435,-9030.512492,0.000000
22302.191977,2664.741391,-11473.192101,1149.143247
22302.192311,-1332.370696,-13915.871710,-1302.362347
22302.192644,-740.205942,-8660.409521,-4136.915689
22302.192977,-6661.853478,-12065.356855,-5822.325785
22302.193311,2368.659014,-8882.471304,-1302.362347
22302.193644,-2442.679609,-11843.295072,1149.143247
22302.193977,592.164754,-6587.832884,0.000000
22302.194311,4145.153275,-7920.203579,7507.735880
22302.194644,-2294.638420,-8956.491898,8886.707777
22302.194977,9252.574275,148.041188,7277.907231
22302.195311,3552.988522,-7772.162391,4366.744339
22302.195644,2516.700203,-6957.935855,-766.095498
22302.195977,-3701.029710,-7179.997637,-7967.393179
22302.196311,-5403.503377,-16284.530724,-7431.126331
22302.196644,-2738.761985,-10955.047942,-7277.907231
22302.196977,-4145.153275,-15026.180623,-4213.525239
22302.197311,1998.556043,-11843.295072,-76.609550
22302.197644,-1850.514855,-8142.265362,-2298.286494
22302.197977,1776.494261,-7179.997637,2451.505594
22302.198311,2368.659014,-10066.800811,7890.783629
22302.198644,7476.080014,-3849.070898,7354.516781
22302.198977,2960.823768,-7179.997637,7660.954980
22302.199311,3552.988522,-7179.997637,4519.963438
22302.199644,1850.514855,-7105.977043,1915.238745
22302.199977,0.000000,-8364.327145,-2604.724693
22302.200310,-2294.638420,-10658.965565,-4979.620737
22302.200644,-4219.173869,-9548.656652,-9193.145976
22302.200977,-3108.864956,-15988.448347,-3294.210641
22302.201310,-1850.514855,-12435.459826,-3140.991542
22302.201644,-3034.844362,-11399.171507,-3600.648841
22302.201977,-2442.679609,-10658.965565,-76.609550
22302.202310,3997.112087,-7179.997637,1838.629195
22302.202644,-2442.679609,-12509.480420,8580.269578
22302.202977,5181.441594,1184.329507,3600.648841
22302.203310,-1776.494261,-12509.480420,6128.763984
22302.203644,3775.050304,-74.020594,2451.505594
22302.203977,-74.020594,-9474.636058,-2528.115143
22302.204310,-2072.576638,-9548.656652,0.000000
22302.204644,0.000000,-7772.162391,-4903.011187
22302.204977,-5921.647536,-13101.645173,-7967.393179
22302.205310,1776.494261,-11251.130318,-1608.800546
22302.205644,-3034.844362,-12731.542202,-3447.429741
22302.205977,-1332.370696,-11399.171507,-1149.143247
22302.206310,2886.803174,-10658.965565,4826.401637
22302.206644,0.000000,-8364.327145,5362.668486
22302.206977,5847.626942,-3552.988522,2068.457845
22302.207310,592.164754,-10732.986159,8120.612279
22302.207644,5847.626942,-5329.482782,8503.660028
22302.207977,7328.038826,-2368.659014,4673.182538
22302.208310,-740.205942,-10362.883188,-76.609550
22302.208644,-2368.659014,-8364.327145,-4749.792088
22302.208977,-5107.421000,-12805.562797,-7048.078582
22302.209310,-2368.659014,-9844.739029,-4903.011187
22302.209644,-2442.679609,-14211.954086,-7431.126331
22302.209977,-4737.318029,-10732.986159,-2451.505594
22302.210310,0.000000,-7772.162391,2451.505594
22302.210644,4367.215058,-9474.636058,2987.772442
22302.210977,8216.285956,-9178.553681,8503.660028
22302.211310,3552.988522,-7179.997637,5439.278036
22302.211644,4071.132681,-5995.668130,3524.039291
22302.211977,3182.885551,-8142.265362,3447.429741
22302.212310,888.247130,-8364.327145,0.000000
22302.212644,1406.391290,-8882.471304,-1915.238745
22302.212977,-2664.741391,-12583.501014,-3753.867940
22302.213310,-2368.659014,-11547.212695,-4979.620737
22302.213644,-3034.844362,-10584.944971,-5209.449386
22302.213977,-1998.556043,-10658.965565,-1608.800546
22302.214310,-666.185348,-8586.388927,4826.401637
22302.214644,3478.967927,-7105.977043,-1915.238745
22302.214977,2368.659014,-8956.491898,6128.763984
22302.215310,1776.494261,-9918.759623,4290.134789
22302.215644,2886.803174,-8438.347739,1225.752797
22302.215977,-962.267725,-8808.450710,-383.047749
22302.216310,-1776.494261,-9178.553681,-3753.867940
22302.216644,-2886.803174,-11399.171507,-153.219100
22302.216977,-2960.823768,-7476.080014,-3064.381992
22302.217310,-74.020594,-10658.965565,-1302.362347
22302.217644,-4737.318029,-7179.997637,-2681.334243
22302.217977,0.000000,-10732.986159,2145.067394
22302.218310,2590.720797,-7105.977043,2987.772442
22302.218644,1184.329507,-8364.327145,6435.202183
22302.218977,2516.700203,-3330.926739,4136.915689
22302.219310,4737.318029,-4811.338623,-306.438199
22302.219644,666.185348,-13027.624579,383.047749
22302.219977,2072.576638,-9326.594869,-2528.115143
22302.220310,-74.020594,-17764.942608,-4366.744339
22302.220644,-2368.659014,-11325.150913,612.876398
22302.220977,-4737.318029,-9548.656652,-459.657299
22302.221310,-666.185348,-10066.800811,-76.609550
22302.221644,888.247130,-6809.894666,1608.800546
22302.221977,1110.308913,-7105.977043,1685.410096
22302.222310,4663.297435,-6661.853478,6281.983084
22302.222644,1924.535449,-4885.359217,3753.867940
22302.222977,-74.020594,-7698.141797,229.828649
22302.223310,-1036.288319,-6587.832884,-3677.258390
22302.223643,1184.329507,-12583.501014,-76.609550
22302.223977,1110.308913,-9474.636058,-2374.896044
22302.224310,2812.782580,-8364.327145,-3677.258390
22302.224643,-1258.350101,-15396.283594,-76.609550
22302.224977,-888.247130,-9104.533087,-2987.772442
22302.225310,-666.185348,-13545.768739,0.000000
22302.225643,-666.185348,-9252.574275,1149.143247
22302.225977,2442.679609,-6513.812290,842.705048
22302.226310,-1480.411884,-9548.656652,4443.353888
22302.226643,2368.659014,0.000000,1455.581446
22302.226977,1036.288319,-6883.915261,2604.724693
22302.227310,0.000000,-11325.150913,3677.258390
22302.227643,9030.512492,-4737.318029,2374.896044
22302.227977,-3034.844362,-15766.386565,-2298.286494
22302.228310,1184.329507,-8956.491898,-4903.011187
22302.228643,-7105.977043,-15322.262999,-5745.716235
22302.228977,-4737.318029,-9548.656652,-4903.011187
22302.229310,1110.308913,-12879.583391,383.047749
22302.229643,2664.741391,-6957.935855,1915.238745
22302.229977,-814.226536,-12731.542202,4673.182538
22302.230310,1110.308913,-4737.318029,4826.401637
22302.230643,2812.782580,-1258.350101,6435.202183
22302.230977,2294.638420,-3034.844362,2451.505594
22302.231310,8956.491898,-5921.647536,2068.457845
22302.231643,-2146.597232,-13027.624579,-3294.210641
22302.231977,4663.297435,-12731.542202,-76.609550
22302.232310,1924.535449,-8882.471304,-3140.991542
22302.232643,1258.350101,-15322.262999,0.000000
22302.232977,-1554.432478,-10436.903782,-3294.210641
22302.233310,-2294.638420,-12583.501014,-2987.772442
22302.233643,-74.020594,-13545.768739,-76.609550
22302.233977,-2072.576638,-7179.997637,0.000000
22302.234310,-296.082377,-8290.306550,6052.154434
22302.234643,2146.597232,-2220.617826,3677.258390
22302.234977,592.164754,-5551.544565,4903.011187
22302.235310,5847.626942,-4737.318029,3600.648841
22302.235643,2812.782580,-7550.100608,3907.087040
22302.235977,-888.247130,-7476.080014,-1072.533697
22302.236310,0.000000,-11695.253884,-4443.353888
22302.236643,-2442.679609,-11843.295072,-6205.373534
22302.236977,0.000000,-16210.510130,-3140.991542
22302.237310,-74.020594,-13915.871710,-76.609550
22302.237643,-3330.926739,-11325.150913,-3677.258390
22302.237977,-4737.318029,-9844.739029,1378.971896
22302.238310,-1110.308913,-5403.503377,0.000000
22302.238643,3034.844362,-6513.812290,4979.620737
22302.238977,4441.235652,-5107.421000,8273.831378
22302.239310,-222.061783,-8290.306550,4213.525239
22302.239643,0.000000,-4811.338623,1225.752797
22302.239977,-666.185348,-10658.965565,-76.609550
22302.240310,592.164754,-5995.668130,-2451.505594
22302.240643,0.000000,-11917.315666,612.876398
22302.240977,-296.082377,-11547.212695,-3753.867940
22302.241310,-2960.823768,-9548.656652,-3677.258390
22302.241643,-3923.091493,-13027.624579,-2528.115143
22302.241977,-518.144159,-9622.677246,-2145.067394
22302.242310,-888.247130,-8882.471304,3600.648841
22302.242643,0.000000,-4811.338623,-2145.067394
22302.242977,1702.473667,-9918.759623,2604.724693
22302.243310,1110.308913,-7550.100608,1072.533697
22302.243643,6587.832884,-8734.430116,5592.497135
22302.243977,5847.626942,-7698.141797,7890.783629
22302.244310,5921.647536,-5995.668130,3064.381992
22302.244643,2294.638420,-11251.130318,2374.896044
22302.244977,814.226536,-8142.265362,-7048.078582
22302.245310,-2368.659014,-12805.562797,-3907.087040
22302.245643,-2516.700203,-14211.954086,-842.705048
22302.245977,-444.123565,-7772.162391,-2681.334243
22302.246310,-3330.926739,-12731.542202,-383.047749
22302.246643,4663.297435,-5921.647536,3370.820191
22302.246976,0.000000,-8068.244768,3447.429741
22302.247310,3775.050304,-74.020594,1532.190996
22302.247643,-74.020594,-13619.789333,2987.772442
22302.247976,3478.967927,-3552.988522,-383.047749
22302.248310,3701.029710,-10140.821405,1532.190996
22302.248643,-296.082377,-15396.283594,2987.772442
22302.248976,2960.823768,-6143.709319,-919.314598
22302.249310,-4811.338623,-13101.645173,-3830.477490
22302.249643,1480.411884,-4959.379811,-4060.306139
22302.249976,-6513.812290,-13693.809927,-5822.325785
22302.250310,148.041188,-9548.656652,1225.752797
22302.250643,2294.638420,-11547.212695,2987.772442
22302.250976,-2886.803174,-10732.986159,919.314598
22302.251310,592.164754,-5995.668130,4290.134789
22302.251643,1184.329507,-6587.832884,3064.381992
22302.251976,1258.350101,-10658.965565,4749.792088
22302.252310,5181.441594,-2146.597232,4673.182538
22302.252643,-4589.276840,-13397.727550,-1685.410096
22302.252976,-74.020594,-6809.894666,-689.485948
22302.253310,-4145.153275,-13397.727550,1838.629195
22302.253643,-2590.720797,-8290.306550,-3907.087040
22302.253976,-2442.679609,-5551.544565,-6741.640382
22302.254310,-4959.379811,-15914.427753,-4290.134789
22302.254643,2294.638420,-9178.553681,1762.019645
22302.254976,-2664.741391,-9844.739029,-1149.143247
22302.255310,5107.421000,-11251.130318,3983.696590
22302.255643,2146.597232,-8660.409521,5592.497135
22302.255976,6217.729913,-6291.750507,6128.763984
22302.256310,4663.297435,-7698.141797,4826.401637
22302.256643,-2960.823768,-10288.862594,3064.381992
22302.256976,-3552.988522,-7179.997637,-1838.629195
22302.257310,-74.020594,-9474.636058,-842.705048
22302.257643,-1850.514855,-10214.842000,-4213.525239
22302.257976,-2590.720797,-8290.306550,-2528.115143
22302.258310,-3034.844362,-8290.306550,-2068.457845
22302.258643,-1554.432478,-8290.306550,-1685.410096
22302.258976,0.000000,-8068.244768,919.314598
22302.259310,3478.967927,-10362.883188,1838.629195
22302.259643,4589.276840,-9030.512492,3447.429741
22302.259976,3923.091493,-9918.759623,2604.724693
22302.260310,1776.494261,-13101.645173,2911.162892
22302.260643,-888.247130,-5995.668130,0.000000
22302.260976,-74.020594,-10658.965565,-1915.238745
22302.261310,-2442.679609,-6735.874072,-3677.258390
22302.261643,-1184.329507,-13471.748144,-689.485948
22302.261976,3923.091493,-7105.977043,2987.772442
22302.262310,-1924.535449,-9548.656652,0.000000
22302.262643,5847.626942,-6513.812290,3677.258390
22302.262976,1036.288319,-7105.977043,3600.648841
22302.263310,3404.947333,-10807.006753,1762.019645
22302.263643,4737.318029,-8364.327145,3677.258390
22302.263976,2294.638420,-11251.130318,-689.485948
22302.264310,1776.494261,-8364.327145,0.000000
22302.264643,-3552.988522,-11621.233289,-1455.581446
22302.264976,-666.185348,-11843.295072,-5592.497135
22302.265310,-3997.112087,-9844.739029,766.095498
22302.265643,370.102971,-6587.832884,-1149.143247
22302.265976,-3330.926739,-11177.109724,1225.752797
22302.266310,0.000000,-4885.359217,1149.143247
22302.266643,4071.132681,-7994.224174,4213.525239
22302.266976,3478.967927,-9178.553681,2681.334243
22302.267310,5921.647536,-5403.503377,4519.963438
22302.267643,2294.638420,-13027.624579,2374.896044
22302.267976,2368.659014,-7772.162391,1532.190996
22302.268310,1554.432478,-10362.883188,-689.485948
22302.268643,-1406.391290,-11325.150913,-6281.983084
22302.268976,-3256.906145,-12583.501014,-6588.421283
22302.269310,-2368.659014,-11843.295072,-2681.334243
22302.269643,-2664.741391,-10955.047942,-995.924147
22302.269976,-4737.318029,-8068.244768,-2451.505594
22302.270309,-2072.576638,-11843.295072,3294.210641
22302.270643,1332.370696,-4811.338623,3677.258390
22302.270976,4737.318029,-2442.679609,8580.269578
22302.271309,3478.967927,-7105.977043,6665.030833
22302.271643,4737.318029,-5403.503377,3830.477490
22302.271976,-1110.308913,-9918.759623,0.000000
22302.272309,-74.020594,-10658.965565,-3907.087040
22302.272643,-2368.659014,-11917.315666,-4903.011187
22302.272976,-1776.494261,-11473.192101,-7431.126331
22302.273309,-3330.926739,-16062.468941,-3140.991542
22302.273643,-2146.597232,-8956.491898,-1608.800546
22302.273976,-4145.153275,-13175.665768,1378.971896
22302.274309,-74.020594,-7105.977043,4826.401637
22302.274643,-666.185348,-5551.544565,2451.505594
22302.274976,4145.153275,-2442.679609,6435.202183
22302.275309,6069.688724,-4145.153275,6665.030833
22302.275643,3552.988522,-7179.997637,4903.011187
22302.275976,2368.659014,-6735.874072,1915.238745
22302.276309,2664.741391,-8512.368333,-2451.505594
22302.276643,-444.123565,-14878.139434,-4519.963438
22302.276976,-74.020594,-12287.418637,-8656.879127
22302.277309,-7105.977043,-16654.633695,-5209.449386
22302.277643,-8142.265362,-9548.656652,-6128.763984
22302.277976,740.205942,-12287.418637,-76.609550
22302.278309,2294.638420,-11843.295072,6052.154434
22302.278643,7031.956449,-4441.235652,7890.783629
22302.278976,3478.967927,-6365.771101,8810.098227
22302.279309,2738.761985,-3256.906145,5132.839837
22302.279643,2072.576638,-6661.853478,4826.401637
22302.279976,1258.350101,-4885.359217,2604.724693
22302.280309,2886.803174,-7105.977043,-2528.115143
22302.280642,-1184.329507,-14285.974681,-1532.190996
22302.280976,-3478.967927,-9548.656652,-8580.269578
22302.281309,-3627.009116,-13619.789333,-8580.269578
22302.281642,-2368.659014,-12509.480420,-2451.505594
22302.281975,-2664.741391,-15248.242405,-2374.896044
22302.282309,1110.308913,-11843.295072,842.705048
22302.282642,2664.741391,-8586.388927,6665.030833
22302.282975,3849.070898,-5181.441594,6665.030833
22302.283309,2368.659014,-3034.844362,4903.011187
22302.283642,3182.885551,-7105.977043,5439.278036
22302.283975,3182.885551,-7698.141797,2374.896044
22302.284308,0.000000,-7179.997637,2757.943793
22302.284642,3478.967927,-9474.636058,-689.485948
22302.284975,-4293.194464,-11695.253884,-6281.983084
22302.285308,-3923.091493,-13767.830521,-4060.306139
22302.285641,-4293.194464,-11991.336260,-4979.620737
22302.285975,-2072.576638,-11325.150913,-2834.553343
22302.286308,-2960.823768,-10732.986159,919.314598
22302.286641,-74.020594,-8882.471304,-1915.238745
22302.286975,-1184.329507,-7179.997637,4903.011187
22302.287308,8216.285956,-9474.636058,8503.660028
22302.287641,4663.297435,-8290.306550,6971.469032
22302.287974,4145.153275,-3923.091493,7277.907231
22302.288308,1332.370696,-7920.203579,229.828649
22302.288641,-1998.556043,-12287.418637,-536.266849
22302.288974,-740.205942,-7772.162391,-3677.258390
22302.289307,-2960.823768,-12509.480420,-1302.362347
22302.289641,-1184.329507,-9770.718434,-2757.943793
22302.289974,-1406.391290,-10510.924376,-3677.258390
22302.290307,-2886.803174,-12805.562797,-612.876398
22302.290641,1702.473667,-6365.771101,1072.533697
22302.290974,0.000000,-7179.997637,2528.115143
22302.291307,4071.132681,-5921.647536,3600.648841
22302.291640,814.226536,-6291.750507,612.876398
22302.291974,3256.906145,-9474.636058,4213.525239
22302.292307,1110.308913,-7105.977043,2987.772442
22302.292640,0.000000,-6587.832884,-4213.525239
22302.292973,-3108.864956,-12657.521608,-1608.800546
22302.293307,-3923.091493,-10140.821405,-4903.011187
22302.293640,0.000000,-11029.068536,-3677.258390
22302.293973,-148.041188,-12065.356855,3294.210641
22302.294307,1702.473667,-8882.471304,-1532.190996
22302.294640,0.000000,-5995.668130,0.000000
22302.294973,2960.823768,-9474.636058,5439.278036
22302.295306,2368.659014,-4811.338623,0.000000
22302.295640,3627.009116,-9770.718434,6205.373534
22302.295973,3256.906145,-5773.606348,1532.190996
22302.296306,148.041188,-10214.842000,842.705048
22302.296639,1702.473667,-10658.965565,-1302.362347
22302.296973,-1184.329507,-12509.480420,-995.924147
22302.297306,-2442.679609,-8660.409521,-3524.039291
22302.297639,-3256.906145,-10140.821405,-3370.820191
22302.297973,-8734.430116,-12213.398043,0.000000
22302.298306,-2738.761985,-7105.977043,-76.609550
22302.298639,-74.020594,-6217.729913,2374.896044
22302.298972,3330.926739,-4145.153275,3830.477490
22302.299306,4293.194464,-6957.935855,6205.373534
22302.299639,3627.009116,-4515.256246,4673.182538
22302.299972,3923.091493,-9474.636058,2374.896044
22302.300305,-2368.659014,-9548.656652,-4903.011187
22302.300639,1776.494261,-12805.562797,-2528.115143
22302.300972,-1850.514855,-14730.098246,-4519.963438
22302.301305,0.000000,-9548.656652,-6128.763984
22302.301638,-814.226536,-13027.624579,76.609550
22302.301972,-222.061783,-9104.533087,995.924147
22302.302305,-3552.988522,-9474.636058,1149.143247
22302.302638,2368.659014,-9400.615463,5975.544884
22302.302972,2294.638420,-4071.132681,2451.505594
22302.303305,5921.647536,-5625.565159,4519.963438
22302.303638,-74.020594,-11843.295072,4826.401637
22302.303971,0.000000,-3627.009116,3983.696590
22302.304305,4737.318029,-4219.173869,306.438199
22302.304638,0.000000,-14285.974681,-459.657299
22302.304971,1036.288319,-7624.121203,-6741.640382
22302.305304,-4737.318029,-16210.510130,-5209.449386
22302.305638,-666.185348,-15100.201217,-2221.676944
22302.305971,-3849.070898,-12213.398043,-4903.011187
22302.306304,-592.164754,-11917.315666,1532.190996
22302.306638,2960.823768,-5551.544565,3370.820191
22302.306971,2220.617826,-8290.306550,6971.469032
22302.307304,5625.565159,-4071.132681,8503.660028
22302.307637,-370.102971,-7179.997637,5209.449386
22302.307971,4737.318029,-4811.338623,8503.660028
22302.308304,5255.462188,-6365.771101,306.438199
22302.308637,4145.153275,-10732.986159,0.000000
22302.308970,-666.185348,-9548.656652,-2451.505594
22302.309304,-3627.009116,-13397.727550,-5898.935335
22302.309637,-4737.318029,-10658.965565,-5439.278036
22302.309970,-5773.606348,-11769.274478,-7277.907231
22302.310304,-2368.659014,-11473.192101,-3753.867940
22302.310637,-1258.350101,-12435.459826,2374.896044
22302.310970,4737.318029,-3627.009116,7048.078582
22302.311303,1184.329507,-9844.739029,11874.480219
22302.311637,3775.050304,-5625.565159,6665.030833
22302.311970,1184.329507,-4219.173869,2451.505594
22302.312303,592.164754,-11547.212695,3600.648841
22302.312636,5921.647536,-5699.585753,2528.115143
22302.312970,-2442.679609,-11103.089130,-2451.505594
22302.313303,-666.185348,-8290.306550,-5592.497135
22302.313636,-4811.338623,-11917.315666,-9193.145976
22302.313970,-2368.659014,-13693.809927,-2528.115143
22302.314303,-666.185348,-10732.986159,-383.047749
22302.314636,-74.020594,-8142.265362,-1762.019645
22302.314969,-2368.659014,-9474.636058,1149.143247
22302.315303,2072.576638,-6291.750507,9499.584175
22302.315636,5699.585753,-1406.391290,6281.983084
22302.315969,3330.926739,-8142.265362,5898.935335
22302.316302,2368.659014,-9474.636058,2451.505594
22302.316636,-2368.659014,-7772.162391,-3064.381992
22302.316969,-2442.679609,-15396.283594,-1915.238745
22302.317302,-2738.761985,-9548.656652,-6741.640382
22302.317636,-1776.494261,-11325.150913,-4290.134789
22302.317969,2294.638420,-11547.212695,-76.609550
22302.318302,0.000000,-9844.739029,-2298.286494
22302.318635,1036.288319,-9252.574275,1762.019645
22302.318969,3108.864956,-6809.894666,3524.039291
22302.319302,1184.329507,-6587.832884,3064.381992
22302.319635,6883.915261,-9474.636058,2987.772442
22302.319968,2368.659014,-11029.068536,2451.505594
22302.320302,3552.988522,-8364.327145,11874.480219
22302.320635,-74.020594,-7550.100608,-2145.067394
22302.320968,-74.020594,-9918.759623,-76.609550
22302.321302,-8068.244768,-12361.439231,-2987.772442
22302.321635,-3404.947333,-6587.832884,-4903.011187
22302.321968,-3923.091493,-10881.027347,-2681.334243
22302.322301,0.000000,-5403.503377,-3677.258390
22302.322635,3478.967927,-10066.800811,5132.839837
22302.322968,592.164754,-5847.626942,4519.963438
22302.323301,4441.235652,-5699.585753,1378.971896
22302.323634,-2368.659014,-13989.892304,-612.876398
22302.323968,6661.853478,-9548.656652,2451.505594
22302.324301,666.185348,-10658.965565,3600.648841
22302.324634,2294.638420,-9326.594869,-2987.772442
22302.324968,-4145.153275,-9992.780217,-2221.676944
22302.325301,-444.123565,-12435.459826,1149.143247
22302.325634,222.061783,-8956.491898,0.000000
22302.325967,-1850.514855,-7920.203579,0.000000
22302.326301,-2072.576638,-6365.771101,-842.705048
22302.326634,-3701.029710,-7698.141797,1149.143247
22302.326967,4737.318029,-4367.215058,3677.258390
22302.327300,3478.967927,-8882.471304,3600.648841
22302.327634,1480.411884,-7179.997637,0.000000
22302.327967,0.000000,-10732.986159,766.095498
22302.328300,-666.185348,-14211.954086,1149.143247
22302.328634,1184.329507,-5699.585753,-3524.039291
22302.328967,-3108.864956,-14434.015869,-2221.676944
22302.329300,0.000000,-8364.327145,-2145.067394
22302.329633,-3849.070898,-13471.748144,-1302.362347
22302.329967,2294.638420,-9474.636058,3294.210641
22302.330300,-74.020594,-7698.141797,-4060.306139
22302.330633,0.000000,-9474.636058,3600.648841
22302.330966,4663.297435,-7105.977043,4826.401637
22302.331300,1998.556043,-6587.832884,2451.505594
22302.331633,8142.265362,-7105.977043,7890.783629
22302.331966,1184.329507,-10732.986159,2911.162892
22302.332300,4071.132681,-7328.038826,-919.314598
22302.332633,-1110.308913,-11843.295072,-2681.334243
22302.332966,370.102971,-13471.748144,-5898.935335
22302.333299,-2072.576638,-10732.986159,-4290.134789
22302.333633,-1776.494261,-12361.439231,-842.705048
22302.333966,-2442.679609,-10955.047942,-1762.019645
22302.334299,-6957.935855,-4811.338623,0.000000
22302.334632,2220.617826,-7698.141797,1149.143247
22302.334966,2664.741391,-4367.215058,6281.983084
22302.335299,2442.679609,-8142.265362,4749.792088
22302.335632,2220.617826,-6735.874072,3524.039291
22302.335966,-666.185348,-7846.182985,1455.581446
22302.336299,2368.659014,-7994.224174,612.876398
22302.336632,1406.391290,-9918.759623,-1532.190996
22302.336965,1998.556043,-10510.924376,-2911.162892
22302.337299,-2960.823768,-13471.748144,-3677.258390
22302.337632,-1850.514855,-15396.283594,-3140.991542
22302.337965,-1258.350101,-9252.574275,-3370.820191
22302.338298,-3552.988522,-8364.327145,-2451.505594
22302.338632,1480.411884,-8068.244768,3447.429741
22302.338965,296.082377,-7328.038826,5056.230287
22302.339298,3552.988522,-4737.318029,4826.401637
22302.339632,740.205942,-9474.636058,4290.134789
22302.339965,1554.432478,-5403.503377,6588.421283
22302.340298,3478.967927,-4737.318029,-76.609550
22302.340631,0.000000,-9696.697840,153.219100
22302.340965,-1850.514855,-9548.656652,-4903.011187
22302.341298,-3034.844362,-13027.624579,-8044.002729
22302.341631,-1258.350101,-15100.201217,-3140.991542
22302.341964,-1258.350101,-11251.130318,-5592.497135
22302.342298,-962.267725,-12583.501014,-919.314598
22302.342631,1406.391290,-8438.347739,2221.676944
22302.342964,3923.091493,-7624.121203,4826.401637
22302.343298,1406.391290,-7920.203579,5592.497135
22302.343631,4737.318029,-7772.162391,6052.154434
22302.343964,2368.659014,-5995.668130,3677.258390
22302.344297,8216.285956,-8290.306550,1762.019645
22302.344631,1332.370696,-13101.645173,4290.134789
22302.344964,-1184.329507,-3627.009116,-3294.210641
22302.345297,-3034.844362,-14656.077652,-6128.763984
22302.345630,-2738.761985,-9178.553681,-3600.648841
22302.345964,-3478.967927,-11843.295072,-6894.859482
22302.346297,-2516.700203,-8438.347739,-995.924147
22302.346630,-4515.256246,-8290.306550,-4366.744339
22302.346964,148.041188,-10584.944971,3600.648841
22302.347297,4663.297435,-8290.306550,4826.401637
22302.347630,592.164754,-7179.997637,8580.269578
22302.347963,5625.565159,-6809.894666,4826.401637
22302.348297,4071.132681,-11251.130318,4826.401637
22302.348630,2072.576638,-7846.182985,1532.190996
22302.348963,1998.556043,-9548.656652,-1302.362347
22302.349296,-666.185348,-11917.315666,-2221.676944
22302.349630,-2368.659014,-10732.986159,-3677.258390
22302.349963,-74.020594,-10658.965565,-5898.935335
22302.350296,0.000000,-12509.480420,842.705048
22302.350630,1480.411884,-9178.553681,2374.896044
22302.350963,3478.967927,-7105.977043,2987.772442
22302.351296,-1776.494261,-8068.244768,3907.087040
22302.351629,1258.350101,-5921.647536,1532.190996
22302.351963,3849.070898,-7698.141797,5209.449386
22302.352296,3034.844362,-7031.956449,1915.238745
22302.352629,-2368.659014,-7772.162391,919.314598
22302.352962,-2368.659014,-9770.718434,-3064.381992
22302.353296,-2442.679609,-13323.706956,-3753.867940
22302.353629,1184.329507,-8364.327145,-1608.800546
22302.353962,-1406.391290,-12287.418637,-2451.505594
22302.354296,-1184.329507,-8956.491898,1378.971896
22302.354629,-222.061783,-7698.141797,-2528.115143
22302.354962,1702.473667,-11547.212695,1378.971896
22302.355295,4737.318029,-4219.173869,5745.716235
22302.355629,2294.638420,-10658.965565,2987.772442
22302.355962,5773.606348,-4811.338623,3600.648841
22302.356295,148.041188,-10362.883188,1915.238745
22302.356628,2294.638420,-8882.471304,1455.581446
22302.356962,0.000000,-9548.656652,-1838.629195
22302.357295,-4737.318029,-12509.480420,-5515.887586
22302.357628,-2442.679609,-13619.789333,-4060.306139
22302.357962,-2368.659014,-9548.656652,-3370.820191
22302.358295,-2960.823768,-10732.986159,919.314598
22302.358628,-1332.370696,-1850.514855,76.609550
22302.358961,-2294.638420,-9178.553681,2987.772442
22302.359295,888.247130,-962.267725,1225.752797
22302.359628,2072.576638,-8142.265362,3217.601092
22302.359961,4515.256246,-8882.471304,3447.429741
22302.360294,3552.988522,-8660.409521,5132.839837
22302.360628,-3034.844362,-11473.192101,-4903.011187
22302.360961,3552.988522,-10066.800811,-3140.991542
22302.361294,-5995.668130,-18357.107362,-4366.744339
22302.361628,4293.194464,-9474.636058,-919.314598
22302.361961,-2294.638420,-11177.109724,-536.266849
22302.362294,370.102971,-9622.677246,1455.581446
22302.362627,-962.267725,-8068.244768,3524.039291
22302.362961,1554.432478,-3034.844362,4290.134789
22302.363294,7328.038826,-4737.318029,8503.660028
22302.363627,0.000000,-2442.679609,3064.381992
22302.363960,2664.741391,-6587.832884,-76.609550
22302.364294,-2738.761985,-12139.377449,-6741.640382
22302.364627,0.000000,-12139.377449,-4596.572988
22302.364960,-1332.370696,-13101.645173,0.000000
22302.365294,0.000000,-10658.965565,-2298.286494
22302.365627,-1924.535449,-9474.636058,-153.219100
22302.365960,-3552.988522,-11621.233289,-2451.505594
22302.366293,2294.638420,-6809.894666,-995.924147
22302.366627,0.000000,-10362.883188,3600.648841
22302.366960,4071.132681,-8290.306550,4826.401637
22302.367293,0.000000,-4811.338623,8580.269578
22302.367626,592.164754,-4959.379811,306.438199
22302.367960,-296.082377,-9252.574275,1225.752797
22302.368293,2886.803174,-7402.059420,-1608.800546
22302.368626,666.185348,-11695.253884,-459.657299
22302.368960,592.164754,-9104.533087,-2451.505594
22302.369293,-1850.514855,-13545.768739,-3217.601092
22302.369626,-2738.761985,-10436.903782,-4596.572988
22302.369959,518.144159,-11547.212695,-2834.553343
22302.370293,-666.185348,-11917.315666,0.000000
22302.370626,0.000000,-8660.409521,3064.381992
22302.370959,-370.102971,-7994.224174,3907.087040
22302.371292,-962.267725,-1850.514855,3677.258390
22302.371626,-222.061783,-9400.615463,3600.648841
22302.371959,4367.215058,-5329.482782,2374.896044
22302.372292,1184.329507,-6587.832884,4903.011187
22302.372626,2220.617826,-8956.491898,766.095498
22302.372959,1554.432478,-8290.306550,-2068.457845
22302.373292,-6143.709319,-14878.139434,-6128.763984
22302.373625,740.205942,-11843.295072,-4060.306139
22302.373959,-1850.514855,-10732.986159,-4903.011187
22302.374292,-592.164754,-14211.954086,-1838.629195
22302.374625,-1036.288319,-7550.100608,1762.019645
22302.374958,-1258.350101,-9696.697840,1225.752797
22302.375292,4737.318029,-6439.791695,9116.536426
22302.375625,2960.823768,-3627.009116,8733.488677
22302.375958,5255.462188,-1110.308913,459.657299
22302.376292,1110.308913,-11843.295072,3907.087040
22302.376625,1110.308913,-10066.800811,1149.143247
22302.376958,1998.556043,-8364.327145,0.000000
22302.377291,-74.020594,-13027.624579,-2528.115143
22302.377625,-2886.803174,-8290.306550,-9576.193725
22302.377958,-4737.318029,-12213.398043,-3064.381992
22302.378291,-74.020594,-11547.212695,-5286.058936
22302.378624,-888.247130,-11473.192101,-76.609550
22302.378958,-1480.411884,-10732.986159,1991.848295
22302.379291,1184.329507,-5329.482782,3600.648841
22302.379624,1184.329507,-4219.173869,4903.011187
22302.379957,5625.565159,-6735.874072,8886.707777
22302.380291,7031.956449,-7105.977043,5439.278036
22302.380624,0.000000,-6587.832884,1378.971896
22302.380957,0.000000,-11621.233289,1685.410096
22302.381290,-74.020594,-10658.965565,-4366.744339
22302.381624,888.247130,-11843.295072,-3753.867940
22302.381957,-222.061783,-10881.027347,306.438199
22302.382290,-4589.276840,-10140.821405,-4290.134789
22302.382623,-4367.215058,-9252.574275,-1072.533697
22302.382956,-2368.659014,-9178.553681,-536.266849
22302.383290,2886.803174,-7179.997637,4060.306139
22302.383623,3478.967927,-6217.729913,6818.249932
22302.383956,1110.308913,-9474.636058,4213.525239
22302.384289,1258.350101,-8290.306550,4519.963438
22302.384623,-4589.276840,-8660.409521,0.000000
22302.384956,4071.132681,-8882.471304,-76.609550
22302.385289,-1850.514855,-11547.212695,-3907.087040
22302.385622,-74.020594,-12435.459826,-3140.991542
22302.385956,-1850.514855,-11769.274478,-76.609550
22302.386289,-2516.700203,-9992.780217,-2834.553343
22302.386622,-740.205942,-9696.697840,459.657299
22302.386955,-1258.350101,-9030.512492,3600.648841
22302.387289,3478.967927,-5181.441594,4826.401637
22302.387622,0.000000,-3627.009116,3677.258390
22302.387955,3330.926739,-11547.212695,2834.553343
22302.388288,1776.494261,-4811.338623,0.000000
22302.388621,0.000000,-10140.821405,1762.019645
22302.388955,962.267725,-9696.697840,-3677.258390
22302.389288,-1628.453072,-13101.645173,-2451.505594
22302.389621,888.247130,-10214.842000,459.657299
22302.389954,-148.041188,-11177.109724,-842.705048
22302.390288,-74.020594,-8290.306550,-383.047749
22302.390621,-2590.720797,-11843.295072,1762.019645
22302.390954,1110.308913,-7994.224174,3600.648841
22302.391287,2294.638420,-4811.338623,2451.505594
22302.391621,3849.070898,-4811.338623,7354.516781
22302.391954,222.061783,-8068.244768,1838.629195
22302.392287,2590.720797,-6809.894666,-383.047749
22302.392620,888.247130,-11177.109724,-612.876398
22302.392954,1702.473667,-9622.677246,-2604.724693
22302.393287,296.082377,-11325.150913,-3677.258390
22302.393620,-666.185348,-15396.283594,-4979.620737
22302.393953,-1628.453072,-12065.356855,-766.095498
22302.394286,0.000000,-7772.162391,-229.828649
22302.394620,2886.803174,-10658.965565,-76.609550
22302.394953,-1036.288319,-8882.471304,4519.963438
22302.395286,2146.597232,-5033.400406,2528.115143
22302.395619,2072.576638,-8512.368333,7507.735880
22302.395953,2960.823768,-7105.977043,1608.800546
22302.396286,2886.803174,-10288.862594,4826.401637
22302.396619,-74.020594,-6513.812290,-1991.848295
22302.396952,-1776.494261,-9548.656652,-2451.505594
22302.397286,-2368.659014,-11325.150913,-766.095498
22302.397619,-74.020594,-11843.295072,-3753.867940
22302.397952,-4441.235652,-13027.624579,-3753.867940
22302.398285,-1332.370696,-11843.295072,1072.533697
22302.398619,-5033.400406,-7254.018232,-383.047749
22302.398952,2368.659014,-4959.379811,0.000000
22302.399285,1628.453072,-11473.192101,6665.030833
22302.399618,2294.638420,-5181.441594,2987.772442
22302.399951,-74.020594,-10066.800811,1608.800546
22302.400285,5699.585753,-8364.327145,2681.334243
22302.400618,1184.329507,-9844.739029,3064.381992
22302.400951,5921.647536,-6587.832884,7124.688131
22302.401284,3182.885551,-8882.471304,76.609550
22302.401618,-3701.029710,-10140.821405,-4290.134789
22302.401951,-1776.494261,-11103.089130,-4366.744339
22302.402284,-6587.832884,-11251.130318,-2834.553343
22302.402617,-4737.318029,-9400.615463,-5286.058936
22302.402951,-3923.091493,-10807.006753,1225.752797
22302.403284,-1184.329507,-6365.771101,2528.115143
22302.403617,888.247130,-3775.050304,3677.258390
22302.403950,-74.020594,-8660.409521,6358.592633
22302.404284,2886.803174,-4811.338623,0.000000
22302.404617,1184.329507,-9992.780217,3064.381992
22302.404950,4663.297435,-11251.130318,2987.772442
22302.405283,0.000000,-11917.315666,-2451.505594
22302.405616,-666.185348,-11843.295072,-4979.620737
22302.405950,1554.432478,-9918.759623,-3753.867940
22302.406283,-2368.659014,-13989.892304,-1915.238745
22302.406616,1702.473667,-8882.471304,-2528.115143
22302.406949,-1480.411884,-11399.171507,2987.772442
22302.407283,-666.185348,-8660.409521,-1838.629195
22302.407616,2516.700203,-6587.832884,6205.373534
22302.407949,2960.823768,-8808.450710,6971.469032
22302.408282,5847.626942,-3849.070898,6052.154434
22302.408616,1406.391290,-9992.780217,4903.011187
22302.408949,1850.514855,-6957.935855,995.924147
22302.409282,-4219.173869,-13027.624579,-2987.772442
22302.409615,-3404.947333,-9548.656652,-4290.134789
22302.409949,-666.185348,-9474.636058,-2528.115143
22302.410282,0.000000,-4219.173869,-4903.011187
22302.410615,-2368.659014,-10732.986159,-1302.362347
22302.410948,-1258.350101,-10658.965565,-1302.362347
22302.411281,1406.391290,-9696.697840,-1608.800546
22302.411615,3552.988522,-10140.821405,5515.887586
22302.411948,3997.112087,-10436.903782,3447.429741
22302.412281,6809.894666,-6291.750507,3983.696590
22302.412614,5921.647536,-12065.356855,9882.631924
22302.412948,7031.956449,-3627.009116,1225.752797
22302.413281,2368.659014,-12435.459826,3600.648841
22302.413614,-2442.679609,-9474.636058,-4366.744339
22302.413947,-6513.812290,-9548.656652,-6128.763984
22302.414281,-5921.647536,-10732.986159,-2451.505594
22302.414614,-4071.132681,-8364.327145,-3983.696590
22302.414947,-4441.235652,-9548.656652,-1532.190996
22302.415280,0.000000,-5773.606348,2221.676944
22302.415614,-74.020594,-8290.306550,1915.238745
22302.415947,1850.514855,-5699.585753,2451.505594
22302.416280,1628.453072,-10066.800811,4213.525239
22302.416613,2368.659014,-8364.327145,1225.752797
22302.416946,2294.638420,-10214.842000,1838.629195
22302.417280,1480.411884,-11769.274478,0.000000
22302.417613,3478.967927,-8734.430116,-1532.190996
22302.417946,0.000000,-10732.986159,2451.505594
22302.418279,-74.020594,-13027.624579,-2528.115143
22302.418613,-5255.462188,-8734.430116,-2987.772442
22302.418946,-5921.647536,-13397.727550,-1149.143247
22302.419279,1406.391290,-5107.421000,2451.505594
22302.419612,-2294.638420,-9844.739029,6358.592633
22302.419946,4589.276840,888.247130,3217.601092
22302.420279,2886.803174,-8882.471304,4213.525239
22302.420612,-74.020594,-7179.997637,306.438199
22302.420945,2368.659014,-8882.471304,-76.609550
22302.421279,-4811.338623,-13619.789333,-6971.469032
22302.421612,-4145.153275,-12509.480420,-8273.831378
22302.421945,-4219.173869,-13027.624579,-4060.306139
22302.422278,-2516.700203,-12805.562797,-1455.581446
22302.422612,-74.020594,-7624.121203,-995.924147
22302.422945,1998.556043,-8808.450710,3907.087040
22302.423278,0.000000,-8438.347739,4366.744339
22302.423611,5255.462188,2294.638420,11031.775171
22302.423944,3108.864956,-9474.636058,7890.783629
22302.424278,9400.615463,-4737.318029,2068.457845
22302.424611,1184.329507,-10140.821405,2145.067394
22302.424944,1110.308913,-9474.636058,-4366.744339
22302.425277,2294.638420,-9178.553681,-4673.182538
22302.425611,-4737.318029,-15026.180623,-6665.030833
22302.425944,-1554.432478,-13175.665768,-7201.297681
22302.426277,-5921.647536,-13397.727550,-4290.134789
22302.426610,-1184.329507,-10955.047942,-76.609550
22302.426944,3478.967927,-5921.647536,2068.457845
22302.427277,5033.400406,-4811.338623,12257.527968
22302.427610,4737.318029,-2590.720797,10955.165621
22302.427943,3478.967927,-5033.400406,2451.505594
22302.428277,2516.700203,-9474.636058,383.047749
22302.428610,2294.638420,-11251.130318,1455.581446
22302.428943,3256.906145,-7994.224174,-1378.971896
22302.429276,296.082377,-12065.356855,-3524.039291
22302.429609,-2072.576638,-13397.727550,-8503.660028
22302.429943,-1480.411884,-14359.995275,-3830.477490
22302.430276,-1258.350101,-12213.398043,-1072.533697
22302.430609,3775.050304,-7105.977043,-229.828649
22302.430942,-3552.988522,-10140.821405,4136.915689
22302.431276,-2368.659014,-3627.009116,5209.449386
22302.431609,2294.638420,-4737.318029,4826.401637
22302.431942,1702.473667,-7698.141797,3907.087040
22302.432275,3478.967927,-8290.306550,5439.278036
22302.432609,-2442.679609,-7698.141797,-995.924147
22302.432942,-3701.029710,-12583.501014,-3140.991542
22302.433275,-3404.947333,-9104.533087,-4673.182538
22302.433608,-6291.750507,-14804.118840,-5286.058936
22302.433942,2294.638420,-10066.800811,-2528.115143
22302.434275,-4737.318029,-10732.986159,306.438199
22302.434608,1998.556043,-11843.295072,-689.485948
22302.434941,74.020594,-6513.812290,2374.896044
22302.435274,-2368.659014,-7179.997637,3064.381992
22302.435608,4367.215058,-5033.400406,4903.011187
22302.435941,888.247130,-6661.853478,2834.553343
22302.436274,3552.988522,-8956.491898,995.924147
22302.436607,-592.164754,-9918.759623,-1225.752797
22302.436941,0.000000,-9548.656652,-1225.752797
22302.437274,1110.308913,-13027.624579,2374.896044
22302.437607,-74.020594,-9474.636058,-3140.991542
22302.437940,0.000000,-7179.997637,306.438199
22302.438274,-1924.535449,-11843.295072,-766.095498
22302.438607,1184.329507,-4811.338623,766.095498
22302.438940,-4367.215058,-10807.006753,2221.676944
22302.439273,0.000000,-7550.100608,919.314598
22302.439607,-2220.617826,-8364.327145,1608.800546
22302.439940,-2368.659014,-7476.080014,0.000000
22302.440273,4663.297435,-7105.977043,-689.485948
22302.440606,2738.761985,-5995.668130,1378.971896
22302.440939,4737.318029,-10732.986159,5745.716235
22302.441273,4071.132681,-8290.306550,-383.047749
22302.441606,592.164754,-11547.212695,-2834.553343
22302.441939,3034.844362,-10066.800811,-4903.011187
22302.442272,1554.432478,-17764.942608,2681.334243
22302.442606,2146.597232,-7994.224174,2451.505594
22302.442939,-74.020594,-11843.295072,-2528.115143
22302.443272,1702.473667,-5477.523971,0.000000
22302.443605,1184.329507,-6069.688724,2068.457845
22302.443939,4663.297435,-4737.318029,2374.896044
22302.444272,2590.720797,-7550.100608,0.000000
22302.444605,-740.205942,-11843.295072,-76.609550
22302.444938,148.041188,-10066.800811,842.705048
22302.445272,-3849.070898,-11029.068536,-3983.696590
22302.445605,-222.061783,-10732.986159,-3217.601092
22302.445938,-74.020594,-11251.130318,-76.609550
22302.446271,518.144159,-10732.986159,459.657299
22302.446604,-3775.050304,-8364.327145,-3140.991542
22302.446938,-2294.638420,-11547.212695,1762.019645
22302.447271,-2368.659014,-5107.421000,2757.943793
22302.447604,6513.812290,-5181.441594,9729.412825
22302.447937,4959.379811,-3775.050304,5056.230287
22302.448271,592.164754,-7772.162391,3064.381992
22302.448604,-74.020594,-13619.789333,-689.485948
22302.448937,1480.411884,-10362.883188,2528.115143
22302.449270,0.000000,-10955.047942,-612.876398
22302.449604,-592.164754,-7994.224174,-2068.457845
22302.449937,-7031.956449,-11547.212695,-3753.867940
22302.450270,-4071.132681,-10362.883188,-1915.238745
22302.450603,-5329.482782,-9844.739029,2374.896044
22302.450937,-4811.338623,-7476.080014,-1225.752797
22302.451270,0.000000,-4811.338623,2451.505594
22302.451603,-2368.659014,-5921.647536,3294.210641
22302.451936,4145.153275,-6587.832884,306.438199
22302.452269,2294.638420,-7698.141797,2987.772442
22302.452603,3701.029710,-10955.047942,3294.210641
22302.452936,2072.576638,-7846.182985,-2451.505594
22302.453269,1998.556043,-14211.954086,-5898.935335
22302.453602,3256.906145,-18357.107362,-995.924147
22302.453936,2294.638420,-8364.327145,612.876398
22302.454269,1776.494261,-9844.739029,-76.609550
22302.454602,-4145.153275,-14285.974681,2987.772442
22302.454935,-5403.503377,-7698.141797,-689.485948
22302.455269,-296.082377,-4071.132681,229.828649
22302.455602,1480.411884,-5255.462188,6971.469032
22302.455935,4737.318029,-3034.844362,6818.249932
22302.456268,-5921.647536,-7772.162391,3064.381992
22302.456602,-666.185348,-9474.636058,-995.924147
22302.456935,-1480.411884,-8216.285956,-1838.629195
22302.457268,4367.215058,-13027.624579,-2528.115143
22302.457601,1554.432478,-8956.491898,-3677.258390
22302.457934,-2960.823768,-11917.315666,-4290.134789
22302.458268,-2590.720797,-14063.912898,-4979.620737
22302.458601,3034.844362,-11769.274478,2987.772442
22302.458934,1850.514855,-8586.388927,3600.648841
22302.459267,8216.285956,-6809.894666,9116.536426
22302.459601,0.000000,-6587.832884,1225.752797
22302.459934,6291.750507,-7105.977043,2374.896044
22302.460267,3478.967927,-13027.624579,7277.907231
22302.460600,5921.647536,-2738.761985,4903.011187
22302.460934,2664.741391,-5995.668130,1225.752797
22302.461267,-1702.473667,-9992.780217,-1915.238745
22302.461600,-592.164754,-9400.615463,-8044.002729
22302.461933,-6883.915261,-14137.933492,-6128.763984
22302.462267,-74.020594,-11843.295072,-3753.867940
22302.462600,-7031.956449,-11917.315666,-2451.505594
22302.462933,-3034.844362,-10288.862594,-306.438199
22302.463266,444.123565,-6587.832884,2298.286494
22302.463599,3108.864956,-8512.368333,7507.735880
22302.463933,7476.080014,-4737.318029,8503.660028
22302.464266,1998.556043,-8068.244768,4903.011187
22302.464599,2368.659014,-6587.832884,4749.792088
22302.464932,7031.956449,-10658.965565,2145.067394
22302.465266,2516.700203,-11917.315666,4903.011187
22302.465599,888.247130,-8808.450710,-2221.676944
22302.465932,-6365.771101,-14878.139434,-4443.353888
22302.466265,-4811.338623,-7994.224174,-6205.373534
22302.466599,-2960.823768,-7772.162391,-5669.106685
22302.466932,-3627.009116,-10658.965565,-2528.115143
22302.467265,-4737.318029,-10732.986159,1225.752797
22302.467598,-962.267725,-8290.306550,4826.401637
22302.467932,1702.473667,-6809.894666,4213.525239
22302.468265,0.000000,-3627.009116,3064.381992
22302.468598,4071.132681,-7698.141797,2374.896044
22302.468931,592.164754,-10510.924376,3217.601092
22302.469264,2442.679609,-7031.956449,-1915.238745
22302.469598,-1850.514855,-13915.871710,-76.609550
22302.469931,888.247130,-6291.750507,-3064.381992
22302.470264,-5477.523971,-7772.162391,-4290.134789
22302.470597,-222.061783,-15692.365970,1149.143247
22302.470931,-666.185348,-9474.636058,-689.485948
22302.471264,1406.391290,-5403.503377,-1225.752797
22302.471597,1406.391290,-8068.244768,2451.505594
22302.471930,1554.432478,-5403.503377,2987.772442
22302.472264,1776.494261,-8142.265362,4519.963438
22302.472597,2664.741391,-11547.212695,4443.353888
22302.472930,888.247130,-9622.677246,3677.258390
22302.473263,-1406.391290,-9474.636058,-76.609550
22302.473597,1998.556043,-7994.224174,-2528.115143
22302.473930,-2590.720797,-8364.327145,-3064.381992
22302.474263,1110.308913,-9548.656652,306.438199
22302.474596,370.102971,-6883.915261,-2145.067394
22302.474929,-4737.318029,-9400.615463,-4596.572988
22302.475263,-592.164754,-9992.780217,-1532.190996
22302.475596,1406.391290,-9400.615463,2834.553343
22302.475929,6069.688724,-9178.553681,5822.325785
22302.476262,5033.400406,-9252.574275,5439.278036
22302.476596,4663.297435,-11843.295072,2987.772442
22302.476929,0.000000,-7179.997637,1838.629195
22302.477262,3627.009116,-10584.944971,612.876398
22302.477595,1110.308913,-8364.327145,-1532.190996
22302.477929,-2738.761985,-11399.171507,-6205.373534
22302.478262,1036.288319,-11399.171507,919.314598
22302.478595,-1258.350101,-7031.956449,-1762.019645
22302.478928,1110.308913,-9474.636058,536.266849
22302.479261,-1776.494261,-9474.636058,2374.896044
22302.479594,-3034.844362,-7476.080014,-76.609550
22302.479927,-1406.391290,-8512.368333,-689.485948
22302.480260,2590.720797,-7846.182985,1532.190996
22302.480594,3552.988522,-10140.821405,6052.154434
22302.480927,-2368.659014,-7179.997637,2451.505594
22302.481260,4663.297435,-8882.471304,-1302.362347
22302.481593,-8290.306550,-14285.974681,-7048.078582
22302.481926,3330.926739,-7698.141797,-1302.362347
22302.482259,-370.102971,-11399.171507,-153.219100
22302.482592,2442.679609,-6957.935855,-612.876398
22302.482925,296.082377,-9770.718434,2528.115143
22302.483258,1406.391290,-9844.739029,2451.505594
22302.483591,4811.338623,-5625.565159,6052.154434
22302.483924,2294.638420,-6365.771101,2681.334243
22302.484257,1184.329507,-6587.832884,-3677.258390
22302.484591,-74.020594,-16580.613101,-3753.867940
22302.484924,0.000000,-10140.821405,0.000000
22302.485257,-2368.659014,-5403.503377,1838.629195
22302.485590,1036.288319,-10658.965565,1149.143247
22302.485923,-2738.761985,-9474.636058,-383.047749
22302.486256,-5033.400406,-9548.656652,-3677.258390
22302.486589,-4737.318029,-9548.656652,-3677.258390
22302.486922,-74.020594,-7105.977043,-1608.800546
22302.487255,74.020594,-4737.318029,-76.609550
22302.487588,0.000000,-7179.997637,6741.640382
22302.487921,4071.132681,-7994.224174,2374.896044
22302.488254,1850.514855,-11843.295072,383.047749
22302.488588,2664.741391,-11473.192101,2451.505594
22302.488921,2146.597232,-9548.656652,-1072.533697
22302.489254,888.247130,-12657.521608,766.095498
22302.489587,3478.967927,-12435.459826,-153.219100
22302.489920,-370.102971,-13545.768739,-2298.286494
22302.490253,592.164754,-8068.244768,2681.334243
22302.490586,-74.020594,-9474.636058,2374.896044
22302.490919,-3627.009116,-4145.153275,-3677.258390
22302.491252,-2590.720797,-11251.130318,1149.143247
22302.491585,-1036.288319,-6291.750507,2757.943793
22302.491918,-1628.453072,-7105.977043,2681.334243
22302.492251,1110.308913,-5329.482782,-766.095498
22302.492584,3478.967927,-11843.295072,3600.648841
22302.492918,1998.556043,-7994.224174,536.266849
22302.493251,666.185348,-12139.377449,-1532.190996
22302.493584,-2812.782580,-12139.377449,-4213.525239
22302.493917,-4145.153275,-13101.645173,-6128.763984
22302.494250,0.000000,-11029.068536,2451.505594
22302.494583,5255.462188,-6809.894666,3294.210641
22302.494916,2886.803174,-5477.523971,153.219100
22302.495249,4145.153275,-7254.018232,6588.421283
22302.495582,222.061783,-8290.306550,1149.143247
22302.495915,5477.523971,-9326.594869,5745.716235
22302.496248,2072.576638,-6365.771101,1149.143247
22302.496581,2590.720797,-9548.656652,0.000000
22302.496915,0.000000,-10066.800811,-1838.629195
22302.497248,-3552.988522,-14285.974681,-383.047749
22302.497581,-1258.350101,-9474.636058,-6358.592633
22302.497914,-2368.659014,-10881.027347,-6435.202183
22302.498247,-1776.494261,-11325.150913,2681.334243
22302.498580,-1184.329507,-4811.338623,306.438199
22302.498913,-2590.720797,-10362.883188,2145.067394
22302.499246,4737.318029,-3182.885551,5132.839837
22302.499579,2812.782580,-7254.018232,4903.011187
22302.499912,5847.626942,-4737.318029,6971.469032
22302.500245,296.082377,-8290.306550,-1302.362347
22302.500578,-3775.050304,-10140.821405,-5822.325785
22302.500911,1850.514855,-12731.542202,-1915.238745
22302.501245,-814.226536,-11843.295072,-4979.620737
22302.501578,1110.308913,-15100.201217,-689.485948
22302.501911,-3330.926739,-10288.862594,-4290.134789
22302.502244,444.123565,-9548.656652,-3983.696590
22302.502577,-1332.370696,-13101.645173,3217.601092
22302.502910,3552.988522,-3034.844362,3983.696590
22302.503243,-1258.350101,-11843.295072,3294.210641
22302.503576,3552.988522,-3034.844362,3677.258390
22302.503909,-2442.679609,-12435.459826,3600.648841
22302.504242,740.205942,-1850.514855,1838.629195
22302.504575,0.000000,-7179.997637,0.000000
22302.504908,-592.164754,-10732.986159,-689.485948
22302.505242,814.226536,-9474.636058,-229.828649
22302.505575,-4811.338623,-12657.521608,-4979.620737
22302.505908,-1036.288319,-12139.377449,-3753.867940
22302.506241,-9696.697840,-13101.645173,-6128.763984
22302.506574,4441.235652,-9178.553681,1149.143247
22302.506907,-74.020594,-9474.636058,3600.648841
22302.507240,2664.741391,-8364.327145,4290.134789
22302.507573,3552.988522,-2442.679609,7354.516781
22302.507906,-370.102971,-7920.203579,4136.915689
22302.508239,4959.379811,-9178.553681,3907.087040
22302.508572,0.000000,-10510.924376,3370.820191
22302.508905,4663.297435,-5625.565159,-2528.115143
22302.509239,-2590.720797,-11917.315666,-5515.887586
22302.509572,2886.803174,-8882.471304,-1072.533697
22302.509905,-1258.350101,-9770.718434,-2834.553343
22302.510238,444.123565,-8808.450710,-1225.752797
22302.510571,-296.082377,-12213.398043,-76.609550
22302.510904,-6291.750507,-9992.780217,-3524.039291
22302.511237,0.000000,-6587.832884,2451.505594
22302.511570,-74.020594,-8882.471304,2834.553343
22302.511903,3627.009116,-5995.668130,5822.325785
22302.512236,3701.029710,-6661.853478,8810.098227
22302.512569,1258.350101,-7624.121203,995.924147
22302.512902,-444.123565,-9548.656652,-229.828649
22302.513235,-148.041188,-9992.780217,-536.266849
22302.513569,1702.473667,-9326.594869,-3753.867940
22302.513902,814.226536,-12213.398043,0.000000
22302.514235,2960.823768,-10214.842000,-3677.258390
22302.514568,-74.020594,-14211.954086,-76.609550
22302.514901,-1036.288319,-6143.709319,-2911.162892
22302.515234,-370.102971,-14211.954086,-383.047749
22302.515567,-1258.350101,-10658.965565,3830.477490
22302.515900,-1036.288319,-7994.224174,3600.648841
22302.516233,592.164754,-8068.244768,842.705048
22302.516566,2368.659014,-5403.503377,2451.505594
22302.516899,0.000000,-4811.338623,2451.505594
22302.517232,3478.967927,-8290.306550,2068.457845
22302.517566,-1258.350101,-10658.965565,-2528.115143
22302.517899,-6513.812290,-12509.480420,-6128.763984
22302.518232,-1258.350101,-9770.718434,-4749.792088
22302.518565,-1110.308913,-9400.615463,-1685.410096
22302.518898,518.144159,-8216.285956,229.828649
22302.519231,1924.535449,-7624.121203,3830.477490
22302.519564,2368.659014,-4811.338623,3064.381992
22302.519897,1776.494261,-12731.542202,6052.154434
22302.520230,2294.638420,-9474.636058,1455.581446
22302.520563,0.000000,-7772.162391,3370.820191
22302.520896,3478.967927,-7105.977043,1149.143247
22302.521229,-74.020594,-8956.491898,-2451.505594
22302.521563,-74.020594,-10066.800811,-76.609550
22302.521896,-888.247130,-7846.182985,-612.876398
22302.522229,-3997.112087,-13841.851115,-2145.067394
22302.522562,444.123565,-9474.636058,0.000000
22302.522895,-5181.441594,-10658.965565,-3294.210641
22302.523228,3627.009116,-7105.977043,2451.505594
22302.523561,518.144159,-7772.162391,2451.505594
22302.523894,2294.638420,-9178.553681,2068.457845
22302.524227,-1776.494261,-6143.709319,383.047749
22302.524560,0.000000,-8364.327145,-766.095498
22302.524893,4071.132681,-7698.141797,842.705048
22302.525226,888.247130,-7179.997637,1838.629195
22302.525559,6439.791695,-6365.771101,1149.143247
22302.525893,-4367.215058,-14804.118840,-4519.963438
22302.526226,2146.597232,-14211.954086,-842.705048
22302.526559,-962.267725,-6291.750507,995.924147
22302.526892,-1998.556043,-9622.677246,306.438199
22302.527225,-1258.350101,-9474.636058,3294.210641
22302.527558,-4737.318029,-11917.315666,-76.609550
22302.527891,4663.297435,-7179.997637,1225.752797
22302.528224,3404.947333,-7105.977043,6741.640382
22302.528557,2368.659014,-7772.162391,1225.752797
22302.528890,2590.720797,-4663.297435,2451.505594
22302.529223,1332.370696,-8586.388927,-2528.115143
22302.529556,740.205942,-12657.521608,-1991.848295
22302.529890,-296.082377,-10066.800811,-4903.011187
22302.530223,-3849.070898,-9548.656652,-4749.792088
22302.530556,-74.020594,-12731.542202,-1302.362347
22302.530889,-74.020594,-10066.800811,0.000000
22302.531222,-2368.659014,-11325.150913,3370.820191
22302.531555,2294.638420,-7994.224174,4213.525239
22302.531888,1776.494261,-4219.173869,7967.393179
22302.532221,2294.638420,-6661.853478,4136.915689
22302.532554,4663.297435,-6661.853478,4519.963438
22302.532887,1924.535449,-8586.388927,2604.724693
22302.533220,1776.494261,-8068.244768,-1225.752797
22302.533553,1702.473667,-12435.459826,-7890.783629
22302.533886,-3256.906145,-13101.645173,-6128.763984
22302.534220,-2072.576638,-10436.903782,-2528.115143
22302.534553,-962.267725,-9918.759623,-3294.210641
22302.534886,-1850.514855,-12435.459826,1762.019645
22302.535219,-3256.906145,-6439.791695,0.000000
22302.535552,296.082377,-6883.915261,6281.983084
22302.535885,2664.741391,-4737.318029,6205.373534
22302.536218,4663.297435,-5625.565159,4826.401637
22302.536551,962.267725,-7179.997637,2451.505594
22302.536884,1480.411884,-10066.800811,2374.896044
22302.537217,-74.020594,-8882.471304,-2528.115143
22302.537550,1702.473667,-7254.018232,-3983.696590
22302.537883,-2442.679609,-14211.954086,-3447.429741
22302.538217,-1628.453072,-11843.295072,-3907.087040
22302.538550,-3478.967927,-13101.645173,-3064.381992
22302.538883,-962.267725,-9622.677246,-4213.525239
22302.539216,-370.102971,-15026.180623,2068.457845
22302.539549,2812.782580,-6883.915261,4979.620737
22302.539882,4293.194464,-7105.977043,8044.002729
22302.540215,3849.070898,-5329.482782,6741.640382
22302.540548,2368.659014,-5403.503377,5515.887586
22302.540881,-740.205942,-10658.965565,1149.143247
22302.541214,1998.556043,-8586.388927,-1838.629195
22302.541547,-3552.988522,-7179.997637,-1225.752797
22302.541880,-2738.761985,-10658.965565,-3753.867940
22302.542214,-2664.741391,-7772.162391,-5132.839837
22302.542547,-3404.947333,-12879.583391,-3294.210641
22302.542880,-2812.782580,-12731.542202,-1608.800546
22302.543213,1924.535449,-6291.750507,2374.896044
22302.543546,1998.556043,-8290.306550,-76.609550
22302.543879,3256.906145,-11843.295072,7277.907231
22302.544212,3182.885551,-8068.244768,3064.381992
22302.544545,2368.659014,-11917.315666,3677.258390
22302.544878,7105.977043,-8290.306550,5439.278036
22302.545211,2960.823768,-7402.059420,1225.752797
22302.545544,3775.050304,-7994.224174,-2528.115143
22302.545877,-2294.638420,-11991.336260,-459.657299
22302.546210,-666.185348,-10066.800811,-1455.581446
22302.546544,-3701.029710,-10658.965565,-3217.601092
22302.546877,-1628.453072,-11251.130318,1455.581446
22302.547210,-3182.885551,-2442.679609,-4290.134789
22302.547543,0.000000,-7179.997637,3677.258390
22302.547876,2886.803174,-7105.977043,2374.896044
22302.548209,-74.020594,-7550.100608,229.828649
22302.548542,-1924.535449,-13619.789333,842.705048
22302.548875,2294.638420,-4737.318029,-229.828649
22302.549208,-1406.391290,-9992.780217,919.314598
22302.549541,2960.823768,-5995.668130,1225.752797
22302.549874,-74.020594,-12435.459826,-306.438199
22302.550207,0.000000,-9918.759623,-4903.011187
22302.550541,1776.494261,-17764.942608,2374.896044
22302.550874,518.144159,-8882.471304,0.000000
22302.551207,2368.659014,-9548.656652,0.000000
22302.551540,4219.173869,-10362.883188,6665.030833
22302.551873,-74.020594,-9918.759623,1532.190996
22302.552206,0.000000,-4219.173869,0.000000
22302.552539,-74.020594,-11547.212695,1149.143247
22302.552872,-1110.308913,-5995.668130,0.000000
22302.553205,4293.194464,-4737.318029,2374.896044
22302.553538,-5255.462188,-9622.677246,-4060.306139
22302.553871,0.000000,-5995.668130,-1072.533697
22302.554204,-7550.100608,-11029.068536,-3140.991542
22302.554538,296.082377,-9548.656652,2987.772442
22302.554871,-1776.494261,-5477.523971,-2757.943793
22302.555204,-5107.421000,-14211.954086,-3217.601092
22302.555537,4663.297435,-11251.130318,3600.648841
22302.555870,-1184.329507,-9548.656652,1838.629195
22302.556203,10140.821405,-6661.853478,6205.373534
22302.556536,3256.906145,-6735.874072,6052.154434
22302.556869,5551.544565,-11103.089130,842.705048
22302.557202,3478.967927,-13471.748144,3600.648841
22302.557535,1480.411884,-11029.068536,1532.190996
22302.557868,2368.659014,-7772.162391,-76.609550
22302.558201,-1554.432478,-9844.739029,-1838.629195
22302.558534,-2072.576638,-9548.656652,-2145.067394
22302.558868,-2960.823768,-8142.265362,-1302.362347
22302.559201,-4663.297435,-8956.491898,-1532.190996
22302.559534,-4737.318029,-8660.409521,-2911.162892
22302.559867,-4145.153275,-11177.109724,1991.848295
22302.560200,1702.473667,-4737.318029,3907.087040
22302.560533,0.000000,-3627.009116,2451.505594
22302.560866,5847.626942,-5921.647536,6052.154434
22302.561199,2294.638420,-7105.977043,1149.143247
22302.561532,0.000000,-9548.656652,-3064.381992
22302.561865,3182.885551,-14211.954086,-2528.115143
22302.562198,1702.473667,-14359.995275,-4060.306139
22302.562531,-1480.411884,-15174.221811,1915.238745
22302.562865,1776.494261,-6809.894666,-1838.629195
22302.563198,-1776.494261,-12509.480420,0.000000
22302.563531,0.000000,-4811.338623,3677.258390
22302.563864,3182.885551,-7105.977043,2681.334243
22302.564197,-2072.576638,-5995.668130,1302.362347
22302.564530,1332.370696,-7772.162391,4826.401637
22302.564863,-2442.679609,-8364.327145,1838.629195
22302.565196,3997.112087,-5181.441594,4213.525239
22302.565529,-4441.235652,-7772.162391,-2451.505594
22302.565862,-2516.700203,-9474.636058,-5362.668486
22302.566195,-2368.659014,-14063.912898,-2221.676944
22302.566528,148.041188,-8512.368333,-689.485948
22302.566861,1110.308913,-14211.954086,-1302.362347
22302.567195,-1850.514855,-8512.368333,-1685.410096
22302.567528,-1776.494261,-9844.739029,0.000000
22302.567861,2664.741391,-10288.862594,6588.421283
22302.568194,6069.688724,-4219.173869,5362.668486
22302.568527,3404.947333,-8290.306550,6511.811733
22302.568860,4589.276840,-7328.038826,5439.278036
22302.569193,-74.020594,-6809.894666,-3140.991542
22302.569526,2294.638420,-12731.542202,1149.143247
22302.569859,296.082377,-4811.338623,-2451.505594
22302.570192,-1184.329507,-13249.686362,-1915.238745
22302.570525,-666.185348,-8956.491898,-1838.629195
22302.570858,-6217.729913,-11769.274478,-5362.668486
22302.571192,-2146.597232,-9548.656652,-1225.752797
22302.571525,-1258.350101,-8216.285956,536.266849
22302.571858,222.061783,-6439.791695,153.219100
22302.572191,1998.556043,-7105.977043,5286.058936
22302.572524,-74.020594,-8882.471304,2987.772442
22302.572857,3256.906145,-7550.100608,3064.381992
22302.573190,74.020594,-10362.883188,3907.087040
22302.573523,5477.523971,-6587.832884,0.000000
22302.573856,-1850.514855,-12435.459826,-2528.115143
22302.574189,3923.091493,-15840.407159,-1302.362347
22302.574522,-666.185348,-12583.501014,-4290.134789
22302.574855,-592.164754,-10436.903782,306.438199
22302.575189,592.164754,-7179.997637,-1685.410096
22302.575522,-1480.411884,-10732.986159,1838.629195
22302.575855,2294.638420,-8734.430116,3217.601092
22302.576188,2960.823768,-5551.544565,3447.429741
22302.576521,2886.803174,-6587.832884,3524.039291
22302.576854,0.000000,-5995.668130,0.000000
22302.577187,-74.020594,-9178.553681,229.828649
22302.577520,-2960.823768,-5995.668130,0.000000
22302.577853,-74.020594,-11843.295072,-4979.620737
22302.578186,-2442.679609,-15100.201217,-1915.238745
22302.578519,-4145.153275,-10288.862594,-3600.648841
22302.578852,-2516.700203,-11399.171507,-2987.772442
22302.579185,296.082377,-8364.327145,2987.772442
22302.579519,2442.679609,-6069.688724,1608.800546
22302.579852,5625.565159,-7550.100608,9729.412825
22302.580185,3478.967927,-6513.812290,3677.258390
22302.580518,0.000000,-7772.162391,2451.505594
22302.580851,7031.956449,-9474.636058,1762.019645
22302.581184,0.000000,-9548.656652,-2451.505594
22302.581517,3034.844362,-11843.295072,-2834.553343
22302.581850,-3256.906145,-11325.150913,-1532.190996
22302.582183,-1480.411884,-10510.924376,-3983.696590
22302.582516,-666.185348,-10807.006753,-1532.190996
22302.582849,-2590.720797,-9474.636058,-383.047749
22302.583182,-2442.679609,-4811.338623,-4903.011187
22302.583515,-1036.288319,-8956.491898,4826.401637
22302.583848,2294.638420,-9474.636058,3600.648841
22302.584181,1776.494261,-5551.544565,5822.325785
22302.584514,2886.803174,-7179.997637,2451.505594
22302.584847,3478.967927,-9474.636058,-76.609550
22302.585180,-666.185348,-10214.842000,-3753.867940
22302.585513,1332.370696,-12065.356855,842.705048
22302.585847,-1998.556043,-9548.656652,-5592.497135
22302.586180,-3775.050304,-13027.624579,-3907.087040
22302.586513,-3108.864956,-11843.295072,-3524.039291
22302.586846,1406.391290,-9770.718434,-1302.362347
22302.587179,2664.741391,-9474.636058,7277.907231
22302.587512,4071.132681,-7105.977043,3600.648841
22302.587845,296.082377,-4811.338623,4903.011187
22302.588178,-2368.659014,-8512.368333,5515.887586
22302.588511,4663.297435,-5921.647536,2528.115143
22302.588844,2960.823768,-8364.327145,3064.381992
22302.589177,3478.967927,-6365.771101,-2604.724693
22302.589510,-2664.741391,-12287.418637,-3370.820191
22302.589843,-4515.256246,-12361.439231,-8120.612279
22302.590176,-3627.009116,-12731.542202,-6205.373534
22302.590509,-1998.556043,-9178.553681,-3753.867940
22302.590842,0.000000,-9844.739029,919.314598
22302.591175,-1554.432478,-10510.924376,4826.401637
22302.591508,1110.308913,-5921.647536,2145.067394
22302.591841,1702.473667,-5329.482782,6665.030833
22302.592174,6365.771101,-2664.741391,5209.449386
22302.592507,3997.112087,-9030.512492,4673.182538
22302.592840,1406.391290,-9918.759623,1149.143247
22302.593173,592.164754,-10140.821405,0.000000
22302.593506,3478.967927,-11843.295072,-3140.991542
22302.593839,592.164754,-14878.139434,-1608.800546
22302.594172,1406.391290,-11843.295072,-1302.362347
22302.594505,-3034.844362,-8882.471304,-6205.373534
22302.594838,-2368.659014,-9548.656652,-1225.752797
22302.595171,-1850.514855,-8512.368333,1455.581446
22302.595504,-1924.535449,-7105.977043,2068.457845
22302.595838,370.102971,-8438.347739,5132.839837
22302.596171,2294.638420,-7550.100608,6358.592633
22302.596504,1110.308913,-3923.091493,2451.505594
22302.596837,2886.803174,-9178.553681,3600.648841
22302.597170,-74.020594,-8142.265362,-4136.915689
22302.597503,-2368.659014,-12509.480420,-766.095498
22302.597836,-74.020594,-12731.542202,-919.314598
22302.598169,888.247130,-9104.533087,-4519.963438
22302.598502,1480.411884,-10881.027347,-3907.087040
22302.598835,370.102971,-10584.944971,766.095498
22302.599168,-2146.597232,-11251.130318,-689.485948
22302.599501,0.000000,-9548.656652,6588.421283
22302.599834,3478.967927,-4737.318029,3753.867940
22302.600167,-1480.411884,-5403.503377,612.876398
22302.600500,2368.659014,-8882.471304,4519.963438
22302.600833,-74.020594,-11695.253884,3600.648841
22302.601166,296.082377,-8438.347739,1685.410096
22302.601499,370.102971,-8882.471304,842.705048
22302.601832,-4293.194464,-10732.986159,-4596.572988
22302.602165,-2146.597232,-8512.368333,-6205.373534
22302.602498,-74.020594,-11251.130318,-612.876398
22302.602831,-814.226536,-5921.647536,-2987.772442
22302.603164,-814.226536,-9178.553681,-1225.752797
22302.603497,-1480.411884,-7179.997637,0.000000
22302.603830,1702.473667,-11251.130318,1762.019645
22302.604163,3552.988522,-7772.162391,7431.126331
22302.604496,5921.647536,-8290.306550,7277.907231
22302.604829,1110.308913,-10362.883188,-1225.752797
22302.605162,1184.329507,-12509.480420,4366.744339
22302.605495,4071.132681,-10955.047942,4826.401637
22302.605829,4959.379811,-7105.977043,1762.019645
22302.606162,3256.906145,-5995.668130,1225.752797
22302.606495,-2738.761985,-7772.162391,-4596.572988
22302.606828,-4737.318029,-5995.668130,-7048.078582
22302.607161,-6513.812290,-12805.562797,-1072.533697
22302.607494,-1554.432478,-10658.965565,-4673.182538
22302.607827,-1850.514855,-11917.315666,0.000000
22302.608160,-888.247130,-7994.224174,1762.019645
22302.608493,-370.102971,-9474.636058,-689.485948
22302.608826,4145.153275,-7772.162391,6281.983084
22302.609159,3034.844362,-9474.636058,4519.963438
22302.609492,4959.379811,-3701.029710,2834.553343
22302.609825,3478.967927,-11843.295072,1149.143247
22302.610158,-74.020594,-16580.613101,2374.896044
22302.610491,0.000000,-4219.173869,1225.752797
22302.610824,-2368.659014,-11621.233289,-2451.505594
22302.611157,2886.803174,-9474.636058,-2528.115143
22302.611490,-4219.173869,-11177.109724,-4979.620737
22302.611823,-740.205942,-11029.068536,0.000000
22302.612156,1110.308913,-9178.553681,1762.019645
22302.612489,-666.185348,-11695.253884,2987.772442
22302.612822,1184.329507,-7179.997637,3064.381992
22302.613155,1702.473667,-6809.894666,4673.182538
22302.613488,0.000000,-5107.421000,2604.724693
22302.613821,1702.473667,-9474.636058,1149.143247
22302.614154,-5921.647536,-7179.997637,-4290.134789
22302.614487,-3404.947333,-7179.997637,-4060.306139
22302.614820,-1554.432478,-11251.130318,-76.609550
22302.615153,-2442.679609,-9326.594869,-1302.362347
22302.615486,0.000000,-8734.430116,2221.676944
22302.615819,5255.462188,-6957.935855,2681.334243
22302.616153,0.000000,-10140.821405,383.047749
22302.616486,3775.050304,-9474.636058,1149.143247
22302.616819,1702.473667,-10732.986159,0.000000
22302.617152,4737.318029,-8586.388927,2681.334243
22302.617485,3182.885551,-11325.150913,2374.896044
22302.617818,1184.329507,-8364.327145,3983.696590
22302.618151,-1702.473667,-6439.791695,-3447.429741
22302.618484,-1406.391290,-9030.512492,-2451.505594
22302.618817,-370.102971,-9474.636058,-76.609550
22302.619150,-3997.112087,-6587.832884,766.095498
22302.619483,-1924.535449,-9844.739029,842.705048
22302.619816,-2738.761985,-7994.224174,-1915.238745
22302.620149,2368.659014,-9104.533087,2145.067394
22302.620482,3330.926739,-9104.533087,3524.039291
22302.620815,2664.741391,-9548.656652,-2451.505594
22302.621148,2368.659014,-11843.295072,1762.019645
22302.621481,2368.659014,-8660.409521,0.000000
22302.621814,888.247130,-10732.986159,0.000000
22302.622147,2294.638420,-11251.130318,842.705048
22302.622480,1036.288319,-8142.265362,-383.047749
22302.622813,-1258.350101,-7846.182985,1378.971896
22302.623146,814.226536,-7846.182985,76.609550
22302.623479,-3330.926739,-9474.636058,842.705048
22302.623812,-4145.153275,-5995.668130,3217.601092
22302.624145,1776.494261,-7179.997637,2987.772442
22302.624478,3330.926739,-8290.306550,76.609550
22302.624811,1184.329507,-10732.986159,3064.381992
22302.625144,3478.967927,-6661.853478,-1608.800546
22302.625477,-1554.432478,-12805.562797,-2068.457845
22302.625810,-1258.350101,-11103.089130,-5745.716235
22302.626144,-3256.906145,-11399.171507,-4749.792088
22302.626477,-2960.823768,-8956.491898,-2451.505594
22302.626810,2960.823768,-10362.883188,4826.401637
22302.627143,-74.020594,-7550.100608,3294.210641
22302.627476,-666.185348,-6291.750507,612.876398
22302.627809,1110.308913,-9474.636058,4826.401637
22302.628142,2960.823768,-7179.997637,5209.449386
22302.628475,3330.926739,-7254.018232,5898.935335
22302.628808,3923.091493,-8290.306550,3524.039291
22302.629141,3552.988522,-6883.915261,-919.314598
22302.629474,-2072.576638,-12361.439231,-2757.943793
22302.629807,4071.132681,-9474.636058,-4979.620737
22302.630140,-2738.761985,-13545.768739,-8580.269578
22302.630473,-2368.659014,-14285.974681,-2451.505594
22302.630806,-888.247130,-7698.141797,-76.609550
22302.631139,-4737.318029,-9548.656652,919.314598
22302.631472,1480.411884,-3627.009116,3907.087040
22302.631805,-2072.576638,-9104.533087,3447.429741
22302.632138,3849.070898,-3701.029710,8044.002729
22302.632471,888.247130,-8660.409521,3677.258390
22302.632804,518.144159,-11029.068536,3064.381992
22302.633137,1332.370696,-8660.409521,-153.219100
22302.633470,74.020594,-10807.006753,-1991.848295
22302.633803,518.144159,-8142.265362,-2757.943793
22302.634136,-1110.308913,-6587.832884,-4903.011187
22302.634469,4071.132681,-13619.789333,-4979.620737
22302.634802,-1850.514855,-15988.448347,-1302.362347
22302.635135,1184.329507,-7179.997637,612.876398
22302.635468,-1850.514855,-11843.295072,1762.019645
22302.635801,1184.329507,-5699.585753,4290.134789
22302.636135,0.000000,-6513.812290,4749.792088
22302.636468,-222.061783,-6957.935855,5362.668486
22302.636801,0.000000,-4811.338623,1838.629195
22302.637134,-2442.679609,-12435.459826,0.000000
22302.637467,3478.967927,-9474.636058,1762.019645
22302.637800,-2368.659014,-6291.750507,0.000000
22302.638133,-3552.988522,-10140.821405,-3677.258390
22302.638466,0.000000,-8956.491898,-4749.792088
22302.638799,-2368.659014,-11029.068536,-4826.401637
22302.639132,1332.370696,-9326.594869,-229.828649
22302.639465,0.000000,-9770.718434,229.828649
22302.639798,2886.803174,-12435.459826,4213.525239
22302.640131,4737.318029,-7179.997637,8120.612279
22302.640464,2294.638420,-11843.295072,3600.648841
22302.640797,0.000000,-7179.997637,7507.735880
22302.641130,1702.473667,-5181.441594,1762.019645
22302.641463,1110.308913,-7550.100608,-76.609550
22302.641796,666.185348,-9770.718434,842.705048
22302.642129,-2664.741391,-8142.265362,-3830.477490
22302.642462,-3552.988522,-8956.491898,-3830.477490
22302.642795,-3627.009116,-11103.089130,-3907.087040
22302.643128,-1258.350101,-9400.615463,-1915.238745
22302.643461,1702.473667,-7920.203579,-459.657299
22302.643794,2368.659014,-13101.645173,6665.030833
22302.644127,8216.285956,-8734.430116,6281.983084
22302.644460,592.164754,-7772.162391,3064.381992
22302.644793,3923.091493,-8734.430116,3600.648841
22302.645126,-74.020594,-11991.336260,2451.505594
22302.645459,1924.535449,-7772.162391,1149.143247
22302.645792,2442.679609,-7994.224174,306.438199
22302.646125,-4293.194464,-6365.771101,-5975.544884
22302.646459,-2960.823768,-10288.862594,-1302.362347
22302.646792,-2442.679609,-7105.977043,-2834.553343
22302.647125,-74.020594,-8882.471304,-3753.867940
22302.647458,-2368.659014,-6587.832884,-1838.629195
22302.647791,3849.070898,-15988.448347,2374.896044
22302.648124,-962.267725,-12361.439231,4290.134789
22302.648457,5551.544565,-6069.688724,2604.724693
22302.648790,3775.050304,-11843.295072,5362.668486
22302.649123,2294.638420,-6809.894666,6665.030833
22302.649456,-2368.659014,-6661.853478,-2604.724693
22302.649789,2516.700203,-7105.977043,-1455.581446
22302.650122,-3627.009116,-13323.706956,-1149.143247
22302.650455,0.000000,-7772.162391,-1225.752797
22302.650788,-4441.235652,-12435.459826,-76.609550
22302.651121,-6735.874072,-6291.750507,-7354.516781
22302.651454,0.000000,-7179.997637,612.876398
22302.651787,-74.020594,-13027.624579,4519.963438
22302.652120,3552.988522,-5403.503377,1225.752797
22302.652453,0.000000,-9474.636058,2987.772442
22302.652786,3182.885551,-9548.656652,3677.258390
22302.653119,3182.885551,-7328.038826,5439.278036
22302.653452,5255.462188,-7698.141797,6052.154434
22302.653785,-74.020594,-9474.636058,-2528.115143
22302.654118,-7105.977043,-9548.656652,-4903.011187
22302.654451,-4959.379811,-12361.439231,-8273.831378
22302.654784,2294.638420,-10362.883188,-689.485948
22302.655117,-74.020594,-12139.377449,4596.572988
22302.655450,4367.215058,-6217.729913,2374.896044
22302.655783,-1554.432478,-10436.903782,3524.039291
22302.656116,1850.514855,-5699.585753,3140.991542
22302.656450,4219.173869,-6217.729913,1915.238745
22302.656783,5403.503377,-12731.542202,4213.525239
22302.657116,-3552.988522,-11325.150913,1532.190996
22302.657449,-1258.350101,-9178.553681,-2834.553343
22302.657782,518.144159,-8438.347739,-3294.210641
22302.658115,0.000000,-5921.647536,-2374.896044
22302.658448,-2886.803174,-11991.336260,-2145.067394
22302.658781,-3627.009116,-8882.471304,-3753.867940
22302.659114,1554.432478,-8808.450710,-2298.286494
22302.659447,-1776.494261,-10436.903782,2451.505594
22302.659780,8808.450710,-4441.235652,3830.477490
22302.660113,1924.535449,-12213.398043,8886.707777
22302.660446,3330.926739,-8290.306550,6052.154434
22302.660779,-222.061783,-4959.379811,-4213.525239
22302.661112,0.000000,-14878.139434,0.000000
22302.661445,1776.494261,-11621.233289,-383.047749
22302.661778,148.041188,-12065.356855,-1608.800546
22302.662111,-666.185348,-9474.636058,-2145.067394
22302.662444,-666.185348,-8882.471304,-2528.115143
22302.662777,-7105.977043,-10732.986159,0.000000
22302.663110,-74.020594,-3404.947333,-689.485948
22302.663443,-2442.679609,-14211.954086,-76.609550
22302.663776,5847.626942,-666.185348,5515.887586
22302.664109,1184.329507,-10732.986159,9806.022374
22302.664442,7254.018232,-2886.803174,4826.401637
22302.664775,3108.864956,-10288.862594,5362.668486
22302.665108,-962.267725,-11177.109724,-2145.067394
22302.665441,3182.885551,-8882.471304,-4979.620737
22302.665774,-9178.553681,-15618.345376,-7967.393179
22302.666107,518.144159,-11029.068536,-6894.859482
22302.666441,-3923.091493,-11621.233289,995.924147
22302.666774,5403.503377,-8068.244768,2528.115143
22302.667107,-74.020594,-8290.306550,4826.401637
22302.667440,-2368.659014,-4811.338623,1225.752797
22302.667773,592.164754,-8512.368333,2374.896044
22302.668106,1406.391290,-9844.739029,4903.011187
22302.668439,592.164754,-10288.862594,3370.820191
22302.668772,2812.782580,-9474.636058,4213.525239
22302.669105,222.061783,-11769.274478,612.876398
22302.669438,3701.029710,-5551.544565,-1532.190996
22302.669771,-1628.453072,-10288.862594,-1455.581446
22302.670104,-3775.050304,-9474.636058,-9269.755526
22302.670437,-3552.988522,-10732.986159,-5822.325785
22302.670770,-3034.844362,-13619.789333,-2528.115143
22302.671103,7920.203579,-8290.306550,1149.143247
22302.671436,-2368.659014,-6587.832884,6435.202183
22302.671769,4367.215058,-4737.318029,3447.429741
22302.672102,-2516.700203,-9474.636058,4826.401637
22302.672435,2886.803174,-8956.491898,0.000000
22302.672768,962.267725,-12139.377449,-766.095498
22302.673101,740.205942,-10732.986159,3064.381992
22302.673434,-4737.318029,-10732.986159,2451.505594
22302.673767,1702.473667,-4441.235652,-2298.286494
22302.674100,-3182.885551,-11029.068536,-4673.182538
22302.674433,-2368.659014,-5107.421000,-4903.011187
22302.674766,-1924.535449,-8956.491898,-2451.505594
22302.675099,-2368.659014,-8586.388927,-3064.381992
22302.675432,2960.823768,-6883.915261,2221.676944
22302.675765,-3552.988522,-9178.553681,2451.505594
22302.676098,8660.409521,-8290.306550,9576.193725
22302.676431,1850.514855,-8290.306550,9729.412825
22302.676765,4663.297435,-8364.327145,0.000000
22302.677098,592.164754,-9844.739029,0.000000
22302.677431,-1184.329507,-14582.057057,-1685.410096
22302.677764,3256.906145,-9548.656652,4826.401637
22302.678097,1554.432478,-6735.874072,-1149.143247
22302.678430,-74.020594,-10140.821405,-2451.505594
22302.678763,-444.123565,-6291.750507,612.876398
22302.679096,-2368.659014,-5995.668130,-3907.087040
22302.679429,1110.308913,-5921.647536,-383.047749
22302.679762,-3256.906145,-10732.986159,0.000000
22302.680095,-1184.329507,-11843.295072,2987.772442
22302.680428,-888.247130,-6587.832884,3064.381992
22302.680761,2368.659014,-11473.192101,3600.648841
22302.681094,5551.544565,-5847.626942,4443.353888
22302.681427,592.164754,-10584.944971,1915.238745
22302.681760,740.205942,-8660.409521,-1378.971896
22302.682093,-3552.988522,-9548.656652,-3907.087040
22302.682426,-2738.761985,-11843.295072,-3907.087040
22302.682759,1406.391290,-7698.141797,1685.410096
22302.683092,-814.226536,-8068.244768,-76.609550
22302.683425,666.185348,-8586.388927,-1455.581446
22302.683758,-4811.338623,-11843.295072,842.705048
22302.684091,5847.626942,-8882.471304,1762.019645
22302.684424,3478.967927,-9030.512492,383.047749
22302.684756,2960.823768,-11917.315666,3677.258390
22302.685089,814.226536,-8660.409521,-2221.676944
22302.685422,1998.556043,-9474.636058,2987.772442
22302.685755,-3330.926739,-10362.883188,-3907.087040
22302.686088,0.000000,-7550.100608,-3140.991542
22302.686421,-4293.194464,-10807.006753,0.000000
22302.686754,-3552.988522,-5403.503377,-4903.011187
22302.687087,-3775.050304,-14211.954086,-76.609550
22302.687420,-4219.173869,-4145.153275,-1302.362347
22302.687753,0.000000,-5995.668130,5209.449386
22302.688086,5847.626942,-5921.647536,9116.536426
22302.688419,4145.153275,-8364.327145,3064.381992
22302.688752,2294.638420,-7328.038826,536.266849
22302.689085,1702.473667,-12287.418637,-1991.848295
22302.689418,2516.700203,-13175.665768,-3140.991542
22302.689751,2368.659014,-15470.304188,3064.381992
22302.690083,5551.544565,-11251.130318,1762.019645
22302.690416,0.000000,-8364.327145,0.000000
22302.690749,0.000000,-5995.668130,2451.505594
22302.691082,-74.020594,-6957.935855,-1608.800546
22302.691415,-2664.741391,-8364.327145,2374.896044
22302.691748,-4959.379811,-11621.233289,-229.828649
22302.692081,-1184.329507,-6587.832884,1455.581446
22302.692414,-148.041188,-10436.903782,5132.839837
22302.692747,6439.791695,-4145.153275,3600.648841
22302.693080,2294.638420,-9548.656652,459.657299
22302.693413,1184.329507,-7254.018232,-2068.457845
22302.693746,2294.638420,-11843.295072,-1302.362347
22302.694079,-1850.514855,-9548.656652,-6128.763984
22302.694412,2368.659014,-11843.295072,-76.609550
22302.694745,-2960.823768,-9548.656652,766.095498
22302.695078,1258.350101,-7105.977043,766.095498
22302.695410,-592.164754,-6735.874072,76.609550
22302.695743,2294.638420,-11843.295072,3600.648841
22302.696076,1998.556043,-7920.203579,2451.505594
22302.696409,296.082377,-14063.912898,4673.182538
22302.696742,1110.308913,-8586.388927,2987.772442
22302.697075,-4441.235652,-7772.162391,-2145.067394
22302.697408,2960.823768,-8586.388927,2374.896044
22302.697741,3478.967927,-7105.977043,229.828649
22302.698074,-1776.494261,-7772.162391,-2451.505594
22302.698407,-2368.659014,-8882.471304,-2528.115143
22302.698740,-9474.636058,-12509.480420,-4903.011187
22302.699073,-2072.576638,-4885.359217,-2757.943793
22302.699406,-1480.411884,-9770.718434,3907.087040
22302.699739,2664.741391,-5995.668130,3370.820191
22302.700072,2294.638420,-13471.748144,3600.648841
22302.700405,0.000000,-74.020594,-2528.115143
22302.700738,2294.638420,-17838.963202,0.000000
22302.701070,1184.329507,-3775.050304,-383.047749
22302.701403,7105.977043,-14211.954086,9729.412825
22302.701736,-74.020594,-21836.075289,6128.763984
22302.702069,10214.842000,-6735.874072,4826.401637
22302.702402,7476.080014,9918.759623,-1762.019645
22302.702735,2590.720797,-2664.741391,-1149.143247
22302.703068,-6809.894666,-14730.098246,-2068.457845
22302.703401,-10658.965565,-19911.539840,-2834.553343
22302.703734,-10658.965565,-14285.974681,-7354.516781
22302.704067,-5625.565159,-15470.304188,-306.438199
22302.704400,3478.967927,-4737.318029,-3447.429741
22302.704733,3478.967927,-4811.338623,0.000000
22302.705066,8512.368333,-4145.153275,3907.087040
22302.705399,6143.709319,-4293.194464,5286.058936
22302.705732,3775.050304,-9770.718434,6358.592633
22302.706065,2960.823768,-4219.173869,4903.011187
22302.706397,1702.473667,-8290.306550,3600.648841
22302.706730,1184.329507,-8364.327145,1608.800546
22302.707063,2368.659014,-9548.656652,1532.190996
22302.707396,-962.267725,-13915.871710,-76.609550
22302.707729,-5921.647536,-10140.821405,-3677.258390
22302.708062,-5181.441594,-14582.057057,0.000000
22302.708395,-3478.967927,-13915.871710,-2451.505594
22302.708728,1776.494261,-11325.150913,3753.867940
22302.709061,-370.102971,-9844.739029,3370.820191
22302.709394,222.061783,-6291.750507,-1838.629195
22302.709727,2368.659014,-7105.977043,3600.648841
22302.710060,-1258.350101,-10140.821405,-2451.505594
22302.710393,0.000000,-4811.338623,-1225.752797
22302.710726,-2368.659014,-11917.315666,-2987.772442
22302.711059,-3478.967927,-10288.862594,-7967.393179
22302.711392,518.144159,-8290.306550,-3753.867940
22302.711724,-666.185348,-10807.006753,-1991.848295
22302.712057,3182.885551,-7772.162391,2145.067394
22302.712390,1998.556043,-7772.162391,-1685.410096
22302.712723,4515.256246,-10658.965565,1455.581446
22302.713056,370.102971,-7698.141797,459.657299
22302.713389,1776.494261,-9992.780217,842.705048
22302.713722,3182.885551,-10362.883188,3600.648841
22302.714055,222.061783,-7846.182985,0.000000
22302.714388,-1184.329507,-6587.832884,0.000000
22302.714721,-444.123565,-10658.965565,-689.485948
22302.715054,-4515.256246,-7550.100608,-919.314598
22302.715387,0.000000,-4811.338623,3830.477490
22302.715720,-1406.391290,-10881.027347,4290.134789
22302.716053,-4071.132681,-9104.533087,3677.258390
22302.716386,1036.288319,-6143.709319,2298.286494
22302.716719,5107.421000,-7105.977043,5439.278036
22302.717051,4663.297435,-7994.224174,1532.190996
22302.717384,5329.482782,-10066.800811,3600.648841
22302.717717,-74.020594,-13027.624579,-76.609550
22302.718050,1850.514855,-6735.874072,-4136.915689
22302.718383,-222.061783,-13027.624579,-76.609550
22302.718716,1406.391290,-5625.565159,-1225.752797
22302.719049,-74.020594,-11769.274478,-153.219100
22302.719382,-1998.556043,-8882.471304,3140.991542
22302.719715,0.000000,-2442.679609,-1225.752797
22302.720048,-74.020594,-10140.821405,612.876398
22302.720381,5847.626942,-11843.295072,6052.154434
22302.720714,-1480.411884,-10140.821405,612.876398
22302.721047,1480.411884,-10732.986159,2451.505594
22302.721380,0.000000,-11029.068536,-1685.410096
22302.721713,0.000000,-10140.821405,-1685.410096
22302.722046,0.000000,-9992.780217,-1378.971896
22302.722379,-1554.432478,-11399.171507,-4443.353888
22302.722711,-2442.679609,-12731.542202,-3140.991542
22302.723044,-3552.988522,-9548.656652,-76.609550
22302.723377,-4811.338623,-10658.965565,-3140.991542
22302.723710,-2368.659014,-3627.009116,2451.505594
22302.724043,2294.638420,-8882.471304,4826.401637
22302.724376,4663.297435,-8290.306550,3677.258390
22302.724709,4367.215058,-9104.533087,4749.792088
22302.725042,1110.308913,-10881.027347,-766.095498
22302.725375,2886.803174,-11547.212695,995.924147
22302.725708,-1406.391290,-10362.883188,-2451.505594
22302.726041,4663.297435,-11843.295072,-76.609550
22302.726374,-3552.988522,-7179.997637,-4903.011187
22302.726707,-2368.659014,-9548.656652,-1838.629195
22302.727040,-74.020594,-7105.977043,-383.047749
22302.727373,-222.061783,-5551.544565,919.314598
22302.727706,-1406.391290,-6513.812290,1455.581446
22302.728038,-1702.473667,-7698.141797,1915.238745
22302.728371,1702.473667,-8660.409521,5362.668486
22302.728704,-518.144159,-8660.409521,4519.963438
22302.729037,1480.411884,-9104.533087,3140.991542
22302.729370,-1258.350101,-10732.986159,1378.971896
22302.729703,2664.741391,-8660.409521,2451.505594
22302.730036,0.000000,-8068.244768,995.924147
22302.730369,1406.391290,-5625.565159,-1302.362347
22302.730702,148.041188,-11029.068536,-76.609550
22302.731035,-74.020594,-7402.059420,-5286.058936
22302.731368,0.000000,-11621.233289,-306.438199
22302.731701,-1776.494261,-9844.739029,1225.752797
22302.732034,2294.638420,-7920.203579,-3677.258390
22302.732367,3330.926739,-14211.954086,5975.544884
22302.732700,3552.988522,-8734.430116,4749.792088
22302.733033,-74.020594,-9992.780217,229.828649
22302.733365,0.000000,-8364.327145,1225.752797
22302.733698,-666.185348,-13027.624579,-2528.115143
22302.734031,2960.823768,-7105.977043,995.924147
22302.734364,-3552.988522,-8956.491898,995.924147
22302.734697,-666.185348,-9474.636058,-3753.867940
22302.735030,-4145.153275,-6291.750507,-3064.381992
22302.735363,-1924.535449,-10214.842000,-3370.820191
22302.735696,-740.205942,-8364.327145,153.219100
22302.736029,0.000000,-3627.009116,-2834.553343
22302.736362,592.164754,-17394.839637,1762.019645
22302.736695,5847.626942,-9474.636058,-76.609550
22302.737028,592.164754,-13397.727550,1991.848295
22302.737361,7031.956449,-12435.459826,7277.907231
22302.737694,4663.297435,-7772.162391,1378.971896
22302.738027,2368.659014,-9400.615463,4213.525239
22302.738360,2368.659014,-6883.915261,919.314598
22302.738692,-2812.782580,-9104.533087,-3753.867940
22302.739025,-814.226536,-9104.533087,-2757.943793
22302.739358,-3627.009116,-10955.047942,-689.485948
22302.739691,-3330.926739,-6587.832884,-2145.067394
22302.740024,0.000000,-5107.421000,2068.457845
22302.740357,1702.473667,-10066.800811,1762.019645
22302.740690,814.226536,-4811.338623,0.000000
22302.741023,1480.411884,-8882.471304,1762.019645
22302.741356,-2960.823768,-12509.480420,-1225.752797
22302.741689,2738.761985,-8660.409521,1532.190996
22302.742022,-2664.741391,-12731.542202,2451.505594
22302.742355,518.144159,-7698.141797,-689.485948
22302.742688,-3108.864956,-6735.874072,-1225.752797
22302.743021,-4663.297435,-9844.739029,-2528.115143
22302.743354,5329.482782,-4441.235652,-842.705048
22302.743687,0.000000,-11917.315666,2757.943793
22302.744020,2960.823768,-8660.409521,4826.401637
22302.744352,-74.020594,-9918.759623,1532.190996
22302.744685,2664.741391,-8364.327145,919.314598
22302.745018,0.000000,-10732.986159,2068.457845
22302.745351,3849.070898,-9548.656652,1378.971896
22302.745684,0.000000,-10881.027347,842.705048
22302.746017,444.123565,-7772.162391,-229.828649
22302.746350,-2220.617826,-9992.780217,-459.657299
22302.746683,-2442.679609,-7994.224174,-1915.238745
22302.747016,-4737.318029,-8956.491898,306.438199
22302.747349,-666.185348,-2738.761985,-3524.039291
22302.747682,-2960.823768,-8512.368333,-76.609550
22302.748015,-3256.906145,-10658.965565,-1302.362347
22302.748348,3182.885551,-8882.471304,2068.457845
22302.748681,1110.308913,-11695.253884,1762.019645
22302.749014,7105.977043,-7476.080014,6511.811733
22302.749347,2368.659014,-11473.192101,3217.601092
22302.749679,6439.791695,-9326.594869,3064.381992
22302.750012,2072.576638,-10140.821405,-76.609550
22302.750345,2368.659014,-10732.986159,-6128.763984
22302.750678,1184.329507,-10807.006753,3600.648841
22302.751011,1110.308913,-6439.791695,-3294.210641
22302.751344,0.000000,-8364.327145,612.876398
22302.751677,-3627.009116,-9178.553681,-689.485948
22302.752010,814.226536,-6513.812290,-2374.896044
22302.752343,-4959.379811,-10436.903782,1608.800546
22302.752676,0.000000,-7772.162391,459.657299
22302.753009,-74.020594,-7105.977043,2374.896044
22302.753342,0.000000,-9844.739029,4826.401637
22302.753675,3478.967927,-9474.636058,3600.648841
22302.754008,518.144159,-3923.091493,0.000000
22302.754341,296.082377,-8956.491898,-1838.629195
22302.754674,1554.432478,-8364.327145,-2451.505594
22302.755006,-4367.215058,-17172.777854,-2528.115143
22302.755339,2294.638420,-6587.832884,-1532.190996
22302.755672,-2146.597232,-12139.377449,-1608.800546
22302.756005,1184.329507,-8364.327145,2451.505594
22302.756338,3256.906145,-10658.965565,4519.963438
22302.756671,2886.803174,-6587.832884,3064.381992
22302.757004,0.000000,-8364.327145,4903.011187
22302.757337,666.185348,-14211.954086,2374.896044
22302.757670,370.102971,-9548.656652,3677.258390
22302.758003,-666.185348,-7846.182985,842.705048
22302.758336,-370.102971,-9326.594869,0.000000
22302.758669,-1480.411884,-3404.947333,-4826.401637
22302.759002,-3627.009116,-9548.656652,-3370.820191
22302.759335,-3627.009116,-7105.977043,-6205.373534
22302.759668,-3701.029710,-10066.800811,-3753.867940
22302.760001,-4071.132681,-11843.295072,-689.485948
22302.760333,3478.967927,-8290.306550,-76.609550
22302.760666,2072.576638,-9992.780217,4903.011187
22302.760999,2664.741391,-8512.368333,4903.011187
22302.761332,4663.297435,-11547.212695,2987.772442
22302.761665,2664.741391,-11325.150913,3677.258390
22302.761998,4145.153275,-9548.656652,4519.963438
22302.762331,1554.432478,-9548.656652,919.314598
22302.762664,1184.329507,-8808.450710,-2604.724693
22302.762997,-1406.391290,-10362.883188,-76.609550
22302.763330,518.144159,-3256.906145,-3140.991542
22302.763663,-1258.350101,-6587.832884,0.000000
22302.763996,-1258.350101,-9474.636058,-2528.115143
22302.764329,-1850.514855,-11251.130318,-2834.553343
22302.764662,-3478.967927,-9548.656652,1225.752797
22302.764995,1110.308913,-9474.636058,1149.143247
22302.765328,1036.288319,-8512.368333,3677.258390
22302.765660,1332.370696,-7476.080014,2221.676944
22302.765993,518.144159,-9622.677246,1149.143247
22302.766326,2960.823768,-7179.997637,1991.848295
22302.766659,-1850.514855,-9548.656652,-2451.505594
22302.766992,4663.297435,-9474.636058,-3753.867940
22302.767325,222.061783,-11917.315666,-2451.505594
22302.767658,0.000000,-8364.327145,4596.572988
22302.767991,1184.329507,-6587.832884,0.000000
22302.768324,1110.308913,-10066.800811,4749.792088
22302.768657,1628.453072,-8438.347739,-76.609550
22302.768990,1702.473667,-9178.553681,842.705048
22302.769323,2294.638420,-11843.295072,4213.525239
22302.769656,592.164754,-9548.656652,2987.772442
22302.769989,2590.720797,-8290.306550,2987.772442
22302.770322,-4737.318029,-8660.409521,-1302.362347
22302.770655,-1258.350101,-10658.965565,-4979.620737
22302.770988,-4959.379811,-9474.636058,-4060.306139
22302.771320,-2442.679609,-9474.636058,-3140.991542
22302.771653,-3478.967927,-9770.718434,-995.924147
22302.771986,-1480.411884,-7624.121203,459.657299
22302.772319,296.082377,-5995.668130,3370.820191
22302.772652,7031.956449,-7105.977043,6665.030833
22302.772985,4737.318029,-4811.338623,8580.269578
22302.773318,2960.823768,-6439.791695,4826.401637
22302.773651,4071.132681,-10362.883188,-2528.115143
22302.773984,-962.267725,-13027.624579,1149.143247
22302.774317,-74.020594,-13767.830521,-4903.011187
22302.774650,-518.144159,-10510.924376,-2757.943793
22302.774983,-5995.668130,-14508.036463,-4519.963438
22302.775316,-2368.659014,-4811.338623,-2451.505594
22302.775649,-2442.679609,-9474.636058,2374.896044
22302.775982,1776.494261,-4071.132681,3753.867940
22302.776315,2072.576638,-6661.853478,5439.278036
22302.776647,3997.112087,-5329.482782,6665.030833
22302.776980,2146.597232,-6291.750507,3064.381992
22302.777313,2072.576638,-8734.430116,2374.896044
22302.777646,1702.473667,-11029.068536,-3677.258390
22302.777979,-2590.720797,-15248.242405,-4060.306139
22302.778312,-296.082377,-10658.965565,-3140.991542
22302.778645,-4811.338623,-9696.697840,-7354.516781
22302.778978,1258.350101,-9474.636058,-1608.800546
22302.779311,-740.205942,-7846.182985,689.485948
22302.779644,1628.453072,-9548.656652,3217.601092
22302.779977,0.000000,-7772.162391,1225.752797
22302.780310,4071.132681,-11843.295072,4826.401637
22302.780643,5477.523971,-4811.338623,3677.258390
22302.780976,4737.318029,-12065.356855,8503.660028
22302.781309,1702.473667,-10362.883188,-76.609550
22302.781642,0.000000,-6587.832884,306.438199
22302.781974,-1924.535449,-10436.903782,-4673.182538
22302.782307,2664.741391,-7550.100608,-1915.238745
22302.782640,-5255.462188,-13693.809927,-2604.724693
22302.782973,-1258.350101,-10066.800811,-3140.991542
22302.783306,-2442.679609,-9474.636058,-3753.867940
22302.783639,-4737.318029,-6291.750507,-2911.162892
22302.783972,2516.700203,-10658.965565,4826.401637
22302.784305,222.061783,-7328.038826,2757.943793
22302.784638,3478.967927,-11251.130318,6665.030833
22302.784971,4885.359217,-6439.791695,5669.106685
22302.785304,5699.585753,-11251.130318,6818.249932
22302.785637,5699.585753,-7328.038826,4826.401637
22302.785970,4071.132681,-6809.894666,1225.752797
22302.786303,-518.144159,-10732.986159,-3753.867940
22302.786636,1998.556043,-12435.459826,-7201.297681
22302.786969,-4441.235652,-9548.656652,-8580.269578
22302.787302,-1776.494261,-9844.739029,0.000000
22302.787635,-2442.679609,-9474.636058,-2528.115143
22302.787968,592.164754,-5551.544565,1838.629195
22302.788301,-4071.132681,-8586.388927,2528.115143
22302.788634,3552.988522,-6143.709319,6205.373534
22302.788967,-1628.453072,-7179.997637,4903.011187
22302.789300,444.123565,-9178.553681,3600.648841
22302.789633,1036.288319,-8142.265362,3753.867940
22302.789965,666.185348,-8438.347739,-383.047749
22302.790298,2886.803174,-11103.089130,2068.457845
22302.790631,-1258.350101,-9474.636058,-4366.744339
22302.790964,-2146.597232,-7772.162391,-7354.516781
22302.791297,-4737.318029,-12435.459826,-3064.381992
22302.791630,-74.020594,-11251.130318,-2834.553343
22302.791963,-518.144159,-9918.759623,2298.286494
22302.792296,1480.411884,-9696.697840,4060.306139
22302.792629,3404.947333,-8808.450710,6894.859482
22302.792962,3478.967927,-6661.853478,3294.210641
22302.793295,2368.659014,-12139.377449,3524.039291
22302.793628,592.164754,-10436.903782,5592.497135
22302.793961,-2960.823768,-6587.832884,1532.190996
22302.794294,-74.020594,-12731.542202,-1302.362347
22302.794627,-2368.659014,-10362.883188,-3140.991542
22302.794960,-5699.585753,-6661.853478,-4213.525239
22302.795293,-4811.338623,-8734.430116,-4366.744339
22302.795626,-3182.885551,-7698.141797,-3294.210641
22302.795959,-7328.038826,-11251.130318,-1915.238745
22302.796292,-3552.988522,-9030.512492,919.314598
22302.796625,-3627.009116,-11843.295072,2987.772442
22302.796958,-1184.329507,-9474.636058,7354.516781
22302.797291,1110.308913,-10658.965565,6665.030833
22302.797624,-3552.988522,-5995.668130,2757.943793
22302.797957,-3552.988522,-10732.986159,3064.381992
22302.798289,-3775.050304,-8956.491898,1915.238745
22302.798622,-5403.503377,-6513.812290,-2528.115143
22302.798955,-8808.450710,-10658.965565,-6818.249932
22302.799288,-4737.318029,-10140.821405,-2451.505594
22302.799621,-8734.430116,-7179.997637,-9039.926876
22302.799954,-5403.503377,-13619.789333,-1302.362347
22302.800287,-8364.327145,-13619.789333,1149.143247
22302.800620,-7105.977043,-6291.750507,1225.752797
22302.800953,-1850.514855,-11251.130318,9729.412825
22302.801286,-2220.617826,-4959.379811,4903.011187
22302.801619,-2960.823768,-6735.874072,5515.887586
22302.801952,-4071.132681,-6957.935855,4826.401637
22302.802285,-5995.668130,-8512.368333,153.219100
22302.802618,-10066.800811,-9548.656652,-1532.190996
22302.802951,-5107.421000,-10658.965565,-5745.716235
22302.803284,-9474.636058,-6587.832884,-4903.011187
22302.803617,-9474.636058,-9548.656652,-4290.134789
22302.803950,-7772.162391,-12435.459826,-2528.115143
22302.804283,-7105.977043,-8364.327145,-306.438199
22302.804616,-5699.585753,-12361.439231,1762.019645
22302.804949,-3108.864956,-12361.439231,6358.592633
22302.805282,-2368.659014,-9844.739029,4366.744339
22302.805615,-8882.471304,-11621.233289,8886.707777
22302.805948,-1924.535449,-3404.947333,4443.353888
22302.806280,-5921.647536,-8068.244768,3447.429741
22302.806613,-6513.812290,-7550.100608,-76.609550
22302.806946,-8956.491898,-7846.182985,-3753.867940
22302.807279,-16580.613101,-10140.821405,-4903.011187
22302.807612,-10732.986159,-9474.636058,-7431.126331
22302.807945,-14285.974681,-9622.677246,-7048.078582
22302.808278,-11251.130318,-10140.821405,-2604.724693
22302.808611,-7772.162391,-10658.965565,1149.143247
22302.808944,-7994.224174,-10658.965565,3370.820191
22302.809277,-5477.523971,-9992.780217,5515.887586
22302.809610,-5403.503377,-7846.182985,6511.811733
22302.809943,-5921.647536,-7179.997637,3064.381992
22302.810276,-9178.553681,-9548.656652,5515.887586
22302.810609,-5995.668130,-7698.141797,-3140.991542
22302.810942,-7624.121203,-7698.141797,-3294.210641
22302.811275,-11695.253884,-9548.656652,-1072.533697
22302.811608,-8882.471304,-4219.173869,-3677.258390
22302.811941,-11695.253884,-8512.368333,-3447.429741
22302.812274,-8290.306550,-8956.491898,-5132.839837
22302.812607,-11547.212695,-13989.892304,-612.876398
22302.812940,-6587.832884,-11843.295072,2374.896044
22302.813273,-6957.935855,-11917.315666,4826.401637
22302.813606,-5995.668130,-13323.706956,3600.648841
22302.813939,-5625.565159,-6291.750507,7660.954980
22302.814271,-7698.141797,-6143.709319,4903.011187
22302.814604,-3923.091493,-7105.977043,4903.011187
22302.814937,-11399.171507,-7031.956449,-1149.143247
22302.815270,-13027.624579,-8142.265362,-2528.115143
22302.815603,-15322.262999,-8956.491898,-4826.401637
22302.815936,-15544.324782,-8438.347739,-6511.811733
22302.816269,-12657.521608,-10658.965565,-2528.115143
22302.816602,-13027.624579,-7179.997637,-3294.210641
22302.816935,-13027.624579,-9844.739029,229.828649
22302.817268,-8068.244768,-11547.212695,2451.505594
22302.817601,-6291.750507,-10066.800811,4213.525239
22302.817934,-7994.224174,-8956.491898,4903.011187
22302.818267,-7179.997637,-9252.574275,3830.477490
22302.818600,-11325.150913,-11177.109724,2221.676944
22302.818933,-10658.965565,-6587.832884,0.000000
22302.819266,-9548.656652,-7994.224174,-2911.162892
22302.819599,-11103.089130,-8068.244768,-76.609550
22302.819932,-10732.986159,-11251.130318,-2528.115143
22302.820265,-13619.789333,-7476.080014,-1225.752797
22302.820598,-9770.718434,-7550.100608,-1302.362347
22302.820931,-9548.656652,-10436.903782,1378.971896
22302.821264,-7920.203579,-9104.533087,689.485948
22302.821597,-10436.903782,-12287.418637,0.000000
22302.821930,-9474.636058,-11843.295072,1225.752797
22302.822262,-8068.244768,-8882.471304,1302.362347
22302.822595,-8808.450710,-9178.553681,3294.210641
22302.822928,-10362.883188,-7476.080014,612.876398
22302.823261,-11843.295072,-6439.791695,-1915.238745
22302.823594,-11843.295072,-5995.668130,0.000000
22302.823927,-9548.656652,-7698.141797,-689.485948
22302.824260,-10140.821405,-9770.718434,-2451.505594
22302.824593,-9474.636058,-8956.491898,-153.219100
22302.824926,-6587.832884,-11843.295072,-76.609550
22302.825259,-7105.977043,-9548.656652,1225.752797
22302.825592,-4293.194464,-10955.047942,3447.429741
22302.825925,-7550.100608,-11103.089130,1762.019645
22302.826258,-8882.471304,-10436.903782,153.219100
22302.826591,-8956.491898,-11251.130318,2068.457845
22302.826924,-8364.327145,-7254.018232,-1225.752797
22302.827257,-7698.141797,-7846.182985,5515.887586
22302.827590,-5699.585753,-6513.812290,-76.609550
22302.827923,-9252.574275,-5107.421000,-1838.629195
22302.828256,-10807.006753,-10066.800811,-1302.362347
22302.828589,-11843.295072,-10140.821405,-3217.601092
22302.828922,-10140.821405,-11843.295072,-2298.286494
22302.829255,-7624.121203,-11473.192101,306.438199
22302.829588,-5107.421000,-9474.636058,2987.772442
22302.829921,-4811.338623,-3923.091493,2451.505594
22302.830253,-3701.029710,-7402.059420,4213.525239
22302.830586,-4811.338623,-11103.089130,2374.896044
22302.830919,-11325.150913,-10214.842000,-3064.381992
22302.831252,-13249.686362,-13471.748144,-3524.039291
22302.831585,-14434.015869,-11843.295072,-2987.772442
22302.831918,-13175.665768,-9474.636058,-1225.752797
22302.832251,-9844.739029,-7328.038826,1455.581446
22302.832584,-8290.306550,-4811.338623,2451.505594
22302.832917,-6217.729913,-7105.977043,6128.763984
22302.833250,-4811.338623,-9474.636058,2987.772442
22302.833583,-7624.121203,-10436.903782,612.876398
22302.833916,-7476.080014,-10732.986159,1378.971896
22302.834249,-8956.491898,-11843.295072,-2221.676944
22302.834582,-12953.603985,-10584.944971,-4519.963438
22302.834915,-15766.386565,-11473.192101,-5898.935335
22302.835248,-17542.880825,-11325.150913,-4826.401637
22302.835581,-17172.777854,-10436.903782,0.000000
22302.835914,-15248.242405,-8956.491898,3294.210641
22302.836247,-10658.965565,-5477.523971,6665.030833
22302.836580,-6217.729913,-3627.009116,10265.679673
22302.836913,-1258.350101,-3552.988522,9729.412825
22302.837246,-2146.597232,-4737.318029,6052.154434
22302.837579,-4441.235652,-7179.997637,0.000000
22302.837912,-3330.926739,-14211.954086,-4979.620737
22302.838244,-6735.874072,-15692.365970,-8656.879127
22302.838577,-7476.080014,-15396.283594,-9269.755526
22302.838910,-8068.244768,-15100.201217,-7431.126331
22302.839243,-7179.997637,-11621.233289,-3370.820191
22302.839576,-5181.441594,-7698.141797,1532.190996
22302.839909,-3404.947333,-6217.729913,5286.058936
22302.840242,-74.020594,-6291.750507,10342.289223
22302.840575,0.000000,-4811.338623,12257.527968
22302.840908,3330.926739,-6513.812290,9116.536426
22302.841241,2294.638420,-9178.553681,6052.154434
22302.841574,0.000000,-8068.244768,919.314598
22302.841907,1702.473667,-11843.295072,-1378.971896
22302.842240,-1776.494261,-12657.521608,-3140.991542
22302.842573,-3627.009116,-12509.480420,-5286.058936
22302.842906,-6587.832884,-12065.356855,-6435.202183
22302.843239,-6587.832884,-9474.636058,-4366.744339
22302.843572,-4219.173869,-9474.636058,4213.525239
22302.843905,-2442.679609,-7105.977043,4519.963438
22302.844238,-5921.647536,-5699.585753,7354.516781
22302.844571,-2294.638420,-8882.471304,8427.050478
22302.844904,-2072.576638,-8068.244768,9959.241474
22302.845237,888.247130,-10510.924376,10572.117872
22302.845570,888.247130,-10510.924376,8503.660028
22302.845903,0.000000,-10732.986159,5515.887586
22302.846235,-2368.659014,-9548.656652,2451.505594
22302.846568,-74.020594,-11251.130318,1762.019645
22302.846901,-5403.503377,-11843.295072,2374.896044
22302.847234,-8882.471304,-9548.656652,4903.011187
22302.847567,-6587.832884,-9474.636058,7277.907231
22302.847900,-7105.977043,-7772.162391,10342.289223
22302.848233,-5477.523971,-7254.018232,13406.671215
22302.848566,-4441.235652,-7624.121203,17160.539155
22302.848899,-1776.494261,-7772.162391,20071.702048
22302.849232,-74.020594,-9992.780217,21986.940793
22302.849565,-74.020594,-9178.553681,16777.491406
22302.849898,-2072.576638,-10140.821405,18539.511052
22302.850231,1184.329507,-10807.006753,19535.435199
22302.850564,-666.185348,-9474.636058,14632.424012
22302.850897,-4145.153275,-8586.388927,16777.491406
22302.851230,-4737.318029,-5255.462188,15475.129060
22302.851563,-2590.720797,-4145.153275,18309.682402
22302.851896,74.020594,-2886.803174,20224.921147
22302.852229,592.164754,-4959.379811,23672.350888
22302.852562,-962.267725,-6661.853478,21220.845295
22302.852895,-1036.288319,-8808.450710,21297.454844
22302.853228,-1850.514855,-11251.130318,22599.817191
22302.853561,-2072.576638,-12509.480420,22063.550342
22302.853894,0.000000,-9548.656652,24974.713235
22302.854226,3182.885551,-6217.729913,23212.693589
22302.854559,3478.967927,-3330.926739,22063.550342
22302.854892,3552.988522,-1776.494261,23825.569988
22302.855225,5847.626942,0.000000,19535.435199
22302.855558,3478.967927,-2960.823768,18616.120601
22302.855891,444.123565,-2590.720797,13559.890315
22302.856224,-1776.494261,-9252.574275,10801.946522
22302.856557,-1480.411884,-11621.233289,12870.404366
22302.856890,-1776.494261,-13397.727550,17083.929605
22302.857223,-1258.350101,-9548.656652,12563.966167
22302.857556,0.000000,-9548.656652,14709.033562
22302.857889,2960.823768,-10214.842000,20454.749797
22302.858222,5033.400406,-5995.668130,20224.921147
22302.858555,4145.153275,-7179.997637,19688.654299
22302.858888,740.205942,-6661.853478,13942.938064
22302.859221,-2664.741391,-7994.224174,9959.241474
22302.859554,-3034.844362,-7698.141797,7277.907231
22302.859887,-4737.318029,-7179.997637,6052.154434
22302.860220,-2442.679609,-7846.182985,1225.752797
22302.860553,-1480.411884,-9548.656652,6128.763984
22302.860886,0.000000,-11029.068536,10495.508323
22302.861219,-74.020594,-11251.130318,9729.412825
22302.861552,-2146.597232,-10066.800811,6741.640382
22302.861885,-1036.288319,-13693.809927,10265.679673
22302.862217,3404.947333,-11177.109724,15858.176809
22302.862550,1036.288319,-5699.585753,13483.280765
22302.862883,2294.638420,-5773.606348,9116.536426
22302.863216,-3552.988522,-4811.338623,2451.505594
22302.863549,-3404.947333,-8808.450710,3600.648841
22302.863882,-2442.679609,-4811.338623,-2451.505594
22302.864215,-1184.329507,-8068.244768,-1685.410096
22302.864548,1628.453072,-11103.089130,3140.991542
22302.864881,1998.556043,-10658.965565,3140.991542
22302.865214,1998.556043,-12509.480420,3830.477490
22302.865547,3256.906145,-9992.780217,2757.943793
22302.865880,5551.544565,-9696.697840,2451.505594
22302.866213,3849.070898,-9548.656652,6358.592633
22302.866546,3478.967927,-9474.636058,4213.525239
22302.866879,518.144159,-7772.162391,2451.505594
22302.867212,0.000000,-6735.874072,4519.963438
22302.867545,-2368.659014,-6883.915261,919.314598
22302.867878,-1924.535449,-5255.462188,-3447.429741
22302.868211,-3034.844362,-7994.224174,-5822.325785
22302.868544,592.164754,-13323.706956,-76.609550
22302.868877,370.102971,-11325.150913,2451.505594
22302.869210,1110.308913,-12435.459826,4443.353888
22302.869543,2146.597232,-9474.636058,3907.087040
22302.869876,3923.091493,-11103.089130,5209.449386
22302.870208,2960.823768,-14285.974681,7354.516781
22302.870541,2294.638420,-9104.533087,4903.011187
22302.870874,370.102971,-8364.327145,4903.011187
22302.871207,0.000000,-7698.141797,6971.469032
22302.871540,-1258.350101,-8290.306550,4519.963438
22302.871873,-4145.153275,-4219.173869,2451.505594
22302.872206,-3627.009116,-9104.533087,-766.095498
22302.872539,-2442.679609,-14804.118840,5439.278036
22302.872872,-2072.576638,-9770.718434,9193.145976
22302.873205,-74.020594,-9474.636058,11874.480219
22302.873538,2294.638420,-7179.997637,9806.022374
22302.873871,1776.494261,-9844.739029,12257.527968
22302.874204,1702.473667,-9474.636058,11874.480219
22302.874537,-1258.350101,-6809.894666,7354.516781
22302.874870,740.205942,-11251.130318,11568.042020
22302.875203,-888.247130,-6735.874072,11031.775171
22302.875536,-666.185348,-9548.656652,11951.089769
22302.875869,0.000000,-9548.656652,13483.280765
22302.876202,-814.226536,-8290.306550,11261.603821
22302.876535,-1258.350101,-3627.009116,14709.033562
22302.876868,2294.638420,-7105.977043,14632.424012
22302.877201,2294.638420,-9474.636058,15858.176809
22302.877534,296.082377,-9548.656652,21450.673944
22302.877867,1998.556043,-8586.388927,17850.025103
22302.878199,740.205942,-1184.329507,15245.300410
22302.878532,2294.638420,-3256.906145,15398.519510
22302.878865,3330.926739,-8734.430116,21297.454844
22302.879198,1332.370696,-7476.080014,22063.550342
22302.879531,-2368.659014,-8290.306550,19535.435199
22302.879864,2886.803174,-5921.647536,15704.957709
22302.880197,-2072.576638,-3627.009116,15934.786358
22302.880530,0.000000,-7476.080014,18309.682402
22302.880863,-74.020594,-9770.718434,15321.909960
22302.881196,592.164754,-9474.636058,20148.311597
