#time,accel_x,accel_y,accel_z
21955.351972,7846.182985,-9252.574275,2757.943793
21955.352306,9918.759623,-9178.553681,3524.039291
21955.352640,11695.253884,-9474.636058,4826.401637
21955.352974,7846.182985,-8956.491898,3677.258390
21955.353307,9400.615463,-10658.965565,-1455.581446
21955.353641,5995.668130,-8956.491898,-2451.505594
21955.353975,5921.647536,-10732.986159,-689.485948
21955.354309,7402.059420,-10140.821405,-2451.505594
21955.354643,7920.203579,-9178.553681,-2604.724693
21955.354977,8882.471304,-8734.430116,995.924147
21955.355311,10584.944971,-8734.430116,2834.553343
21955.355645,12361.439231,-7846.182985,3600.648841
21955.355979,11843.295072,-10436.903782,4826.401637
21955.356313,8512.368333,-8290.306550,536.266849
21955.356647,4737.318029,-10732.986159,1838.629195
21955.356981,4071.132681,-10955.047942,-1378.971896
21955.357315,1998.556043,-10362.883188,-2221.676944
21955.357649,1258.350101,-8512.368333,-1762.019645
21955.357983,2886.803174,-7179.997637,229.828649
21955.358317,5329.482782,-5403.503377,1838.629195
21955.358651,4737.318029,-5403.503377,1838.629195
21955.358985,9400.615463,-7105.977043,536.266849
21955.359319,8734.430116,-6587.832884,2451.505594
21955.359653,7698.141797,-7179.997637,2451.505594
21955.359987,12361.439231,-10658.965565,-1302.362347
21955.360321,10584.944971,-10066.800811,-1302.362347
21955.360655,9992.780217,-11399.171507,-2068.457845
21955.360989,9400.615463,-11843.295072,-2145.067394
21955.361323,6957.935855,-13027.624579,-2068.457845
21955.361657,2664.741391,-10732.986159,-2451.505594
21955.361991,6735.874072,-10362.883188,76.609550
21955.362325,8956.491898,-6957.935855,2681.334243
21955.362659,10807.006753,-4959.379811,3677.258390
21955.362993,12435.459826,-4293.194464,4903.011187
21955.363327,11177.109724,-5551.544565,5056.230287
21955.363661,11621.233289,-9326.594869,5439.278036
21955.363995,6439.791695,-7476.080014,-2298.286494
21955.364329,6143.709319,-12435.459826,-2528.115143
21955.364663,5847.626942,-11843.295072,-1302.362347
21955.364997,4219.173869,-7772.162391,-3677.258390
21955.365331,7476.080014,-9400.615463,-2221.676944
21955.365665,8290.306550,-9326.594869,-76.609550
21955.365999,9104.533087,-8438.347739,0.000000
21955.366333,10362.883188,-8364.327145,1225.752797
21955.366667,12657.521608,-10658.965565,-1302.362347
21955.367001,8734.430116,-8882.471304,-1915.238745
21955.367335,8290.306550,-8660.409521,1532.190996
21955.367669,11473.192101,-10658.965565,2987.772442
21955.368003,9474.636058,-10140.821405,4290.134789
21955.368337,10436.903782,-10214.842000,3830.477490
21955.368671,13841.851115,-8142.265362,4979.620737
21955.369005,14063.912898,-5921.647536,4519.963438
21955.369339,16358.551318,-6957.935855,3294.210641
21955.369673,14137.933492,-8882.471304,-2528.115143
21955.370006,8290.306550,-7772.162391,-4903.011187
21955.370340,9474.636058,-11917.315666,-2528.115143
21955.370674,7031.956449,-12879.583391,-6818.249932
21955.371008,5921.647536,-13767.830521,-5592.497135
21955.371342,8216.285956,-11695.253884,-2145.067394
21955.371676,13767.830521,-9474.636058,4213.525239
21955.372010,14211.954086,-5699.585753,7354.516781
21955.372344,16506.592507,-5477.523971,7201.297681
21955.372678,13619.789333,-6513.812290,6052.154434
21955.373012,10658.965565,-7476.080014,6128.763984
21955.373346,13323.706956,-8290.306550,4826.401637
21955.373680,11769.274478,-7031.956449,-3370.820191
21955.374014,9400.615463,-11251.130318,-2834.553343
21955.374348,5033.400406,-9104.533087,-6588.421283
21955.374682,7254.018232,-10807.006753,-7048.078582
21955.375016,5995.668130,-13619.789333,-1915.238745
21955.375350,8216.285956,-9178.553681,-689.485948
21955.375684,9474.636058,-8956.491898,4903.011187
21955.376018,11917.315666,-5921.647536,4673.182538
21955.376352,14359.995275,-6365.771101,4290.134789
21955.376686,13027.624579,-7476.080014,7354.516781
21955.377020,11843.295072,-9548.656652,6435.202183
21955.377354,11769.274478,-9178.553681,383.047749
21955.377688,8882.471304,-7179.997637,-3677.258390
21955.378022,11251.130318,-8290.306550,-1608.800546
21955.378356,8290.306550,-7772.162391,-6128.763984
21955.378690,5329.482782,-13989.892304,-6971.469032
21955.379024,2812.782580,-11917.315666,-6205.373534
21955.379358,9104.533087,-9770.718434,-76.609550
21955.379692,14730.098246,-9474.636058,9116.536426
21955.380026,15100.201217,-5107.421000,9576.193725
21955.380360,11769.274478,-8882.471304,3600.648841
21955.380694,9474.636058,-8956.491898,5515.887586
21955.381028,13027.624579,-7994.224174,5745.716235
21955.381362,12361.439231,-7550.100608,1685.410096
21955.381696,5625.565159,-9696.697840,-1302.362347
21955.382030,518.144159,-8882.471304,-9116.536426
21955.382364,3775.050304,-11843.295072,-6588.421283
21955.382698,5699.585753,-10066.800811,-4136.915689
21955.383032,10066.800811,-9252.574275,1532.190996
21955.383366,5625.565159,-7179.997637,-1072.533697
21955.383700,5921.647536,-10732.986159,3753.867940
21955.384034,8068.244768,-11547.212695,3600.648841
21955.384368,9400.615463,-7402.059420,3294.210641
21955.384702,12583.501014,-7105.977043,6894.859482
21955.385036,7105.977043,-7254.018232,4136.915689
21955.385370,7698.141797,-10066.800811,4443.353888
21955.385704,888.247130,-11177.109724,-229.828649
21955.386038,4663.297435,-10658.965565,-2528.115143
21955.386372,0.000000,-5403.503377,0.000000
21955.386706,0.000000,-7179.997637,-3370.820191
21955.387039,2294.638420,-8290.306550,-4979.620737
21955.387373,1184.329507,-12509.480420,-2451.505594
21955.387707,3108.864956,-11769.274478,306.438199
21955.388041,3923.091493,-8734.430116,2604.724693
21955.388375,3849.070898,-9548.656652,766.095498
21955.388709,7179.997637,-7476.080014,4136.915689
21955.389043,2886.803174,-5773.606348,0.000000
21955.389377,5921.647536,-7179.997637,5209.449386
21955.389711,5255.462188,-7994.224174,536.266849
21955.390045,0.000000,-9548.656652,1225.752797
21955.390379,3701.029710,-6143.709319,-459.657299
21955.390713,3330.926739,-6587.832884,-3370.820191
21955.391047,4663.297435,-9474.636058,-4290.134789
21955.391381,5181.441594,-11547.212695,-612.876398
21955.391715,2368.659014,-10436.903782,-1685.410096
21955.392049,7624.121203,-7105.977043,0.000000
21955.392383,5255.462188,-12287.418637,1915.238745
21955.392717,7624.121203,-9104.533087,2068.457845
21955.393051,2294.638420,-10436.903782,2221.676944
21955.393385,3478.967927,-7994.224174,-76.609550
21955.393719,1554.432478,-11843.295072,842.705048
21955.394053,2368.659014,-5995.668130,0.000000
21955.394387,4071.132681,-11695.253884,4826.401637
21955.394721,740.205942,-7031.956449,-1225.752797
21955.395055,0.000000,-6291.750507,-2757.943793
21955.395389,-3849.070898,-11991.336260,-2145.067394
21955.395723,4589.276840,-6661.853478,1991.848295
21955.396057,4959.379811,-8364.327145,3294.210641
21955.396391,4663.297435,-9474.636058,2068.457845
21955.396725,4367.215058,-8882.471304,-689.485948
21955.397059,0.000000,-11029.068536,1455.581446
21955.397393,4589.276840,-10584.944971,1762.019645
21955.397727,-74.020594,-11843.295072,-1532.190996
21955.398061,1110.308913,-9474.636058,1149.143247
21955.398395,-3182.885551,-9548.656652,-766.095498
21955.398729,-666.185348,-7402.059420,-919.314598
21955.399063,1480.411884,-4737.318029,-995.924147
21955.399397,888.247130,-7476.080014,2451.505594
21955.399731,3478.967927,-4219.173869,-2145.067394
21955.400065,592.164754,-9696.697840,3140.991542
21955.400399,3478.967927,-7402.059420,-1302.362347
21955.400733,3478.967927,-10288.862594,0.000000
21955.401067,2960.823768,-9474.636058,2374.896044
21955.401401,2220.617826,-10732.986159,-1302.362347
21955.401735,74.020594,-15470.304188,-1532.190996
21955.402069,-3552.988522,-11843.295072,-2451.505594
21955.402403,-1480.411884,-12435.459826,1225.752797
21955.402737,-1480.411884,-4811.338623,1838.629195
21955.403071,0.000000,-7772.162391,3907.087040
21955.403405,-74.020594,-6217.729913,2374.896044
21955.403739,666.185348,-4145.153275,2298.286494
21955.404072,0.000000,-8364.327145,2451.505594
21955.404406,-74.020594,-6735.874072,0.000000
21955.404740,-444.123565,-9992.780217,612.876398
21955.405074,-1184.329507,-8734.430116,-612.876398
21955.405408,-74.020594,-9474.636058,-1915.238745
21955.405742,-3552.988522,-12805.562797,-76.609550
21955.406076,-2442.679609,-11103.089130,-4519.963438
21955.406410,-4367.215058,-8660.409521,-2451.505594
21955.406744,-3701.029710,-11103.089130,-76.609550
21955.407078,1480.411884,-4811.338623,-1838.629195
21955.407412,-222.061783,-8290.306550,3600.648841
21955.407746,2812.782580,-7179.997637,4290.134789
21955.408080,1998.556043,-6809.894666,2528.115143
21955.408414,3478.967927,-8290.306550,3600.648841
21955.408748,1184.329507,-10881.027347,1149.143247
21955.409082,296.082377,-8364.327145,0.000000
21955.409416,-74.020594,-9844.739029,-3753.867940
21955.409750,592.164754,-11917.315666,-1838.629195
21955.410084,-74.020594,-13027.624579,-76.609550
21955.410418,-2368.659014,-9548.656652,0.000000
21955.410752,-592.164754,-11695.253884,2374.896044
21955.411086,-1554.432478,-9474.636058,-1149.143247
21955.411420,-3256.906145,-5995.668130,0.000000
21955.411754,1702.473667,-7698.141797,2374.896044
21955.412088,3923.091493,-6661.853478,3677.258390
21955.412422,1110.308913,-8142.265362,3217.601092
21955.412756,3923.091493,-6661.853478,3140.991542
21955.413090,740.205942,-8882.471304,995.924147
21955.413424,0.000000,-7179.997637,1378.971896
21955.413758,1998.556043,-13027.624579,-1302.362347
21955.414092,-2886.803174,-10140.821405,-2451.505594
21955.414426,1480.411884,-10362.883188,-76.609550
21955.414760,-2442.679609,-11325.150913,0.000000
21955.415094,2738.761985,-7105.977043,-1378.971896
21955.415428,-74.020594,-11325.150913,153.219100
21955.415762,2072.576638,-8586.388927,2528.115143
21955.416096,1776.494261,-7179.997637,306.438199
21955.416430,2960.823768,-12657.521608,7277.907231
21955.416764,4663.297435,-4885.359217,2528.115143
21955.417098,1184.329507,-7772.162391,4903.011187
21955.417432,4663.297435,-8290.306550,3600.648841
21955.417766,-1480.411884,-8364.327145,-2451.505594
21955.418100,-2886.803174,-9474.636058,-4903.011187
21955.418433,-3552.988522,-11695.253884,-4290.134789
21955.418767,-1998.556043,-10584.944971,-3753.867940
21955.419100,-1480.411884,-11251.130318,-76.609550
21955.419434,-74.020594,-11843.295072,-76.609550
21955.419768,-740.205942,-6587.832884,0.000000
21955.420101,1628.453072,-9474.636058,4826.401637
21955.420435,1480.411884,-7698.141797,2681.334243
21955.420769,888.247130,-7846.182985,4826.401637
21955.421102,592.164754,-7772.162391,5209.449386
21955.421436,1702.473667,-8882.471304,4673.182538
21955.421769,3627.009116,-6069.688724,1302.362347
21955.422103,2294.638420,-13027.624579,1149.143247
21955.422437,-1850.514855,-10510.924376,-2451.505594
21955.422770,-2886.803174,-10214.842000,-3447.429741
21955.423104,-7920.203579,-11473.192101,-4673.182538
21955.423437,-6513.812290,-5995.668130,-8580.269578
21955.423771,-4737.318029,-11029.068536,306.438199
21955.424105,2294.638420,-8586.388927,2834.553343
21955.424438,2368.659014,-6661.853478,2757.943793
21955.424772,1776.494261,-10955.047942,7277.907231
21955.425105,4145.153275,-4811.338623,5362.668486
21955.425439,1184.329507,-5699.585753,4749.792088
21955.425773,4441.235652,-8956.491898,1455.581446
21955.426106,-370.102971,-7476.080014,-536.266849
21955.426440,-2664.741391,-11843.295072,-2145.067394
21955.426773,-1850.514855,-8956.491898,-4136.915689
21955.427107,-2442.679609,-11843.295072,-6818.249932
21955.427441,-4737.318029,-12213.398043,-2451.505594
21955.427774,-4145.153275,-9548.656652,0.000000
21955.428108,-1332.370696,-10140.821405,1838.629195
21955.428442,3404.947333,-5551.544565,5056.230287
21955.428775,2294.638420,-8956.491898,5592.497135
21955.429109,6439.791695,-4737.318029,6052.154434
21955.429442,3478.967927,-8586.388927,4213.525239
21955.429776,1776.494261,-6587.832884,2451.505594
21955.430110,-1702.473667,-6587.832884,-4903.011187
21955.430443,-2368.659014,-10732.986159,-2604.724693
21955.430777,1702.473667,-10362.883188,-4979.620737
21955.431110,-1258.350101,-11843.295072,-4979.620737
21955.431444,-74.020594,-13027.624579,-3140.991542
21955.431778,-2664.741391,-11769.274478,383.047749
21955.432111,148.041188,-9474.636058,2298.286494
21955.432445,296.082377,-6883.915261,2604.724693
21955.432778,5847.626942,-10658.965565,7277.907231
21955.433112,2368.659014,-2738.761985,6128.763984
21955.433446,4737.318029,-7698.141797,9116.536426
21955.433779,1110.308913,-5107.421000,1225.752797
21955.434113,-2960.823768,-7179.997637,-2451.505594
21955.434446,-2738.761985,-9474.636058,-5592.497135
21955.434780,-4885.359217,-11843.295072,-7507.735880
21955.435114,-2960.823768,-11251.130318,-5745.716235
21955.435447,-4441.235652,-12731.542202,-3907.087040
21955.435781,-3034.844362,-9104.533087,-3753.867940
21955.436115,2368.659014,-8956.491898,4826.401637
21955.436448,5847.626942,-10066.800811,7354.516781
21955.436782,3775.050304,-5403.503377,6741.640382
21955.437115,2960.823768,-7179.997637,7048.078582
21955.437449,1998.556043,-5255.462188,919.314598
21955.437783,1998.556043,-7994.224174,842.705048
21955.438116,0.000000,-7698.141797,-1225.752797
21955.438450,-3552.988522,-10881.027347,-3907.087040
21955.438783,-2738.761985,-8882.471304,-9193.145976
21955.439117,-5033.400406,-13841.851115,-2298.286494
21955.439451,-3627.009116,-9400.615463,-1149.143247
21955.439784,3701.029710,-5625.565159,1149.143247
21955.440118,296.082377,-12953.603985,5515.887586
21955.440451,4663.297435,-7105.977043,2374.896044
21955.440785,592.164754,-7179.997637,1838.629195
21955.441119,2960.823768,-10732.986159,5439.278036
21955.441452,3775.050304,-9474.636058,2068.457845
21955.441786,0.000000,-7179.997637,1225.752797
21955.442119,1406.391290,-9992.780217,-612.876398
21955.442453,-1924.535449,-6291.750507,-3064.381992
21955.442787,-1258.350101,-9770.718434,-3217.601092
21955.443120,-74.020594,-9474.636058,-689.485948
21955.443454,-666.185348,-11843.295072,-3140.991542
21955.443788,-3552.988522,-10732.986159,153.219100
21955.444121,-4737.318029,-11621.233289,3524.039291
21955.444455,3478.967927,-5329.482782,1302.362347
21955.444788,4737.318029,-10140.821405,7277.907231
21955.445122,5403.503377,-6217.729913,5132.839837
21955.445456,2886.803174,-10881.027347,1225.752797
21955.445789,3478.967927,-10658.965565,1149.143247
21955.446123,-2072.576638,-10732.986159,1532.190996
21955.446456,-1258.350101,-6587.832884,-8580.269578
21955.446790,-592.164754,-11547.212695,-76.609550
21955.447124,-2442.679609,-7105.977043,-5056.230287
21955.447457,518.144159,-8882.471304,-1762.019645
21955.447791,-3108.864956,-9474.636058,842.705048
21955.448124,-666.185348,-11473.192101,2528.115143
21955.448458,0.000000,-5551.544565,2298.286494
21955.448792,1184.329507,-9104.533087,306.438199
21955.449125,740.205942,-10140.821405,2757.943793
21955.449459,0.000000,-6883.915261,0.000000
21955.449792,4145.153275,-9918.759623,2987.772442
21955.450126,3182.885551,-8290.306550,-459.657299
21955.450460,1480.411884,-9548.656652,0.000000
21955.450793,-2368.659014,-11917.315666,0.000000
21955.451127,-740.205942,-7846.182985,-2374.896044
21955.451461,-2664.741391,-12583.501014,-3140.991542
21955.451794,888.247130,-9918.759623,1991.848295
21955.452128,2294.638420,-8290.306550,1762.019645
21955.452461,0.000000,-9548.656652,4213.525239
21955.452795,1110.308913,-6365.771101,1455.581446
21955.453129,-4737.318029,-9548.656652,0.000000
21955.453462,2738.761985,-9178.553681,3447.429741
21955.453796,-1110.308913,-8364.327145,612.876398
21955.454129,2738.761985,-7624.121203,1608.800546
21955.454463,-1406.391290,-10214.842000,-1149.143247
21955.454797,666.185348,-9622.677246,-459.657299
21955.455130,-74.020594,-8882.471304,-76.609550
21955.455464,0.000000,-12213.398043,1149.143247
21955.455797,-2368.659014,-9252.574275,-2298.286494
21955.456131,-666.185348,-11843.295072,-995.924147
21955.456465,2220.617826,-8364.327145,1915.238745
21955.456798,2294.638420,-9178.553681,2374.896044
21955.457132,2664.741391,-7476.080014,2451.505594
21955.457465,2294.638420,-11547.212695,3600.648841
21955.457799,592.164754,-6587.832884,1225.752797
21955.458133,-2368.659014,-8364.327145,0.000000
21955.458466,-1258.350101,-11251.130318,-383.047749
21955.458800,-148.041188,-7105.977043,-2374.896044
21955.459134,-2072.576638,-8956.491898,-2451.505594
21955.459467,740.205942,-9474.636058,-2298.286494
21955.459801,-2146.597232,-9844.739029,-2987.772442
21955.460134,296.082377,-11177.109724,-842.705048
21955.460468,1702.473667,-13619.789333,-1302.362347
21955.460802,0.000000,-10140.821405,4903.011187
21955.461135,6809.894666,-8290.306550,4519.963438
21955.461469,3478.967927,-7179.997637,4903.011187
21955.461802,2664.741391,-5551.544565,2374.896044
21955.462136,814.226536,-8586.388927,3753.867940
21955.462470,-962.267725,-7179.997637,-2298.286494
21955.462803,-2072.576638,-9548.656652,-4596.572988
21955.463137,-2960.823768,-13323.706956,-76.609550
21955.463470,-2442.679609,-8216.285956,-6128.763984
21955.463804,-3330.926739,-6143.709319,-4290.134789
21955.464138,-2220.617826,-10658.965565,-2834.553343
21955.464471,888.247130,-9104.533087,3294.210641
21955.464805,1406.391290,-6735.874072,3524.039291
21955.465138,3108.864956,-10214.842000,2834.553343
21955.465472,3701.029710,-7402.059420,5439.278036
21955.465806,4663.297435,-9400.615463,6588.421283
21955.466139,4663.297435,-9178.553681,2987.772442
21955.466473,444.123565,-8512.368333,0.000000
21955.466807,-592.164754,-10658.965565,-1838.629195
21955.467140,-4219.173869,-11843.295072,-6205.373534
21955.467474,-3552.988522,-9104.533087,-5669.106685
21955.467807,-3849.070898,-9548.656652,-2451.505594
21955.468141,-1554.432478,-10140.821405,766.095498
21955.468475,2072.576638,-4293.194464,3600.648841
21955.468808,-74.020594,-11251.130318,3140.991542
21955.469142,5847.626942,-7105.977043,3600.648841
21955.469475,2368.659014,-10140.821405,4596.572988
21955.469809,5403.503377,-7772.162391,6971.469032
21955.470143,4293.194464,-5477.523971,1838.629195
21955.470476,0.000000,-10140.821405,919.314598
21955.470810,-888.247130,-10362.883188,-2834.553343
21955.471143,-6735.874072,-9844.739029,-9116.536426
21955.471477,-3404.947333,-11325.150913,-3217.601092
21955.471811,-5995.668130,-9474.636058,-3753.867940
21955.472144,-1480.411884,-7920.203579,-1072.533697
21955.472478,-1702.473667,-9030.512492,2374.896044
21955.472811,3256.906145,-4959.379811,4443.353888
21955.473145,3552.988522,-6143.709319,4903.011187
21955.473479,6439.791695,-7179.997637,3677.258390
21955.473812,4663.297435,-11843.295072,2374.896044
21955.474146,0.000000,-7179.997637,0.000000
21955.474480,-1480.411884,-9844.739029,-3677.258390
21955.474813,-1776.494261,-10140.821405,-3677.258390
21955.475147,-592.164754,-13989.892304,-1378.971896
21955.475480,0.000000,-7254.018232,-1532.190996
21955.475814,-3849.070898,-13471.748144,-612.876398
21955.476148,-1850.514855,-4737.318029,-76.609550
21955.476481,-3552.988522,-8364.327145,1225.752797
21955.476815,4367.215058,-7105.977043,2374.896044
21955.477148,1776.494261,-8364.327145,5515.887586
21955.477482,2294.638420,-9474.636058,3600.648841
21955.477816,3478.967927,-5773.606348,2374.896044
21955.478149,-1406.391290,-9474.636058,-383.047749
21955.478483,1332.370696,-8956.491898,-2451.505594
21955.478816,-3330.926739,-10584.944971,-4136.915689
21955.479150,-1554.432478,-11029.068536,-4979.620737
21955.479484,-1184.329507,-11917.315666,-76.609550
21955.479817,-1184.329507,-8660.409521,612.876398
21955.480151,-1184.329507,-7772.162391,612.876398
21955.480484,3182.885551,-11251.130318,4826.401637
21955.480818,3108.864956,-4811.338623,2451.505594
21955.481152,2146.597232,-8290.306550,3600.648841
21955.481485,2664.741391,-7031.956449,3217.601092
21955.481819,2294.638420,-6809.894666,2987.772442
21955.482153,2072.576638,-7772.162391,3907.087040
21955.482486,3478.967927,-7105.977043,-689.485948
21955.482820,-6513.812290,-13101.645173,-2757.943793
21955.483153,-1554.432478,-10584.944971,-4060.306139
21955.483487,-2442.679609,-13619.789333,-5286.058936
21955.483821,-2072.576638,-7772.162391,-4136.915689
21955.484154,1702.473667,-10658.965565,-76.609550
21955.484488,2294.638420,-10288.862594,4443.353888
21955.484821,5403.503377,-4737.318029,5592.497135
21955.485155,2664.741391,-9844.739029,5209.449386
21955.485489,4663.297435,-8586.388927,4519.963438
21955.485822,0.000000,-7328.038826,1072.533697
21955.486156,1184.329507,-7550.100608,1532.190996
21955.486489,0.000000,-8364.327145,-459.657299
21955.486823,-2960.823768,-10140.821405,0.000000
21955.487157,-666.185348,-9474.636058,-3753.867940
21955.487490,-4293.194464,-8734.430116,-6052.154434
21955.487824,-4441.235652,-10732.986159,-3677.258390
21955.488158,-2294.638420,-11695.253884,-1302.362347
21955.488491,-1258.350101,-8956.491898,-1225.752797
21955.488825,2812.782580,-7254.018232,3524.039291
21955.489158,3552.988522,-8660.409521,5515.887586
21955.489492,4145.153275,-6587.832884,5209.449386
21955.489826,6365.771101,-9474.636058,5439.278036
21955.490159,2886.803174,-11843.295072,3294.210641
21955.490493,592.164754,-5995.668130,-1225.752797
21955.490826,2072.576638,-11547.212695,-1302.362347
21955.491160,-1258.350101,-13545.768739,-1608.800546
21955.491494,-4737.318029,-8660.409521,-3524.039291
21955.491827,-1850.514855,-10955.047942,-2221.676944
21955.492161,-4589.276840,-11621.233289,-3370.820191
21955.492494,-74.020594,-9770.718434,-76.609550
21955.492828,-1554.432478,-6365.771101,2374.896044
21955.493162,2294.638420,-7105.977043,1149.143247
21955.493495,0.000000,-5995.668130,6281.983084
21955.493829,4071.132681,-8142.265362,4826.401637
21955.494162,3182.885551,-6883.915261,2451.505594
21955.494496,814.226536,-9474.636058,2068.457845
21955.494830,0.000000,-10066.800811,-2298.286494
21955.495163,-2664.741391,-10658.965565,-3370.820191
21955.495497,-1406.391290,-9770.718434,-3217.601092
21955.495831,-3552.988522,-11917.315666,-2451.505594
21955.496164,-1258.350101,-8364.327145,-2145.067394
21955.496498,-2368.659014,-8364.327145,1225.752797
21955.496831,4071.132681,-7698.141797,2221.676944
21955.497165,1184.329507,-8364.327145,2451.505594
21955.497499,0.000000,-8956.491898,2068.457845
21955.497832,4663.297435,-7698.141797,4213.525239
21955.498166,2072.576638,-9992.780217,3983.696590
21955.498499,3627.009116,-7402.059420,383.047749
21955.498833,3478.967927,-10362.883188,1455.581446
21955.499167,-2368.659014,-9548.656652,-1072.533697
21955.499500,2294.638420,-9474.636058,-689.485948
21955.499834,-2442.679609,-11547.212695,-2911.162892
21955.500167,-4737.318029,-8956.491898,-4290.134789
21955.500501,-3256.906145,-10436.903782,-153.219100
21955.500835,1850.514855,-7402.059420,1149.143247
21955.501168,1628.453072,-9326.594869,2834.553343
21955.501502,2220.617826,-7550.100608,2834.553343
21955.501835,3478.967927,-10658.965565,2374.896044
21955.502169,592.164754,-6587.832884,2145.067394
21955.502503,2664.741391,-7550.100608,612.876398
21955.502836,0.000000,-10436.903782,919.314598
21955.503170,1184.329507,-7846.182985,-2374.896044
21955.503504,-1184.329507,-13619.789333,-1532.190996
21955.503837,0.000000,-9548.656652,-3677.258390
21955.504171,-1036.288319,-11843.295072,-689.485948
21955.504504,-74.020594,-10140.821405,-3370.820191
21955.504838,1702.473667,-7476.080014,76.609550
21955.505172,0.000000,-8364.327145,4903.011187
21955.505505,2812.782580,-6883.915261,2451.505594
21955.505839,1776.494261,-7698.141797,4443.353888
21955.506172,0.000000,-9548.656652,612.876398
21955.506506,1998.556043,-7994.224174,3600.648841
21955.506840,-3627.009116,-10066.800811,-4596.572988
21955.507173,-4441.235652,-9548.656652,-1225.752797
21955.507507,-3627.009116,-9474.636058,-4366.744339
21955.507840,-2294.638420,-7328.038826,-2298.286494
21955.508174,-1184.329507,-7772.162391,-689.485948
21955.508508,-1184.329507,-12509.480420,1225.752797
21955.508841,-1554.432478,-10066.800811,689.485948
21955.509175,888.247130,-7698.141797,1838.629195
21955.509508,2886.803174,-11251.130318,2374.896044
21955.509842,5847.626942,-3701.029710,3677.258390
21955.510176,4663.297435,-11843.295072,6665.030833
21955.510509,1184.329507,-3923.091493,0.000000
21955.510843,1702.473667,-10955.047942,766.095498
21955.511177,-666.185348,-12435.459826,-2528.115143
21955.511510,-592.164754,-10288.862594,-1149.143247
21955.511844,-5107.421000,-9548.656652,-4749.792088
21955.512177,-3034.844362,-9918.759623,-3294.210641
21955.512511,-4441.235652,-7179.997637,-2451.505594
21955.512845,0.000000,-7772.162391,3677.258390
21955.513178,5921.647536,-7105.977043,7277.907231
21955.513512,1702.473667,-6883.915261,2451.505594
21955.513845,5107.421000,-4737.318029,3677.258390
21955.514179,3182.885551,-10658.965565,536.266849
21955.514513,5847.626942,-8734.430116,1915.238745
21955.514846,1480.411884,-12805.562797,-689.485948
21955.515180,592.164754,-11325.150913,-3524.039291
21955.515513,-3256.906145,-11917.315666,-4290.134789
21955.515847,-2516.700203,-10955.047942,-4673.182538
21955.516181,1036.288319,-7846.182985,-1455.581446
21955.516514,-1480.411884,-10510.924376,1532.190996
21955.516848,5551.544565,-7698.141797,4519.963438
21955.517181,-1258.350101,-8882.471304,3907.087040
21955.517515,4663.297435,-3627.009116,3217.601092
21955.517849,4737.318029,-10510.924376,8503.660028
21955.518182,4663.297435,-6217.729913,1838.629195
21955.518516,1924.535449,-9474.636058,-76.609550
21955.518849,-2220.617826,-13989.892304,-2757.943793
21955.519182,-1184.329507,-10881.027347,-3677.258390
21955.519516,-4145.153275,-9622.677246,-5132.839837
21955.519849,-1258.350101,-11843.295072,-2528.115143
21955.520182,-3256.906145,-9548.656652,-2221.676944
21955.520516,-7105.977043,-10732.986159,0.000000
21955.520849,-814.226536,-9252.574275,4213.525239
21955.521182,3478.967927,-9474.636058,9116.536426
21955.521516,1776.494261,-5699.585753,8580.269578
21955.521849,592.164754,-3627.009116,3677.258390
21955.522182,1332.370696,-4219.173869,919.314598
21955.522516,0.000000,-11991.336260,2145.067394
21955.522849,2442.679609,-8438.347739,-383.047749
21955.523183,-1628.453072,-12435.459826,-1532.190996
21955.523516,-5107.421000,-11029.068536,-6128.763984
21955.523849,-4737.318029,-10140.821405,-3524.039291
21955.524183,-1258.350101,-13027.624579,-1302.362347
21955.524516,-2368.659014,-5551.544565,-2145.067394
21955.524849,1924.535449,-11843.295072,3600.648841
21955.525183,444.123565,-6587.832884,5515.887586
21955.525516,2368.659014,-4737.318029,4519.963438
21955.525849,3330.926739,-7698.141797,4290.134789
21955.526183,1702.473667,-9178.553681,3294.210641
21955.526516,0.000000,-4811.338623,2757.943793
21955.526849,-1184.329507,-8290.306550,1225.752797
21955.527183,-74.020594,-9474.636058,-4366.744339
21955.527516,-4737.318029,-12805.562797,-4903.011187
21955.527849,-222.061783,-7476.080014,-5975.544884
21955.528183,-740.205942,-15988.448347,-2681.334243
21955.528516,296.082377,-9992.780217,0.000000
21955.528849,2072.576638,-10140.821405,1149.143247
21955.529183,2960.823768,-8364.327145,4290.134789
21955.529516,4737.318029,-6587.832884,6894.859482
21955.529850,1702.473667,-9770.718434,3217.601092
21955.530183,7698.141797,-5107.421000,7967.393179
21955.530516,5921.647536,-7105.977043,4136.915689
21955.530850,4663.297435,-9030.512492,1838.629195
21955.531183,-814.226536,-5921.647536,-5898.935335
21955.531516,-4293.194464,-14285.974681,-5515.887586
21955.531850,-1998.556043,-10732.986159,-4903.011187
21955.532183,-5033.400406,-12361.439231,-5975.544884
21955.532516,-518.144159,-9474.636058,-2298.286494
21955.532850,-1554.432478,-11843.295072,-1149.143247
21955.533183,2516.700203,-9252.574275,2911.162892
21955.533516,6809.894666,-7105.977043,7737.564530
21955.533850,3478.967927,-8290.306550,4136.915689
21955.534183,4737.318029,-4811.338623,5132.839837
21955.534516,1702.473667,-11251.130318,2987.772442
21955.534850,2812.782580,-5995.668130,0.000000
21955.535183,370.102971,-11917.315666,0.000000
21955.535516,-370.102971,-11695.253884,-3140.991542
21955.535850,-3701.029710,-11251.130318,-2221.676944
21955.536183,-1258.350101,-9474.636058,-2528.115143
21955.536517,-4219.173869,-11843.295072,-4366.744339
21955.536850,-2368.659014,-8216.285956,-995.924147
21955.537183,-2368.659014,-7179.997637,1532.190996
21955.537517,3478.967927,-8586.388927,6665.030833
21955.537850,4071.132681,-6217.729913,3600.648841
21955.538183,518.144159,-9178.553681,4826.401637
21955.538517,-148.041188,-7624.121203,1915.238745
21955.538850,-1184.329507,-7550.100608,-1072.533697
21955.539183,-3849.070898,-11547.212695,-1685.410096
21955.539517,-2072.576638,-5995.668130,-2145.067394
21955.539850,-2738.761985,-10658.965565,-3294.210641
21955.540183,-1184.329507,-11399.171507,-689.485948
21955.540517,-1258.350101,-12435.459826,-76.609550
21955.540850,-2812.782580,-7179.997637,0.000000
21955.541183,0.000000,-7179.997637,3983.696590
21955.541517,444.123565,-4367.215058,1685.410096
21955.541850,-962.267725,-10140.821405,306.438199
21955.542183,3330.926739,-7031.956449,3217.601092
21955.542517,2886.803174,-9474.636058,1149.143247
21955.542850,2368.659014,-9548.656652,3064.381992
21955.543183,2294.638420,-11547.212695,-689.485948
21955.543517,2294.638420,-11103.089130,-2834.553343
21955.543850,-4441.235652,-12139.377449,-2987.772442
21955.544184,1110.308913,-10658.965565,-2528.115143
21955.544517,-666.185348,-10807.006753,-995.924147
21955.544850,888.247130,-8956.491898,995.924147
21955.545184,296.082377,-8068.244768,1225.752797
21955.545517,-3182.885551,-10436.903782,2451.505594
21955.545850,5995.668130,-5921.647536,6052.154434
21955.546184,370.102971,-7179.997637,5209.449386
21955.546517,7994.224174,-4145.153275,6665.030833
21955.546850,2294.638420,-8882.471304,-689.485948
21955.547184,1110.308913,-10955.047942,-995.924147
21955.547517,-222.061783,-11547.212695,-4060.306139
21955.547850,-5181.441594,-13249.686362,-4903.011187
21955.548184,666.185348,-8586.388927,-5669.106685
21955.548517,-5477.523971,-13989.892304,-2068.457845
21955.548850,3923.091493,-7105.977043,-689.485948
21955.549184,1480.411884,-9696.697840,5515.887586
21955.549517,5329.482782,-6735.874072,7814.174080
21955.549850,3330.926739,-6661.853478,3907.087040
21955.550184,2368.659014,-6587.832884,3830.477490
21955.550517,3478.967927,-9474.636058,-76.609550
21955.550851,1998.556043,-6809.894666,383.047749
21955.551184,0.000000,-10140.821405,1225.752797
21955.551517,0.000000,-10658.965565,-1608.800546
21955.551851,-74.020594,-10955.047942,-3753.867940
21955.552184,-1480.411884,-9474.636058,-4979.620737
21955.552517,-1850.514855,-12065.356855,-919.314598
21955.552851,-4663.297435,-9474.636058,-3447.429741
21955.553184,-2072.576638,-10140.821405,0.000000
21955.553517,1184.329507,-9178.553681,6052.154434
21955.553851,4959.379811,-4811.338623,3983.696590
21955.554184,296.082377,-5403.503377,6741.640382
21955.554517,3701.029710,-7624.121203,3447.429741
21955.554851,0.000000,-6587.832884,2451.505594
21955.555184,-1850.514855,-12287.418637,-76.609550
21955.555517,-592.164754,-5625.565159,-4673.182538
21955.555851,-6513.812290,-13989.892304,-5745.716235
21955.556184,-74.020594,-11251.130318,-1608.800546
21955.556517,-1850.514855,-14211.954086,-1302.362347
21955.556851,0.000000,-9548.656652,1532.190996
21955.557184,2886.803174,-10066.800811,4213.525239
21955.557518,4663.297435,-8290.306550,4519.963438
21955.557851,2960.823768,-7179.997637,5822.325785
21955.558184,814.226536,-8068.244768,2911.162892
21955.558518,2886.803174,-7846.182985,2451.505594
21955.558851,0.000000,-9622.677246,2221.676944
21955.559184,2442.679609,-5921.647536,-995.924147
21955.559518,-2442.679609,-13323.706956,-5592.497135
21955.559851,-5403.503377,-9844.739029,-4290.134789
21955.560184,-3404.947333,-7772.162391,-2987.772442
21955.560518,2294.638420,-13619.789333,1149.143247
21955.560851,1702.473667,-6513.812290,842.705048
21955.561184,148.041188,-9696.697840,2298.286494
21955.561518,2368.659014,-8586.388927,2987.772442
21955.561851,2590.720797,-8808.450710,3524.039291
21955.562184,0.000000,-11917.315666,2451.505594
21955.562518,2368.659014,-4219.173869,2451.505594
21955.562851,666.185348,-11843.295072,-76.609550
21955.563184,-74.020594,-7698.141797,-2145.067394
21955.563518,-2072.576638,-8956.491898,612.876398
21955.563851,-1036.288319,-9474.636058,-383.047749
21955.564184,666.185348,-8586.388927,229.828649
21955.564518,-1850.514855,-12731.542202,-2681.334243
21955.564851,0.000000,-8364.327145,0.000000
21955.565185,0.000000,-7772.162391,-1225.752797
21955.565518,4441.235652,-9252.574275,2451.505594
21955.565851,2590.720797,-9400.615463,6205.373534
21955.566185,4811.338623,-9104.533087,2451.505594
21955.566518,4515.256246,-8290.306550,4826.401637
21955.566851,-1776.494261,-10436.903782,0.000000
21955.567185,2294.638420,-4885.359217,-2528.115143
21955.567518,-4737.318029,-10436.903782,-76.609550
21955.567851,3478.967927,-8734.430116,-2528.115143
21955.568185,-1554.432478,-9474.636058,1149.143247
21955.568518,-2368.659014,-9030.512492,-2298.286494
21955.568851,-3034.844362,-8438.347739,-2451.505594
21955.569185,-3701.029710,-11399.171507,-689.485948
21955.569518,2664.741391,-3997.112087,1225.752797
21955.569851,-74.020594,-10658.965565,2987.772442
21955.570185,0.000000,-9548.656652,612.876398
21955.570518,2368.659014,-7476.080014,5745.716235
21955.570851,5847.626942,-9770.718434,2911.162892
21955.571185,3552.988522,-7772.162391,4290.134789
21955.571518,2294.638420,-11251.130318,-76.609550
21955.571852,-1776.494261,-9548.656652,-4136.915689
21955.572185,-962.267725,-9770.718434,-2681.334243
21955.572518,-2294.638420,-11177.109724,-2374.896044
21955.572852,-2442.679609,-9474.636058,-1302.362347
21955.573185,-4737.318029,-8364.327145,306.438199
21955.573518,-222.061783,-11843.295072,2068.457845
21955.573852,2294.638420,-6513.812290,2681.334243
21955.574185,0.000000,-5403.503377,4290.134789
21955.574518,4071.132681,-6809.894666,3370.820191
21955.574852,592.164754,-7550.100608,1991.848295
21955.575185,1258.350101,-7772.162391,-842.705048
21955.575518,-1998.556043,-12361.439231,-1378.971896
21955.575852,-2960.823768,-9548.656652,-4749.792088
21955.576185,-5921.647536,-11917.315666,-2221.676944
21955.576518,-2442.679609,-11843.295072,-4519.963438
21955.576852,-2368.659014,-6291.750507,-3677.258390
21955.577185,-888.247130,-11769.274478,3370.820191
21955.577518,3923.091493,-4219.173869,2451.505594
21955.577852,2294.638420,-8216.285956,5132.839837
21955.578185,2368.659014,-8808.450710,4903.011187
21955.578519,2294.638420,-6735.874072,2528.115143
21955.578852,-1776.494261,-8512.368333,1225.752797
21955.579185,4145.153275,-5921.647536,536.266849
21955.579519,518.144159,-13619.789333,1149.143247
21955.579852,1406.391290,-6291.750507,-3600.648841
21955.580185,-74.020594,-15396.283594,-2528.115143
21955.580519,-74.020594,-11547.212695,-3447.429741
21955.580852,-2960.823768,-9548.656652,-3370.820191
21955.581185,-2368.659014,-10732.986159,2145.067394
21955.581519,3034.844362,-7846.182985,1685.410096
21955.581852,3478.967927,-4811.338623,2451.505594
21955.582185,6513.812290,-4959.379811,6971.469032
21955.582519,3478.967927,-8882.471304,4749.792088
21955.582852,4367.215058,-7179.997637,4060.306139
21955.583185,814.226536,-9474.636058,-689.485948
21955.583519,-2220.617826,-10436.903782,-3064.381992
21955.583852,-1258.350101,-7179.997637,-7048.078582
21955.584185,-2664.741391,-13027.624579,-1302.362347
21955.584519,-74.020594,-9474.636058,-6205.373534
21955.584852,-3701.029710,-13915.871710,-1915.238745
21955.585186,592.164754,-8956.491898,-229.828649
21955.585519,2886.803174,-9696.697840,4903.011187
21955.585852,5329.482782,-7031.956449,6741.640382
21955.586186,5329.482782,-7105.977043,4673.182538
21955.586519,4145.153275,-9548.656652,6971.469032
21955.586852,2368.659014,-4811.338623,0.000000
21955.587186,2590.720797,-13619.789333,2068.457845
21955.587519,-962.267725,-10140.821405,-2451.505594
21955.587852,-6069.688724,-9474.636058,-5822.325785
21955.588186,-2738.761985,-10955.047942,-5286.058936
21955.588519,-2516.700203,-11399.171507,-689.485948
21955.588852,-2146.597232,-8956.491898,229.828649
21955.589186,-1332.370696,-8364.327145,1455.581446
21955.589519,-370.102971,-9474.636058,2374.896044
21955.589852,0.000000,-5995.668130,5286.058936
21955.590186,3478.967927,-9474.636058,6052.154434
21955.590519,2590.720797,-6587.832884,3064.381992
21955.590852,296.082377,-7179.997637,4903.011187
21955.591186,222.061783,-9252.574275,0.000000
21955.591519,-814.226536,-9696.697840,-1838.629195
21955.591852,-3997.112087,-10214.842000,-5286.058936
21955.592186,-2664.741391,-13545.768739,-3140.991542
21955.592519,-5181.441594,-9844.739029,-3677.258390
21955.592853,-2368.659014,-11325.150913,-76.609550
21955.593186,-2590.720797,-10066.800811,1302.362347
21955.593519,592.164754,-1850.514855,2451.505594
21955.593853,2368.659014,-7772.162391,7354.516781
21955.594186,3627.009116,-3627.009116,4903.011187
21955.594519,1406.391290,-10510.924376,2068.457845
21955.594853,0.000000,-9548.656652,1455.581446
21955.595186,2886.803174,-8290.306550,0.000000
21955.595519,1110.308913,-11325.150913,-1838.629195
21955.595853,0.000000,-10584.944971,-919.314598
21955.596186,-2368.659014,-11029.068536,-4136.915689
21955.596519,-1628.453072,-10288.862594,-1915.238745
21955.596853,1036.288319,-11251.130318,-76.609550
21955.597186,-444.123565,-7772.162391,-1225.752797
21955.597519,0.000000,-5995.668130,0.000000
21955.597853,2368.659014,-8882.471304,3600.648841
21955.598186,2294.638420,-7031.956449,2604.724693
21955.598519,2368.659014,-6291.750507,4443.353888
21955.598853,2590.720797,-6883.915261,2604.724693
21955.599186,666.185348,-9474.636058,-2374.896044
21955.599520,-2590.720797,-13397.727550,-3217.601092
21955.599853,-74.020594,-6365.771101,-4673.182538
21955.600186,2886.803174,-11991.336260,-4443.353888
21955.600520,5625.565159,-10362.883188,3600.648841
21955.600853,4663.297435,-13619.789333,2374.896044
21955.601186,-74.020594,-9844.739029,-2451.505594
21955.601520,2294.638420,-11103.089130,1762.019645
21955.601853,0.000000,-9992.780217,1915.238745
21955.602186,3775.050304,-6439.791695,3064.381992
21955.602520,1110.308913,-8660.409521,76.609550
21955.602853,2368.659014,-8660.409521,3677.258390
21955.603186,3775.050304,-3923.091493,2451.505594
21955.603520,4663.297435,-10658.965565,4213.525239
21955.603853,-1406.391290,-8438.347739,-1685.410096
21955.604186,-3627.009116,-11547.212695,-6205.373534
21955.604520,-5329.482782,-10140.821405,-3524.039291
21955.604853,-4515.256246,-9696.697840,-3447.429741
21955.605186,-2886.803174,-9030.512492,-2068.457845
21955.605520,-1406.391290,-8068.244768,842.705048
21955.605853,1406.391290,-9474.636058,3600.648841
21955.606187,0.000000,-7179.997637,3064.381992
21955.606520,2294.638420,-11843.295072,4826.401637
21955.606853,2294.638420,-4811.338623,3064.381992
21955.607187,1924.535449,-9400.615463,4903.011187
21955.607520,4589.276840,-7772.162391,3064.381992
21955.607853,-666.185348,-10510.924376,-2145.067394
21955.608187,-370.102971,-12879.583391,-1762.019645
21955.608520,-4589.276840,-11843.295072,-3370.820191
21955.608853,-4219.173869,-10066.800811,-6971.469032
21955.609187,-2368.659014,-13027.624579,-2528.115143
21955.609520,-2738.761985,-9548.656652,-2451.505594
21955.609853,0.000000,-7179.997637,5209.449386
21955.610187,3478.967927,-7698.141797,3600.648841
21955.610520,4145.153275,-5995.668130,6128.763984
21955.610853,2294.638420,-7698.141797,4826.401637
21955.611187,1702.473667,-7624.121203,2221.676944
21955.611520,592.164754,-7328.038826,-383.047749
21955.611853,-370.102971,-9474.636058,-3830.477490
21955.612187,-296.082377,-12435.459826,-1915.238745
21955.612520,-1480.411884,-10436.903782,-3524.039291
21955.612853,-2146.597232,-13175.665768,-4673.182538
21955.613187,-2442.679609,-11547.212695,-3600.648841
21955.613520,-74.020594,-11251.130318,-689.485948
21955.613854,592.164754,-7179.997637,2451.505594
21955.614187,5847.626942,-9474.636058,4826.401637
21955.614520,2664.741391,-4811.338623,6741.640382
21955.614854,5921.647536,-6587.832884,6281.983084
21955.615187,5847.626942,-8290.306550,3600.648841
21955.615520,3775.050304,-8586.388927,2068.457845
21955.615854,-3034.844362,-11547.212695,-4826.401637
21955.616187,-962.267725,-10584.944971,-4826.401637
21955.616520,-5847.626942,-10436.903782,-7048.078582
21955.616854,-296.082377,-11695.253884,-2528.115143
21955.617187,1702.473667,-10658.965565,-383.047749
21955.617520,-1406.391290,-8956.491898,-2451.505594
21955.617854,4293.194464,-10066.800811,6052.154434
21955.618187,888.247130,-6291.750507,3677.258390
21955.618514,5255.462188,-6291.750507,4673.182538
21955.618847,4145.153275,-7846.182985,4213.525239
21955.619181,3108.864956,-8808.450710,3753.867940
21955.619514,1480.411884,-7179.997637,0.000000
21955.619847,1924.535449,-14211.954086,-76.609550
21955.620180,-4737.318029,-11029.068536,-3677.258390
21955.620514,-4737.318029,-9548.656652,-4290.134789
21955.620847,-1480.411884,-11251.130318,-2528.115143
21955.621180,-2812.782580,-11621.233289,-76.609550
21955.621513,-518.144159,-7846.182985,536.266849
21955.621847,1258.350101,-8290.306550,3064.381992
21955.622180,1850.514855,-7476.080014,6128.763984
21955.622513,1554.432478,-7698.141797,4826.401637
21955.622846,1406.391290,-8290.306550,2068.457845
21955.623180,1110.308913,-5403.503377,0.000000
21955.623513,0.000000,-7179.997637,2451.505594
21955.623846,1702.473667,-12435.459826,-2528.115143
21955.624179,-2960.823768,-11547.212695,-995.924147
21955.624513,-2960.823768,-11177.109724,-3753.867940
21955.624846,-3256.906145,-10732.986159,-1072.533697
21955.625179,-3923.091493,-10510.924376,-689.485948
21955.625512,-3034.844362,-7105.977043,-2528.115143
21955.625846,-1480.411884,-7031.956449,1838.629195
21955.626179,3997.112087,-4071.132681,1838.629195
21955.626512,3182.885551,-9770.718434,7507.735880
21955.626845,2368.659014,-6291.750507,3677.258390
21955.627179,0.000000,-8660.409521,995.924147
21955.627512,-1258.350101,-11843.295072,-2451.505594
21955.627845,1184.329507,-8660.409521,-1225.752797
21955.628178,-2442.679609,-12731.542202,-3140.991542
21955.628512,0.000000,-7328.038826,-3677.258390
21955.628845,-2368.659014,-11547.212695,-995.924147
21955.629178,-888.247130,-10214.842000,1149.143247
21955.629511,-1258.350101,-8364.327145,153.219100
21955.629845,2294.638420,-8882.471304,2374.896044
21955.630178,2220.617826,-5995.668130,4826.401637
21955.630511,4663.297435,-7698.141797,2221.676944
21955.630844,1924.535449,-4219.173869,3064.381992
21955.631178,592.164754,-9844.739029,2374.896044
21955.631511,4515.256246,-9992.780217,1991.848295
21955.631844,148.041188,-11325.150913,1685.410096
21955.632177,-1406.391290,-9992.780217,-3983.696590
21955.632511,-666.185348,-9252.574275,-4673.182538
21955.632844,-1554.432478,-12509.480420,-2834.553343
21955.633177,1184.329507,-9548.656652,2374.896044
21955.633510,0.000000,-7179.997637,-3064.381992
21955.633844,2960.823768,-10436.903782,3447.429741
21955.634177,1702.473667,-7328.038826,2604.724693
21955.634510,3701.029710,-4811.338623,4903.011187
21955.634843,3775.050304,-8882.471304,4826.401637
21955.635177,5921.647536,-7105.977043,4826.401637
21955.635510,1406.391290,-9104.533087,2298.286494
21955.635843,2590.720797,-9474.636058,842.705048
21955.636176,-1258.350101,-13027.624579,-3753.867940
21955.636510,-7105.977043,-10732.986159,-3524.039291
21955.636843,-4737.318029,-11029.068536,-2911.162892
21955.637176,-3627.009116,-9474.636058,-4673.182538
21955.637509,-3552.988522,-8364.327145,-2451.505594
21955.637843,-222.061783,-7476.080014,1991.848295
21955.638176,3997.112087,-6217.729913,5132.839837
21955.638509,1332.370696,-8438.347739,4903.011187
21955.638842,4885.359217,-7624.121203,4596.572988
21955.639176,3256.906145,-7920.203579,153.219100
21955.639509,2960.823768,-12361.439231,6052.154434
21955.639842,1110.308913,-8956.491898,0.000000
21955.640175,-3256.906145,-5995.668130,-3064.381992
21955.640509,-2368.659014,-7179.997637,-3677.258390
21955.640842,-3330.926739,-13545.768739,-3983.696590
21955.641175,-2442.679609,-11029.068536,-2221.676944
21955.641508,-4663.297435,-9474.636058,-4060.306139
21955.641842,-2368.659014,-11695.253884,1378.971896
21955.642175,-74.020594,-4145.153275,1532.190996
21955.642508,2442.679609,-5847.626942,4673.182538
21955.642841,2664.741391,-5773.606348,4826.401637
21955.643175,1184.329507,-8734.430116,3600.648841
21955.643508,-74.020594,-10288.862594,4519.963438
21955.643841,1406.391290,-5921.647536,-2451.505594
21955.644174,-3552.988522,-14285.974681,-2451.505594
21955.644508,-74.020594,-11843.295072,-3140.991542
21955.644841,-2368.659014,-9252.574275,-3983.696590
21955.645174,-3552.988522,-9548.656652,-919.314598
21955.645507,-1850.514855,-11769.274478,-383.047749
21955.645841,666.185348,-6513.812290,1762.019645
21955.646174,592.164754,-5551.544565,2911.162892
21955.646507,4071.132681,-7105.977043,2374.896044
21955.646840,4663.297435,-8290.306550,536.266849
21955.647174,2368.659014,-8512.368333,4826.401637
21955.647507,5847.626942,-11843.295072,-76.609550
21955.647840,2590.720797,-10584.944971,459.657299
21955.648173,1110.308913,-13471.748144,-1915.238745
21955.648507,0.000000,-10732.986159,-995.924147
21955.648840,-2664.741391,-10584.944971,-2681.334243
21955.649173,3182.885551,-7698.141797,-919.314598
21955.649506,-2368.659014,-8364.327145,1838.629195
21955.649840,1110.308913,-7179.997637,-3677.258390
21955.650173,1184.329507,-11103.089130,5439.278036
21955.650506,-1850.514855,-7254.018232,0.000000
21955.650839,1480.411884,-5995.668130,3217.601092
21955.651173,2590.720797,-7105.977043,3294.210641
21955.651506,4737.318029,-7846.182985,1455.581446
21955.651839,-296.082377,-8438.347739,-1149.143247
21955.652172,666.185348,-10214.842000,-4519.963438
21955.652506,0.000000,-14285.974681,-1685.410096
21955.652839,-2664.741391,-10140.821405,-3064.381992
21955.653172,2886.803174,-13027.624579,-76.609550
21955.653505,-2738.761985,-11843.295072,-1838.629195
21955.653839,2664.741391,-7031.956449,0.000000
21955.654172,2664.741391,-10732.986159,4903.011187
21955.654505,6439.791695,-4145.153275,5822.325785
21955.654838,2738.761985,-10658.965565,5132.839837
21955.655172,1480.411884,-6291.750507,3600.648841
21955.655505,-74.020594,-6513.812290,-1302.362347
21955.655838,-592.164754,-11843.295072,-76.609550
21955.656171,148.041188,-7179.997637,-1838.629195
21955.656505,-9474.636058,-11917.315666,-3677.258390
21955.656838,-740.205942,-10658.965565,-3753.867940
21955.657171,-6365.771101,-13915.871710,-3677.258390
21955.657504,-2590.720797,-7698.141797,-4366.744339
21955.657838,-2368.659014,-8290.306550,842.705048
21955.658171,518.144159,-8734.430116,3140.991542
21955.658504,4663.297435,-5329.482782,5439.278036
21955.658837,2072.576638,-8734.430116,6052.154434
21955.659171,3849.070898,-7772.162391,2911.162892
21955.659504,296.082377,-8586.388927,3753.867940
21955.659837,444.123565,-8734.430116,995.924147
21955.660170,2294.638420,-7698.141797,-1915.238745
21955.660504,-4441.235652,-11917.315666,-4903.011187
21955.660837,-74.020594,-11843.295072,-4366.744339
21955.661170,-4663.297435,-10140.821405,-3064.381992
21955.661503,-2368.659014,-9844.739029,-1225.752797
21955.661837,-74.020594,-11251.130318,-76.609550
21955.662170,-1184.329507,-8660.409521,3217.601092
21955.662503,1998.556043,-3404.947333,1838.629195
21955.662836,2886.803174,-9252.574275,5362.668486
21955.663170,4071.132681,-3330.926739,1991.848295
21955.663503,2664.741391,-10658.965565,4826.401637
21955.663836,1110.308913,-7105.977043,536.266849
21955.664169,0.000000,-11325.150913,1608.800546
21955.664503,-1554.432478,-12435.459826,-842.705048
21955.664836,-2442.679609,-7476.080014,-5822.325785
21955.665169,0.000000,-10436.903782,-1532.190996
21955.665502,-962.267725,-9770.718434,-1915.238745
21955.665836,-1184.329507,-9178.553681,-995.924147
21955.666169,0.000000,-8364.327145,1225.752797
21955.666502,4663.297435,-11843.295072,2987.772442
21955.666835,1480.411884,-4959.379811,1225.752797
21955.667169,1480.411884,-9548.656652,5056.230287
21955.667502,5255.462188,-8882.471304,2374.896044
21955.667835,2368.659014,-8956.491898,4903.011187
21955.668168,2738.761985,-9770.718434,1149.143247
21955.668502,0.000000,-9178.553681,-612.876398
21955.668835,-1406.391290,-9326.594869,-6511.811733
21955.669168,814.226536,-13619.789333,-3753.867940
21955.669501,-2442.679609,-14211.954086,-3140.991542
21955.669835,-1184.329507,-7476.080014,-1225.752797
21955.670168,-518.144159,-12435.459826,4826.401637
21955.670501,4071.132681,-3552.988522,1149.143247
21955.670834,1776.494261,-7179.997637,5975.544884
21955.671168,1702.473667,-9252.574275,5056.230287
21955.671501,1776.494261,-4367.215058,3600.648841
21955.671834,-1702.473667,-8956.491898,1302.362347
21955.672167,4071.132681,-10658.965565,2068.457845
21955.672501,-3108.864956,-7994.224174,-2604.724693
21955.672834,-2738.761985,-11547.212695,-4673.182538
21955.673167,-3923.091493,-11399.171507,-2911.162892
21955.673500,-5329.482782,-8660.409521,-5515.887586
21955.673834,-2368.659014,-7476.080014,1532.190996
21955.674167,1110.308913,-6513.812290,2374.896044
21955.674500,1554.432478,-9474.636058,842.705048
21955.674833,1776.494261,-6587.832884,4290.134789
21955.675167,2146.597232,-9030.512492,2987.772442
21955.675500,1776.494261,-8956.491898,3140.991542
21955.675833,1332.370696,-10584.944971,995.924147
21955.676166,444.123565,-9696.697840,-1762.019645
21955.676500,-1776.494261,-11325.150913,-2451.505594
21955.676833,1406.391290,-9548.656652,-1838.629195
21955.677166,-74.020594,-11843.295072,-3753.867940
21955.677499,-2368.659014,-8660.409521,0.000000
21955.677833,-1184.329507,-7179.997637,612.876398
21955.678166,-592.164754,-8808.450710,3983.696590
21955.678499,2368.659014,-5255.462188,4826.401637
21955.678832,1702.473667,-6143.709319,3677.258390
21955.679166,296.082377,-9104.533087,3677.258390
21955.679499,2220.617826,-6513.812290,-76.609550
21955.679832,-1776.494261,-9548.656652,1532.190996
21955.680165,-370.102971,-8882.471304,-3907.087040
21955.680499,-4441.235652,-10881.027347,-3677.258390
21955.680832,-2442.679609,-13027.624579,-2528.115143
21955.681165,3478.967927,-11103.089130,-689.485948
21955.681498,-1776.494261,-11029.068536,1378.971896
21955.681832,1554.432478,-8734.430116,689.485948
21955.682165,-296.082377,-9548.656652,1608.800546
21955.682498,4663.297435,-6661.853478,4290.134789
21955.682831,5181.441594,-9474.636058,7890.783629
21955.683165,2960.823768,-6291.750507,1838.629195
21955.683498,3552.988522,-10140.821405,6665.030833
21955.683831,2294.638420,-9474.636058,2068.457845
21955.684164,1850.514855,-5995.668130,-1685.410096
21955.684498,-2442.679609,-9770.718434,-2374.896044
21955.684831,-3627.009116,-10955.047942,-7201.297681
21955.685164,-2146.597232,-9770.718434,-2911.162892
21955.685497,-6439.791695,-11325.150913,-3677.258390
21955.685831,-3034.844362,-8290.306550,-2528.115143
21955.686164,-5921.647536,-9548.656652,3370.820191
21955.686497,4367.215058,-4737.318029,2374.896044
21955.686830,1998.556043,-6587.832884,2451.505594
21955.687164,0.000000,-8364.327145,3677.258390
21955.687497,4071.132681,-7031.956449,1608.800546
21955.687830,3182.885551,-9696.697840,2068.457845
21955.688163,4885.359217,-10436.903782,1072.533697
21955.688497,1702.473667,-9770.718434,-153.219100
21955.688830,-666.185348,-11251.130318,-4979.620737
21955.689163,-1184.329507,-12435.459826,-3140.991542
21955.689496,-2960.823768,-12213.398043,-1532.190996
21955.689830,-888.247130,-8290.306550,459.657299
21955.690163,-2368.659014,-8364.327145,1225.752797
21955.690496,2294.638420,-6809.894666,2528.115143
21955.690829,888.247130,-4811.338623,2451.505594
21955.691163,1184.329507,-6587.832884,4826.401637
21955.691496,2294.638420,-6217.729913,5056.230287
21955.691829,0.000000,-4959.379811,0.000000
21955.692162,1332.370696,-9104.533087,612.876398
21955.692496,-2516.700203,-9844.739029,-4136.915689
21955.692829,-1628.453072,-11843.295072,-4979.620737
21955.693162,-74.020594,-14211.954086,-2528.115143
21955.693495,1702.473667,-13027.624579,-3753.867940
21955.693829,-2368.659014,-10140.821405,459.657299
21955.694162,0.000000,-10140.821405,2068.457845
21955.694495,2294.638420,-8882.471304,1762.019645
21955.694828,4737.318029,-6587.832884,6052.154434
21955.695162,2960.823768,-7920.203579,6435.202183
21955.695495,5255.462188,-5329.482782,5515.887586
21955.695828,1406.391290,-8586.388927,1685.410096
21955.696161,-1036.288319,-9326.594869,1225.752797
21955.696495,-74.020594,-9474.636058,-4366.744339
21955.696828,0.000000,-9474.636058,-1302.362347
21955.697161,1110.308913,-13471.748144,-4519.963438
21955.697494,-4663.297435,-12213.398043,-3677.258390
21955.697828,-666.185348,-10658.965565,-1302.362347
21955.698161,-5921.647536,-11621.233289,-1838.629195
21955.698494,3478.967927,-4293.194464,2987.772442
21955.698827,-666.185348,-9178.553681,2528.115143
21955.699161,3849.070898,-4811.338623,4903.011187
21955.699494,1110.308913,-6143.709319,3064.381992
21955.699827,592.164754,-8364.327145,4443.353888
21955.700160,4663.297435,-7105.977043,2681.334243
21955.700494,-4145.153275,-10140.821405,-3983.696590
21955.700827,592.164754,-7476.080014,-5515.887586
21955.701160,-5921.647536,-15322.262999,-6052.154434
21955.701493,-962.267725,-11695.253884,-3983.696590
21955.701827,-3701.029710,-10066.800811,-2681.334243
21955.702160,-74.020594,-12435.459826,3600.648841
21955.702493,0.000000,-4811.338623,5975.544884
21955.702826,3478.967927,-7994.224174,4826.401637
21955.703160,3478.967927,-4663.297435,2451.505594
21955.703493,1776.494261,-9252.574275,6052.154434
21955.703826,1332.370696,-4811.338623,0.000000
21955.704159,444.123565,-9474.636058,3524.039291
21955.704493,-2072.576638,-8364.327145,-4213.525239
21955.704826,-2368.659014,-11177.109724,-3907.087040
21955.705159,-5107.421000,-13027.624579,-4979.620737
21955.705492,-1184.329507,-9252.574275,-2681.334243
21955.705826,-1702.473667,-8808.450710,-2145.067394
21955.706159,-1628.453072,-11177.109724,842.705048
21955.706492,2590.720797,-6661.853478,3064.381992
21955.706825,5255.462188,-10658.965565,7890.783629
21955.707159,4737.318029,-3627.009116,3064.381992
21955.707492,4737.318029,-9474.636058,6665.030833
21955.707825,4663.297435,-6513.812290,2757.943793
21955.708158,592.164754,-6291.750507,-995.924147
21955.708492,-74.020594,-13027.624579,-2221.676944
21955.708825,-1184.329507,-8808.450710,-6052.154434
21955.709158,-3552.988522,-14211.954086,-3830.477490
21955.709491,-592.164754,-8512.368333,-3370.820191
21955.709825,-2442.679609,-12731.542202,-3140.991542
21955.710158,0.000000,-5403.503377,1532.190996
21955.710491,3478.967927,-10955.047942,4826.401637
21955.710824,4515.256246,-5107.421000,3983.696590
21955.711158,4737.318029,-7179.997637,6741.640382
21955.711491,2738.761985,-7105.977043,1072.533697
21955.711824,5551.544565,-8216.285956,2528.115143
21955.712157,-3108.864956,-11991.336260,-842.705048
21955.712491,5255.462188,-5921.647536,-1915.238745
21955.712824,-6365.771101,-12213.398043,-4903.011187
21955.713157,0.000000,-11843.295072,-689.485948
21955.713490,-666.185348,-9326.594869,-3447.429741
21955.713824,-1554.432478,-10436.903782,0.000000
21955.714157,1406.391290,-8586.388927,2374.896044
21955.714490,-4589.276840,-9992.780217,3677.258390
21955.714823,4145.153275,-3404.947333,4443.353888
21955.715157,74.020594,-8808.450710,1608.800546
21955.715490,2442.679609,-8956.491898,4060.306139
21955.715823,296.082377,-5699.585753,612.876398
21955.716156,2294.638420,-14211.954086,2068.457845
21955.716490,-518.144159,-7920.203579,-3370.820191
21955.716823,-4737.318029,-12509.480420,-3677.258390
21955.717156,-370.102971,-11843.295072,-1302.362347
21955.717489,-3404.947333,-9696.697840,-2451.505594
21955.717823,-2072.576638,-10807.006753,-612.876398
21955.718156,-2072.576638,-7328.038826,2068.457845
21955.718489,0.000000,-7476.080014,2911.162892
21955.718822,1776.494261,-8068.244768,4903.011187
21955.719155,1776.494261,-6661.853478,5439.278036
21955.719488,1628.453072,-7328.038826,4749.792088
21955.719822,2886.803174,-3330.926739,1149.143247
21955.720155,-666.185348,-11251.130318,-2528.115143
21955.720488,-1184.329507,-8364.327145,-2451.505594
21955.720821,0.000000,-14211.954086,-3753.867940
21955.721154,-74.020594,-14211.954086,-1302.362347
21955.721487,-1184.329507,-9548.656652,-2451.505594
21955.721820,518.144159,-10658.965565,-76.609550
21955.722153,-1258.350101,-9252.574275,0.000000
21955.722487,2146.597232,-8512.368333,1991.848295
21955.722820,3478.967927,-6069.688724,5822.325785
21955.723153,4367.215058,-6217.729913,2987.772442
21955.723486,4367.215058,-9474.636058,4213.525239
21955.723819,-1184.329507,-9104.533087,3600.648841
21955.724152,4071.132681,-5329.482782,-1225.752797
21955.724485,296.082377,-11917.315666,0.000000
21955.724818,296.082377,-8956.491898,0.000000
21955.725152,-3034.844362,-12435.459826,-4749.792088
21955.725485,-1110.308913,-10436.903782,-2681.334243
21955.725818,74.020594,-11473.192101,-2221.676944
21955.726151,-666.185348,-12731.542202,-689.485948
21955.726484,2368.659014,-5995.668130,3677.258390
21955.726817,444.123565,-5107.421000,0.000000
21955.727150,1480.411884,-7772.162391,4979.620737
21955.727483,3330.926739,-5921.647536,2374.896044
21955.727817,5847.626942,-8882.471304,4826.401637
21955.728150,1924.535449,-10362.883188,2374.896044
21955.728483,222.061783,-10140.821405,-612.876398
21955.728816,-4811.338623,-9474.636058,-4519.963438
21955.729149,-370.102971,-9770.718434,-4903.011187
21955.729482,-2664.741391,-15544.324782,-76.609550
21955.729815,0.000000,-8364.327145,-2451.505594
21955.730149,-4737.318029,-11917.315666,0.000000
21955.730482,-74.020594,-9474.636058,2374.896044
21955.730815,1406.391290,-4219.173869,2068.457845
21955.731148,2590.720797,-6957.935855,6894.859482
21955.731481,2664.741391,-6661.853478,4519.963438
21955.731814,-666.185348,-9104.533087,2604.724693
21955.732147,2294.638420,-7550.100608,1455.581446
21955.732480,1110.308913,-10658.965565,-76.609550
21955.732814,-4145.153275,-10732.986159,919.314598
21955.733147,-2442.679609,-8290.306550,-1915.238745
21955.733480,-3627.009116,-10510.924376,-5209.449386
21955.733813,-2368.659014,-3627.009116,-3064.381992
21955.734146,-5995.668130,-15840.407159,-5132.839837
21955.734479,1480.411884,-4071.132681,-919.314598
21955.734812,518.144159,-13471.748144,1838.629195
21955.735145,5995.668130,-5551.544565,4749.792088
21955.735479,5847.626942,-9178.553681,4826.401637
21955.735812,1924.535449,-9252.574275,2451.505594
21955.736145,7031.956449,-6809.894666,1991.848295
21955.736478,-2072.576638,-14804.118840,-76.609550
21955.736811,4737.318029,-5995.668130,0.000000
21955.737144,-3627.009116,-13619.789333,-3140.991542
21955.737477,888.247130,-7179.997637,0.000000
21955.737810,-4737.318029,-7476.080014,-1532.190996
21955.738144,1628.453072,-10362.883188,1455.581446
21955.738477,-74.020594,-7179.997637,0.000000
21955.738810,-1702.473667,-7846.182985,1302.362347
21955.739143,1480.411884,-6291.750507,612.876398
21955.739476,-2294.638420,-9696.697840,3064.381992
21955.739809,4663.297435,-9474.636058,2068.457845
21955.740142,6439.791695,-8290.306550,2374.896044
21955.740475,0.000000,-11917.315666,1149.143247
21955.740809,3182.885551,-11843.295072,-2528.115143
21955.741142,-1998.556043,-9844.739029,-2145.067394
21955.741475,0.000000,-10732.986159,-842.705048
21955.741808,2812.782580,-9548.656652,1532.190996
21955.742141,-1628.453072,-9400.615463,-1225.752797
21955.742474,592.164754,-8956.491898,229.828649
21955.742807,222.061783,-6513.812290,1608.800546
21955.743140,4071.132681,-9030.512492,-76.609550
21955.743474,-2072.576638,-12805.562797,4443.353888
21955.743807,4367.215058,-5033.400406,76.609550
21955.744140,-2812.782580,-10732.986159,0.000000
21955.744473,4071.132681,-7105.977043,-76.609550
21955.744806,0.000000,-9104.533087,766.095498
21955.745139,-1406.391290,-11695.253884,-1225.752797
21955.745472,-2442.679609,-7994.224174,-2145.067394
21955.745806,-7105.977043,-11325.150913,-5515.887586
21955.746139,-370.102971,-7402.059420,-2451.505594
21955.746472,-4737.318029,-11029.068536,2987.772442
21955.746805,2886.803174,-5181.441594,1455.581446
21955.747138,-1036.288319,-6291.750507,3677.258390
21955.747471,2960.823768,-4811.338623,3830.477490
21955.747804,2442.679609,-5625.565159,4366.744339
21955.748137,1036.288319,-8956.491898,536.266849
21955.748471,1850.514855,-9918.759623,995.924147
21955.748804,-74.020594,-13915.871710,-2068.457845
21955.749137,1184.329507,-10140.821405,-612.876398
21955.749470,-74.020594,-11251.130318,-1302.362347
21955.749803,1702.473667,-11695.253884,-4213.525239
21955.750136,-1776.494261,-8068.244768,612.876398
21955.750469,-3552.988522,-8660.409521,-2298.286494
21955.750802,3108.864956,-6735.874072,2451.505594
21955.751136,814.226536,-7105.977043,4903.011187
21955.751469,2294.638420,-6513.812290,2068.457845
21955.751802,4367.215058,-7994.224174,2068.457845
21955.752135,888.247130,-12361.439231,1838.629195
21955.752468,1776.494261,-6883.915261,2681.334243
21955.752801,-2220.617826,-9844.739029,-306.438199
21955.753134,518.144159,-8808.450710,-3217.601092
21955.753467,-3034.844362,-12879.583391,-1225.752797
21955.753801,-2368.659014,-7772.162391,-5515.887586
21955.754134,-2368.659014,-8956.491898,-995.924147
21955.754467,-3182.885551,-11843.295072,-1608.800546
21955.754800,1110.308913,-7698.141797,229.828649
21955.755133,592.164754,-9178.553681,4519.963438
21955.755466,3256.906145,-7179.997637,2451.505594
21955.755799,4959.379811,-8290.306550,4979.620737
21955.756132,4663.297435,-7994.224174,4519.963438
21955.756466,8216.285956,-3552.988522,3294.210641
21955.756799,-2368.659014,-13101.645173,1378.971896
21955.757132,-740.205942,-11843.295072,-3140.991542
21955.757465,-4811.338623,-9178.553681,-6128.763984
21955.757798,-2368.659014,-11917.315666,-5515.887586
21955.758131,1998.556043,-10658.965565,-383.047749
21955.758464,-2664.741391,-11251.130318,-536.266849
21955.758798,1924.535449,-5699.585753,2604.724693
21955.759131,-2368.659014,-10362.883188,3677.258390
21955.759464,592.164754,-4811.338623,0.000000
21955.759797,1184.329507,-7476.080014,6665.030833
21955.760130,1110.308913,-7772.162391,0.000000
21955.760463,0.000000,-5995.668130,3064.381992
21955.760796,-666.185348,-12435.459826,-76.609550
21955.761129,0.000000,-6291.750507,-1225.752797
21955.761463,-4959.379811,-13323.706956,-2374.896044
21955.761796,0.000000,-9326.594869,-3447.429741
21955.762129,-4071.132681,-11843.295072,-1378.971896
21955.762462,592.164754,-6587.832884,1225.752797
21955.762795,7031.956449,-10658.965565,6052.154434
21955.763128,4663.297435,-7105.977043,4979.620737
21955.763461,5921.647536,-4811.338623,2451.505594
21955.763794,2886.803174,-14211.954086,4826.401637
21955.764128,1480.411884,-7772.162391,612.876398
21955.764461,1702.473667,-10955.047942,-153.219100
21955.764794,888.247130,-11325.150913,0.000000
21955.765127,1998.556043,-10066.800811,-2221.676944
21955.765460,0.000000,-9548.656652,-2451.505594
21955.765793,74.020594,-7994.224174,-1532.190996
21955.766126,-1702.473667,-11251.130318,-1455.581446
21955.766459,-3034.844362,-9030.512492,-2681.334243
21955.766793,518.144159,-10066.800811,-2528.115143
21955.767126,0.000000,-7772.162391,3677.258390
21955.767459,5329.482782,-4145.153275,6971.469032
21955.767792,1110.308913,-6513.812290,1915.238745
21955.768125,4145.153275,-5699.585753,5975.544884
21955.768458,-2442.679609,-12879.583391,-76.609550
21955.768791,-962.267725,-9104.533087,-3370.820191
21955.769124,-3997.112087,-11473.192101,-4366.744339
21955.769458,-3997.112087,-13989.892304,-3677.258390
21955.769791,0.000000,-6587.832884,-1225.752797
21955.770124,-3034.844362,-11251.130318,-3370.820191
21955.770457,444.123565,-9474.636058,-1302.362347
21955.770790,-74.020594,-7920.203579,2451.505594
21955.771123,1184.329507,-4811.338623,3064.381992
21955.771456,0.000000,-7179.997637,4903.011187
21955.771789,-1628.453072,-8956.491898,5515.887586
21955.772123,2738.761985,-6439.791695,459.657299
21955.772456,3182.885551,-9474.636058,3600.648841
21955.772789,4589.276840,-10955.047942,2068.457845
21955.773122,-962.267725,-7920.203579,-5822.325785
21955.773455,-1258.350101,-18357.107362,-3753.867940
21955.773788,-3627.009116,-10658.965565,-5515.887586
21955.774121,-1776.494261,-12805.562797,-2145.067394
21955.774455,1998.556043,-6217.729913,1455.581446
21955.774788,-2368.659014,-8586.388927,536.266849
21955.775121,2294.638420,-6957.935855,4903.011187
21955.775454,2812.782580,-6661.853478,6435.202183
21955.775787,-74.020594,-7698.141797,1762.019645
21955.776120,1184.329507,-6587.832884,2757.943793
21955.776453,-1258.350101,-10658.965565,-689.485948
21955.776786,1184.329507,-4811.338623,0.000000
21955.777120,-592.164754,-11769.274478,1762.019645
21955.777453,2886.803174,-9474.636058,-3753.867940
21955.777786,-1554.432478,-14211.954086,-2221.676944
21955.778119,-370.102971,-9992.780217,-1991.848295
21955.778452,0.000000,-9992.780217,-612.876398
21955.778785,2442.679609,-9326.594869,3294.210641
21955.779118,5551.544565,-9474.636058,4826.401637
21955.779451,888.247130,-5995.668130,4903.011187
21955.779785,5699.585753,-7105.977043,4826.401637
21955.780118,3478.967927,-11251.130318,2374.896044
21955.780451,0.000000,-7772.162391,0.000000
21955.780784,2294.638420,-8290.306550,-3140.991542
21955.781117,-2664.741391,-14434.015869,-1302.362347
21955.781450,-888.247130,-9474.636058,-1838.629195
21955.781783,-2812.782580,-9178.553681,-2068.457845
21955.782116,1110.308913,-10066.800811,-1302.362347
21955.782450,-1628.453072,-6587.832884,-1225.752797
21955.782783,-1776.494261,-8660.409521,-536.266849
21955.783116,-666.185348,-9326.594869,1455.581446
21955.783449,-2960.823768,-9548.656652,0.000000
21955.783782,2146.597232,-11251.130318,2068.457845
21955.784115,1924.535449,-5995.668130,229.828649
21955.784448,3552.988522,-9992.780217,4826.401637
21955.784781,3478.967927,-8586.388927,1915.238745
21955.785115,1702.473667,-7402.059420,-3064.381992
21955.785448,-1036.288319,-11029.068536,-1072.533697
21955.785781,-2960.823768,-11843.295072,-1991.848295
21955.786114,-1628.453072,-10214.842000,-383.047749
21955.786447,-2368.659014,-8438.347739,-612.876398
21955.786780,2960.823768,-9178.553681,-76.609550
21955.787113,0.000000,-9844.739029,1838.629195
21955.787446,0.000000,-4811.338623,2451.505594
21955.787780,-888.247130,-12731.542202,4826.401637
21955.788113,0.000000,-7772.162391,1225.752797
21955.788446,-370.102971,-7846.182985,2068.457845
21955.788779,-3552.988522,-7476.080014,-2068.457845
21955.789112,1406.391290,-7402.059420,0.000000
21955.789445,-3627.009116,-12435.459826,-1302.362347
21955.789778,-74.020594,-11843.295072,-689.485948
21955.790112,-5921.647536,-6587.832884,-3064.381992
21955.790445,-3256.906145,-10140.821405,-2451.505594
21955.790778,-296.082377,-9474.636058,2374.896044
21955.791111,2294.638420,-8290.306550,4519.963438
21955.791444,4885.359217,-4811.338623,2528.115143
21955.791777,3330.926739,-10955.047942,3217.601092
21955.792110,4145.153275,-8660.409521,2221.676944
21955.792443,1924.535449,-9548.656652,1608.800546
21955.792777,3478.967927,-12139.377449,0.000000
21955.793110,0.000000,-9548.656652,0.000000
21955.793443,-74.020594,-13915.871710,-2681.334243
21955.793776,2886.803174,-9474.636058,-1608.800546
21955.794109,-962.267725,-9474.636058,-383.047749
21955.794442,592.164754,-7179.997637,-689.485948
21955.794775,74.020594,-9474.636058,383.047749
21955.795108,-1406.391290,-10510.924376,1149.143247
21955.795442,3552.988522,-6069.688724,2451.505594
21955.795775,-1776.494261,-7772.162391,1532.190996
21955.796108,6439.791695,-7105.977043,4826.401637
21955.796441,2294.638420,-8882.471304,229.828649
21955.796774,1776.494261,-10584.944971,-76.609550
21955.797107,1258.350101,-11547.212695,-1302.362347
21955.797440,-1776.494261,-12065.356855,-459.657299
21955.797773,666.185348,-11029.068536,-2221.676944
21955.798107,-1628.453072,-10584.944971,-612.876398
21955.798440,-296.082377,-10066.800811,-1532.190996
21955.798773,-1480.411884,-8364.327145,306.438199
21955.799106,-222.061783,-8290.306550,153.219100
21955.799439,1628.453072,-8290.306550,2068.457845
21955.799772,296.082377,-9326.594869,3677.258390
21955.800105,592.164754,-5995.668130,612.876398
21955.800438,222.061783,-6513.812290,-76.609550
21955.800772,592.164754,-9548.656652,3907.087040
21955.801105,-74.020594,-9474.636058,-229.828649
21955.801438,-1258.350101,-9918.759623,-2834.553343
21955.801771,-2368.659014,-12583.501014,-76.609550
21955.802104,-2146.597232,-9918.759623,-2374.896044
21955.802437,-666.185348,-9178.553681,-1762.019645
21955.802770,666.185348,-8956.491898,-1302.362347
21955.803104,3478.967927,-14211.954086,6052.154434
21955.803437,0.000000,-5699.585753,4903.011187
21955.803770,2886.803174,-11843.295072,4826.401637
21955.804103,-2368.659014,-4811.338623,3677.258390
21955.804436,-2368.659014,-4219.173869,1532.190996
21955.804769,2294.638420,-6735.874072,2068.457845
21955.805102,-2960.823768,-9548.656652,-1302.362347
21955.805435,-3478.967927,-9992.780217,-4290.134789
21955.805769,-4441.235652,-10066.800811,-4673.182538
21955.806102,-4811.338623,-10214.842000,-5592.497135
21955.806435,-4145.153275,-10732.986159,766.095498
21955.806768,-370.102971,-10066.800811,1149.143247
21955.807101,3478.967927,-8438.347739,1225.752797
21955.807434,6217.729913,-5107.421000,7354.516781
21955.807767,5255.462188,-8882.471304,4213.525239
21955.808100,5477.523971,-7698.141797,6052.154434
21955.808434,3997.112087,-8142.265362,2374.896044
21955.808767,1554.432478,-11917.315666,229.828649
21955.809100,1480.411884,-7476.080014,0.000000
21955.809433,-4737.318029,-11325.150913,-1302.362347
21955.809766,2294.638420,-8882.471304,-2528.115143
21955.810099,-3108.864956,-10066.800811,-4060.306139
21955.810432,-74.020594,-9030.512492,-2528.115143
21955.810765,-5181.441594,-10436.903782,-3140.991542
21955.811099,518.144159,-10955.047942,-153.219100
21955.811432,2664.741391,-8882.471304,4749.792088
21955.811765,4663.297435,-8438.347739,6588.421283
21955.812098,7994.224174,-5995.668130,2911.162892
21955.812431,3182.885551,-11103.089130,5439.278036
21955.812764,6069.688724,-7179.997637,5132.839837
21955.813097,1110.308913,-7179.997637,0.000000
21955.813430,2294.638420,-10658.965565,-1608.800546
21955.813764,-3034.844362,-10066.800811,-7431.126331
21955.814097,-4737.318029,-12657.521608,-1915.238745
21955.814430,-2442.679609,-9474.636058,-4979.620737
21955.814763,-4441.235652,-10436.903782,-1838.629195
21955.815096,0.000000,-4811.338623,0.000000
21955.815429,518.144159,-11547.212695,3294.210641
21955.815762,2664.741391,-6809.894666,2834.553343
21955.816095,74.020594,-9548.656652,2911.162892
21955.816429,2294.638420,-9474.636058,3294.210641
21955.816762,740.205942,-5107.421000,2451.505594
21955.817095,-74.020594,-8956.491898,-2451.505594
21955.817428,0.000000,-9548.656652,-689.485948
21955.817761,-1258.350101,-11547.212695,-1915.238745
21955.818094,814.226536,-9474.636058,-1915.238745
21955.818427,-1480.411884,-13767.830521,-76.609550
21955.818761,-2960.823768,-8142.265362,1378.971896
21955.819094,-370.102971,-6439.791695,-76.609550
21955.819427,1850.514855,-12361.439231,5209.449386
21955.819760,4441.235652,-5921.647536,5745.716235
21955.820093,-4145.153275,-7772.162391,0.000000
21955.820426,3256.906145,-8142.265362,2987.772442
21955.820759,-3034.844362,-10807.006753,-1225.752797
21955.821092,0.000000,-7476.080014,-1838.629195
21955.821426,-74.020594,-9326.594869,-1915.238745
21955.821759,-4589.276840,-10510.924376,-4060.306139
21955.822092,370.102971,-9622.677246,-459.657299
21955.822425,-2442.679609,-7994.224174,-995.924147
21955.822758,2294.638420,-8882.471304,-689.485948
21955.823091,0.000000,-11991.336260,5439.278036
21955.823424,7031.956449,-8290.306550,6665.030833
21955.823757,3478.967927,-5107.421000,3064.381992
21955.824091,3552.988522,-7179.997637,5515.887586
21955.824424,2590.720797,-8734.430116,919.314598
21955.824757,1184.329507,-8216.285956,-689.485948
21955.825090,1850.514855,-12361.439231,-1149.143247
21955.825423,814.226536,-9622.677246,-5209.449386
21955.825756,-2664.741391,-11473.192101,-4903.011187
21955.826089,592.164754,-9992.780217,-689.485948
21955.826422,0.000000,-10732.986159,1225.752797
21955.826755,-74.020594,-10658.965565,-1915.238745
21955.827088,1184.329507,-6291.750507,1225.752797
21955.827421,2368.659014,-9548.656652,10955.165621
21955.827754,6735.874072,-4293.194464,6128.763984
21955.828087,592.164754,-7550.100608,4903.011187
21955.828420,3256.906145,-7698.141797,3677.258390
21955.828753,-1480.411884,-7179.997637,0.000000
21955.829086,1110.308913,-10214.842000,-1302.362347
21955.829419,-3923.091493,-12435.459826,-5056.230287
21955.829753,-4441.235652,-10436.903782,-5975.544884
21955.830086,-3627.009116,-13027.624579,-4673.182538
21955.830419,-2812.782580,-8068.244768,-2451.505594
21955.830752,296.082377,-8216.285956,0.000000
21955.831085,2294.638420,-10658.965565,2987.772442
21955.831418,2072.576638,-5847.626942,3370.820191
21955.831751,2886.803174,-9474.636058,5439.278036
21955.832084,3849.070898,-8068.244768,6665.030833
21955.832417,518.144159,-9030.512492,2681.334243
21955.832750,2294.638420,-8956.491898,1072.533697
21955.833083,1184.329507,-5995.668130,-3370.820191
21955.833416,-3923.091493,-14285.974681,0.000000
21955.833749,-74.020594,-7698.141797,-4673.182538
21955.834082,-7402.059420,-11177.109724,-5286.058936
21955.834415,-4441.235652,-7476.080014,-2145.067394
21955.834748,-3627.009116,-7698.141797,-2528.115143
21955.835081,-2960.823768,-10732.986159,3370.820191
21955.835414,2590.720797,-3701.029710,4443.353888
21955.835747,-1924.535449,-11029.068536,5362.668486
21955.836080,4219.173869,-4811.338623,4903.011187
21955.836413,-1480.411884,-7476.080014,1225.752797
21955.836746,4663.297435,-9474.636058,1149.143247
21955.837080,0.000000,-9548.656652,1225.752797
21955.837413,0.000000,-11991.336260,-1302.362347
21955.837746,2368.659014,-9548.656652,-2451.505594
21955.838079,-4959.379811,-12583.501014,-1838.629195
21955.838412,3478.967927,-4441.235652,-4060.306139
21955.838745,-74.020594,-14063.912898,919.314598
21955.839078,5847.626942,-7994.224174,1762.019645
21955.839411,2664.741391,-7328.038826,4826.401637
21955.839744,1554.432478,-9474.636058,842.705048
21955.840077,2368.659014,-5995.668130,1838.629195
21955.840410,2886.803174,-11547.212695,2374.896044
21955.840743,5847.626942,-7994.224174,-76.609550
21955.841076,518.144159,-10066.800811,-995.924147
21955.841409,-592.164754,-11399.171507,-3064.381992
21955.841742,2368.659014,-8216.285956,-3447.429741
21955.842075,-4737.318029,-11917.315666,-1225.752797
21955.842408,2294.638420,-9474.636058,-76.609550
21955.842741,-2072.576638,-7179.997637,2451.505594
21955.843074,0.000000,-8660.409521,3064.381992
21955.843407,2294.638420,-5329.482782,919.314598
21955.843740,3478.967927,-8438.347739,4826.401637
21955.844073,2294.638420,-9178.553681,1149.143247
21955.844407,592.164754,-9844.739029,1532.190996
21955.844740,-1332.370696,-11843.295072,-842.705048
21955.845073,-2368.659014,-8660.409521,-1532.190996
21955.845406,-2738.761985,-10362.883188,-4979.620737
21955.845739,-592.164754,-11103.089130,-2068.457845
21955.846072,-888.247130,-8216.285956,2911.162892
21955.846405,-1480.411884,-6661.853478,0.000000
21955.846738,-3552.988522,-7772.162391,153.219100
21955.847071,-666.185348,-9474.636058,842.705048
21955.847404,-1850.514855,-5995.668130,0.000000
21955.847737,4663.297435,-8290.306550,2987.772442
21955.848070,2072.576638,-11917.315666,1838.629195
21955.848403,1480.411884,-9548.656652,4290.134789
21955.848736,814.226536,-9548.656652,1225.752797
21955.849069,0.000000,-8660.409521,459.657299
21955.849402,-1554.432478,-8364.327145,-2451.505594
21955.849735,-4145.153275,-9696.697840,-3064.381992
21955.850068,-1850.514855,-9474.636058,-1915.238745
21955.850401,-3552.988522,-7179.997637,-3370.820191
21955.850734,-2960.823768,-9548.656652,1455.581446
21955.851067,-1850.514855,-8290.306550,-1302.362347
21955.851400,0.000000,-5107.421000,459.657299
21955.851734,-1850.514855,-11473.192101,1915.238745
21955.852067,2960.823768,-4811.338623,3294.210641
21955.852400,0.000000,-9178.553681,2757.943793
21955.852733,7031.956449,-8882.471304,2068.457845
21955.853066,5847.626942,-11251.130318,1762.019645
21955.853399,592.164754,-7920.203579,-153.219100
21955.853732,4663.297435,-11843.295072,-76.609550
21955.854065,-666.185348,-13101.645173,-1838.629195
21955.854398,2812.782580,-13027.624579,-689.485948
21955.854731,-2368.659014,-10584.944971,-306.438199
21955.855064,2738.761985,-4589.276840,-1302.362347
21955.855397,296.082377,-10066.800811,2987.772442
21955.855730,4663.297435,-7105.977043,2987.772442
21955.856063,0.000000,-7179.997637,1225.752797
21955.856396,1184.329507,-10732.986159,6435.202183
21955.856729,2886.803174,-6069.688724,995.924147
21955.857062,-1480.411884,-7772.162391,612.876398
21955.857395,3182.885551,-7698.141797,-1915.238745
21955.857728,-3256.906145,-9844.739029,-4136.915689
21955.858061,-2960.823768,-11547.212695,-5898.935335
21955.858394,-3108.864956,-10140.821405,-4366.744339
21955.858728,-3182.885551,-11843.295072,-4366.744339
21955.859061,-2368.659014,-9326.594869,-2451.505594
21955.859394,370.102971,-9474.636058,1685.410096
21955.859727,4589.276840,-6661.853478,6665.030833
21955.860060,5329.482782,-1554.432478,7354.516781
21955.860393,4737.318029,-9400.615463,5898.935335
21955.860726,4071.132681,-10362.883188,2451.505594
21955.861059,1184.329507,-7920.203579,1225.752797
21955.861392,740.205942,-11843.295072,-689.485948
21955.861725,-1776.494261,-11917.315666,-5515.887586
21955.862058,-3849.070898,-15396.283594,-4366.744339
21955.862391,-962.267725,-10658.965565,-459.657299
21955.862724,-2516.700203,-10362.883188,-919.314598
21955.863057,-370.102971,-8290.306550,3600.648841
21955.863390,-3849.070898,-7179.997637,2451.505594
21955.863723,2886.803174,-4885.359217,2911.162892
21955.864056,0.000000,-7031.956449,4826.401637
21955.864389,2294.638420,-10658.965565,4826.401637
21955.864722,-74.020594,-5329.482782,2374.896044
21955.865055,444.123565,-11103.089130,459.657299
21955.865388,296.082377,-7846.182985,-1149.143247
21955.865721,-2590.720797,-11029.068536,-4596.572988
21955.866055,-1554.432478,-8882.471304,-4136.915689
21955.866388,-2220.617826,-12065.356855,-4366.744339
21955.866721,-1776.494261,-11917.315666,0.000000
21955.867054,-2664.741391,-13619.789333,2374.896044
21955.867387,6439.791695,-1998.556043,2757.943793
21955.867720,296.082377,-7772.162391,6281.983084
21955.868053,5847.626942,-7105.977043,3370.820191
21955.868386,5033.400406,-8586.388927,5439.278036
21955.868719,-444.123565,-8956.491898,612.876398
21955.869052,5847.626942,-8660.409521,995.924147
21955.869385,-2442.679609,-11843.295072,-3140.991542
21955.869718,0.000000,-12509.480420,-3447.429741
21955.870051,-1258.350101,-11103.089130,1149.143247
21955.870384,1702.473667,-6809.894666,-3600.648841
21955.870717,0.000000,-9548.656652,1225.752797
21955.871050,-1702.473667,-8216.285956,612.876398
21955.871383,1850.514855,-7328.038826,689.485948
21955.871716,2664.741391,-8956.491898,4979.620737
21955.872049,3997.112087,-6513.812290,1532.190996
21955.872382,740.205942,-7179.997637,1225.752797
21955.872715,2960.823768,-11547.212695,3600.648841
21955.873048,0.000000,-6883.915261,-1838.629195
21955.873382,0.000000,-10140.821405,0.000000
21955.873715,592.164754,-13471.748144,-76.609550
21955.874048,-3404.947333,-10732.986159,-1685.410096
21955.874381,222.061783,-8290.306550,-2528.115143
21955.874714,-3256.906145,-12657.521608,-76.609550
21955.875047,-962.267725,-7846.182985,0.000000
21955.875380,74.020594,-7179.997637,306.438199
21955.875713,5699.585753,-9474.636058,3294.210641
21955.876046,2590.720797,-11029.068536,6128.763984
21955.876379,2368.659014,-5699.585753,3294.210641
21955.876712,1702.473667,-11843.295072,3600.648841
21955.877045,-370.102971,-5107.421000,0.000000
21955.877378,-1702.473667,-9474.636058,-1455.581446
21955.877711,-2442.679609,-10658.965565,-2834.553343
21955.878044,-4737.318029,-6883.915261,-4826.401637
21955.878377,-2368.659014,-10140.821405,1455.581446
21955.878710,-2442.679609,-9178.553681,1149.143247
21955.879043,-3256.906145,-10436.903782,0.000000
21955.879376,296.082377,-6439.791695,2221.676944
21955.879709,814.226536,-5329.482782,1149.143247
21955.880042,1110.308913,-9918.759623,1378.971896
21955.880375,1998.556043,-11251.130318,-76.609550
21955.880709,814.226536,-9770.718434,995.924147
21955.881042,1184.329507,-7772.162391,2451.505594
21955.881375,4663.297435,-11843.295072,2374.896044
21955.881708,0.000000,-9104.533087,-1685.410096
21955.882041,-1850.514855,-10510.924376,-2681.334243
21955.882374,-2590.720797,-10140.821405,-1762.019645
21955.882707,0.000000,-7179.997637,0.000000
21955.883040,-2442.679609,-10140.821405,0.000000
21955.883373,3034.844362,-8882.471304,2374.896044
21955.883706,-666.185348,-8068.244768,229.828649
21955.884039,1480.411884,-3330.926739,2145.067394
21955.884372,0.000000,-9548.656652,1072.533697
21955.884705,2886.803174,-8438.347739,2374.896044
21955.885038,3034.844362,-7031.956449,3217.601092
21955.885371,1776.494261,-10510.924376,1915.238745
21955.885704,3478.967927,-9178.553681,842.705048
21955.886037,-3552.988522,-10288.862594,-2451.505594
21955.886370,3478.967927,-11251.130318,-1915.238745
21955.886703,-2886.803174,-9548.656652,-4903.011187
21955.887036,-814.226536,-13027.624579,-1532.190996
21955.887369,2294.638420,-10362.883188,1225.752797
21955.887702,3330.926739,-10510.924376,2987.772442
21955.888036,4959.379811,-8142.265362,5132.839837
21955.888369,3849.070898,-8512.368333,4443.353888
21955.888702,4367.215058,-4367.215058,536.266849
21955.889035,3330.926739,-10658.965565,3294.210641
21955.889368,518.144159,-8068.244768,-1838.629195
21955.889701,-3849.070898,-9548.656652,-2451.505594
21955.890034,1998.556043,-10658.965565,-3753.867940
21955.890367,2294.638420,-10955.047942,-3064.381992
21955.890700,-1258.350101,-11917.315666,-995.924147
21955.891033,-888.247130,-8438.347739,-612.876398
21955.891366,-2516.700203,-10362.883188,-1302.362347
21955.891699,-666.185348,-7994.224174,2374.896044
21955.892032,814.226536,-8882.471304,2987.772442
21955.892365,2960.823768,-6735.874072,6741.640382
21955.892698,1110.308913,-6217.729913,5822.325785
21955.893031,1776.494261,-5181.441594,2604.724693
21955.893364,-74.020594,-7105.977043,536.266849
21955.893697,-3552.988522,-11769.274478,-2528.115143
21955.894030,-666.185348,-14211.954086,-4366.744339
21955.894363,-5921.647536,-10732.986159,-4290.134789
21955.894696,0.000000,-11917.315666,0.000000
21955.895030,-2442.679609,-8586.388927,-2451.505594
21955.895363,1554.432478,-9770.718434,1378.971896
21955.895696,1258.350101,-7328.038826,3677.258390
21955.896029,2072.576638,-7772.162391,4060.306139
21955.896362,1776.494261,-9548.656652,2451.505594
21955.896695,2590.720797,-11843.295072,4826.401637
21955.897028,1554.432478,-5477.523971,0.000000
21955.897361,0.000000,-8364.327145,2068.457845
21955.897694,1110.308913,-8290.306550,-2528.115143
21955.898027,-4737.318029,-8956.491898,-3064.381992
21955.898360,-3627.009116,-7698.141797,-5286.058936
21955.898693,-4589.276840,-12361.439231,-6281.983084
21955.899026,-4737.318029,-12065.356855,-2451.505594
21955.899359,1184.329507,-7550.100608,-536.266849
21955.899692,3478.967927,-11843.295072,4213.525239
21955.900025,5033.400406,-5107.421000,9806.022374
21955.900358,4737.318029,-8068.244768,6665.030833
21955.900691,6143.709319,-8290.306550,4673.182538
21955.901024,1184.329507,-9252.574275,995.924147
21955.901357,1924.535449,-9474.636058,76.609550
21955.901690,0.000000,-8364.327145,-2145.067394
21955.902023,-1406.391290,-13101.645173,-2681.334243
21955.902357,-1258.350101,-9474.636058,-3753.867940
21955.902690,-4441.235652,-10732.986159,-6665.030833
21955.903023,-3552.988522,-9548.656652,-2068.457845
21955.903356,-74.020594,-8882.471304,-76.609550
21955.903689,3478.967927,-8142.265362,3140.991542
21955.904022,5033.400406,-5773.606348,6665.030833
21955.904355,4367.215058,-9992.780217,5975.544884
21955.904688,6291.750507,-6883.915261,4979.620737
21955.905021,2960.823768,-8808.450710,1991.848295
21955.905354,4071.132681,-10658.965565,-76.609550
21955.905687,-1036.288319,-11029.068536,-3830.477490
21955.906020,-1480.411884,-9918.759623,-4366.744339
21955.906353,-1924.535449,-11029.068536,-2911.162892
21955.906686,-3552.988522,-9548.656652,0.000000
21955.907019,-2368.659014,-6291.750507,-1149.143247
21955.907352,-666.185348,-9474.636058,995.924147
21955.907685,518.144159,-5329.482782,-383.047749
21955.908018,-1184.329507,-8956.491898,3064.381992
21955.908351,2368.659014,-7772.162391,4290.134789
21955.908684,2368.659014,-8660.409521,4060.306139
21955.909017,814.226536,-7920.203579,3294.210641
21955.909350,962.267725,-7105.977043,-1378.971896
21955.909684,-1258.350101,-12731.542202,-76.609550
21955.910017,-3330.926739,-7994.224174,-4519.963438
21955.910350,-1258.350101,-10658.965565,-4979.620737
21955.910683,-3108.864956,-10732.986159,-1225.752797
21955.911016,0.000000,-7179.997637,2757.943793
21955.911349,-1184.329507,-11177.109724,3677.258390
21955.911682,2294.638420,-6513.812290,3447.429741
21955.912015,1628.453072,-6957.935855,4903.011187
21955.912348,1406.391290,-8142.265362,3600.648841
21955.912681,2664.741391,-5329.482782,1149.143247
21955.913014,-4737.318029,-12213.398043,-766.095498
21955.913347,0.000000,-4811.338623,-4903.011187
21955.913680,-3849.070898,-13989.892304,-1302.362347
21955.914013,1702.473667,-8882.471304,-1608.800546
21955.914346,-2738.761985,-10066.800811,-2834.553343
21955.914679,1110.308913,-10066.800811,-1608.800546
21955.915012,-370.102971,-10807.006753,-1991.848295
21955.915345,666.185348,-10658.965565,3447.429741
21955.915678,6735.874072,-3627.009116,5132.839837
21955.916011,3478.967927,-11843.295072,7277.907231
21955.916344,2368.659014,-5403.503377,4290.134789
21955.916677,-2960.823768,-11621.233289,1608.800546
21955.917011,3478.967927,-7328.038826,0.000000
21955.917344,-3552.988522,-7179.997637,-1838.629195
21955.917677,1702.473667,-7031.956449,-2451.505594
21955.918010,-1850.514855,-12139.377449,-2604.724693
21955.918343,-5921.647536,-9474.636058,-6741.640382
21955.918676,666.185348,-9030.512492,-5439.278036
21955.919009,-2442.679609,-13693.809927,-1915.238745
21955.919342,3552.988522,-7772.162391,3294.210641
21955.919675,2294.638420,-9474.636058,4213.525239
21955.920008,6439.791695,-9104.533087,3677.258390
21955.920341,3552.988522,-4219.173869,4903.011187
21955.920674,3775.050304,-9326.594869,4290.134789
21955.921007,3997.112087,-6735.874072,2451.505594
21955.921340,-1776.494261,-10658.965565,612.876398
21955.921673,1628.453072,-7920.203579,-4673.182538
21955.922006,-3034.844362,-14508.036463,-2374.896044
21955.922339,-148.041188,-8808.450710,-2068.457845
21955.922672,-444.123565,-8882.471304,-383.047749
21955.923005,-1036.288319,-9104.533087,536.266849
21955.923338,-74.020594,-7994.224174,842.705048
21955.923671,-962.267725,-10510.924376,2451.505594
21955.924005,592.164754,-5107.421000,0.000000
21955.924338,1776.494261,-10658.965565,4826.401637
21955.924671,2294.638420,-7476.080014,2145.067394
21955.925004,1776.494261,-6587.832884,3983.696590
21955.925337,-1258.350101,-9548.656652,-842.705048
21955.925670,740.205942,-8512.368333,-1991.848295
21955.926003,-2590.720797,-10955.047942,-2221.676944
21955.926336,-1850.514855,-9474.636058,-1302.362347
21955.926669,-74.020594,-7105.977043,-4366.744339
21955.927002,-3552.988522,-12213.398043,2221.676944
21955.927335,0.000000,-5403.503377,1225.752797
21955.927668,-74.020594,-11251.130318,766.095498
21955.928001,3701.029710,-6587.832884,2451.505594
21955.928334,592.164754,-10732.986159,3600.648841
21955.928667,1110.308913,-10288.862594,2987.772442
21955.929000,2812.782580,-7105.977043,1685.410096
21955.929333,-814.226536,-10362.883188,1149.143247
21955.929666,2886.803174,-4663.297435,-2834.553343
21955.930000,-3552.988522,-11325.150913,-842.705048
21955.930333,-1850.514855,-10362.883188,-3753.867940
21955.930666,-74.020594,-10658.965565,-4826.401637
21955.930999,-5255.462188,-15100.201217,-76.609550
21955.931332,148.041188,-4589.276840,1302.362347
21955.931665,1480.411884,-9696.697840,5439.278036
21955.931998,4367.215058,-5403.503377,4903.011187
21955.932331,0.000000,-7179.997637,2451.505594
21955.932664,-888.247130,-6587.832884,-1838.629195
21955.932997,0.000000,-10732.986159,612.876398
21955.933330,-74.020594,-9474.636058,-1455.581446
21955.933663,0.000000,-7846.182985,-2528.115143
21955.933996,-3552.988522,-10140.821405,-2451.505594
21955.934329,814.226536,-10658.965565,-2528.115143
21955.934662,1554.432478,-9400.615463,689.485948
21955.934995,2294.638420,-8882.471304,1838.629195
21955.935328,-74.020594,-10658.965565,1149.143247
21955.935661,0.000000,-9844.739029,4213.525239
21955.935995,1110.308913,-7105.977043,1455.581446
21955.936328,3552.988522,-2442.679609,1838.629195
21955.936661,5699.585753,-14211.954086,2374.896044
21955.936994,5181.441594,-10140.821405,4903.011187
21955.937327,2886.803174,-7105.977043,536.266849
21955.937660,-592.164754,-10584.944971,-766.095498
21955.937993,-1924.535449,-8734.430116,-4290.134789
21955.938326,-2442.679609,-11251.130318,-4060.306139
21955.938659,0.000000,-10510.924376,919.314598
21955.938992,-1184.329507,-8364.327145,0.000000
21955.939325,-740.205942,-8660.409521,919.314598
21955.939658,962.267725,-6291.750507,3294.210641
21955.939991,3478.967927,-9178.553681,1149.143247
21955.940324,592.164754,-8956.491898,2451.505594
21955.940657,3775.050304,-11251.130318,2987.772442
21955.940990,592.164754,-8956.491898,3677.258390
21955.941323,1776.494261,-4219.173869,612.876398
21955.941656,1110.308913,-11843.295072,-2528.115143
21955.941990,1850.514855,-7624.121203,-919.314598
21955.942323,-1110.308913,-11843.295072,-2834.553343
21955.942656,-2590.720797,-12361.439231,-2757.943793
21955.942989,-2590.720797,-10362.883188,-1762.019645
21955.943322,-2368.659014,-10436.903782,1149.143247
21955.943655,3478.967927,-9474.636058,3600.648841
21955.943988,0.000000,-4811.338623,3677.258390
21955.944321,2368.659014,-9252.574275,6281.983084
21955.944654,-74.020594,-5107.421000,1225.752797
21955.944987,-444.123565,-11325.150913,766.095498
21955.945320,370.102971,-8068.244768,612.876398
21955.945653,-1406.391290,-10584.944971,-459.657299
21955.945986,-3256.906145,-8364.327145,-6128.763984
21955.946319,-592.164754,-11695.253884,1762.019645
21955.946652,-74.020594,-9030.512492,229.828649
21955.946985,2294.638420,-5551.544565,-2451.505594
21955.947318,-4071.132681,-13027.624579,-1302.362347
21955.947652,-2960.823768,-8364.327145,-3524.039291
21955.947985,2368.659014,-9030.512492,3677.258390
21955.948318,2294.638420,-10658.965565,3907.087040
21955.948651,3034.844362,-7105.977043,3524.039291
21955.948984,148.041188,-9104.533087,1915.238745
21955.949317,-74.020594,-14211.954086,-689.485948
21955.949650,296.082377,-5995.668130,-2145.067394
21955.949983,-2368.659014,-12139.377449,-1838.629195
21955.950316,3182.885551,-8882.471304,-1915.238745
21955.950649,-3552.988522,-11325.150913,-612.876398
21955.950982,2368.659014,-8290.306550,1685.410096
21955.951315,74.020594,-8364.327145,306.438199
21955.951648,1702.473667,-9770.718434,383.047749
21955.951981,2072.576638,-11547.212695,4290.134789
21955.952314,2442.679609,-9030.512492,2298.286494
21955.952647,3034.844362,-9474.636058,4903.011187
21955.952980,1850.514855,-7031.956449,3140.991542
21955.953313,2294.638420,-5329.482782,536.266849
21955.953647,-2368.659014,-5995.668130,2451.505594
21955.953980,1776.494261,-10658.965565,-1302.362347
21955.954313,-3849.070898,-7179.997637,-6588.421283
21955.954646,-2960.823768,-11917.315666,-3370.820191
21955.954979,-1924.535449,-11695.253884,-3753.867940
21955.955312,-1332.370696,-8956.491898,536.266849
21955.955645,-2664.741391,-8364.327145,0.000000
21955.955978,1924.535449,-6365.771101,1915.238745
21955.956311,1480.411884,-10140.821405,3370.820191
21955.956644,4367.215058,-8142.265362,3677.258390
21955.956977,4663.297435,-9474.636058,1149.143247
21955.957310,2664.741391,-7179.997637,2757.943793
21955.957643,2368.659014,-10732.986159,3677.258390
21955.957976,592.164754,-8660.409521,0.000000
21955.958309,296.082377,-9252.574275,-2145.067394
21955.958642,-2442.679609,-11029.068536,-5209.449386
21955.958975,-2146.597232,-11547.212695,-3447.429741
21955.959309,-1554.432478,-11843.295072,-1302.362347
21955.959642,-3256.906145,-6587.832884,-2451.505594
21955.959975,-666.185348,-13619.789333,-383.047749
21955.960308,0.000000,-8364.327145,7354.516781
21955.960641,4959.379811,-4441.235652,7277.907231
21955.960974,5255.462188,-8290.306550,7737.564530
21955.961307,740.205942,-5847.626942,2987.772442
21955.961640,-2442.679609,-8660.409521,-995.924147
21955.961973,-2960.823768,-10658.965565,-3064.381992
21955.962306,-2442.679609,-9770.718434,-6205.373534
21955.962639,-4737.318029,-10732.986159,-3140.991542
21955.962972,-2146.597232,-8660.409521,-4596.572988
21955.963305,-3997.112087,-9548.656652,-2145.067394
21955.963638,-1628.453072,-10807.006753,1762.019645
21955.963971,2886.803174,-7994.224174,4826.401637
21955.964304,4663.297435,-6217.729913,6358.592633
21955.964637,4441.235652,-7105.977043,3370.820191
21955.964970,5255.462188,-9992.780217,6971.469032
21955.965304,3923.091493,-6291.750507,1455.581446
21955.965637,4663.297435,-11843.295072,1149.143247
21955.965970,-3552.988522,-11917.315666,0.000000
21955.966303,-74.020594,-9474.636058,-3753.867940
21955.966636,-2442.679609,-13915.871710,-3140.991542
21955.966969,-2590.720797,-7698.141797,-4903.011187
21955.967302,-2146.597232,-10066.800811,-1302.362347
21955.967635,-3849.070898,-7476.080014,-459.657299
21955.967968,3108.864956,-7920.203579,4519.963438
21955.968301,962.267725,-7698.141797,5056.230287
21955.968634,5847.626942,-4737.318029,2374.896044
21955.968967,1258.350101,-10066.800811,2451.505594
21955.969300,1406.391290,-11103.089130,919.314598
21955.969633,3627.009116,-8290.306550,1608.800546
21955.969966,0.000000,-9548.656652,0.000000
21955.970299,2294.638420,-7105.977043,-6511.811733
21955.970632,-3627.009116,-10807.006753,-7124.688131
21955.970966,0.000000,-10140.821405,-2221.676944
21955.971299,2146.597232,-11251.130318,153.219100
21955.971632,2294.638420,-7550.100608,306.438199
21955.971965,3478.967927,-9474.636058,3600.648841
21955.972298,2664.741391,-8882.471304,6205.373534
21955.972631,3627.009116,-5921.647536,3524.039291
21955.972964,1480.411884,-8660.409521,3294.210641
21955.973297,2294.638420,-11843.295072,1762.019645
21955.973630,-2960.823768,-7772.162391,612.876398
21955.973963,-296.082377,-11251.130318,-76.609550
21955.974296,-1554.432478,-4959.379811,-3983.696590
21955.974629,-4737.318029,-9548.656652,-2451.505594
21955.974962,-2664.741391,-8808.450710,-2451.505594
21955.975295,-2664.741391,-11251.130318,-1302.362347
21955.975628,444.123565,-10140.821405,-612.876398
21955.975961,2886.803174,-9474.636058,2681.334243
21955.976294,4663.297435,-7105.977043,3600.648841
21955.976627,3552.988522,-7254.018232,7277.907231
21955.976961,4367.215058,-7402.059420,2451.505594
21955.977294,0.000000,-8364.327145,2451.505594
21955.977627,-74.020594,-10362.883188,-76.609550
21955.977960,-1184.329507,-9548.656652,-1072.533697
21955.978293,-3478.967927,-10955.047942,-3983.696590
21955.978626,-2368.659014,-7698.141797,-2221.676944
21955.978959,-4737.318029,-7179.997637,-2451.505594
21955.979292,-74.020594,-8290.306550,-2911.162892
21955.979625,-4737.318029,-10140.821405,1532.190996
21955.979958,1702.473667,-11251.130318,2987.772442
21955.980291,-740.205942,-7698.141797,2681.334243
21955.980624,1184.329507,-5921.647536,3907.087040
21955.980957,1998.556043,-9770.718434,3907.087040
21955.981290,5329.482782,-8438.347739,1685.410096
21955.981623,2590.720797,-13545.768739,1532.190996
21955.981956,3701.029710,-8290.306550,919.314598
21955.982289,-3552.988522,-9548.656652,-3677.258390
21955.982622,-74.020594,-10362.883188,-689.485948
21955.982956,-74.020594,-5995.668130,-5515.887586
21955.983289,-1184.329507,-10732.986159,536.266849
21955.983622,-740.205942,-7476.080014,-1608.800546
21955.983955,0.000000,-11399.171507,842.705048
21955.984288,0.000000,-9030.512492,3064.381992
21955.984621,1332.370696,-6661.853478,1685.410096
21955.984954,1924.535449,-11843.295072,2604.724693
21955.985287,740.205942,-9622.677246,3140.991542
21955.985620,814.226536,-7550.100608,1225.752797
21955.985953,0.000000,-6365.771101,-1532.190996
21955.986286,518.144159,-9400.615463,-306.438199
21955.986619,-888.247130,-10288.862594,-2451.505594
21955.986952,592.164754,-5995.668130,-2298.286494
21955.987285,2368.659014,-11547.212695,2374.896044
21955.987618,444.123565,-9844.739029,0.000000
21955.987951,1110.308913,-10066.800811,2681.334243
21955.988284,2590.720797,-8290.306550,3294.210641
21955.988618,3182.885551,-8956.491898,766.095498
21955.988951,296.082377,-10510.924376,1915.238745
21955.989284,2442.679609,-9474.636058,383.047749
21955.989617,1702.473667,-11695.253884,1762.019645
21955.989950,0.000000,-7772.162391,2451.505594
21955.990283,-1184.329507,-8734.430116,-76.609550
21955.990616,-1850.514855,-8290.306550,-3447.429741
21955.990949,-3552.988522,-7772.162391,-2145.067394
21955.991282,1702.473667,-8290.306550,-1915.238745
21955.991615,-2072.576638,-10066.800811,2068.457845
21955.991948,74.020594,-9178.553681,2681.334243
21955.992281,3627.009116,-8364.327145,5439.278036
21955.992614,1110.308913,-8364.327145,2834.553343
21955.992947,0.000000,-7772.162391,1838.629195
21955.993280,-1554.432478,-12435.459826,536.266849
21955.993613,1110.308913,-6587.832884,-3524.039291
21955.993946,1776.494261,-9474.636058,2374.896044
21955.994279,-1850.514855,-8660.409521,-2451.505594
21955.994613,222.061783,-7105.977043,-2911.162892
21955.994946,-4219.173869,-11399.171507,-3447.429741
21955.995279,2072.576638,-8142.265362,306.438199
21955.995612,-3552.988522,-12509.480420,1225.752797
21955.995945,3478.967927,-10658.965565,4213.525239
21955.996278,518.144159,-9622.677246,1991.848295
21955.996611,296.082377,-8364.327145,2451.505594
21955.996944,5329.482782,-6513.812290,6052.154434
21955.997277,1110.308913,-8364.327145,3370.820191
21955.997610,2442.679609,-11177.109724,2374.896044
21955.997943,-740.205942,-9474.636058,306.438199
21955.998276,-3701.029710,-9844.739029,-4519.963438
21955.998609,-1184.329507,-7179.997637,-4903.011187
21955.998942,222.061783,-9104.533087,-1915.238745
21955.999275,74.020594,-10066.800811,-689.485948
21955.999608,-2368.659014,-9474.636058,-1991.848295
21955.999941,-74.020594,-9474.636058,-1608.800546
21956.000275,-74.020594,-10955.047942,-1225.752797
21956.000608,2664.741391,-9252.574275,4213.525239
21956.000941,4663.297435,-11843.295072,6052.154434
21956.001274,2738.761985,-6735.874072,2451.505594
21956.001607,5255.462188,-8882.471304,6052.154434
21956.001940,518.144159,-6735.874072,1838.629195
21956.002273,2442.679609,-6809.894666,-229.828649
21956.002606,-888.247130,-7402.059420,-3447.429741
21956.002939,-2960.823768,-10288.862594,-5362.668486
21956.003272,-666.185348,-10140.821405,-6435.202183
21956.003605,-888.247130,-11843.295072,-76.609550
21956.003938,962.267725,-10807.006753,-2374.896044
21956.004271,2590.720797,-8364.327145,3677.258390
21956.004604,1924.535449,-7476.080014,3600.648841
21956.004937,2664.741391,-7920.203579,4596.572988
21956.005270,1332.370696,-8142.265362,2451.505594
21956.005603,2590.720797,-7402.059420,1149.143247
21956.005936,296.082377,-10881.027347,2451.505594
21956.006270,1110.308913,-7179.997637,-4596.572988
21956.006603,-74.020594,-16580.613101,-3753.867940
21956.006936,-4145.153275,-8364.327145,0.000000
21956.007269,0.000000,-7328.038826,-4596.572988
21956.007602,-1184.329507,-10436.903782,1532.190996
21956.007935,-1184.329507,-8512.368333,459.657299
21956.008268,592.164754,-5995.668130,2681.334243
21956.008601,518.144159,-9696.697840,4673.182538
21956.008934,1258.350101,-5921.647536,1762.019645
21956.009267,-2220.617826,-9548.656652,2757.943793
21956.009600,1110.308913,-8290.306550,76.609550
21956.009933,-1702.473667,-7179.997637,-2451.505594
21956.010266,-1776.494261,-10658.965565,-689.485948
21956.010599,2294.638420,-11251.130318,-76.609550
21956.010932,-3182.885551,-10510.924376,-689.485948
21956.011265,-962.267725,-6069.688724,-4903.011187
21956.011598,-1110.308913,-13767.830521,-1762.019645
21956.011931,1110.308913,-12879.583391,1991.848295
21956.012265,2738.761985,-11399.171507,7277.907231
21956.012598,4071.132681,-5403.503377,2451.505594
21956.012931,4737.318029,-8068.244768,6128.763984
21956.013264,5551.544565,-11251.130318,4213.525239
21956.013597,2294.638420,-6809.894666,1762.019645
21956.013930,666.185348,-8216.285956,-76.609550
21956.014263,-3849.070898,-10732.986159,-4826.401637
21956.014596,-2738.761985,-9030.512492,-2911.162892
21956.014929,-4811.338623,-9548.656652,-6128.763984
21956.015262,-1184.329507,-10658.965565,-1608.800546
21956.015595,-2664.741391,-8808.450710,-1991.848295
21956.015928,1332.370696,-10066.800811,2528.115143
21956.016261,592.164754,-8808.450710,6128.763984
21956.016594,1406.391290,-3775.050304,2145.067394
21956.016927,2960.823768,-8660.409521,2681.334243
21956.017260,5847.626942,-10362.883188,4826.401637
21956.017593,3478.967927,-7772.162391,153.219100
21956.017927,1258.350101,-9252.574275,1532.190996
21956.018260,3478.967927,-11251.130318,-2681.334243
21956.018593,-814.226536,-10881.027347,-2221.676944
21956.018926,222.061783,-7846.182985,-2298.286494
21956.019259,-1332.370696,-8660.409521,-2221.676944
21956.019592,-2368.659014,-8364.327145,-1838.629195
21956.019925,-1776.494261,-12361.439231,2374.896044
21956.020258,370.102971,-5995.668130,612.876398
21956.020591,0.000000,-8364.327145,6128.763984
21956.020924,4441.235652,-9104.533087,7277.907231
21956.021257,518.144159,-5995.668130,612.876398
21956.021590,1924.535449,-10288.862594,2681.334243
21956.021923,0.000000,-8512.368333,459.657299
21956.022256,148.041188,-8956.491898,-1915.238745
21956.022589,-2442.679609,-9178.553681,-3447.429741
21956.022922,-2072.576638,-12879.583391,-2528.115143
21956.023255,-74.020594,-8512.368333,-1532.190996
21956.023588,-2368.659014,-8956.491898,0.000000
21956.023922,0.000000,-9474.636058,1149.143247
21956.024255,592.164754,-8956.491898,4596.572988
21956.024588,2146.597232,-10362.883188,5745.716235
21956.024921,3256.906145,-8068.244768,6741.640382
21956.025254,1554.432478,-8956.491898,1532.190996
21956.025587,1554.432478,-9770.718434,0.000000
21956.025920,1110.308913,-9474.636058,-383.047749
21956.026253,0.000000,-7179.997637,-1838.629195
21956.026586,1702.473667,-11251.130318,-1915.238745
21956.026919,-3182.885551,-10362.883188,-2528.115143
21956.027252,-1554.432478,-9178.553681,-1302.362347
21956.027586,-3552.988522,-9844.739029,3600.648841
21956.027919,-1554.432478,-7105.977043,-2451.505594
21956.028252,-2072.576638,-8216.285956,2221.676944
21956.028585,0.000000,-7772.162391,4290.134789
21956.028918,1406.391290,-6291.750507,2451.505594
21956.029251,1924.535449,-10658.965565,4826.401637
21956.029584,3478.967927,-6587.832884,0.000000
21956.029917,-1184.329507,-11325.150913,2911.162892
21956.030250,1110.308913,-9474.636058,-76.609550
21956.030584,-2368.659014,-8512.368333,-995.924147
21956.030917,0.000000,-7328.038826,-4060.306139
21956.031250,-666.185348,-9918.759623,-4060.306139
21956.031583,-1776.494261,-9844.739029,0.000000
21956.031916,444.123565,-8364.327145,-919.314598
21956.032249,814.226536,-11917.315666,3217.601092
21956.032582,2886.803174,-10436.903782,2911.162892
21956.032915,3256.906145,-9548.656652,4749.792088
21956.033248,1184.329507,-8660.409521,766.095498
21956.033581,5255.462188,-7105.977043,1149.143247
21956.033915,0.000000,-8956.491898,3064.381992
21956.034248,3182.885551,-8142.265362,-1302.362347
21956.034581,-370.102971,-10658.965565,-689.485948
21956.034914,-1184.329507,-9696.697840,-1072.533697
21956.035247,-3404.947333,-10288.862594,-1685.410096
21956.035580,-2886.803174,-7105.977043,-2911.162892
21956.035913,-2516.700203,-10362.883188,-2221.676944
21956.036246,1332.370696,-10658.965565,2451.505594
21956.036579,-1184.329507,-8364.327145,1225.752797
21956.036913,0.000000,-8364.327145,4136.915689
21956.037246,4071.132681,-10658.965565,2374.896044
21956.037579,518.144159,-6883.915261,919.314598
21956.037912,4293.194464,-9474.636058,2374.896044
21956.038245,2220.617826,-8068.244768,2987.772442
21956.038578,1776.494261,-7328.038826,76.609550
21956.038911,74.020594,-9622.677246,-1762.019645
21956.039244,-666.185348,-11251.130318,-1302.362347
21956.039577,-3552.988522,-7179.997637,-2451.505594
21956.039910,-1258.350101,-11843.295072,-689.485948
21956.040244,3478.967927,-11843.295072,-1302.362347
21956.040577,0.000000,-11325.150913,3064.381992
21956.040910,4663.297435,-6883.915261,3907.087040
21956.041243,1332.370696,-10140.821405,4443.353888
21956.041576,1776.494261,-7698.141797,3753.867940
21956.041909,-962.267725,-8882.471304,689.485948
21956.042242,-1184.329507,-4811.338623,-1225.752797
21956.042575,-4737.318029,-7179.997637,-2911.162892
21956.042908,-1850.514855,-11547.212695,-3294.210641
21956.043241,-5329.482782,-6587.832884,-2451.505594
21956.043575,-3552.988522,-5995.668130,-612.876398
21956.043908,-2738.761985,-8586.388927,1838.629195
21956.044241,592.164754,-6587.832884,-1378.971896
21956.044574,148.041188,-15026.180623,3217.601092
21956.044907,2812.782580,-6365.771101,1685.410096
21956.045240,1480.411884,-11325.150913,76.609550
21956.045573,2368.659014,-11325.150913,2834.553343
21956.045906,4145.153275,-9030.512492,1072.533697
21956.046239,518.144159,-9474.636058,-229.828649
21956.046573,4515.256246,-9474.636058,-76.609550
21956.046906,-2442.679609,-9474.636058,-4060.306139
21956.047239,-2368.659014,-8364.327145,1072.533697
21956.047572,1702.473667,-8290.306550,-76.609550
21956.047905,-962.267725,-9548.656652,-2451.505594
21956.048238,0.000000,-9252.574275,2451.505594
21956.048571,1110.308913,-9326.594869,4826.401637
21956.048904,4959.379811,-5477.523971,4826.401637
21956.049237,1776.494261,-11029.068536,2757.943793
21956.049570,1998.556043,-6439.791695,-1608.800546
21956.049904,0.000000,-10658.965565,-689.485948
21956.050237,296.082377,-9548.656652,0.000000
21956.050570,-74.020594,-13027.624579,-76.609550
21956.050903,-1258.350101,-7772.162391,-6128.763984
21956.051236,1110.308913,-8290.306550,-1915.238745
21956.051569,222.061783,-9030.512492,-2145.067394
21956.051902,3478.967927,-8290.306550,1378.971896
21956.052235,814.226536,-9992.780217,2911.162892
21956.052568,5329.482782,-8364.327145,2757.943793
21956.052902,1702.473667,-11843.295072,3294.210641
21956.053235,7254.018232,-9474.636058,7277.907231
21956.053568,1702.473667,-8956.491898,0.000000
21956.053901,3552.988522,-7476.080014,0.000000
21956.054234,0.000000,-11917.315666,-2911.162892
21956.054567,0.000000,-10584.944971,-383.047749
21956.054900,-3108.864956,-9622.677246,-2604.724693
21956.055233,-2738.761985,-8586.388927,-1915.238745
21956.055566,-1258.350101,-9030.512492,-76.609550
21956.055899,-4219.173869,-4811.338623,-3524.039291
21956.056233,-1554.432478,-8882.471304,-1302.362347
21956.056566,-2442.679609,-8142.265362,-1991.848295
21956.056899,2368.659014,-8956.491898,6128.763984
21956.057232,2294.638420,-7698.141797,4749.792088
21956.057565,0.000000,-13545.768739,3524.039291
21956.057898,-592.164754,-4885.359217,1072.533697
21956.058231,518.144159,-10362.883188,-2145.067394
21956.058564,592.164754,-11177.109724,-1838.629195
21956.058897,0.000000,-9548.656652,919.314598
21956.059230,-2442.679609,-6957.935855,-6128.763984
21956.059564,-1184.329507,-8364.327145,0.000000
21956.059897,-4737.318029,-9844.739029,-76.609550
21956.060230,-74.020594,-11843.295072,4826.401637
21956.060563,-1184.329507,-6291.750507,3830.477490
21956.060896,-1628.453072,-9992.780217,3753.867940
21956.061229,1110.308913,-5403.503377,3907.087040
21956.061562,888.247130,-9844.739029,5439.278036
21956.061895,0.000000,-5107.421000,3447.429741
21956.062228,-1776.494261,-7772.162391,0.000000
21956.062562,-2442.679609,-10362.883188,-2681.334243
21956.062895,-370.102971,-7920.203579,-3600.648841
21956.063228,-2442.679609,-11843.295072,-4060.306139
21956.063561,2368.659014,-9400.615463,-76.609550
21956.063894,1702.473667,-10362.883188,-2681.334243
21956.064227,3849.070898,-8956.491898,3983.696590
21956.064560,4663.297435,-11843.295072,3600.648841
21956.064893,7031.956449,-10066.800811,1149.143247
21956.065226,2368.659014,-10436.903782,3830.477490
21956.065559,2738.761985,-9326.594869,919.314598
21956.065893,5921.647536,-9030.512492,3907.087040
21956.066226,1184.329507,-8364.327145,1532.190996
21956.066559,4737.318029,-8438.347739,2374.896044
21956.066892,-2442.679609,-5995.668130,-5515.887586
21956.067225,-2368.659014,-11029.068536,-2451.505594
21956.067558,-74.020594,-8882.471304,-4060.306139
21956.067891,-2146.597232,-9548.656652,-2451.505594
21956.068224,-74.020594,-8882.471304,-1378.971896
21956.068557,444.123565,-10732.986159,1225.752797
21956.068891,4367.215058,-9252.574275,919.314598
21956.069224,7920.203579,-10658.965565,7277.907231
21956.069557,3478.967927,-13619.789333,4213.525239
21956.069890,3923.091493,-7772.162391,3677.258390
21956.070223,-2368.659014,-8882.471304,2374.896044
21956.070556,1702.473667,-8290.306550,-3447.429741
21956.070889,0.000000,-8956.491898,1838.629195
21956.071222,-1702.473667,-7179.997637,-919.314598
21956.071555,-5107.421000,-9104.533087,-1455.581446
21956.071888,-7105.977043,-7994.224174,-2834.553343
21956.072222,-4811.338623,-9918.759623,-5898.935335
21956.072555,-1998.556043,-14211.954086,-76.609550
21956.072888,0.000000,-6587.832884,5209.449386
21956.073221,-666.185348,-11843.295072,4519.963438
21956.073554,814.226536,-7105.977043,2987.772442
21956.073887,-222.061783,-8216.285956,3447.429741
21956.074220,1480.411884,-6883.915261,3677.258390
21956.074553,1554.432478,-7105.977043,2374.896044
21956.074886,-3478.967927,-9104.533087,-2298.286494
21956.075219,-5329.482782,-7772.162391,-3677.258390
21956.075553,-4219.173869,-8364.327145,-3677.258390
21956.075886,-3256.906145,-11251.130318,-612.876398
21956.076219,-74.020594,-8882.471304,-76.609550
21956.076552,-4441.235652,-11917.315666,1225.752797
21956.076885,-74.020594,-8290.306550,2987.772442
21956.077218,1258.350101,-7105.977043,2757.943793
21956.077551,-1332.370696,-10807.006753,1302.362347
21956.077884,5033.400406,-6143.709319,1838.629195
21956.078217,0.000000,-13101.645173,2604.724693
21956.078551,6291.750507,-4515.256246,-1378.971896
21956.078884,3330.926739,-11325.150913,2604.724693
21956.079217,2664.741391,-7624.121203,0.000000
21956.079550,4737.318029,-7031.956449,0.000000
21956.079883,-2368.659014,-10732.986159,-2451.505594
21956.080216,3478.967927,-8882.471304,-3753.867940
21956.080549,-2368.659014,-10732.986159,612.876398
21956.080882,3775.050304,-11843.295072,1991.848295
21956.081215,4367.215058,-11843.295072,3600.648841
21956.081548,962.267725,-8068.244768,0.000000
21956.081882,4145.153275,-7550.100608,1608.800546
21956.082215,3182.885551,-7402.059420,1532.190996
21956.082548,3256.906145,-10510.924376,1455.581446
21956.082881,1332.370696,-9400.615463,612.876398
21956.083214,-1628.453072,-7179.997637,-4903.011187
21956.083547,-2368.659014,-7772.162391,-2451.505594
21956.083880,4071.132681,-8290.306550,-2834.553343
21956.084213,148.041188,-8290.306550,-2221.676944
21956.084546,2146.597232,-12731.542202,3294.210641
21956.084879,2960.823768,-8068.244768,1455.581446
21956.085213,1036.288319,-13915.871710,6358.592633
21956.085546,0.000000,-6217.729913,2451.505594
21956.085879,-666.185348,-10362.883188,1762.019645
21956.086212,-1184.329507,-4811.338623,0.000000
21956.086545,518.144159,-11251.130318,-76.609550
21956.086878,-666.185348,-8290.306550,-3983.696590
21956.087211,-4737.318029,-10732.986159,-2451.505594
21956.087544,-3923.091493,-7994.224174,-4213.525239
21956.087877,-3108.864956,-9474.636058,-1608.800546
21956.088211,-1924.535449,-7476.080014,842.705048
21956.088544,-2664.741391,-9622.677246,2451.505594
21956.088877,-1924.535449,-5995.668130,1838.629195
21956.089210,0.000000,-8364.327145,8197.221829
21956.089543,1110.308913,-8734.430116,3370.820191
21956.089876,0.000000,-7772.162391,3677.258390
21956.090209,-1776.494261,-7179.997637,2757.943793
21956.090542,-666.185348,-9622.677246,0.000000
21956.090875,-2072.576638,-8142.265362,-536.266849
21956.091208,-2294.638420,-7550.100608,-2834.553343
21956.091542,-3552.988522,-10881.027347,-4290.134789
21956.091875,-3552.988522,-5403.503377,-6205.373534
21956.092208,-3849.070898,-13767.830521,-3753.867940
21956.092541,962.267725,-6439.791695,-1532.190996
21956.092874,2590.720797,-13027.624579,4519.963438
21956.093207,6661.853478,-9474.636058,5745.716235
21956.093540,5847.626942,-7698.141797,3447.429741
21956.093873,2072.576638,-10140.821405,7354.516781
21956.094206,5921.647536,-5995.668130,7584.345430
21956.094540,3182.885551,-12435.459826,3294.210641
21956.094873,2368.659014,-1258.350101,-3370.820191
21956.095206,-4663.297435,-14063.912898,-5898.935335
21956.095539,-444.123565,-9178.553681,-5132.839837
21956.095872,-1850.514855,-1776.494261,-7277.907231
21956.096205,-1850.514855,-19541.436869,-1608.800546
21956.096538,-1480.411884,-20281.642811,-76.609550
21956.096871,2368.659014,-74.020594,1991.848295
21956.097204,7698.141797,740.205942,3524.039291
21956.097537,7031.956449,-10658.965565,6971.469032
21956.097871,74.020594,-14285.974681,4903.011187
21956.098204,1628.453072,-12139.377449,4290.134789
21956.098537,1480.411884,-12805.562797,995.924147
21956.098870,4071.132681,-8290.306550,-4979.620737
21956.099203,3552.988522,-6587.832884,-6435.202183
21956.099536,4663.297435,-9474.636058,-5592.497135
21956.099869,296.082377,-12213.398043,-76.609550
21956.100202,-1258.350101,-6513.812290,-2145.067394
21956.100535,-2960.823768,-5995.668130,-2145.067394
21956.100868,0.000000,-8956.491898,7660.954980
21956.101202,2738.761985,-4811.338623,6358.592633
21956.101535,-74.020594,-7105.977043,6665.030833
21956.101868,2516.700203,-5921.647536,5439.278036
21956.102201,-2220.617826,-10066.800811,2221.676944
21956.102534,-4737.318029,-11917.315666,3983.696590
21956.102867,-2442.679609,-10140.821405,-4596.572988
21956.103200,-7328.038826,-11917.315666,-4903.011187
21956.103533,-2146.597232,-11103.089130,-3140.991542
21956.103866,-4811.338623,-11843.295072,-4060.306139
21956.104200,-1332.370696,-8586.388927,-3140.991542
21956.104533,-4145.153275,-10807.006753,-306.438199
21956.104866,74.020594,-9326.594869,3677.258390
21956.105199,6143.709319,-6513.812290,3600.648841
21956.105532,5773.606348,-13619.789333,4826.401637
21956.105865,592.164754,-7179.997637,0.000000
21956.106198,1998.556043,-14211.954086,-76.609550
21956.106531,2294.638420,-9474.636058,-4826.401637
21956.106864,-2442.679609,-11029.068536,-4213.525239
21956.107197,-2146.597232,-10362.883188,-4979.620737
21956.107531,-2368.659014,-6587.832884,-3907.087040
21956.107864,-2368.659014,-7624.121203,-459.657299
21956.108197,74.020594,-3923.091493,1072.533697
21956.108530,-888.247130,-7624.121203,1608.800546
21956.108863,2220.617826,-8142.265362,2911.162892
21956.109196,1110.308913,-8290.306550,4213.525239
21956.109529,444.123565,-11177.109724,2145.067394
21956.109862,0.000000,-8364.327145,0.000000
21956.110195,4663.297435,-11251.130318,4826.401637
21956.110529,4737.318029,-7179.997637,2451.505594
21956.110862,4367.215058,-11843.295072,4826.401637
21956.111195,370.102971,-6439.791695,-2451.505594
21956.111528,222.061783,-8068.244768,-3370.820191
21956.111861,-74.020594,-10362.883188,-689.485948
21956.112194,1776.494261,-7031.956449,-1225.752797
21956.112527,-222.061783,-8068.244768,1685.410096
21956.112860,3478.967927,-11251.130318,2374.896044
21956.113193,3478.967927,-8882.471304,2374.896044
21956.113526,592.164754,-8660.409521,3983.696590
21956.113860,4663.297435,-9622.677246,4826.401637
21956.114193,1702.473667,-6365.771101,1378.971896
21956.114526,592.164754,-8364.327145,1225.752797
21956.114859,2368.659014,-10362.883188,995.924147
21956.115192,2590.720797,-8290.306550,-2681.334243
21956.115525,-296.082377,-12805.562797,-2068.457845
21956.115858,-1332.370696,-8882.471304,-2451.505594
21956.116191,-1258.350101,-10510.924376,-7354.516781
21956.116524,-2368.659014,-11917.315666,1455.581446
21956.116857,-1850.514855,-10658.965565,-3753.867940
21956.117191,1406.391290,-8660.409521,612.876398
21956.117524,814.226536,-11843.295072,4826.401637
21956.117857,3849.070898,-5699.585753,3983.696590
21956.118190,0.000000,-9474.636058,2757.943793
21956.118523,1628.453072,-7179.997637,383.047749
21956.118856,-2368.659014,-10881.027347,0.000000
21956.119189,-4219.173869,-8956.491898,-4596.572988
21956.119522,-296.082377,-11843.295072,-76.609550
21956.119855,-4811.338623,-5329.482782,-5515.887586
21956.120189,-2368.659014,-7476.080014,-4903.011187
21956.120522,-3552.988522,-8364.327145,-2911.162892
21956.120855,-666.185348,-9178.553681,-689.485948
21956.121188,-666.185348,-8808.450710,1915.238745
21956.121521,1036.288319,-9548.656652,3217.601092
21956.121854,3478.967927,-9474.636058,4826.401637
21956.122187,2368.659014,-6587.832884,7890.783629
21956.122520,3478.967927,-5625.565159,1685.410096
21956.122853,0.000000,-7179.997637,2757.943793
21956.123186,-74.020594,-9474.636058,-76.609550
21956.123520,-5033.400406,-9548.656652,-6128.763984
21956.123853,-4515.256246,-10955.047942,-3907.087040
21956.124186,-3849.070898,-10510.924376,-1838.629195
21956.124519,-592.164754,-8216.285956,-459.657299
21956.124852,3478.967927,-6513.812290,4213.525239
21956.125185,592.164754,-9844.739029,4443.353888
21956.125518,5477.523971,-6291.750507,7201.297681
21956.125851,222.061783,-10881.027347,3753.867940
21956.126185,5625.565159,-8290.306550,3447.429741
21956.126518,2886.803174,-11843.295072,2987.772442
21956.126851,2664.741391,-6291.750507,0.000000
21956.127184,1406.391290,-11843.295072,-1915.238745
21956.127517,-2072.576638,-8364.327145,-4596.572988
21956.127850,-2368.659014,-8956.491898,-5209.449386
21956.128183,-3182.885551,-11843.295072,-3753.867940
21956.128517,148.041188,-9992.780217,-3447.429741
21956.128850,-1110.308913,-11695.253884,-1149.143247
21956.129183,5107.421000,-9326.594869,4136.915689
21956.129516,5551.544565,-6217.729913,4366.744339
21956.129849,6513.812290,-10881.027347,7890.783629
21956.130182,4663.297435,-11843.295072,4213.525239
21956.130515,2590.720797,-10732.986159,0.000000
21956.130848,1776.494261,-11917.315666,1838.629195
21956.131182,-74.020594,-10807.006753,-3217.601092
21956.131515,-1258.350101,-8808.450710,-2987.772442
21956.131848,-1850.514855,-6365.771101,-1225.752797
21956.132181,-3182.885551,-6513.812290,-4060.306139
21956.132514,-2960.823768,-4811.338623,-2145.067394
21956.132847,-5329.482782,-12435.459826,-76.609550
21956.133180,-74.020594,-7402.059420,0.000000
21956.133514,-1258.350101,-8364.327145,4290.134789
21956.133847,3849.070898,-5773.606348,5439.278036
21956.134180,0.000000,-8660.409521,1991.848295
21956.134513,1998.556043,-8882.471304,1915.238745
21956.134846,148.041188,-9770.718434,306.438199
21956.135179,666.185348,-8512.368333,-1302.362347
21956.135512,-74.020594,-10732.986159,-459.657299
21956.135846,-74.020594,-13027.624579,-689.485948
21956.136179,0.000000,-5403.503377,0.000000
21956.136512,0.000000,-8068.244768,0.000000
21956.136845,1554.432478,-9474.636058,1149.143247
21956.137178,-2072.576638,-8956.491898,3064.381992
21956.137511,-148.041188,-11103.089130,2068.457845
21956.137844,-74.020594,-8882.471304,689.485948
21956.138177,-444.123565,-11325.150913,2374.896044
21956.138511,1110.308913,-8438.347739,1225.752797
21956.138844,814.226536,-7031.956449,-919.314598
21956.139177,-518.144159,-10510.924376,842.705048
21956.139510,444.123565,-3775.050304,-842.705048
21956.139843,-5329.482782,-10436.903782,-2221.676944
21956.140176,-2368.659014,-4811.338623,-2451.505594
21956.140509,-1332.370696,-13027.624579,-1915.238745
21956.140843,-74.020594,-8882.471304,-2834.553343
21956.141176,0.000000,-11029.068536,2145.067394
21956.141509,-666.185348,-11843.295072,1762.019645
21956.141842,3182.885551,-6735.874072,306.438199
21956.142175,-740.205942,-11473.192101,2987.772442
21956.142508,6809.894666,-6587.832884,1762.019645
21956.142841,1184.329507,-11917.315666,5515.887586
21956.143175,4663.297435,-7105.977043,2987.772442
21956.143508,3478.967927,-7105.977043,-1915.238745
21956.143841,-1480.411884,-11621.233289,-1838.629195
21956.144174,0.000000,-5995.668130,-2451.505594
21956.144507,-1110.308913,-11325.150913,-2451.505594
