#time,accel_x,accel_y,accel_z
21012.975499,6439.791695,-6957.935855,1915.238745
21012.975833,5921.647536,-7179.997637,3447.429741
21012.976167,5847.626942,-8882.471304,-1149.143247
21012.976501,3997.112087,-9770.718434,-2221.676944
21012.976834,2368.659014,-9696.697840,-3677.258390
21012.977168,2960.823768,-11177.109724,-4366.744339
21012.977502,3552.988522,-10732.986159,-3677.258390
21012.977836,2368.659014,-9548.656652,1302.362347
21012.978170,9400.615463,-10362.883188,2068.457845
21012.978504,9474.636058,-5995.668130,2451.505594
21012.978838,12139.377449,-10066.800811,6665.030833
21012.979172,11177.109724,-5995.668130,4290.134789
21012.979506,12287.418637,-7179.997637,3064.381992
21012.979840,12139.377449,-7402.059420,1608.800546
21012.980174,9992.780217,-9030.512492,-1762.019645
21012.980507,8808.450710,-11251.130318,-3140.991542
21012.980841,5625.565159,-12139.377449,-1302.362347
21012.981175,5255.462188,-13027.624579,-6205.373534
21012.981509,0.000000,-11917.315666,-3983.696590
21012.981843,1776.494261,-11917.315666,-76.609550
21012.982177,4441.235652,-9844.739029,5132.839837
21012.982511,7624.121203,-6069.688724,7048.078582
21012.982845,10584.944971,-4885.359217,9193.145976
21012.983179,10881.027347,-4515.256246,8886.707777
21012.983513,9474.636058,-3849.070898,4979.620737
21012.983847,11473.192101,-5921.647536,1149.143247
21012.984180,7105.977043,-5995.668130,-4903.011187
21012.984514,4737.318029,-9548.656652,-5822.325785
21012.984848,5847.626942,-11843.295072,-7431.126331
21012.985182,5921.647536,-12657.521608,-7431.126331
21012.985516,5107.421000,-13323.706956,-6435.202183
21012.985850,6587.832884,-13397.727550,-3447.429741
21012.986184,8438.347739,-12361.439231,1762.019645
21012.986518,9474.636058,-9104.533087,4443.353888
21012.986852,13841.851115,-7698.141797,7737.564530
21012.987186,14582.057057,-5773.606348,9499.584175
21012.987520,15174.221811,-3701.029710,8733.488677
21012.987853,13693.809927,-5551.544565,6818.249932
21012.988187,10288.862594,-7994.224174,1149.143247
21012.988521,4737.318029,-10436.903782,-689.485948
21012.988855,1702.473667,-10658.965565,-9269.755526
21012.989189,0.000000,-11325.150913,-9806.022374
21012.989523,0.000000,-11325.150913,-6435.202183
21012.989857,3849.070898,-9548.656652,-3064.381992
21012.990191,9104.533087,-9178.553681,4366.744339
21012.990525,13249.686362,-6661.853478,6894.859482
21012.990859,13619.789333,-5921.647536,7124.688131
21012.991193,10658.965565,-5551.544565,3370.820191
21012.991527,12953.603985,-8290.306550,2374.896044
21012.991860,10584.944971,-8290.306550,-2834.553343
21012.992194,4145.153275,-10436.903782,-4749.792088
21012.992528,4663.297435,-13915.871710,-3753.867940
21012.992862,0.000000,-13693.809927,-3524.039291
21012.993196,1776.494261,-11029.068536,-1838.629195
21012.993530,4885.359217,-9548.656652,2145.067394
21012.993864,8956.491898,-5329.482782,5209.449386
21012.994198,12139.377449,-5551.544565,9806.022374
21012.994532,15322.262999,-4737.318029,5745.716235
21012.994866,9474.636058,-5477.523971,1455.581446
21012.995200,7105.977043,-10140.821405,2374.896044
21012.995533,4663.297435,-10362.883188,-4979.620737
21012.995867,-1258.350101,-14211.954086,-6971.469032
21012.996201,-4515.256246,-13545.768739,-10035.851024
21012.996535,-1998.556043,-11695.253884,-5975.544884
21012.996869,2886.803174,-8216.285956,1455.581446
21012.997203,8216.285956,-7105.977043,5439.278036
21012.997537,8216.285956,-6809.894666,4979.620737
21012.997871,7105.977043,-6291.750507,6894.859482
21012.998205,9474.636058,-9548.656652,9576.193725
21012.998539,9400.615463,-7698.141797,2834.553343
21012.998873,6291.750507,-8734.430116,383.047749
21012.999206,4219.173869,-10066.800811,-3217.601092
21012.999540,4737.318029,-10214.842000,-3064.381992
21012.999874,4441.235652,-10362.883188,-2374.896044
21013.000208,6143.709319,-10140.821405,1149.143247
21013.000542,0.000000,-12361.439231,-1991.848295
21013.000876,-1258.350101,-11843.295072,-1762.019645
21013.001210,1850.514855,-7920.203579,0.000000
21013.001544,2368.659014,-7179.997637,3064.381992
21013.001878,7698.141797,-4811.338623,7354.516781
21013.002212,7031.956449,-9474.636058,8197.221829
21013.002546,6439.791695,-6513.812290,1302.362347
21013.002879,2516.700203,-8956.491898,1685.410096
21013.003213,3182.885551,-9474.636058,-689.485948
21013.003547,1480.411884,-8068.244768,-1915.238745
21013.003881,222.061783,-7105.977043,-4903.011187
21013.004215,518.144159,-10362.883188,-4366.744339
21013.004549,0.000000,-9844.739029,-2451.505594
21013.004883,0.000000,-9548.656652,612.876398
21013.005217,2294.638420,-13027.624579,-689.485948
21013.005551,-3552.988522,-10732.986159,-2451.505594
21013.005885,-1036.288319,-11251.130318,-76.609550
21013.006219,1924.535449,-7179.997637,2451.505594
21013.006552,7994.224174,-5329.482782,8120.612279
21013.006886,6661.853478,-5995.668130,6818.249932
21013.007220,3404.947333,-8956.491898,4443.353888
21013.007554,2886.803174,-10658.965565,1762.019645
21013.007888,0.000000,-9548.656652,-995.924147
21013.008222,-666.185348,-7550.100608,-7354.516781
21013.008556,-4145.153275,-9548.656652,-5975.544884
21013.008890,-666.185348,-12435.459826,-3753.867940
21013.009224,-1258.350101,-11029.068536,-2911.162892
21013.009558,-2590.720797,-13323.706956,-536.266849
21013.009892,-3330.926739,-13101.645173,1762.019645
21013.010225,-3404.947333,-10658.965565,2374.896044
21013.010559,1258.350101,-4811.338623,4749.792088
21013.010893,7254.018232,-6513.812290,7890.783629
21013.011227,6439.791695,-2368.659014,7277.907231
21013.011561,4737.318029,-4811.338623,7354.516781
21013.011895,2886.803174,-10362.883188,4826.401637
21013.012229,-2146.597232,-11547.212695,-3370.820191
21013.012563,-5181.441594,-9548.656652,-5745.716235
21013.012897,-4441.235652,-10066.800811,-7814.174080
21013.013231,-4367.215058,-9548.656652,-7354.516781
21013.013565,-3849.070898,-9252.574275,-4290.134789
21013.013898,-1554.432478,-10066.800811,-4443.353888
21013.014232,-2368.659014,-12657.521608,3677.258390
21013.014566,0.000000,-11325.150913,8503.660028
21013.014900,2294.638420,-6957.935855,4903.011187
21013.015234,5107.421000,-5477.523971,7967.393179
21013.015568,7105.977043,-2442.679609,7048.078582
21013.015902,5921.647536,-4663.297435,3983.696590
21013.016236,3923.091493,-8142.265362,1149.143247
21013.016570,-2368.659014,-11917.315666,-4749.792088
21013.016904,-4811.338623,-13175.665768,-9039.926876
21013.017238,-5107.421000,-11695.253884,-9193.145976
21013.017572,-3923.091493,-12509.480420,-7354.516781
21013.017905,-1036.288319,-11769.274478,-3447.429741
21013.018239,0.000000,-9548.656652,612.876398
21013.018573,2294.638420,-11843.295072,6052.154434
21013.018907,1110.308913,-7328.038826,4903.011187
21013.019241,1480.411884,-7179.997637,7967.393179
21013.019575,5847.626942,-5921.647536,6665.030833
21013.019909,4145.153275,-4219.173869,4903.011187
21013.020243,1702.473667,-7402.059420,842.705048
21013.020577,518.144159,-7105.977043,-2681.334243
21013.020911,-3330.926739,-13619.789333,-3677.258390
21013.021245,-3849.070898,-10288.862594,-4596.572988
21013.021578,-3034.844362,-14211.954086,-7431.126331
21013.021912,-4737.318029,-9548.656652,-7354.516781
21013.022246,0.000000,-10732.986159,306.438199
21013.022580,1998.556043,-11103.089130,3064.381992
21013.022914,2664.741391,-9252.574275,8044.002729
21013.023248,518.144159,-9400.615463,5822.325785
21013.023582,3034.844362,-5921.647536,6128.763984
21013.023916,4219.173869,-4885.359217,4979.620737
21013.024250,5847.626942,-6365.771101,4213.525239
21013.024584,4663.297435,-5921.647536,-1915.238745
21013.024918,-2960.823768,-10732.986159,-1838.629195
21013.025251,-3552.988522,-10288.862594,-4366.744339
21013.025585,-4811.338623,-12879.583391,-8427.050478
21013.025919,-74.020594,-12435.459826,-4979.620737
21013.026253,0.000000,-12287.418637,-1302.362347
21013.026587,2886.803174,-10214.842000,2451.505594
21013.026921,4219.173869,-8660.409521,4596.572988
21013.027255,2442.679609,-9770.718434,4519.963438
21013.027589,1184.329507,-5403.503377,3677.258390
21013.027923,1480.411884,-9474.636058,4826.401637
21013.028257,2886.803174,-5329.482782,229.828649
21013.028591,0.000000,-4811.338623,0.000000
21013.028924,-74.020594,-7105.977043,-3140.991542
21013.029258,0.000000,-9252.574275,-2145.067394
21013.029592,-3997.112087,-12731.542202,-3677.258390
21013.029926,-2442.679609,-10807.006753,-4060.306139
21013.030260,-3108.864956,-10214.842000,-3064.381992
21013.030594,518.144159,-10732.986159,-153.219100
21013.030928,3182.885551,-8586.388927,919.314598
21013.031262,3627.009116,-10510.924376,4673.182538
21013.031596,1776.494261,-10732.986159,6741.640382
21013.031930,-2368.659014,-10140.821405,4749.792088
21013.032264,-3034.844362,-7402.059420,-2068.457845
21013.032597,-3552.988522,-4811.338623,0.000000
21013.032931,2294.638420,-6513.812290,-76.609550
21013.033265,0.000000,-5403.503377,0.000000
21013.033599,148.041188,-9474.636058,1915.238745
21013.033933,-962.267725,-10436.903782,-612.876398
21013.034267,-370.102971,-13027.624579,153.219100
21013.034601,148.041188,-9474.636058,-76.609550
21013.034935,1184.329507,-8956.491898,-689.485948
21013.035269,4663.297435,-9474.636058,-995.924147
21013.035603,2368.659014,-9548.656652,2451.505594
21013.035937,3404.947333,-13619.789333,4213.525239
21013.036270,-666.185348,-10658.965565,842.705048
21013.036604,-1036.288319,-9992.780217,-689.485948
21013.036937,-740.205942,-7476.080014,-229.828649
21013.037271,2738.761985,-4737.318029,536.266849
21013.037604,296.082377,-5329.482782,-76.609550
21013.037937,4663.297435,-9474.636058,2987.772442
21013.038271,2146.597232,-10955.047942,3524.039291
21013.038604,0.000000,-10140.821405,3677.258390
21013.038937,3775.050304,-10362.883188,-689.485948
21013.039271,0.000000,-9548.656652,-3677.258390
21013.039604,296.082377,-9548.656652,-2298.286494
21013.039938,1776.494261,-11177.109724,2374.896044
21013.040271,-518.144159,-10436.903782,0.000000
21013.040604,-1554.432478,-10140.821405,-383.047749
21013.040938,-4219.173869,-7476.080014,-1608.800546
21013.041271,0.000000,-6587.832884,1762.019645
21013.041604,-74.020594,-8882.471304,-76.609550
21013.041938,1406.391290,-3627.009116,0.000000
21013.042271,3552.988522,-9844.739029,6741.640382
21013.042605,592.164754,-10140.821405,4903.011187
21013.042938,0.000000,-9030.512492,1225.752797
21013.043271,-1776.494261,-10732.986159,-842.705048
21013.043605,814.226536,-9770.718434,-2911.162892
21013.043938,-1776.494261,-9548.656652,-2451.505594
21013.044271,1480.411884,-11843.295072,-76.609550
21013.044605,-2738.761985,-10436.903782,-2145.067394
21013.044938,-5995.668130,-9548.656652,-3064.381992
21013.045272,-2368.659014,-8068.244768,1685.410096
21013.045605,-2368.659014,-5699.585753,-1225.752797
21013.045938,2294.638420,-6069.688724,1685.410096
21013.046272,3182.885551,-7772.162391,4903.011187
21013.046605,2516.700203,-8068.244768,4749.792088
21013.046938,740.205942,-7476.080014,5056.230287
21013.047272,370.102971,-11473.192101,1915.238745
21013.047605,1850.514855,-7624.121203,-76.609550
21013.047939,-370.102971,-10436.903782,-2451.505594
21013.048272,-74.020594,-11251.130318,-3753.867940
21013.048605,-2886.803174,-8956.491898,-3677.258390
21013.048939,-4441.235652,-13175.665768,-2451.505594
21013.049272,-2590.720797,-12435.459826,-383.047749
21013.049605,-4959.379811,-9474.636058,-2374.896044
21013.049939,-296.082377,-5995.668130,2221.676944
21013.050272,1924.535449,-6291.750507,4136.915689
21013.050606,5255.462188,-4885.359217,5898.935335
21013.050939,3775.050304,-7031.956449,6128.763984
21013.051272,1776.494261,-10732.986159,3907.087040
21013.051606,1702.473667,-6587.832884,0.000000
21013.051939,1110.308913,-11547.212695,-689.485948
21013.052272,-74.020594,-11251.130318,-4979.620737
21013.052606,-3849.070898,-9844.739029,-6128.763984
21013.052939,-3627.009116,-13619.789333,-4979.620737
21013.053273,-3552.988522,-11473.192101,-2374.896044
21013.053606,-2886.803174,-10955.047942,-383.047749
21013.053939,-2368.659014,-9696.697840,-612.876398
21013.054273,1776.494261,-6735.874072,4903.011187
21013.054606,4737.318029,-2590.720797,7354.516781
21013.054939,8512.368333,-6217.729913,8503.660028
21013.055273,6291.750507,-4811.338623,5515.887586
21013.055606,1184.329507,-8956.491898,4290.134789
21013.055940,-1184.329507,-11325.150913,-2834.553343
21013.056273,-2146.597232,-10510.924376,-6358.592633
21013.056606,-4589.276840,-11621.233289,-8580.269578
21013.056940,-3108.864956,-10584.944971,-6741.640382
21013.057273,-666.185348,-10658.965565,-3753.867940
21013.057606,-2960.823768,-12509.480420,-153.219100
21013.057940,-74.020594,-11251.130318,2374.896044
21013.058273,518.144159,-5995.668130,2451.505594
21013.058607,5847.626942,-7698.141797,8886.707777
21013.058940,8216.285956,-4737.318029,8197.221829
21013.059273,5847.626942,-6883.915261,5209.449386
21013.059607,6217.729913,-5995.668130,4366.744339
21013.059940,1480.411884,-10510.924376,1532.190996
21013.060273,-1480.411884,-9622.677246,-4136.915689
21013.060607,-2738.761985,-14211.954086,-5286.058936
21013.060940,-7698.141797,-10732.986159,-7967.393179
21013.061274,-5921.647536,-9548.656652,-4903.011187
21013.061607,-1258.350101,-9474.636058,-3753.867940
21013.061940,-74.020594,-10510.924376,2298.286494
21013.062274,-740.205942,-9622.677246,4213.525239
21013.062607,1702.473667,-6143.709319,4903.011187
21013.062940,2812.782580,-5255.462188,4749.792088
21013.063274,4219.173869,-5995.668130,5132.839837
21013.063607,6439.791695,-5625.565159,4213.525239
21013.063940,1332.370696,-8808.450710,1149.143247
21013.064274,-1406.391290,-11473.192101,-3140.991542
21013.064607,-5625.565159,-13175.665768,-4826.401637
21013.064941,-5699.585753,-10955.047942,-7431.126331
21013.065274,-2960.823768,-11843.295072,-2451.505594
21013.065607,-1184.329507,-11251.130318,-3140.991542
21013.065941,0.000000,-8364.327145,-1225.752797
21013.066274,2368.659014,-10732.986159,5515.887586
21013.066607,2886.803174,-9178.553681,6281.983084
21013.066941,2368.659014,-5847.626942,6818.249932
21013.067274,3552.988522,-6291.750507,6052.154434
21013.067608,5847.626942,-4367.215058,3677.258390
21013.067941,2368.659014,-3034.844362,1225.752797
21013.068274,3923.091493,-9474.636058,-1302.362347
21013.068608,-3182.885551,-13027.624579,-4979.620737
21013.068941,-8290.306550,-11917.315666,-6128.763984
21013.069274,-2442.679609,-11843.295072,-4979.620737
21013.069608,-5329.482782,-10732.986159,-4903.011187
21013.069941,-1258.350101,-10510.924376,-3140.991542
21013.070275,962.267725,-8216.285956,1532.190996
21013.070608,4293.194464,-8290.306550,6818.249932
21013.070941,3552.988522,-7476.080014,8350.440928
21013.071275,4663.297435,-9474.636058,6052.154434
21013.071608,2664.741391,-3627.009116,3677.258390
21013.071941,4737.318029,-9844.739029,4826.401637
21013.072275,4663.297435,-6809.894666,-1378.971896
21013.072608,296.082377,-9548.656652,-1991.848295
21013.072942,-1924.535449,-13989.892304,-3370.820191
21013.073275,-4737.318029,-13101.645173,-4136.915689
21013.073608,-5181.441594,-11177.109724,-5286.058936
21013.073942,-3627.009116,-11843.295072,-4366.744339
21013.074275,-370.102971,-9474.636058,-2528.115143
21013.074608,1776.494261,-6587.832884,3983.696590
21013.074942,4663.297435,-9474.636058,7277.907231
21013.075275,2294.638420,-6217.729913,3677.258390
21013.075609,0.000000,-8438.347739,5592.497135
21013.075942,1776.494261,-5995.668130,3217.601092
21013.076275,3775.050304,-4885.359217,459.657299
21013.076609,1110.308913,-7994.224174,-995.924147
21013.076942,-74.020594,-9178.553681,-2528.115143
21013.077275,-3108.864956,-12731.542202,-4366.744339
21013.077609,-3552.988522,-14211.954086,-3447.429741
21013.077942,-3701.029710,-12657.521608,-2757.943793
21013.078276,0.000000,-9844.739029,-1838.629195
21013.078609,592.164754,-8512.368333,3217.601092
21013.078942,3478.967927,-8290.306550,2987.772442
21013.079276,2368.659014,-5995.668130,3294.210641
21013.079609,1184.329507,-8956.491898,8503.660028
21013.079942,888.247130,-5107.421000,4903.011187
21013.080276,1480.411884,-5477.523971,3600.648841
21013.080609,1628.453072,-6291.750507,-229.828649
21013.080943,74.020594,-7402.059420,-1915.238745
21013.081276,740.205942,-9992.780217,-1302.362347
21013.081609,-370.102971,-10214.842000,-1302.362347
21013.081943,-1258.350101,-11843.295072,-4673.182538
21013.082276,-4441.235652,-12065.356855,-2451.505594
21013.082609,-2368.659014,-11029.068536,-612.876398
21013.082943,1850.514855,-9918.759623,-153.219100
21013.083276,2960.823768,-9474.636058,3294.210641
21013.083610,3256.906145,-7476.080014,5515.887586
21013.083943,444.123565,-8068.244768,4979.620737
21013.084276,-666.185348,-7698.141797,2987.772442
21013.084610,0.000000,-5995.668130,1072.533697
21013.084943,148.041188,-5329.482782,-1915.238745
21013.085276,296.082377,-6143.709319,0.000000
21013.085610,1480.411884,-10510.924376,-612.876398
21013.085943,-74.020594,-11251.130318,-1302.362347
21013.086277,-1406.391290,-13619.789333,-2528.115143
21013.086610,0.000000,-13323.706956,-306.438199
21013.086943,1332.370696,-9918.759623,-1455.581446
21013.087277,1036.288319,-11547.212695,153.219100
21013.087610,4071.132681,-10658.965565,3600.648841
21013.087943,0.000000,-7179.997637,3677.258390
21013.088277,1924.535449,-11473.192101,6665.030833
21013.088610,-1406.391290,-5995.668130,612.876398
21013.088944,-2368.659014,-3627.009116,0.000000
21013.089277,3108.864956,-5625.565159,459.657299
21013.089610,2886.803174,-5921.647536,-229.828649
21013.089944,296.082377,-7476.080014,-1225.752797
21013.090277,148.041188,-11547.212695,-1455.581446
21013.090610,-74.020594,-12879.583391,-1608.800546
21013.090944,0.000000,-11325.150913,459.657299
21013.091277,1702.473667,-12435.459826,-76.609550
21013.091611,-74.020594,-9770.718434,-3370.820191
21013.091944,0.000000,-6587.832884,0.000000
21013.092277,2590.720797,-9918.759623,2528.115143
21013.092611,-1258.350101,-9178.553681,3524.039291
21013.092944,-2590.720797,-7179.997637,1915.238745
21013.093277,-444.123565,-5403.503377,1532.190996
21013.093611,2294.638420,-5329.482782,689.485948
21013.093944,2368.659014,-5329.482782,1608.800546
21013.094277,2516.700203,-6883.915261,1838.629195
21013.094611,2220.617826,-11177.109724,1378.971896
21013.094944,0.000000,-11621.233289,612.876398
21013.095278,-222.061783,-12879.583391,-2681.334243
21013.095611,-2368.659014,-10732.986159,-4903.011187
21013.095944,-1184.329507,-11769.274478,-1302.362347
21013.096278,-74.020594,-10214.842000,-2604.724693
21013.096611,-2294.638420,-8364.327145,0.000000
21013.096944,-1850.514855,-9326.594869,1762.019645
21013.097278,-1850.514855,-7031.956449,2757.943793
21013.097611,222.061783,-5551.544565,2604.724693
21013.097945,4663.297435,-5921.647536,3907.087040
21013.098278,6735.874072,-6513.812290,4519.963438
21013.098611,3552.988522,-5699.585753,4903.011187
21013.098945,5847.626942,-13027.624579,4213.525239
21013.099278,0.000000,-12213.398043,0.000000
21013.099611,0.000000,-11917.315666,-1302.362347
21013.099945,-2146.597232,-11991.336260,-6128.763984
21013.100278,-888.247130,-13027.624579,-5745.716235
21013.100612,-2368.659014,-11843.295072,-4290.134789
21013.100945,-2886.803174,-10658.965565,-1378.971896
21013.101278,-1850.514855,-8808.450710,-689.485948
21013.101612,-2960.823768,-8734.430116,6052.154434
21013.101945,1702.473667,-3478.967927,3140.991542
21013.102278,4663.297435,-1850.514855,5515.887586
21013.102612,7031.956449,-4737.318029,7890.783629
21013.102945,4293.194464,-5773.606348,4443.353888
21013.103279,3627.009116,-10214.842000,1838.629195
21013.103612,962.267725,-12065.356855,-1608.800546
21013.103945,-2368.659014,-13101.645173,-4903.011187
21013.104279,-3182.885551,-11769.274478,-8580.269578
21013.104612,-7105.977043,-14285.974681,-6971.469032
21013.104945,-3034.844362,-12435.459826,-7124.688131
21013.105279,-4737.318029,-11251.130318,-1915.238745
21013.105612,-2368.659014,-7179.997637,1608.800546
21013.105946,-666.185348,-7550.100608,6052.154434
21013.106279,3330.926739,-2220.617826,7277.907231
21013.106612,6809.894666,-3256.906145,10342.289223
21013.106946,7624.121203,-4737.318029,9116.536426
21013.107279,5329.482782,-5403.503377,5515.887586
21013.107612,4663.297435,-10362.883188,842.705048
21013.107946,-74.020594,-12435.459826,-3983.696590
21013.108279,-4737.318029,-13545.768739,-6281.983084
21013.108613,-5921.647536,-13397.727550,-11951.089769
21013.108946,-4515.256246,-14434.015869,-8963.317327
21013.109279,-2812.782580,-11177.109724,-3983.696590
21013.109613,-148.041188,-10955.047942,1072.533697
21013.109946,-1258.350101,-9474.636058,4213.525239
21013.110279,0.000000,-6291.750507,6358.592633
21013.110613,3552.988522,-2442.679609,9193.145976
21013.110946,7031.956449,-2368.659014,10265.679673
21013.111280,7105.977043,-3404.947333,8886.707777
21013.111613,5551.544565,-7698.141797,4596.572988
21013.111946,148.041188,-7179.997637,-3677.258390
21013.112280,-1184.329507,-13619.789333,-689.485948
21013.112613,-2442.679609,-11843.295072,-7431.126331
21013.112946,-3923.091493,-12509.480420,-7354.516781
21013.113280,-4219.173869,-14804.118840,-8656.879127
21013.113613,-3108.864956,-12435.459826,-6052.154434
21013.113947,-2516.700203,-11769.274478,-1991.848295
21013.114280,0.000000,-10214.842000,3677.258390
21013.114613,1110.308913,-7105.977043,7277.907231
21013.114947,2368.659014,-1850.514855,9652.803275
21013.115280,6439.791695,-4737.318029,7277.907231
21013.115613,5921.647536,-2442.679609,8886.707777
21013.115947,7105.977043,-5995.668130,4903.011187
21013.116280,3478.967927,-8142.265362,0.000000
21013.116614,-222.061783,-12879.583391,-4366.744339
21013.116947,-5329.482782,-14508.036463,-8580.269578
21013.117280,-4959.379811,-13545.768739,-10648.727422
21013.117614,-6143.709319,-13101.645173,-11031.775171
21013.117947,-4737.318029,-13693.809927,-3447.429741
21013.118280,-74.020594,-10658.965565,-76.609550
21013.118614,-74.020594,-9770.718434,3753.867940
21013.118947,2442.679609,-8290.306550,10955.165621
21013.119281,3108.864956,-2442.679609,8886.707777
21013.119614,6439.791695,-3330.926739,9882.631924
21013.119947,8216.285956,-3256.906145,9116.536426
21013.120281,5329.482782,-4145.153275,4673.182538
21013.120614,296.082377,-9474.636058,-1225.752797
21013.120947,-666.185348,-16284.530724,-3753.867940
21013.121281,-7105.977043,-11917.315666,-9193.145976
21013.121614,-5329.482782,-12509.480420,-9806.022374
21013.121948,-3034.844362,-16580.613101,-6205.373534
21013.122281,-3849.070898,-9548.656652,-4903.011187
21013.122614,666.185348,-11399.171507,2374.896044
21013.122948,2664.741391,-8216.285956,6818.249932
21013.123281,2294.638420,-7698.141797,8656.879127
21013.123614,2368.659014,-2960.823768,8580.269578
21013.123948,4589.276840,-3849.070898,6665.030833
21013.124281,4737.318029,-3997.112087,5515.887586
21013.124615,3478.967927,-5329.482782,689.485948
21013.124948,1702.473667,-10658.965565,-3140.991542
21013.125281,-1850.514855,-11029.068536,-4903.011187
21013.125615,-5329.482782,-14582.057057,-5898.935335
21013.125948,-3775.050304,-14211.954086,-8656.879127
21013.126281,-5033.400406,-13693.809927,-6435.202183
21013.126615,2146.597232,-11843.295072,-689.485948
21013.126948,2072.576638,-9696.697840,2451.505594
21013.127281,1628.453072,-9918.759623,5592.497135
21013.127615,814.226536,-8068.244768,7201.297681
21013.127948,0.000000,-3627.009116,6741.640382
21013.128282,5551.544565,-4737.318029,3677.258390
21013.128615,4219.173869,-7105.977043,4213.525239
21013.128948,814.226536,-3923.091493,-1838.629195
21013.129282,-3552.988522,-8364.327145,-2145.067394
21013.129615,-3552.988522,-11621.233289,-4903.011187
21013.129948,-4737.318029,-12509.480420,-4596.572988
21013.130282,-2738.761985,-12583.501014,-4673.182538
21013.130615,-1776.494261,-12435.459826,-4136.915689
21013.130949,-74.020594,-12139.377449,-306.438199
21013.131282,1110.308913,-8512.368333,0.000000
21013.131615,4663.297435,-11843.295072,6052.154434
21013.131949,1702.473667,-7624.121203,5209.449386
21013.132282,888.247130,-5699.585753,4903.011187
21013.132615,2072.576638,-6883.915261,4903.011187
21013.132949,2442.679609,-4219.173869,2068.457845
21013.133282,2368.659014,-6143.709319,-153.219100
21013.133616,518.144159,-9030.512492,-1838.629195
21013.133949,-1258.350101,-11843.295072,-2528.115143
21013.134282,-4737.318029,-12509.480420,-919.314598
21013.134616,-666.185348,-10436.903782,-3907.087040
21013.134949,-74.020594,-9548.656652,-4290.134789
21013.135282,2516.700203,-11177.109724,-76.609550
21013.135616,5551.544565,-9474.636058,2987.772442
21013.135949,2738.761985,-10955.047942,3294.210641
21013.136283,0.000000,-9104.533087,3370.820191
21013.136613,-2664.741391,-8142.265362,1685.410096
21013.136946,518.144159,-6217.729913,1149.143247
21013.137280,3923.091493,-7105.977043,4519.963438
21013.137613,962.267725,-4811.338623,0.000000
21013.137946,2664.741391,-8882.471304,2451.505594
21013.138279,-74.020594,-14211.954086,-76.609550
21013.138612,1110.308913,-11251.130318,842.705048
21013.138946,296.082377,-11547.212695,842.705048
21013.139279,-2368.659014,-10732.986159,-3677.258390
21013.139612,2294.638420,-9178.553681,-2528.115143
21013.139945,-814.226536,-11695.253884,-689.485948
21013.140278,2294.638420,-9326.594869,1149.143247
21013.140612,-5329.482782,-12213.398043,766.095498
21013.140945,-2294.638420,-7994.224174,842.705048
21013.141278,-1702.473667,-7550.100608,229.828649
21013.141611,0.000000,-5699.585753,459.657299
21013.141944,2960.823768,-5625.565159,3294.210641
21013.142278,1998.556043,-6217.729913,2604.724693
21013.142611,4737.318029,-9548.656652,8350.440928
21013.142944,-74.020594,-10955.047942,1915.238745
21013.143277,-74.020594,-10658.965565,-2757.943793
21013.143610,-1628.453072,-11325.150913,-4060.306139
21013.143944,-666.185348,-11251.130318,-4366.744339
21013.144277,518.144159,-8808.450710,-3524.039291
21013.144610,-4145.153275,-11029.068536,-2451.505594
21013.144943,-3552.988522,-11547.212695,1149.143247
21013.145276,-4737.318029,-7179.997637,0.000000
21013.145610,0.000000,-4811.338623,2451.505594
21013.145943,3478.967927,-6809.894666,2987.772442
21013.146276,2590.720797,-2738.761985,2451.505594
21013.146609,5551.544565,-7994.224174,5975.544884
21013.146942,4293.194464,-9770.718434,4366.744339
21013.147276,2368.659014,-11843.295072,2221.676944
21013.147609,2294.638420,-11251.130318,-76.609550
21013.147942,2738.761985,-14211.954086,-1915.238745
21013.148275,-962.267725,-8956.491898,-4903.011187
21013.148608,0.000000,-10288.862594,-4903.011187
21013.148942,-296.082377,-12435.459826,-383.047749
21013.149275,-3552.988522,-9844.739029,1225.752797
21013.149608,-2886.803174,-8364.327145,0.000000
21013.149941,-1406.391290,-5921.647536,1149.143247
21013.150274,2072.576638,-4737.318029,1532.190996
21013.150608,2442.679609,-5921.647536,3753.867940
21013.150941,6439.791695,-7698.141797,4826.401637
21013.151274,0.000000,-9548.656652,6128.763984
21013.151607,3330.926739,-11843.295072,2681.334243
21013.151941,0.000000,-9178.553681,-2834.553343
21013.152274,222.061783,-11843.295072,-3140.991542
21013.152607,74.020594,-10510.924376,-5439.278036
21013.152940,-370.102971,-12287.418637,-5362.668486
21013.153273,-1110.308913,-12731.542202,-1762.019645
21013.153607,-3552.988522,-11029.068536,1225.752797
21013.153940,-4959.379811,-7179.997637,0.000000
21013.154273,518.144159,-7105.977043,4826.401637
21013.154606,4663.297435,-4737.318029,3907.087040
21013.154939,4737.318029,-3627.009116,7890.783629
21013.155273,4367.215058,-8882.471304,6052.154434
21013.155606,1332.370696,-8808.450710,4290.134789
21013.155939,-1406.391290,-11103.089130,1072.533697
21013.156272,-962.267725,-8512.368333,-3907.087040
21013.156605,-3552.988522,-12213.398043,-5362.668486
21013.156939,-3182.885551,-10881.027347,-7660.954980
21013.157272,-3627.009116,-11251.130318,-6741.640382
21013.157605,-3034.844362,-13323.706956,-3600.648841
21013.157938,-3552.988522,-10881.027347,0.000000
21013.158271,-2368.659014,-7772.162391,2451.505594
21013.158605,4071.132681,-5921.647536,5439.278036
21013.158938,2368.659014,-4811.338623,8580.269578
21013.159271,8216.285956,-4441.235652,7890.783629
21013.159604,7031.956449,-7698.141797,6971.469032
21013.159937,2664.741391,-9252.574275,5286.058936
21013.160271,-2664.741391,-10881.027347,-1225.752797
21013.160604,-4737.318029,-9844.739029,-6052.154434
21013.160937,-4219.173869,-11621.233289,-8580.269578
21013.161270,-3108.864956,-11177.109724,-6128.763984
21013.161603,-1258.350101,-9548.656652,-5515.887586
21013.161937,-4145.153275,-9548.656652,-1838.629195
21013.162270,-1036.288319,-12435.459826,2374.896044
21013.162603,-1258.350101,-7105.977043,1455.581446
21013.162936,5551.544565,-5921.647536,7584.345430
21013.163269,6883.915261,-5551.544565,7967.393179
21013.163603,7846.182985,-5329.482782,8044.002729
21013.163936,5329.482782,-6291.750507,3677.258390
21013.164269,4515.256246,-9474.636058,2374.896044
21013.164602,-2220.617826,-10732.986159,-2451.505594
21013.164935,-1850.514855,-13323.706956,-4366.744339
21013.165269,-2442.679609,-11843.295072,-9882.631924
21013.165602,-5921.647536,-11917.315666,-8580.269578
21013.165935,-1258.350101,-10510.924376,-5515.887586
21013.166268,1110.308913,-11695.253884,1149.143247
21013.166601,148.041188,-10140.821405,6358.592633
21013.166935,1110.308913,-6587.832884,6511.811733
21013.167268,2886.803174,-3627.009116,3830.477490
21013.167601,2960.823768,-5995.668130,9193.145976
21013.167934,7920.203579,-6809.894666,6358.592633
21013.168268,3552.988522,-4811.338623,2451.505594
21013.168601,592.164754,-11325.150913,766.095498
21013.168934,-3034.844362,-13175.665768,-6358.592633
21013.169267,-6291.750507,-14063.912898,-7431.126331
21013.169600,-5329.482782,-11325.150913,-8350.440928
21013.169934,-4219.173869,-12583.501014,-6511.811733
21013.170267,-2220.617826,-9178.553681,-2681.334243
21013.170600,1776.494261,-9400.615463,4213.525239
21013.170933,740.205942,-8808.450710,7048.078582
21013.171266,518.144159,-6365.771101,6511.811733
21013.171600,4145.153275,-6217.729913,8197.221829
21013.171933,4663.297435,-5921.647536,4826.401637
21013.172266,4367.215058,-4219.173869,2757.943793
21013.172599,0.000000,-8364.327145,1378.971896
21013.172932,-74.020594,-11547.212695,-3600.648841
21013.173266,-4737.318029,-13101.645173,-4903.011187
21013.173599,-3775.050304,-11991.336260,-6205.373534
21013.173932,-3849.070898,-12139.377449,-6511.811733
21013.174265,-2146.597232,-12287.418637,-4979.620737
21013.174598,2294.638420,-10066.800811,-76.609550
21013.174932,5551.544565,-9474.636058,6052.154434
21013.175265,2368.659014,-5403.503377,7354.516781
21013.175598,4663.297435,-7994.224174,9729.412825
21013.175931,4071.132681,-5921.647536,4903.011187
21013.176264,3478.967927,-5255.462188,2374.896044
21013.176598,2294.638420,-7105.977043,-1915.238745
21013.176931,1850.514855,-8808.450710,-2911.162892
21013.177264,0.000000,-12139.377449,-2834.553343
21013.177597,-1480.411884,-11917.315666,-3677.258390
21013.177930,-1258.350101,-13619.789333,-4366.744339
21013.178264,-2368.659014,-12213.398043,-2374.896044
21013.178597,2886.803174,-12435.459826,-689.485948
21013.178930,2664.741391,-5625.565159,0.000000
21013.179263,5329.482782,-8512.368333,5286.058936
21013.179596,3404.947333,-8660.409521,8197.221829
21013.179930,1924.535449,-7254.018232,6741.640382
21013.180263,1110.308913,-5921.647536,3064.381992
21013.180596,2294.638420,-9474.636058,3600.648841
21013.180929,-814.226536,-4219.173869,-4290.134789
21013.181262,-962.267725,-9474.636058,-1302.362347
21013.181596,-1850.514855,-11251.130318,-5669.106685
21013.181929,-7105.977043,-11621.233289,-2451.505594
21013.182262,-4737.318029,-11621.233289,-1532.190996
21013.182595,-962.267725,-11251.130318,-689.485948
21013.182928,0.000000,-9178.553681,-383.047749
21013.183262,-296.082377,-9252.574275,536.266849
21013.183595,1998.556043,-6513.812290,2068.457845
21013.183928,-2368.659014,-9548.656652,7048.078582
21013.184261,-74.020594,-7105.977043,2681.334243
21013.184595,-1776.494261,-7476.080014,2451.505594
21013.184928,1406.391290,-9474.636058,1149.143247
21013.185261,-74.020594,-8882.471304,-76.609550
21013.185594,-592.164754,-9474.636058,-1915.238745
21013.185927,-2146.597232,-9622.677246,-1991.848295
21013.186261,-3034.844362,-14137.933492,-689.485948
21013.186594,1258.350101,-8290.306550,-76.609550
21013.186927,-2368.659014,-10881.027347,1455.581446
21013.187260,592.164754,-8068.244768,-1302.362347
21013.187593,1998.556043,-8290.306550,1455.581446
21013.187927,1258.350101,-10140.821405,2451.505594
21013.188260,2886.803174,-9474.636058,2987.772442
21013.188593,-4737.318029,-9844.739029,2451.505594
21013.188926,1998.556043,-9474.636058,2374.896044
21013.189259,1406.391290,-5625.565159,0.000000
21013.189593,3552.988522,-8660.409521,1991.848295
21013.189926,3182.885551,-8734.430116,-76.609550
21013.190259,1184.329507,-9844.739029,-229.828649
21013.190592,814.226536,-11177.109724,0.000000
21013.190925,666.185348,-10362.883188,0.000000
21013.191259,1184.329507,-7772.162391,0.000000
21013.191592,296.082377,-10732.986159,459.657299
21013.191925,3182.885551,-8586.388927,-2528.115143
21013.192258,-74.020594,-9548.656652,0.000000
21013.192591,-962.267725,-11251.130318,1149.143247
21013.192925,-2442.679609,-8068.244768,0.000000
21013.193258,-2960.823768,-7476.080014,1762.019645
21013.193591,1850.514855,-7105.977043,1302.362347
21013.193924,2960.823768,-6069.688724,2068.457845
21013.194257,6143.709319,-8882.471304,4826.401637
21013.194591,5255.462188,-13027.624579,4826.401637
21013.194924,0.000000,-10732.986159,612.876398
21013.195257,-74.020594,-13619.789333,-2528.115143
21013.195590,1110.308913,-10955.047942,-3447.429741
21013.195923,-2368.659014,-9696.697840,-2145.067394
21013.196257,888.247130,-11029.068536,-919.314598
21013.196590,-1184.329507,-9548.656652,0.000000
21013.196923,-3256.906145,-9844.739029,766.095498
21013.197256,-5847.626942,-6735.874072,153.219100
21013.197589,-1850.514855,-5921.647536,1762.019645
21013.197923,-2368.659014,-3034.844362,2451.505594
21013.198256,4885.359217,-4737.318029,3907.087040
21013.198589,2368.659014,-3034.844362,459.657299
21013.198922,740.205942,-7179.997637,459.657299
21013.199255,2516.700203,-13915.871710,1762.019645
21013.199589,-1332.370696,-11991.336260,-1608.800546
21013.199922,-1480.411884,-12287.418637,-3370.820191
21013.200255,-74.020594,-11843.295072,-3830.477490
21013.200588,0.000000,-10140.821405,-2451.505594
21013.200922,1702.473667,-9474.636058,-689.485948
21013.201255,-74.020594,-8882.471304,0.000000
21013.201588,-2960.823768,-8364.327145,3600.648841
21013.201921,-2368.659014,-5847.626942,2374.896044
21013.202254,740.205942,-2442.679609,3983.696590
21013.202588,6143.709319,-3849.070898,4979.620737
21013.202921,5921.647536,-5255.462188,4443.353888
21013.203254,6661.853478,-8956.491898,4749.792088
21013.203587,3997.112087,-11621.233289,1302.362347
21013.203920,1332.370696,-12879.583391,-2221.676944
21013.204254,1702.473667,-12435.459826,-6435.202183
21013.204587,-2516.700203,-14582.057057,-8503.660028
21013.204920,-296.082377,-13915.871710,-7354.516781
21013.205253,-3552.988522,-7179.997637,-6128.763984
21013.205586,0.000000,-11325.150913,3524.039291
21013.205920,-2442.679609,-6587.832884,2451.505594
21013.206253,0.000000,-2442.679609,3677.258390
21013.206586,5699.585753,-5625.565159,8503.660028
21013.206919,7328.038826,-3552.988522,9729.412825
21013.207252,7031.956449,-5255.462188,4826.401637
21013.207586,3849.070898,-9326.594869,2681.334243
21013.207919,1110.308913,-13027.624579,-1608.800546
21013.208252,-3552.988522,-10732.986159,-3524.039291
21013.208585,-3923.091493,-17172.777854,-6511.811733
21013.208918,-5995.668130,-13175.665768,-11951.089769
21013.209252,-7105.977043,-13693.809927,-6128.763984
21013.209585,-5329.482782,-12065.356855,-2528.115143
21013.209918,-2738.761985,-9030.512492,1685.410096
21013.210251,-2072.576638,-8216.285956,7431.126331
21013.210584,3552.988522,-2960.823768,10725.336972
21013.210918,3552.988522,-1258.350101,11031.775171
21013.211251,6217.729913,-6513.812290,9729.412825
21013.211584,2590.720797,-3627.009116,2451.505594
21013.211917,1184.329507,-9548.656652,3600.648841
21013.212250,-1258.350101,-11843.295072,-3753.867940
21013.212584,-6513.812290,-13693.809927,-5822.325785
21013.212917,-9104.533087,-13693.809927,-11797.870669
21013.213250,-6439.791695,-13619.789333,-9652.803275
21013.213583,-5329.482782,-11621.233289,-6052.154434
21013.213916,-74.020594,-11251.130318,1762.019645
21013.214250,-74.020594,-9474.636058,3600.648841
21013.214583,-1776.494261,-5995.668130,8580.269578
21013.214916,5551.544565,-2960.823768,9729.412825
21013.215249,7031.956449,-2368.659014,9116.536426
21013.215582,7105.977043,-4811.338623,9806.022374
21013.215916,5625.565159,-6069.688724,3830.477490
21013.216249,3404.947333,-8882.471304,-766.095498
21013.216582,-1924.535449,-14063.912898,-4749.792088
21013.216915,-3627.009116,-14211.954086,-7737.564530
21013.217248,-5995.668130,-14952.160028,-10035.851024
21013.217582,-3997.112087,-14063.912898,-8427.050478
21013.217915,-1998.556043,-11029.068536,-4519.963438
21013.218248,-2590.720797,-7772.162391,0.000000
21013.218581,2368.659014,-6291.750507,5515.887586
21013.218915,2368.659014,-6957.935855,10342.289223
21013.219248,5847.626942,-2960.823768,8503.660028
21013.219581,4737.318029,-3775.050304,8273.831378
21013.219914,7476.080014,-4737.318029,5286.058936
21013.220247,4145.153275,-8364.327145,2298.286494
21013.220581,3108.864956,-8956.491898,-3064.381992
21013.220914,-1480.411884,-14730.098246,-6128.763984
21013.221247,-4145.153275,-14582.057057,-6128.763984
21013.221580,-2738.761985,-13767.830521,-8580.269578
21013.221913,-1258.350101,-14211.954086,-7431.126331
21013.222247,-2442.679609,-10436.903782,-4903.011187
21013.222580,0.000000,-7772.162391,2451.505594
21013.222913,4145.153275,-7772.162391,8273.831378
21013.223246,740.205942,-5403.503377,7737.564530
21013.223579,666.185348,-4737.318029,6665.030833
21013.223913,1850.514855,-3849.070898,5669.106685
21013.224246,2294.638420,-8882.471304,4826.401637
21013.224579,1184.329507,-3627.009116,612.876398
21013.224912,814.226536,-10658.965565,-2528.115143
21013.225245,-2960.823768,-11325.150913,-3064.381992
21013.225579,-3034.844362,-14804.118840,-4979.620737
21013.225912,-4811.338623,-13323.706956,-6818.249932
21013.226245,-3849.070898,-13027.624579,-7431.126331
21013.226578,-2960.823768,-12435.459826,-4060.306139
21013.226911,1036.288319,-8882.471304,1072.533697
21013.227245,2590.720797,-8882.471304,5898.935335
21013.227578,2368.659014,-7179.997637,11261.603821
21013.227911,814.226536,-1850.514855,7660.954980
21013.228244,1184.329507,-2442.679609,9806.022374
21013.228577,5847.626942,-4441.235652,3294.210641
21013.228911,1776.494261,-4885.359217,-1225.752797
21013.229244,814.226536,-10066.800811,-4290.134789
21013.229577,-1332.370696,-13175.665768,-5745.716235
21013.229910,-2442.679609,-14211.954086,-5669.106685
21013.230243,-1554.432478,-14804.118840,-4366.744339
21013.230577,-74.020594,-14211.954086,-3140.991542
21013.230910,-2220.617826,-9548.656652,-3677.258390
21013.231243,2220.617826,-10214.842000,2221.676944
21013.231576,6439.791695,-6513.812290,3600.648841
21013.231909,740.205942,-5107.421000,7048.078582
21013.232243,2812.782580,-5329.482782,7890.783629
21013.232576,888.247130,-6365.771101,4903.011187
21013.232909,2220.617826,-5255.462188,2451.505594
21013.233242,-74.020594,-7994.224174,-1915.238745
21013.233575,1406.391290,-8882.471304,-3907.087040
21013.233909,-3552.988522,-13101.645173,-4366.744339
21013.234242,-4811.338623,-12805.562797,-5515.887586
21013.234575,-1776.494261,-11695.253884,-2911.162892
21013.234908,-2960.823768,-11917.315666,-2451.505594
21013.235242,1702.473667,-11547.212695,-1302.362347
21013.235575,1998.556043,-8290.306550,229.828649
21013.235908,1184.329507,-8660.409521,4903.011187
21013.236241,2590.720797,-8364.327145,5439.278036
21013.236574,-74.020594,-7254.018232,3370.820191
21013.236907,814.226536,-6735.874072,3753.867940
21013.237240,-740.205942,-5403.503377,919.314598
21013.237573,-1332.370696,-7698.141797,-1991.848295
21013.237906,-1036.288319,-8808.450710,-1149.143247
21013.238239,-1258.350101,-13027.624579,-536.266849
21013.238572,-2960.823768,-9696.697840,0.000000
21013.238905,-4737.318029,-7179.997637,0.000000
21013.239238,-1258.350101,-12139.377449,-1608.800546
21013.239571,888.247130,-8882.471304,-1608.800546
21013.239904,2294.638420,-10658.965565,-383.047749
21013.240237,592.164754,-9548.656652,0.000000
21013.240570,-1258.350101,-9770.718434,76.609550
21013.240903,-1850.514855,-8882.471304,842.705048
21013.241236,-74.020594,-7105.977043,842.705048
21013.241569,3478.967927,-9474.636058,2374.896044
21013.241902,1184.329507,-4811.338623,1225.752797
21013.242235,4145.153275,-9474.636058,3217.601092
21013.242568,4071.132681,-12657.521608,4826.401637
21013.242901,-962.267725,-9844.739029,1838.629195
21013.243234,1110.308913,-9400.615463,-689.485948
21013.243567,1036.288319,-10362.883188,-1762.019645
21013.243900,370.102971,-7920.203579,-3600.648841
21013.244233,1702.473667,-9474.636058,-3753.867940
21013.244566,0.000000,-10140.821405,-76.609550
21013.244899,-814.226536,-10658.965565,-1302.362347
21013.245232,-4441.235652,-7179.997637,0.000000
21013.245565,-1258.350101,-8290.306550,1762.019645
21013.245899,1184.329507,-5551.544565,1838.629195
21013.246232,2738.761985,-6661.853478,2834.553343
21013.246565,5847.626942,-4737.318029,4903.011187
21013.246898,3108.864956,-9622.677246,4903.011187
21013.247231,1480.411884,-9548.656652,2451.505594
21013.247564,518.144159,-13027.624579,919.314598
21013.247897,-1554.432478,-15396.283594,-4979.620737
21013.248230,-962.267725,-7179.997637,-6741.640382
21013.248563,-1480.411884,-12435.459826,-4366.744339
21013.248896,444.123565,-9844.739029,-1991.848295
21013.249229,-2960.823768,-11325.150913,689.485948
21013.249562,-3478.967927,-8216.285956,459.657299
21013.249895,-1776.494261,-8586.388927,2451.505594
21013.250228,-2368.659014,-6587.832884,3830.477490
21013.250561,3552.988522,-3478.967927,5132.839837
21013.250894,2368.659014,-6661.853478,5132.839837
21013.251227,3182.885551,-7254.018232,3447.429741
21013.251560,296.082377,-10732.986159,2757.943793
21013.251893,1554.432478,-7476.080014,-2834.553343
21013.252226,592.164754,-12065.356855,-995.924147
21013.252559,-2442.679609,-13027.624579,-8503.660028
21013.252892,-74.020594,-10362.883188,-8044.002729
21013.253225,-3256.906145,-13545.768739,-2604.724693
21013.253558,296.082377,-8956.491898,1225.752797
21013.253891,148.041188,-8586.388927,4673.182538
21013.254224,1776.494261,-5699.585753,5132.839837
21013.254557,7031.956449,-7994.224174,7890.783629
21013.254890,2442.679609,-3627.009116,6128.763984
21013.255223,4737.318029,-5403.503377,6894.859482
21013.255556,1702.473667,-10510.924376,1378.971896
21013.255889,0.000000,-5995.668130,0.000000
21013.256222,-962.267725,-10955.047942,-76.609550
21013.256555,-1332.370696,-9992.780217,-5286.058936
21013.256888,-3034.844362,-11843.295072,-7584.345430
21013.257221,-2960.823768,-12213.398043,-7354.516781
21013.257554,1110.308913,-10658.965565,-1915.238745
21013.257887,-4737.318029,-11917.315666,1225.752797
21013.258220,-370.102971,-8882.471304,-76.609550
21013.258553,-74.020594,-6587.832884,1532.190996
21013.258886,4737.318029,-5995.668130,7967.393179
21013.259219,6735.874072,-4367.215058,6205.373534
21013.259552,4071.132681,-8216.285956,5745.716235
21013.259885,2960.823768,-8512.368333,4060.306139
21013.260218,-2146.597232,-11029.068536,612.876398
21013.260551,-2368.659014,-9548.656652,-3064.381992
21013.260884,-6513.812290,-10140.821405,-3294.210641
21013.261217,-3034.844362,-12435.459826,-8810.098227
21013.261550,-5329.482782,-8364.327145,-8350.440928
21013.261883,-4145.153275,-11325.150913,-2451.505594
21013.262216,-2442.679609,-8660.409521,0.000000
21013.262549,-1406.391290,-8438.347739,3600.648841
21013.262882,1554.432478,-5033.400406,4826.401637
21013.263215,3256.906145,-5551.544565,6511.811733
21013.263548,4145.153275,-6883.915261,5439.278036
21013.263881,3997.112087,-7698.141797,4290.134789
21013.264214,2368.659014,-9474.636058,2987.772442
21013.264547,1036.288319,-11769.274478,612.876398
21013.264880,-666.185348,-13027.624579,-2528.115143
21013.265213,-3034.844362,-10362.883188,-8197.221829
21013.265546,-4145.153275,-11325.150913,-5362.668486
21013.265879,1184.329507,-9622.677246,-2528.115143
21013.266212,2294.638420,-10362.883188,-1149.143247
21013.266545,2072.576638,-9918.759623,3677.258390
21013.266878,1850.514855,-7550.100608,4826.401637
21013.267211,2960.823768,-5625.565159,4826.401637
21013.267544,3923.091493,-7179.997637,5822.325785
21013.267877,5403.503377,-4885.359217,3600.648841
21013.268210,3923.091493,-9030.512492,1149.143247
21013.268543,0.000000,-11917.315666,1302.362347
21013.268876,-1850.514855,-10362.883188,-3677.258390
21013.269209,-4367.215058,-9918.759623,-4596.572988
21013.269542,-814.226536,-9474.636058,-4366.744339
21013.269875,-2516.700203,-9548.656652,-5362.668486
21013.270208,-370.102971,-9178.553681,-3140.991542
21013.270541,2146.597232,-8438.347739,766.095498
21013.270874,1184.329507,-7772.162391,3064.381992
21013.271207,3478.967927,-8290.306550,4213.525239
21013.271541,1184.329507,-8068.244768,8503.660028
21013.271874,3478.967927,-5995.668130,1225.752797
21013.272207,3256.906145,-9400.615463,2451.505594
21013.272540,1776.494261,-7328.038826,76.609550
21013.272873,-2368.659014,-11029.068536,-2757.943793
21013.273206,-4219.173869,-12509.480420,-2604.724693
21013.273539,-4441.235652,-11547.212695,-3524.039291
21013.273872,-2442.679609,-12287.418637,-1302.362347
21013.274205,-2738.761985,-7179.997637,-4290.134789
21013.274538,1998.556043,-8290.306550,-76.609550
21013.274871,5847.626942,-6513.812290,1762.019645
21013.275204,2368.659014,-6883.915261,6281.983084
21013.275537,3701.029710,-9474.636058,7201.297681
21013.275870,148.041188,-7476.080014,2987.772442
21013.276203,1702.473667,-9400.615463,1149.143247
21013.276536,666.185348,-9474.636058,0.000000
21013.276869,1406.391290,-8882.471304,-2528.115143
21013.277202,-3552.988522,-11325.150913,459.657299
21013.277535,-2442.679609,-11843.295072,-4060.306139
21013.277868,-5477.523971,-9548.656652,-4060.306139
21013.278201,-4737.318029,-9548.656652,306.438199
21013.278534,2220.617826,-9474.636058,2145.067394
21013.278867,1924.535449,-5551.544565,2757.943793
21013.279200,3552.988522,-5995.668130,3524.039291
21013.279533,2072.576638,-8660.409521,4673.182538
21013.279866,1332.370696,-6957.935855,4826.401637
21013.280199,0.000000,-7179.997637,2145.067394
21013.280532,444.123565,-11029.068536,-306.438199
21013.280865,-74.020594,-9474.636058,-3217.601092
21013.281198,-1184.329507,-11325.150913,-2528.115143
21013.281531,1110.308913,-9474.636058,-1915.238745
21013.281864,-3256.906145,-11473.192101,0.000000
21013.282197,-370.102971,-11843.295072,-76.609550
21013.282530,-1554.432478,-7476.080014,0.000000
21013.282863,296.082377,-9030.512492,995.924147
21013.283196,5107.421000,-7105.977043,842.705048
21013.283529,4515.256246,-7328.038826,3064.381992
21013.283862,3849.070898,-8956.491898,3370.820191
21013.284195,3256.906145,-7179.997637,3677.258390
21013.284528,-1776.494261,-9548.656652,-1225.752797
21013.284861,0.000000,-8364.327145,-1225.752797
21013.285194,1702.473667,-9622.677246,-3677.258390
21013.285527,0.000000,-10732.986159,-1072.533697
21013.285860,2072.576638,-11843.295072,-76.609550
21013.286193,-2442.679609,-11991.336260,-2068.457845
21013.286526,-148.041188,-10362.883188,2298.286494
21013.286859,-74.020594,-7550.100608,2681.334243
21013.287192,2072.576638,-6883.915261,2451.505594
21013.287525,2664.741391,-4811.338623,2451.505594
21013.287858,2368.659014,-7179.997637,6665.030833
21013.288191,1110.308913,-6513.812290,0.000000
21013.288524,-2072.576638,-10140.821405,1225.752797
21013.288857,-2442.679609,-10658.965565,-3753.867940
21013.289190,-4737.318029,-10732.986159,-3064.381992
21013.289523,-1110.308913,-9178.553681,-3753.867940
21013.289856,-1406.391290,-10584.944971,-2834.553343
21013.290189,-1924.535449,-10732.986159,-612.876398
21013.290522,-74.020594,-11251.130318,2987.772442
21013.290855,444.123565,-10955.047942,6052.154434
21013.291188,2886.803174,-3330.926739,612.876398
21013.291521,592.164754,-9400.615463,3600.648841
21013.291854,2294.638420,-7105.977043,-76.609550
21013.292187,1776.494261,-8660.409521,1991.848295
21013.292520,-370.102971,-10140.821405,306.438199
21013.292853,-2220.617826,-9252.574275,-1685.410096
21013.293186,-3923.091493,-11251.130318,-3217.601092
21013.293519,-1184.329507,-8956.491898,-2451.505594
21013.293852,-74.020594,-11843.295072,-1762.019645
21013.294185,592.164754,-5403.503377,0.000000
21013.294518,1184.329507,-8956.491898,4519.963438
21013.294851,1702.473667,-9918.759623,3140.991542
21013.295184,1258.350101,-7179.997637,4596.572988
21013.295517,0.000000,-8586.388927,2068.457845
21013.295850,2146.597232,-7105.977043,-76.609550
21013.296183,1406.391290,-8438.347739,-229.828649
21013.296516,888.247130,-7476.080014,-1455.581446
21013.296850,-2442.679609,-10066.800811,-2911.162892
21013.297183,-3627.009116,-10881.027347,-1915.238745
21013.297516,-2368.659014,-9992.780217,-536.266849
21013.297849,-1036.288319,-8734.430116,1072.533697
21013.298182,2590.720797,-6809.894666,-76.609550
21013.298515,5625.565159,-10658.965565,6052.154434
21013.298848,5551.544565,-6809.894666,3677.258390
21013.299181,3552.988522,-9548.656652,3677.258390
21013.299514,2072.576638,-11621.233289,3217.601092
21013.299847,1628.453072,-7772.162391,0.000000
21013.300180,74.020594,-11029.068536,-2757.943793
21013.300513,1110.308913,-9992.780217,-4673.182538
21013.300846,-1406.391290,-12139.377449,-3294.210641
21013.301179,-3256.906145,-9548.656652,-2451.505594
21013.301512,-1850.514855,-10362.883188,-229.828649
21013.301845,-1258.350101,-4959.379811,0.000000
21013.302178,1184.329507,-7698.141797,4519.963438
21013.302511,5847.626942,-7105.977043,6052.154434
21013.302844,4737.318029,-6587.832884,5592.497135
21013.303177,1924.535449,-8216.285956,1762.019645
21013.303510,592.164754,-10881.027347,0.000000
21013.303843,-2442.679609,-11103.089130,-2298.286494
21013.304176,-2368.659014,-12583.501014,-1915.238745
21013.304509,-74.020594,-10658.965565,-6435.202183
21013.304842,-1184.329507,-9844.739029,-6128.763984
21013.305175,0.000000,-11473.192101,-76.609550
21013.305508,-370.102971,-8068.244768,842.705048
21013.305841,-1554.432478,-9992.780217,3294.210641
21013.306174,-1184.329507,-5033.400406,3907.087040
21013.306507,2368.659014,-6439.791695,4596.572988
21013.306840,4959.379811,-5255.462188,5669.106685
21013.307173,6439.791695,-7105.977043,3600.648841
21013.307506,2590.720797,-7179.997637,612.876398
21013.307839,2516.700203,-11251.130318,1149.143247
21013.308172,-74.020594,-13619.789333,-689.485948
21013.308505,-4441.235652,-7772.162391,-4903.011187
21013.308838,-2812.782580,-11251.130318,-8044.002729
21013.309171,-3997.112087,-12657.521608,-6971.469032
21013.309504,-1406.391290,-9548.656652,-3140.991542
21013.309837,-1924.535449,-11547.212695,1149.143247
21013.310170,-666.185348,-9178.553681,4519.963438
21013.310503,222.061783,-6513.812290,5822.325785
21013.310836,3997.112087,-4441.235652,8044.002729
21013.311169,7402.059420,-3256.906145,8120.612279
21013.311502,4737.318029,-6587.832884,5209.449386
21013.311835,7994.224174,-9326.594869,4519.963438
21013.312168,666.185348,-11917.315666,0.000000
21013.312501,-4737.318029,-11325.150913,-2451.505594
21013.312834,-5033.400406,-14656.077652,-8656.879127
21013.313167,-6957.935855,-13397.727550,-11108.384721
21013.313500,-4663.297435,-11843.295072,-7124.688131
21013.313833,-3552.988522,-11251.130318,-2298.286494
21013.314166,-814.226536,-8882.471304,3907.087040
21013.314499,-74.020594,-6809.894666,9039.926876
21013.314832,3330.926739,-4737.318029,10955.165621
21013.315165,4515.256246,-518.144159,7354.516781
21013.315498,6513.812290,-6291.750507,7660.954980
21013.315831,6069.688724,-7105.977043,4826.401637
21013.316164,3256.906145,-10140.821405,0.000000
21013.316497,370.102971,-12879.583391,-4749.792088
21013.316830,-4219.173869,-15692.365970,-7431.126331
21013.317163,-4885.359217,-14285.974681,-10265.679673
21013.317496,-5403.503377,-14211.954086,-9269.755526
21013.317829,-2368.659014,-14063.912898,-3753.867940
21013.318162,-1850.514855,-7772.162391,-2451.505594
21013.318495,1184.329507,-7772.162391,7584.345430
21013.318828,5847.626942,-5921.647536,12793.794817
21013.319161,4663.297435,0.000000,10342.289223
21013.319494,6365.771101,-2442.679609,8656.879127
21013.319827,6587.832884,-6587.832884,6818.249932
21013.320160,4145.153275,-8216.285956,2068.457845
21013.320493,1184.329507,-8660.409521,-3064.381992
21013.320826,-666.185348,-14211.954086,-6818.249932
21013.321159,-4737.318029,-14137.933492,-9193.145976
21013.321492,-6217.729913,-15396.283594,-7431.126331
21013.321825,-5107.421000,-12065.356855,-9806.022374
21013.322158,-4737.318029,-11325.150913,-5515.887586
21013.322492,444.123565,-8364.327145,1762.019645
21013.322825,3775.050304,-6809.894666,8044.002729
21013.323158,1998.556043,-3775.050304,9039.926876
21013.323491,4663.297435,-4145.153275,9729.412825
21013.323824,3478.967927,-2442.679609,6128.763984
21013.324157,4737.318029,-7105.977043,6052.154434
21013.324490,5551.544565,-9178.553681,-76.609550
21013.324823,0.000000,-10732.986159,-3677.258390
21013.325156,-2960.823768,-13693.809927,-6435.202183
21013.325489,-4293.194464,-14137.933492,-5439.278036
21013.325822,-4885.359217,-13841.851115,-7584.345430
21013.326155,-2442.679609,-13027.624579,-5898.935335
21013.326488,-1332.370696,-13471.748144,-76.609550
21013.326821,222.061783,-6587.832884,1378.971896
21013.327154,2516.700203,-5921.647536,6741.640382
21013.327487,2072.576638,-4737.318029,8733.488677
21013.327820,3627.009116,-3182.885551,9039.926876
21013.328153,2960.823768,-5107.421000,9193.145976
21013.328486,4071.132681,-4959.379811,689.485948
21013.328819,-2368.659014,-8364.327145,612.876398
21013.329152,1702.473667,-10658.965565,-5439.278036
21013.329485,-1258.350101,-12287.418637,-5439.278036
21013.329818,-4145.153275,-14285.974681,-4366.744339
21013.330151,-4441.235652,-12509.480420,-6588.421283
21013.330484,-2886.803174,-13841.851115,-4443.353888
21013.330817,1998.556043,-9400.615463,-383.047749
21013.331150,4071.132681,-9178.553681,2987.772442
21013.331483,4071.132681,-6439.791695,3677.258390
21013.331816,2368.659014,-7994.224174,10955.165621
21013.332149,3478.967927,-4441.235652,6358.592633
21013.332482,3330.926739,-3923.091493,4903.011187
21013.332815,3478.967927,-8882.471304,4213.525239
21013.333148,814.226536,-7772.162391,-1455.581446
21013.333481,518.144159,-9992.780217,-4596.572988
21013.333814,-3256.906145,-13693.809927,-4749.792088
21013.334147,-5699.585753,-12731.542202,-5592.497135
21013.334480,-5403.503377,-8364.327145,-4903.011187
21013.334813,-1776.494261,-12435.459826,-1302.362347
21013.335146,2294.638420,-10658.965565,-689.485948
21013.335479,3478.967927,-5403.503377,1225.752797
21013.335812,3478.967927,-9474.636058,4290.134789
21013.336145,2368.659014,-6291.750507,6052.154434
21013.336478,-740.205942,-7328.038826,3830.477490
21013.336811,592.164754,-6291.750507,2451.505594
21013.337144,0.000000,-7920.203579,1225.752797
21013.337477,2368.659014,-9770.718434,1225.752797
21013.337810,2294.638420,-11547.212695,-689.485948
21013.338143,814.226536,-9548.656652,-2298.286494
21013.338476,-370.102971,-12065.356855,-229.828649
21013.338809,-74.020594,-10658.965565,-842.705048
21013.339142,-444.123565,-9696.697840,-2757.943793
21013.339475,-740.205942,-9918.759623,-2221.676944
21013.339808,1702.473667,-9844.739029,-153.219100
21013.340141,888.247130,-7179.997637,1532.190996
21013.340474,370.102971,-9030.512492,4213.525239
21013.340807,-2812.782580,-7328.038826,1838.629195
21013.341140,-1776.494261,-6291.750507,2451.505594
21013.341473,1702.473667,-8882.471304,2987.772442
21013.341806,1480.411884,-6291.750507,2451.505594
21013.342139,888.247130,-4811.338623,0.000000
21013.342472,4071.132681,-11843.295072,-76.609550
21013.342804,1480.411884,-8882.471304,229.828649
21013.343137,1702.473667,-11251.130318,-76.609550
21013.343470,1702.473667,-11843.295072,-3447.429741
21013.343803,222.061783,-12509.480420,-3447.429741
21013.344136,1184.329507,-9844.739029,-2068.457845
21013.344469,1924.535449,-10362.883188,536.266849
21013.344802,-666.185348,-9474.636058,3294.210641
21013.345135,-3552.988522,-6291.750507,4213.525239
21013.345468,-1258.350101,-5329.482782,-689.485948
21013.345801,0.000000,-7179.997637,306.438199
21013.346134,148.041188,-6883.915261,1378.971896
21013.346467,3478.967927,-5773.606348,2604.724693
21013.346800,2516.700203,-9992.780217,4519.963438
21013.347133,592.164754,-9400.615463,1302.362347
21013.347466,1110.308913,-11251.130318,-689.485948
21013.347799,-1110.308913,-10658.965565,-4366.744339
21013.348132,814.226536,-14211.954086,-2528.115143
21013.348465,1702.473667,-12879.583391,-3753.867940
21013.348798,-2664.741391,-10140.821405,-1225.752797
21013.349131,-2368.659014,-10807.006753,2451.505594
21013.349464,-3552.988522,-6291.750507,2451.505594
21013.349797,-1924.535449,-5921.647536,2681.334243
21013.350130,518.144159,-4145.153275,3524.039291
21013.350463,2368.659014,-5403.503377,4290.134789
21013.350796,1480.411884,-4811.338623,2451.505594
21013.351129,4663.297435,-9474.636058,2987.772442
21013.351462,0.000000,-10066.800811,229.828649
21013.351795,0.000000,-9548.656652,0.000000
21013.352128,-74.020594,-14211.954086,-3753.867940
21013.352461,-2294.638420,-13397.727550,-6281.983084
21013.352794,-3256.906145,-12953.603985,-6894.859482
21013.353127,-2664.741391,-11917.315666,-3677.258390
21013.353460,-2664.741391,-9104.533087,229.828649
21013.353793,-1776.494261,-8882.471304,4673.182538
21013.354126,-74.020594,-3256.906145,2068.457845
21013.354458,2368.659014,-5551.544565,8580.269578
21013.354791,7031.956449,-4737.318029,7277.907231
21013.355124,4367.215058,-3997.112087,5745.716235
21013.355457,4145.153275,-10510.924376,4826.401637
21013.355790,1924.535449,-10955.047942,766.095498
21013.356123,-1628.453072,-12879.583391,-3370.820191
21013.356456,-1184.329507,-11991.336260,-7354.516781
21013.356789,-4145.153275,-15470.304188,-7354.516781
21013.357122,-2368.659014,-11621.233289,-8273.831378
21013.357455,-518.144159,-11325.150913,-1915.238745
21013.357788,-888.247130,-9030.512492,1302.362347
21013.358121,-2590.720797,-4515.256246,2145.067394
21013.358454,0.000000,-3627.009116,5975.544884
21013.358787,6439.791695,-4441.235652,7277.907231
21013.359120,4737.318029,-2442.679609,7354.516781
21013.359453,6365.771101,-8290.306550,5745.716235
21013.359786,3478.967927,-9474.636058,2374.896044
21013.360119,-888.247130,-10807.006753,-842.705048
21013.360452,-1110.308913,-12287.418637,-3753.867940
21013.360785,-2886.803174,-12139.377449,-6205.373534
21013.361118,-3552.988522,-13989.892304,-8580.269578
21013.361451,-1184.329507,-11325.150913,-2528.115143
21013.361784,-666.185348,-9918.759623,-3677.258390
21013.362117,-2072.576638,-8364.327145,0.000000
21013.362450,-1776.494261,-5773.606348,5286.058936
21013.362783,1480.411884,-2738.761985,4596.572988
21013.363116,5551.544565,-3997.112087,7584.345430
21013.363449,5107.421000,-6069.688724,6894.859482
21013.363782,5995.668130,-6883.915261,4903.011187
21013.364115,3478.967927,-10658.965565,4213.525239
21013.364448,296.082377,-11473.192101,1149.143247
21013.364781,-3627.009116,-11621.233289,-7354.516781
21013.365114,-5921.647536,-13397.727550,-7584.345430
21013.365447,-6513.812290,-14137.933492,-6511.811733
21013.365780,-3627.009116,-10658.965565,-6128.763984
21013.366113,-1850.514855,-9770.718434,-1762.019645
21013.366445,-222.061783,-7698.141797,3600.648841
21013.366778,1036.288319,-5551.544565,7277.907231
21013.367111,1702.473667,-740.205942,6588.421283
21013.367444,5477.523971,-8290.306550,8503.660028
21013.367777,2960.823768,-4811.338623,3983.696590
21013.368110,2368.659014,-8956.491898,4749.792088
21013.368443,3478.967927,-10658.965565,-1302.362347
21013.368776,-2738.761985,-13619.789333,-4060.306139
21013.369109,-5699.585753,-13693.809927,-5822.325785
21013.369442,-4145.153275,-11473.192101,-6894.859482
21013.369775,-3404.947333,-12879.583391,-6205.373534
21013.370108,0.000000,-9548.656652,-2451.505594
21013.370441,3478.967927,-9178.553681,229.828649
21013.370774,2368.659014,-6587.832884,7584.345430
21013.371107,4071.132681,-6513.812290,7277.907231
21013.371440,888.247130,-4219.173869,4903.011187
21013.371773,5255.462188,-6069.688724,4979.620737
21013.372106,4145.153275,-8956.491898,3370.820191
21013.372439,2960.823768,-9918.759623,766.095498
21013.372772,-592.164754,-11769.274478,-1685.410096
21013.373105,-4737.318029,-13101.645173,-2451.505594
21013.373438,-3034.844362,-9548.656652,-5515.887586
21013.373771,-1924.535449,-12287.418637,-3753.867940
21013.374104,-2294.638420,-10066.800811,-3677.258390
21013.374437,1184.329507,-7624.121203,-383.047749
21013.374770,1480.411884,-5995.668130,2451.505594
21013.375103,5255.462188,-7105.977043,6052.154434
21013.375436,2294.638420,-4811.338623,2757.943793
21013.375769,2368.659014,-7550.100608,3600.648841
21013.376102,4663.297435,-10658.965565,2374.896044
21013.376435,1184.329507,-7476.080014,612.876398
21013.376768,1110.308913,-10658.965565,-1302.362347
21013.377101,-740.205942,-12213.398043,-689.485948
21013.377434,-2368.659014,-11325.150913,-1838.629195
21013.377767,-2664.741391,-11177.109724,689.485948
21013.378099,-1554.432478,-8882.471304,-4060.306139
21013.378432,-2960.823768,-7772.162391,-4903.011187
21013.378765,592.164754,-8068.244768,995.924147
21013.379098,3478.967927,-8586.388927,2451.505594
21013.379431,2368.659014,-8068.244768,6052.154434
21013.379764,1924.535449,-7772.162391,4826.401637
21013.380097,-148.041188,-8364.327145,2528.115143
21013.380430,2738.761985,-9770.718434,2374.896044
21013.380763,2294.638420,-11251.130318,1762.019645
21013.381096,2294.638420,-8734.430116,-4596.572988
21013.381429,0.000000,-12731.542202,1762.019645
21013.381762,-4737.318029,-11917.315666,995.924147
21013.382095,-3034.844362,-8882.471304,-3140.991542
21013.382428,-1850.514855,-9474.636058,-383.047749
21013.382761,-518.144159,-8956.491898,0.000000
21013.383094,1850.514855,-5403.503377,766.095498
21013.383427,1628.453072,-8290.306550,2221.676944
21013.383760,2072.576638,-5699.585753,3294.210641
21013.384093,0.000000,-7179.997637,1225.752797
21013.384426,3182.885551,-9474.636058,-76.609550
21013.384759,-1628.453072,-9548.656652,-1838.629195
21013.385092,0.000000,-10732.986159,0.000000
21013.385425,4071.132681,-10658.965565,-689.485948
21013.385758,-1110.308913,-11621.233289,-153.219100
21013.386091,-2220.617826,-10066.800811,-1455.581446
21013.386424,-3701.029710,-10881.027347,0.000000
21013.386757,592.164754,-5995.668130,995.924147
21013.387090,1924.535449,-8142.265362,2987.772442
21013.387423,3256.906145,-6291.750507,2451.505594
21013.387756,4885.359217,-7105.977043,2987.772442
21013.388089,2960.823768,-9178.553681,5056.230287
21013.388422,2294.638420,-10510.924376,2068.457845
21013.388755,-3034.844362,-9178.553681,-4903.011187
21013.389088,-2368.659014,-11917.315666,-1225.752797
21013.389421,-1184.329507,-12435.459826,-3140.991542
21013.389753,0.000000,-10288.862594,-2451.505594
21013.390086,814.226536,-9326.594869,1072.533697
21013.390419,444.123565,-9326.594869,2528.115143
21013.390752,1776.494261,-7920.203579,4673.182538
21013.391085,2886.803174,-8290.306550,2987.772442
21013.391418,592.164754,-8364.327145,2451.505594
21013.391751,2886.803174,-5699.585753,0.000000
21013.392084,2960.823768,-8512.368333,2145.067394
21013.392417,2886.803174,-11843.295072,2374.896044
21013.392750,-3923.091493,-10066.800811,-1915.238745
21013.393083,-5403.503377,-11251.130318,-5286.058936
21013.393416,-3701.029710,-9548.656652,-3064.381992
21013.393749,518.144159,-9918.759623,-689.485948
21013.394082,2368.659014,-7698.141797,3753.867940
21013.394415,4663.297435,-9474.636058,6665.030833
21013.394748,1184.329507,-8364.327145,4903.011187
21013.395081,2886.803174,-9474.636058,4213.525239
21013.395414,1554.432478,-7179.997637,612.876398
21013.395747,1184.329507,-9548.656652,383.047749
21013.396080,1406.391290,-9474.636058,-3064.381992
21013.396413,888.247130,-11177.109724,-1302.362347
21013.396746,-2220.617826,-9696.697840,-2068.457845
21013.397079,-2146.597232,-9474.636058,-612.876398
21013.397412,-3034.844362,-8290.306550,-1915.238745
21013.397745,-2368.659014,-9548.656652,842.705048
21013.398078,1702.473667,-9326.594869,2374.896044
21013.398411,962.267725,-5699.585753,1532.190996
21013.398744,3552.988522,-7846.182985,5515.887586
21013.399077,2146.597232,-7772.162391,3983.696590
21013.399410,1628.453072,-9474.636058,1991.848295
21013.399743,1258.350101,-9252.574275,-1149.143247
21013.400076,-74.020594,-12435.459826,-3447.429741
21013.400409,0.000000,-10732.986159,-6128.763984
21013.400742,-296.082377,-13323.706956,-76.609550
21013.401075,-74.020594,-9178.553681,-689.485948
21013.401408,-2146.597232,-7772.162391,-1532.190996
21013.401740,-4737.318029,-8364.327145,612.876398
21013.402073,-740.205942,-5699.585753,0.000000
21013.402406,888.247130,-7476.080014,4060.306139
21013.402739,4589.276840,-5403.503377,5898.935335
21013.403072,3182.885551,-7476.080014,4673.182538
21013.403405,222.061783,-8364.327145,1838.629195
21013.403738,74.020594,-9030.512492,-919.314598
21013.404071,-2072.576638,-10881.027347,-2604.724693
21013.404404,-444.123565,-11399.171507,-4213.525239
21013.404737,-1850.514855,-13027.624579,-6205.373534
21013.405070,-74.020594,-9252.574275,-5515.887586
21013.405403,-1184.329507,-11621.233289,0.000000
21013.405736,-74.020594,-9474.636058,1762.019645
21013.406069,-1554.432478,-8512.368333,1838.629195
21013.406402,2368.659014,-6587.832884,7507.735880
21013.406735,6587.832884,-6069.688724,7660.954980
21013.407068,5773.606348,-6365.771101,7277.907231
21013.407401,4959.379811,-7328.038826,4519.963438
21013.407734,1110.308913,-10658.965565,1149.143247
21013.408067,-74.020594,-8364.327145,-3677.258390
21013.408400,-740.205942,-12879.583391,-3753.867940
21013.408733,-3627.009116,-14211.954086,-7431.126331
21013.409066,-4959.379811,-10732.986159,-7660.954980
21013.409399,-1258.350101,-11251.130318,-3140.991542
21013.409732,-1776.494261,-9770.718434,459.657299
21013.410065,-2960.823768,-8586.388927,2604.724693
21013.410398,0.000000,-5033.400406,4519.963438
21013.410731,1184.329507,-4811.338623,6128.763984
21013.411064,6439.791695,-3034.844362,4903.011187
21013.411397,7031.956449,-9474.636058,7277.907231
21013.411730,6439.791695,-7698.141797,2451.505594
21013.412063,1850.514855,-10436.903782,0.000000
21013.412396,-2368.659014,-11917.315666,-4060.306139
21013.412729,-2960.823768,-11843.295072,-7124.688131
21013.413062,-4663.297435,-14063.912898,-7660.954980
21013.413394,-2812.782580,-11843.295072,-6281.983084
21013.413727,-666.185348,-11843.295072,-689.485948
21013.414060,-3552.988522,-8364.327145,2757.943793
21013.414393,1110.308913,-7105.977043,4826.401637
21013.414726,0.000000,-4811.338623,9806.022374
21013.415059,5255.462188,-3552.988522,7277.907231
21013.415392,5329.482782,-6587.832884,4903.011187
21013.415725,5255.462188,-7920.203579,2451.505594
21013.416058,3256.906145,-9326.594869,536.266849
21013.416391,1776.494261,-11621.233289,-1532.190996
21013.416724,-2886.803174,-12287.418637,-5669.106685
21013.417057,-2664.741391,-14211.954086,-6818.249932
21013.417390,-5107.421000,-13101.645173,-9193.145976
21013.417723,-4441.235652,-10732.986159,-4903.011187
21013.418056,-74.020594,-10658.965565,-995.924147
21013.418389,666.185348,-7328.038826,3677.258390
21013.418722,-74.020594,-5921.647536,7584.345430
21013.419055,-74.020594,-2294.638420,6052.154434
21013.419388,2664.741391,-3775.050304,6052.154434
21013.419721,4663.297435,-5477.523971,6358.592633
21013.420054,5847.626942,-7698.141797,5286.058936
21013.420387,3849.070898,-9252.574275,1762.019645
21013.420720,-1998.556043,-12953.603985,-4060.306139
21013.421053,-3997.112087,-14063.912898,-8350.440928
21013.421386,-3034.844362,-14063.912898,-8044.002729
21013.421719,-3552.988522,-14878.139434,-8580.269578
21013.422052,-3404.947333,-15248.242405,-3140.991542
21013.422385,-74.020594,-7772.162391,0.000000
21013.422718,1184.329507,-5403.503377,6741.640382
21013.423051,4663.297435,-3552.988522,9576.193725
21013.423384,3775.050304,-2886.803174,8503.660028
21013.423717,3552.988522,-4367.215058,7124.688131
21013.424050,3552.988522,-6513.812290,4673.182538
21013.424383,1036.288319,-6143.709319,0.000000
21013.424716,-74.020594,-11843.295072,-2528.115143
21013.425049,-1554.432478,-14211.954086,-7431.126331
21013.425381,-5107.421000,-12805.562797,-7354.516781
21013.425714,-2516.700203,-15322.262999,-4979.620737
21013.426047,-3701.029710,-12213.398043,-7354.516781
21013.426380,-296.082377,-12287.418637,-2221.676944
21013.426713,4219.173869,-9030.512492,3753.867940
21013.427046,5625.565159,-6809.894666,8197.221829
21013.427379,3552.988522,-5107.421000,9806.022374
21013.427712,6439.791695,-7105.977043,9729.412825
21013.428045,1776.494261,-3627.009116,5822.325785
21013.428378,3552.988522,-7476.080014,6665.030833
21013.428711,1110.308913,-8586.388927,-1532.190996
21013.429044,-2368.659014,-9548.656652,-3677.258390
21013.429377,-3775.050304,-12657.521608,-6281.983084
21013.429710,-4515.256246,-12805.562797,-6665.030833
21013.430043,-4219.173869,-12805.562797,-5439.278036
21013.430376,-3034.844362,-12435.459826,-2528.115143
21013.430709,-74.020594,-9474.636058,-1915.238745
21013.431042,0.000000,-5403.503377,1225.752797
21013.431375,5477.523971,-8290.306550,8503.660028
21013.431708,3182.885551,-5921.647536,4826.401637
21013.432041,0.000000,-5107.421000,5515.887586
21013.432374,2146.597232,-7698.141797,3294.210641
21013.432707,1406.391290,-9696.697840,1532.190996
21013.433040,888.247130,-9770.718434,0.000000
21013.433373,-74.020594,-11251.130318,-1302.362347
21013.433706,-2738.761985,-12953.603985,-3907.087040
21013.434039,-2146.597232,-11473.192101,-2757.943793
21013.434372,-2664.741391,-11399.171507,-995.924147
21013.434705,-2220.617826,-7179.997637,-2451.505594
21013.435038,-2960.823768,-7772.162391,-919.314598
21013.435371,2146.597232,-8882.471304,2681.334243
21013.435704,518.144159,-5921.647536,2221.676944
21013.436037,0.000000,-5107.421000,4443.353888
21013.436370,-1554.432478,-6513.812290,1149.143247
21013.436703,-740.205942,-7476.080014,1685.410096
21013.437035,370.102971,-8956.491898,1455.581446
21013.437368,2220.617826,-8882.471304,459.657299
21013.437701,1480.411884,-9548.656652,153.219100
21013.438034,-74.020594,-11177.109724,-1455.581446
21013.438367,-74.020594,-11251.130318,-2221.676944
21013.438700,-1776.494261,-8956.491898,-919.314598
21013.439033,592.164754,-9548.656652,306.438199
21013.439366,2664.741391,-8586.388927,-919.314598
21013.439699,1850.514855,-9030.512492,766.095498
21013.440033,3034.844362,-8142.265362,2604.724693
21013.440366,0.000000,-9178.553681,1915.238745
21013.440699,-1554.432478,-9474.636058,-76.609550
21013.441032,-4145.153275,-6587.832884,0.000000
21013.441365,1702.473667,-5995.668130,0.000000
21013.441699,2368.659014,-9252.574275,3600.648841
21013.442032,2146.597232,-8290.306550,842.705048
21013.442365,3478.967927,-8142.265362,1762.019645
21013.442698,1406.391290,-10066.800811,1225.752797
21013.443031,2442.679609,-10658.965565,-76.609550
21013.443365,296.082377,-11621.233289,-1685.410096
21013.443698,1110.308913,-10658.965565,-3370.820191
21013.444031,3478.967927,-11843.295072,-1302.362347
21013.444364,0.000000,-11325.150913,1225.752797
21013.444697,-74.020594,-11843.295072,-76.609550
21013.445031,-5995.668130,-8364.327145,-1838.629195
21013.445364,-3552.988522,-6587.832884,1225.752797
21013.445697,-518.144159,-5995.668130,1532.190996
21013.446030,1998.556043,-7105.977043,4443.353888
21013.446363,3627.009116,-5033.400406,5592.497135
21013.446696,2516.700203,-6883.915261,3753.867940
21013.447030,1258.350101,-8068.244768,-995.924147
21013.447363,0.000000,-12509.480420,1149.143247
21013.447696,-74.020594,-10955.047942,-5286.058936
21013.448029,-1850.514855,-12065.356855,-6128.763984
21013.448362,0.000000,-10140.821405,-4903.011187
21013.448696,-74.020594,-11029.068536,-2068.457845
21013.449029,-1406.391290,-10214.842000,1455.581446
21013.449362,-2294.638420,-6957.935855,1532.190996
21013.449695,-3034.844362,-7772.162391,1378.971896
21013.450028,1998.556043,-6365.771101,3677.258390
21013.450362,2590.720797,-5477.523971,6588.421283
21013.450695,4811.338623,-4071.132681,6205.373534
21013.451028,3256.906145,-6587.832884,4519.963438
21013.451361,148.041188,-11325.150913,2451.505594
21013.451694,1110.308913,-10362.883188,-2834.553343
21013.452027,-2960.823768,-10140.821405,-7201.297681
21013.452361,-1184.329507,-14285.974681,-5286.058936
21013.452694,-1554.432478,-12435.459826,-6511.811733
21013.453027,-2368.659014,-9548.656652,-3064.381992
21013.453360,-962.267725,-9252.574275,1838.629195
21013.453693,-888.247130,-7031.956449,2451.505594
21013.454027,-1036.288319,-5995.668130,3064.381992
21013.454360,5847.626942,-7105.977043,6665.030833
21013.454693,7031.956449,-4737.318029,5745.716235
21013.455026,4737.318029,-6735.874072,8503.660028
21013.455359,4663.297435,-10066.800811,4826.401637
21013.455693,814.226536,-10584.944971,-1225.752797
21013.456026,-74.020594,-11917.315666,-1302.362347
21013.456359,-1702.473667,-11917.315666,-7048.078582
21013.456692,-4293.194464,-13397.727550,-7890.783629
21013.457025,-2664.741391,-11103.089130,-7048.078582
21013.457359,-2812.782580,-8660.409521,-4366.744339
21013.457692,-74.020594,-7254.018232,-4290.134789
21013.458025,-2368.659014,-9844.739029,3600.648841
21013.458358,1998.556043,-5625.565159,3600.648841
21013.458691,5551.544565,-5107.421000,7660.954980
21013.459024,6439.791695,-4737.318029,9422.974625
21013.459358,7105.977043,-6513.812290,7277.907231
21013.459691,4885.359217,-8364.327145,4903.011187
21013.460024,1776.494261,-11769.274478,0.000000
21013.460357,-1776.494261,-13175.665768,-3370.820191
21013.460690,-5477.523971,-11029.068536,-9499.584175
21013.461024,-3849.070898,-15100.201217,-7431.126331
21013.461357,-2738.761985,-13619.789333,-6818.249932
21013.461690,-2960.823768,-8882.471304,-2528.115143
21013.462023,-3256.906145,-7772.162391,1532.190996
21013.462356,-74.020594,-3997.112087,3983.696590
21013.462690,2072.576638,-4071.132681,6511.811733
21013.463023,4145.153275,-3330.926739,8044.002729
21013.463356,6439.791695,-8290.306550,7890.783629
21013.463689,2368.659014,-8364.327145,7584.345430
21013.464022,2294.638420,-8290.306550,0.000000
21013.464355,-1258.350101,-11177.109724,-3983.696590
21013.464689,-2664.741391,-13619.789333,-5132.839837
21013.465022,-5403.503377,-14063.912898,-10418.898773
21013.465355,-3404.947333,-13471.748144,-7277.907231
21013.465688,-3330.926739,-11251.130318,-5439.278036
21013.466021,-74.020594,-9326.594869,-153.219100
21013.466355,2294.638420,-9474.636058,7277.907231
21013.466688,296.082377,-4515.256246,6894.859482
21013.467021,2368.659014,-1702.473667,6128.763984
21013.467354,3997.112087,-6291.750507,6205.373534
21013.467687,6291.750507,-6439.791695,5975.544884
21013.468021,4367.215058,-9474.636058,4826.401637
21013.468354,0.000000,-9548.656652,-3677.258390
21013.468687,-3627.009116,-15396.283594,-3753.867940
21013.469020,-5847.626942,-11621.233289,-8580.269578
21013.469353,-4145.153275,-10732.986159,-6741.640382
21013.469687,-74.020594,-12435.459826,-4366.744339
21013.470020,0.000000,-9326.594869,-2374.896044
21013.470353,2442.679609,-7846.182985,2451.505594
21013.470686,3478.967927,-7550.100608,5439.278036
21013.471019,2886.803174,-3552.988522,4826.401637
21013.471352,2664.741391,-6587.832884,6358.592633
21013.471686,2886.803174,-9474.636058,2374.896044
21013.472019,1184.329507,-7179.997637,3064.381992
21013.472352,4145.153275,-9992.780217,1915.238745
21013.472685,1110.308913,-9844.739029,-2298.286494
21013.473018,-1850.514855,-11843.295072,-2757.943793
21013.473352,-4293.194464,-13027.624579,-3753.867940
21013.473685,-3701.029710,-11547.212695,-4903.011187
21013.474018,-4737.318029,-10732.986159,-4290.134789
21013.474351,592.164754,-9400.615463,2374.896044
21013.474684,4071.132681,-5255.462188,3600.648841
21013.475018,2146.597232,-2590.720797,3064.381992
21013.475351,4367.215058,-8882.471304,7277.907231
21013.475684,592.164754,-7179.997637,3677.258390
21013.476017,2960.823768,-7994.224174,2145.067394
21013.476350,1850.514855,-11399.171507,689.485948
21013.476683,0.000000,-11473.192101,-1225.752797
21013.477017,-148.041188,-11103.089130,-612.876398
21013.477350,-2442.679609,-15396.283594,-1302.362347
21013.477683,-4515.256246,-8956.491898,-4903.011187
21013.478016,-3997.112087,-11029.068536,-2451.505594
21013.478349,1110.308913,-10658.965565,-76.609550
21013.478683,592.164754,-5403.503377,3064.381992
21013.479016,4071.132681,-3552.988522,2911.162892
21013.479349,2442.679609,-7920.203579,4826.401637
21013.479682,370.102971,-6217.729913,1915.238745
21013.480015,-1184.329507,-8068.244768,0.000000
21013.480349,-148.041188,-11547.212695,-1685.410096
21013.480682,1110.308913,-10807.006753,-2221.676944
21013.481015,-1406.391290,-12953.603985,-1225.752797
21013.481348,1110.308913,-9178.553681,-1302.362347
21013.481681,-3849.070898,-9548.656652,0.000000
21013.482015,0.000000,-10288.862594,842.705048
21013.482348,-74.020594,-11251.130318,1762.019645
21013.482681,296.082377,-5995.668130,1225.752797
21013.483014,4663.297435,-7105.977043,2068.457845
21013.483347,2664.741391,-6957.935855,2221.676944
21013.483680,4219.173869,-7031.956449,3064.381992
21013.484014,0.000000,-8438.347739,1455.581446
21013.484347,-2368.659014,-8364.327145,-3677.258390
21013.484680,-2442.679609,-10955.047942,-4903.011187
21013.485013,-74.020594,-13619.789333,-3140.991542
21013.485346,-1110.308913,-9548.656652,-2451.505594
21013.485680,-3256.906145,-9548.656652,612.876398
21013.486013,0.000000,-8808.450710,76.609550
21013.486346,0.000000,-9104.533087,3677.258390
21013.486679,3034.844362,-6143.709319,2911.162892
21013.487012,3330.926739,-8956.491898,2451.505594
21013.487346,5477.523971,-9474.636058,3294.210641
21013.487679,4367.215058,-7772.162391,306.438199
21013.488012,4663.297435,-13915.871710,4826.401637
21013.488345,-1406.391290,-6291.750507,0.000000
21013.488678,-2590.720797,-10658.965565,-2068.457845
21013.489012,-2664.741391,-11843.295072,-3064.381992
21013.489345,-1702.473667,-10658.965565,-2068.457845
21013.489678,-1850.514855,-8216.285956,-766.095498
21013.490011,-1036.288319,-8068.244768,1915.238745
21013.490344,222.061783,-7698.141797,3600.648841
21013.490677,0.000000,-6587.832884,4290.134789
21013.491011,1406.391290,-5773.606348,-1378.971896
21013.491344,0.000000,-9548.656652,2451.505594
21013.491677,4663.297435,-8882.471304,-76.609550
21013.492010,2294.638420,-8438.347739,-1991.848295
21013.492343,1628.453072,-11399.171507,-1455.581446
21013.492677,-2738.761985,-11843.295072,-2757.943793
21013.493010,-3701.029710,-9992.780217,-4290.134789
21013.493343,0.000000,-9918.759623,-1302.362347
21013.493676,1702.473667,-11843.295072,2374.896044
21013.494009,1776.494261,-7179.997637,4826.401637
21013.494343,2294.638420,-7105.977043,3294.210641
21013.494676,296.082377,-7772.162391,4903.011187
21013.495009,-370.102971,-4811.338623,0.000000
21013.495342,0.000000,-7179.997637,2451.505594
21013.495675,592.164754,-8808.450710,306.438199
21013.496008,-888.247130,-9696.697840,-2451.505594
21013.496342,-74.020594,-10362.883188,-4213.525239
21013.496675,-666.185348,-9770.718434,-4213.525239
21013.497008,-2960.823768,-11029.068536,-2604.724693
21013.497341,-2664.741391,-9548.656652,-2374.896044
21013.497674,-1850.514855,-10510.924376,-1149.143247
21013.498008,2220.617826,-9918.759623,3294.210641
21013.498341,4663.297435,-5477.523971,3983.696590
21013.498674,4145.153275,-4811.338623,3677.258390
21013.499007,4663.297435,-9474.636058,4826.401637
21013.499340,0.000000,-8364.327145,612.876398
21013.499674,888.247130,-9326.594869,-689.485948
21013.500007,-888.247130,-11325.150913,-1149.143247
21013.500340,-1258.350101,-10955.047942,-3294.210641
21013.500673,-2220.617826,-10066.800811,-4443.353888
21013.501006,-1776.494261,-10066.800811,-919.314598
21013.501340,-2442.679609,-11103.089130,-76.609550
21013.501673,-1850.514855,-6217.729913,-2145.067394
21013.502006,-888.247130,-7179.997637,0.000000
21013.502339,2960.823768,-7476.080014,5898.935335
21013.502672,5329.482782,-5699.585753,4903.011187
21013.503005,5403.503377,-8068.244768,4903.011187
21013.503339,2516.700203,-10584.944971,2068.457845
21013.503672,-592.164754,-10510.924376,-995.924147
21013.504005,-74.020594,-11843.295072,-3447.429741
21013.504338,-1776.494261,-13323.706956,-4366.744339
21013.504671,-3552.988522,-8364.327145,-4903.011187
21013.505005,-888.247130,-11325.150913,-766.095498
21013.505338,3478.967927,-9992.780217,4213.525239
21013.505671,-962.267725,-7105.977043,1762.019645
21013.506004,-666.185348,-6809.894666,1608.800546
21013.506337,1110.308913,-6439.791695,2834.553343
21013.506671,3997.112087,-7846.182985,4596.572988
21013.507004,3552.988522,-6587.832884,4903.011187
21013.507337,3182.885551,-9474.636058,1762.019645
21013.507670,888.247130,-11177.109724,2374.896044
21013.508003,-222.061783,-12435.459826,-2528.115143
21013.508336,-1998.556043,-11177.109724,-4903.011187
21013.508670,-2960.823768,-11917.315666,-3064.381992
21013.509003,-2368.659014,-11843.295072,-2528.115143
21013.509336,-592.164754,-8586.388927,-1225.752797
21013.509669,-1184.329507,-7476.080014,919.314598
21013.510002,222.061783,-5921.647536,2681.334243
21013.510336,0.000000,-4811.338623,6128.763984
21013.510669,3478.967927,-6513.812290,2374.896044
21013.511002,2960.823768,-4811.338623,612.876398
21013.511335,3552.988522,-11251.130318,4826.401637
21013.511668,5329.482782,-8882.471304,1915.238745
21013.512002,1332.370696,-12361.439231,-229.828649
21013.512335,-1554.432478,-13027.624579,-4673.182538
21013.512668,-2442.679609,-12435.459826,-6358.592633
21013.513001,-3923.091493,-14211.954086,-6205.373534
21013.513334,0.000000,-10140.821405,-1991.848295
21013.513668,-370.102971,-8734.430116,-306.438199
21013.514001,1480.411884,-7772.162391,3447.429741
21013.514334,1480.411884,-5847.626942,6971.469032
21013.514667,3478.967927,-4737.318029,4826.401637
21013.515000,2368.659014,-5107.421000,5822.325785
21013.515333,4663.297435,-11843.295072,4826.401637
21013.515667,1184.329507,-7179.997637,3677.258390
21013.516000,2294.638420,-11103.089130,1149.143247
21013.516333,1036.288319,-11843.295072,-3140.991542
21013.516666,-5625.565159,-13693.809927,-5745.716235
21013.516999,-5477.523971,-11473.192101,-8120.612279
21013.517333,-3923.091493,-13101.645173,-6511.811733
21013.517666,-3034.844362,-9844.739029,-3294.210641
21013.517999,0.000000,-5403.503377,2451.505594
21013.518332,2886.803174,-6809.894666,6971.469032
21013.518665,4663.297435,-4737.318029,6052.154434
21013.518999,0.000000,-4811.338623,6128.763984
21013.519332,5847.626942,-5921.647536,3140.991542
21013.519665,4737.318029,-9474.636058,4979.620737
21013.519998,3552.988522,-9400.615463,1991.848295
21013.520331,518.144159,-11177.109724,-2145.067394
21013.520664,-3552.988522,-11325.150913,-6128.763984
21013.520998,-8290.306550,-12213.398043,-4903.011187
21013.521331,-3775.050304,-12731.542202,-7431.126331
21013.521664,-3923.091493,-13027.624579,-4979.620737
21013.521997,-4737.318029,-10732.986159,-1838.629195
21013.522330,296.082377,-4811.338623,3677.258390
21013.522664,4367.215058,-4071.132681,8503.660028
21013.522997,4811.338623,-5107.421000,9422.974625
21013.523330,2368.659014,-5477.523971,6971.469032
21013.523663,3923.091493,-6809.894666,4519.963438
21013.523996,2960.823768,-9326.594869,3600.648841
21013.524330,1702.473667,-8364.327145,-2451.505594
21013.524663,1184.329507,-12583.501014,-1915.238745
21013.524996,-1258.350101,-15988.448347,-5286.058936
21013.525329,-4737.318029,-14285.974681,-5822.325785
21013.525662,-4441.235652,-13323.706956,-6894.859482
21013.525996,-1258.350101,-12805.562797,-3064.381992
21013.526329,962.267725,-8512.368333,1225.752797
21013.526662,1406.391290,-5625.565159,3753.867940
21013.526995,4663.297435,-5329.482782,6052.154434
21013.527328,2368.659014,-4811.338623,7354.516781
21013.527661,1184.329507,-7105.977043,7277.907231
21013.527995,814.226536,-4071.132681,2451.505594
21013.528328,1776.494261,-7772.162391,2528.115143
21013.528661,1406.391290,-9030.512492,-689.485948
21013.528994,-222.061783,-10140.821405,-3830.477490
21013.529327,-2146.597232,-13915.871710,-5209.449386
21013.529661,-4737.318029,-11843.295072,-7048.078582
21013.529994,-2146.597232,-13175.665768,-5669.106685
21013.530327,-1258.350101,-14434.015869,-1225.752797
21013.530660,666.185348,-8438.347739,536.266849
21013.530993,888.247130,-7772.162391,3370.820191
21013.531327,6735.874072,-6513.812290,9116.536426
21013.531660,4737.318029,-7179.997637,14632.424012
21013.531993,1110.308913,-1628.453072,5209.449386
21013.532326,-1036.288319,-7550.100608,1225.752797
21013.532659,-2664.741391,-10436.903782,-1685.410096
21013.532993,-1702.473667,-8956.491898,-3983.696590
21013.533326,-888.247130,-9918.759623,-2528.115143
21013.533659,-2738.761985,-10881.027347,-4903.011187
21013.533992,-3034.844362,-12509.480420,-4903.011187
21013.534325,-1776.494261,-10732.986159,-3294.210641
21013.534658,3478.967927,-11843.295072,-76.609550
21013.534992,4071.132681,-13027.624579,1149.143247
21013.535325,2368.659014,-7179.997637,4903.011187
21013.535658,6439.791695,-11251.130318,8503.660028
21013.535991,1924.535449,-5403.503377,5209.449386
21013.536324,1184.329507,-6291.750507,3370.820191
21013.536658,814.226536,-6809.894666,1302.362347
21013.536991,2960.823768,-7254.018232,1225.752797
21013.537324,-148.041188,-10066.800811,1225.752797
21013.537657,1702.473667,-6513.812290,-5286.058936
21013.537990,-1776.494261,-10881.027347,-4903.011187
21013.538324,1184.329507,-13915.871710,-689.485948
21013.538657,1406.391290,-9770.718434,-3447.429741
21013.538990,1702.473667,-11991.336260,-3983.696590
21013.539323,4515.256246,-11103.089130,536.266849
21013.539656,2072.576638,-9030.512492,2528.115143
21013.539989,4737.318029,-8290.306550,3447.429741
21013.540323,1184.329507,-7402.059420,1915.238745
21013.540656,-4737.318029,-7179.997637,2451.505594
21013.540989,1702.473667,-8290.306550,536.266849
21013.541322,-1776.494261,-5995.668130,0.000000
21013.541655,0.000000,-5995.668130,3064.381992
21013.541988,3182.885551,-8586.388927,3370.820191
21013.542321,4663.297435,-10658.965565,2987.772442
21013.542655,-1702.473667,-10510.924376,-229.828649
21013.542988,-2886.803174,-10881.027347,-3064.381992
21013.543321,-1406.391290,-11843.295072,-3140.991542
21013.543654,-2886.803174,-13619.789333,-2451.505594
21013.543987,-444.123565,-9030.512492,-2068.457845
21013.544320,-3330.926739,-10362.883188,-995.924147
21013.544654,-3552.988522,-8660.409521,919.314598
21013.544987,-3034.844362,-7994.224174,-76.609550
21013.545320,-4441.235652,-5995.668130,2451.505594
21013.545653,2072.576638,-7105.977043,7277.907231
21013.545986,3478.967927,-5329.482782,4903.011187
21013.546319,1776.494261,-6291.750507,4903.011187
21013.546652,2886.803174,-7698.141797,2681.334243
21013.546986,-148.041188,-12435.459826,-383.047749
21013.547319,444.123565,-10955.047942,-3677.258390
21013.547652,-74.020594,-14211.954086,-3753.867940
21013.547985,-2812.782580,-17468.860231,-3753.867940
21013.548318,-2960.823768,-8364.327145,-6128.763984
21013.548651,-2812.782580,-13101.645173,0.000000
21013.548984,-592.164754,-10066.800811,3600.648841
21013.549318,-1258.350101,-6513.812290,3907.087040
21013.549651,-2442.679609,-5921.647536,2528.115143
21013.549984,3034.844362,-3775.050304,6358.592633
21013.550317,4959.379811,-4367.215058,8733.488677
21013.550650,7254.018232,-1998.556043,6894.859482
21013.550983,5255.462188,-9474.636058,2987.772442
21013.551317,0.000000,-10140.821405,-1532.190996
21013.551650,-1850.514855,-16284.530724,-6818.249932
21013.551983,-1628.453072,-12731.542202,-9729.412825
21013.552316,-2516.700203,-15618.345376,-8350.440928
21013.552649,-518.144159,-11917.315666,-5515.887586
21013.552982,-1480.411884,-12361.439231,-459.657299
21013.553315,-370.102971,-7105.977043,2068.457845
21013.553649,-1184.329507,-5551.544565,5209.449386
21013.553982,1110.308913,-3404.947333,4290.134789
21013.554315,7328.038826,-4737.318029,12180.918418
21013.554648,7624.121203,-4737.318029,8503.660028
21013.554981,4737.318029,-5551.544565,6128.763984
21013.555314,2960.823768,-7772.162391,1838.629195
21013.555647,2220.617826,-11547.212695,-2298.286494
21013.555981,-1628.453072,-13767.830521,-7277.907231
21013.556314,-2442.679609,-16580.613101,-10801.946522
21013.556647,-4811.338623,-18949.272115,-9882.631924
21013.556980,-6513.812290,-13101.645173,-6741.640382
21013.557313,-74.020594,-10362.883188,-1302.362347
21013.557646,-1554.432478,-6513.812290,2528.115143
21013.557980,0.000000,-3923.091493,9193.145976
21013.558313,2368.659014,-3034.844362,9806.022374
21013.558646,6661.853478,-1554.432478,11491.432470
21013.558979,6883.915261,-2960.823768,9499.584175
21013.559312,4219.173869,-8068.244768,5745.716235
21013.559645,3182.885551,-9178.553681,1762.019645
21013.559978,-4589.276840,-12213.398043,-5515.887586
21013.560312,-4515.256246,-14804.118840,-10035.851024
21013.560645,-6513.812290,-16432.571912,-11338.213370
21013.560978,-5847.626942,-17394.839637,-8886.707777
21013.561311,-1850.514855,-12435.459826,-2528.115143
21013.561644,-4145.153275,-9104.533087,766.095498
21013.561977,0.000000,-5403.503377,8044.002729
21013.562311,3478.967927,-3552.988522,9422.974625
21013.562644,2664.741391,-962.267725,9806.022374
21013.562977,6217.729913,-3552.988522,10955.165621
21013.563310,2960.823768,-6735.874072,6588.421283
21013.563643,4663.297435,-5995.668130,2068.457845
21013.563976,888.247130,-10732.986159,-1455.581446
21013.564309,-1258.350101,-14211.954086,-8197.221829
21013.564643,-6809.894666,-15470.304188,-10725.336972
21013.564976,-2738.761985,-16284.530724,-9882.631924
21013.565309,-74.020594,-15396.283594,-6818.249932
21013.565642,-2220.617826,-10732.986159,-1838.629195
21013.565975,5255.462188,-7994.224174,2987.772442
21013.566308,1480.411884,-7624.121203,8810.098227
21013.566641,3552.988522,-1406.391290,8120.612279
21013.566975,3256.906145,-2442.679609,6971.469032
21013.567308,4737.318029,-4811.338623,6128.763984
21013.567641,1184.329507,-4811.338623,6435.202183
21013.567974,2886.803174,-9474.636058,0.000000
21013.568307,-888.247130,-8364.327145,-6052.154434
21013.568640,-5921.647536,-14878.139434,-6971.469032
21013.568974,-4515.256246,-13841.851115,-9499.584175
21013.569307,-3627.009116,-14804.118840,-7201.297681
21013.569640,-2072.576638,-12583.501014,-4366.744339
21013.569973,2072.576638,-8512.368333,-536.266849
21013.570306,3849.070898,-8808.450710,7507.735880
21013.570639,4589.276840,-5625.565159,9729.412825
21013.570972,2294.638420,-2442.679609,4903.011187
21013.571306,1480.411884,-5403.503377,6971.469032
21013.571639,2886.803174,-7698.141797,4826.401637
21013.571972,1406.391290,-5995.668130,1225.752797
21013.572305,-666.185348,-10066.800811,-76.609550
21013.572638,-2072.576638,-11399.171507,-3140.991542
21013.572971,-3330.926739,-12139.377449,-3907.087040
21013.573304,-3849.070898,-11621.233289,-4903.011187
21013.573638,-3627.009116,-13027.624579,-5898.935335
21013.573971,-2294.638420,-12065.356855,-3524.039291
21013.574304,666.185348,-8586.388927,536.266849
21013.574637,2294.638420,-6809.894666,2374.896044
21013.574970,2368.659014,-5403.503377,3064.381992
21013.575303,0.000000,-7179.997637,6052.154434
21013.575637,2294.638420,-5329.482782,2528.115143
21013.575970,1480.411884,-7772.162391,1991.848295
21013.576303,1850.514855,-8734.430116,2987.772442
21013.576636,-222.061783,-9474.636058,306.438199
21013.576969,-148.041188,-9992.780217,-1302.362347
21013.577302,-2146.597232,-11029.068536,-3140.991542
21013.577635,-3256.906145,-11991.336260,-2911.162892
21013.577969,-74.020594,-11251.130318,-689.485948
21013.578302,-1184.329507,-11917.315666,1762.019645
21013.578635,2886.803174,-7550.100608,-1302.362347
21013.578968,1184.329507,-7179.997637,1225.752797
21013.579301,3849.070898,-7179.997637,4290.134789
21013.579634,0.000000,-7920.203579,2451.505594
21013.579968,-2812.782580,-10362.883188,-153.219100
21013.580301,0.000000,-7772.162391,612.876398
21013.580634,1332.370696,-9030.512492,3600.648841
21013.580967,3108.864956,-4219.173869,1762.019645
21013.581300,1702.473667,-8290.306550,536.266849
21013.581633,-1998.556043,-7179.997637,-4596.572988
21013.581966,0.000000,-12287.418637,1149.143247
21013.582300,3182.885551,-12879.583391,-76.609550
21013.582633,1184.329507,-9548.656652,0.000000
21013.582966,1036.288319,-9770.718434,-1225.752797
21013.583299,3627.009116,-9474.636058,76.609550
21013.583632,3404.947333,-9474.636058,2911.162892
21013.583965,1184.329507,-7179.997637,0.000000
21013.584298,-74.020594,-8882.471304,-2987.772442
21013.584632,-1776.494261,-9844.739029,0.000000
21013.584965,1258.350101,-10658.965565,2374.896044
21013.585298,518.144159,-5921.647536,0.000000
21013.585631,0.000000,-8290.306550,1455.581446
21013.585964,-888.247130,-7476.080014,919.314598
21013.586297,-296.082377,-8956.491898,1915.238745
21013.586631,1258.350101,-7624.121203,383.047749
21013.586964,1554.432478,-13027.624579,-76.609550
21013.587297,1110.308913,-8364.327145,-3677.258390
21013.587630,2368.659014,-10658.965565,-76.609550
21013.587963,222.061783,-10658.965565,-1608.800546
21013.588296,-3108.864956,-7254.018232,-3447.429741
21013.588629,-4737.318029,-11103.089130,-2834.553343
21013.588963,-740.205942,-8290.306550,-536.266849
21013.589296,1406.391290,-9252.574275,3294.210641
21013.589629,740.205942,-7179.997637,4903.011187
21013.589962,5107.421000,-6735.874072,7277.907231
21013.590295,592.164754,-8364.327145,4290.134789
21013.590628,1850.514855,-8216.285956,2987.772442
21013.590961,1258.350101,-9104.533087,-76.609550
21013.591295,0.000000,-10732.986159,-3677.258390
21013.591628,592.164754,-10658.965565,-766.095498
21013.591961,-74.020594,-12139.377449,-4519.963438
21013.592294,-74.020594,-8956.491898,-3677.258390
21013.592627,-4737.318029,-12065.356855,-1378.971896
21013.592960,-2442.679609,-9178.553681,-1608.800546
21013.593294,-1184.329507,-7179.997637,1072.533697
21013.593627,1110.308913,-7105.977043,3983.696590
21013.593960,3775.050304,-5033.400406,6358.592633
21013.594293,2368.659014,-5403.503377,7660.954980
21013.594626,2072.576638,-7179.997637,6358.592633
21013.594959,518.144159,-7328.038826,0.000000
21013.595292,1184.329507,-11251.130318,-153.219100
21013.595626,-962.267725,-14211.954086,-4213.525239
21013.595959,-2960.823768,-10288.862594,-8273.831378
21013.596292,-2738.761985,-12879.583391,-5592.497135
21013.596625,-962.267725,-10214.842000,-2528.115143
21013.596958,-2960.823768,-10288.862594,-612.876398
21013.597291,-1258.350101,-8290.306550,-76.609550
21013.597625,0.000000,-7179.997637,4673.182538
21013.597958,2294.638420,-4811.338623,6128.763984
21013.598291,7698.141797,-5329.482782,9116.536426
21013.598624,4663.297435,-8290.306550,4826.401637
21013.598957,4663.297435,-9474.636058,4519.963438
21013.599290,962.267725,-11251.130318,0.000000
21013.599623,-74.020594,-10362.883188,-3677.258390
21013.599957,-1776.494261,-13249.686362,-5209.449386
21013.600290,-4737.318029,-10881.027347,-7814.174080
21013.600623,-74.020594,-11843.295072,-3140.991542
21013.600956,-2368.659014,-9548.656652,-1838.629195
21013.601289,-1776.494261,-6291.750507,2374.896044
21013.601622,-2738.761985,-5699.585753,0.000000
21013.601955,740.205942,-5255.462188,4060.306139
21013.602289,4737.318029,-4811.338623,7048.078582
21013.602622,5773.606348,-5773.606348,7354.516781
21013.602955,4885.359217,-7328.038826,4903.011187
21013.603288,1184.329507,-10140.821405,1838.629195
21013.603621,1110.308913,-10658.965565,-4213.525239
21013.603954,-1036.288319,-13397.727550,-3140.991542
21013.604288,-1258.350101,-15396.283594,-5286.058936
21013.604621,-4515.256246,-11325.150913,-7354.516781
21013.604954,-2368.659014,-9548.656652,-3677.258390
21013.605287,-1258.350101,-9326.594869,0.000000
21013.605620,-592.164754,-6587.832884,3064.381992
21013.605953,0.000000,-5699.585753,3983.696590
21013.606286,1776.494261,-4811.338623,5515.887586
21013.606620,4071.132681,-5995.668130,4596.572988
21013.606953,2368.659014,-7698.141797,4443.353888
21013.607286,1776.494261,-7179.997637,1532.190996
21013.607619,-3256.906145,-12287.418637,-1838.629195
21013.607952,-4145.153275,-9844.739029,-4290.134789
21013.608285,-3627.009116,-12657.521608,-6971.469032
21013.608618,-4145.153275,-11325.150913,-4290.134789
21013.608952,-1850.514855,-14211.954086,-2528.115143
21013.609285,-666.185348,-8882.471304,-1608.800546
21013.609618,-1776.494261,-7476.080014,2451.505594
21013.609951,1110.308913,-7698.141797,4519.963438
21013.610284,1480.411884,-5181.441594,5975.544884
21013.610617,2590.720797,-5477.523971,5132.839837
21013.610951,6365.771101,-8734.430116,7890.783629
21013.611284,4367.215058,-7105.977043,2987.772442
21013.611617,4293.194464,-9474.636058,6588.421283
21013.611950,-74.020594,-11251.130318,-2681.334243
21013.612283,-4219.173869,-13101.645173,-7660.954980
21013.612616,-5625.565159,-13767.830521,-5669.106685
21013.612949,-3997.112087,-11843.295072,-4903.011187
21013.613283,-888.247130,-7550.100608,-2451.505594
21013.613616,-518.144159,-8808.450710,842.705048
21013.613949,4071.132681,-7105.977043,4213.525239
21013.614282,2294.638420,-5255.462188,3064.381992
21013.614615,2368.659014,-6365.771101,6052.154434
21013.614948,4663.297435,-7105.977043,4213.525239
21013.615282,3701.029710,-7476.080014,4903.011187
21013.615615,7624.121203,-7994.224174,3600.648841
21013.615948,1702.473667,-10362.883188,383.047749
21013.616281,0.000000,-10436.903782,-4903.011187
21013.616614,-4219.173869,-13619.789333,-7277.907231
21013.616947,-5773.606348,-12065.356855,-8656.879127
21013.617280,-4737.318029,-11917.315666,-7354.516781
21013.617614,-74.020594,-11843.295072,-4366.744339
21013.617947,3034.844362,-6883.915261,1225.752797
21013.618280,4145.153275,-4811.338623,9806.022374
21013.618613,8216.285956,-5921.647536,7584.345430
21013.618946,2960.823768,-7105.977043,6435.202183
21013.619279,5403.503377,-6217.729913,3370.820191
21013.619612,4293.194464,-11547.212695,3600.648841
21013.619946,2664.741391,-8068.244768,0.000000
21013.620279,1184.329507,-10881.027347,-2145.067394
21013.620612,-2368.659014,-13249.686362,-4290.134789
21013.620945,-2442.679609,-11695.253884,-5669.106685
21013.621278,-3034.844362,-12731.542202,-3140.991542
21013.621611,-74.020594,-13027.624579,-2528.115143
21013.621945,-1258.350101,-7772.162391,0.000000
21013.622278,1776.494261,-6143.709319,4903.011187
21013.622611,4663.297435,-6513.812290,6052.154434
21013.622944,592.164754,-5995.668130,6435.202183
21013.623277,962.267725,-5773.606348,4060.306139
21013.623610,-1184.329507,-7328.038826,1838.629195
21013.623943,0.000000,-9400.615463,-919.314598
21013.624277,-2146.597232,-10362.883188,-3140.991542
21013.624610,-4737.318029,-11029.068536,-2911.162892
21013.624943,-4071.132681,-9548.656652,-4290.134789
21013.625276,-4145.153275,-11843.295072,-2528.115143
21013.625609,-74.020594,-11843.295072,-2528.115143
21013.625942,-74.020594,-10362.883188,-76.609550
21013.626275,-222.061783,-10658.965565,536.266849
21013.626609,3108.864956,-5921.647536,3294.210641
21013.626942,222.061783,-9474.636058,6665.030833
21013.627275,1702.473667,-5255.462188,4826.401637
21013.627608,-666.185348,-8290.306550,3600.648841
21013.627941,-3552.988522,-8364.327145,0.000000
21013.628274,2886.803174,-9474.636058,-2221.676944
21013.628608,-3478.967927,-10140.821405,-1838.629195
21013.628941,0.000000,-7772.162391,-1838.629195
21013.629274,-3923.091493,-11769.274478,-3753.867940
21013.629607,-1998.556043,-12139.377449,-3447.429741
21013.629940,-1406.391290,-10658.965565,-2221.676944
21013.630273,444.123565,-9548.656652,306.438199
21013.630606,2886.803174,-7698.141797,536.266849
21013.630940,4441.235652,-9474.636058,4826.401637
21013.631273,4663.297435,-8882.471304,4213.525239
21013.631606,0.000000,-6291.750507,4903.011187
21013.631939,592.164754,-7698.141797,1532.190996
21013.632272,-1110.308913,-8438.347739,0.000000
21013.632605,2368.659014,-8660.409521,1685.410096
21013.632938,1850.514855,-8660.409521,919.314598
21013.633272,-296.082377,-9104.533087,-766.095498
21013.633605,0.000000,-8364.327145,-3677.258390
21013.633938,-74.020594,-14211.954086,-689.485948
21013.634271,0.000000,-7920.203579,-3600.648841
21013.634604,0.000000,-10140.821405,0.000000
21013.634937,4663.297435,-12435.459826,1762.019645
21013.635271,2664.741391,-7772.162391,2451.505594
21013.635604,4145.153275,-7846.182985,2451.505594
21013.635937,1110.308913,-7698.141797,459.657299
21013.636270,-1998.556043,-10362.883188,-1608.800546
21013.636603,-3256.906145,-8956.491898,-1838.629195
21013.636936,148.041188,-8364.327145,842.705048
21013.637269,1480.411884,-9104.533087,2911.162892
21013.637603,2664.741391,-6439.791695,3294.210641
21013.637936,4663.297435,-9474.636058,3600.648841
21013.638269,0.000000,-8364.327145,0.000000
21013.638602,-222.061783,-11843.295072,-689.485948
21013.638935,-74.020594,-12435.459826,-4519.963438
21013.639268,-3849.070898,-12805.562797,-1991.848295
21013.639601,1332.370696,-9548.656652,-76.609550
21013.639935,-1110.308913,-9326.594869,306.438199
21013.640268,-2146.597232,-9326.594869,76.609550
21013.640601,-3182.885551,-8364.327145,0.000000
21013.640934,-3627.009116,-7105.977043,229.828649
21013.641267,1110.308913,-3034.844362,1838.629195
21013.641600,3849.070898,-8586.388927,9116.536426
21013.641933,5255.462188,-4737.318029,5439.278036
21013.642266,2368.659014,-6291.750507,5822.325785
21013.642599,2294.638420,-10658.965565,-76.609550
21013.642933,740.205942,-12435.459826,-3140.991542
21013.643266,-3627.009116,-12287.418637,-7201.297681
21013.643599,-1110.308913,-12435.459826,-7277.907231
21013.643932,-4737.318029,-11325.150913,-7354.516781
21013.644265,-74.020594,-10362.883188,-3753.867940
21013.644598,0.000000,-11325.150913,4826.401637
21013.644931,1110.308913,-7698.141797,2068.457845
21013.645264,1776.494261,-4811.338623,3677.258390
21013.645597,3256.906145,-6883.915261,6741.640382
21013.645931,7402.059420,-5107.421000,9729.412825
21013.646264,5847.626942,-5995.668130,6588.421283
21013.646597,5033.400406,-9770.718434,1762.019645
21013.646930,3256.906145,-12731.542202,-76.609550
21013.647263,-2442.679609,-11029.068536,-7354.516781
21013.647596,-666.185348,-15396.283594,-7431.126331
21013.647929,-3627.009116,-16580.613101,-9269.755526
21013.648262,-4737.318029,-11917.315666,-6128.763984
21013.648595,-1480.411884,-10658.965565,1072.533697
21013.648928,-296.082377,-8290.306550,3907.087040
21013.649262,-2220.617826,-4515.256246,5745.716235
21013.649595,518.144159,-3997.112087,6358.592633
21013.649928,3182.885551,-3552.988522,7737.564530
21013.650261,2368.659014,-4811.338623,10725.336972
21013.650594,4663.297435,-6513.812290,1685.410096
21013.650927,888.247130,-8364.327145,-2298.286494
21013.651260,-1776.494261,-13101.645173,-2834.553343
21013.651593,-666.185348,-15100.201217,-5439.278036
21013.651926,-3256.906145,-15988.448347,-7431.126331
21013.652260,-3627.009116,-15396.283594,-6971.469032
21013.652593,-2368.659014,-11251.130318,-3370.820191
21013.652926,814.226536,-9474.636058,842.705048
21013.653259,0.000000,-6883.915261,7048.078582
21013.653592,222.061783,-5107.421000,7354.516781
21013.653925,1110.308913,-3701.029710,8963.317327
21013.654258,4293.194464,-2738.761985,8044.002729
21013.654591,4663.297435,-7105.977043,6052.154434
21013.654924,1480.411884,-7179.997637,3600.648841
21013.655258,1998.556043,-11843.295072,-76.609550
21013.655591,-1998.556043,-9548.656652,-6741.640382
21013.655924,-4737.318029,-14878.139434,-7507.735880
21013.656257,-2886.803174,-15988.448347,-8656.879127
21013.656590,-4737.318029,-14285.974681,-7814.174080
21013.656923,-2146.597232,-11843.295072,-3907.087040
21013.657256,518.144159,-9326.594869,1302.362347
21013.657589,962.267725,-4811.338623,4903.011187
21013.657922,1184.329507,-4367.215058,9193.145976
21013.658256,4663.297435,-1332.370696,5822.325785
21013.658589,3552.988522,-4811.338623,8580.269578
21013.658922,7476.080014,-7698.141797,7890.783629
21013.659255,5847.626942,-8290.306550,2681.334243
21013.659588,2516.700203,-10658.965565,-383.047749
21013.659921,-1332.370696,-12287.418637,-6665.030833
21013.660254,-4441.235652,-15544.324782,-9193.145976
21013.660587,-5181.441594,-14285.974681,-9193.145976
21013.660920,-4737.318029,-14285.974681,-3907.087040
21013.661253,-666.185348,-10362.883188,-4290.134789
21013.661587,0.000000,-6587.832884,1225.752797
21013.661920,4145.153275,-5329.482782,9422.974625
21013.662253,1480.411884,-1554.432478,7660.954980
21013.662586,4071.132681,-3552.988522,6205.373534
21013.662919,3627.009116,-7179.997637,6128.763984
21013.663252,3923.091493,-8068.244768,4979.620737
21013.663585,5255.462188,-9178.553681,2834.553343
21013.663918,740.205942,-11473.192101,-383.047749
21013.664251,-74.020594,-13027.624579,-7431.126331
21013.664585,-4737.318029,-13397.727550,-6128.763984
21013.664918,-2368.659014,-13693.809927,-6741.640382
21013.665251,-3256.906145,-14656.077652,-3447.429741
21013.665584,-1258.350101,-9696.697840,-842.705048
21013.665917,1776.494261,-7179.997637,4136.915689
21013.666250,3256.906145,-4589.276840,7890.783629
21013.666583,1998.556043,-2960.823768,4673.182538
21013.666916,2294.638420,-7105.977043,5132.839837
21013.667249,1776.494261,-5995.668130,7354.516781
21013.667583,4071.132681,-9474.636058,4826.401637
21013.667916,-1184.329507,-8364.327145,306.438199
21013.668249,-1184.329507,-9844.739029,-689.485948
21013.668582,-6291.750507,-12805.562797,-5822.325785
21013.668915,-4441.235652,-10658.965565,-6358.592633
21013.669248,-6587.832884,-14285.974681,-5515.887586
21013.669581,-3997.112087,-9918.759623,-4366.744339
21013.669914,-666.185348,-8290.306550,-689.485948
21013.670247,1406.391290,-8216.285956,3370.820191
21013.670581,3256.906145,-6513.812290,5822.325785
21013.670914,1258.350101,-6513.812290,5362.668486
21013.671247,1110.308913,-8290.306550,3600.648841
21013.671580,4071.132681,-10362.883188,4826.401637
21013.671913,1998.556043,-8068.244768,612.876398
21013.672246,1850.514855,-10658.965565,2374.896044
21013.672579,592.164754,-8956.491898,0.000000
21013.672912,-2960.823768,-10140.821405,-3677.258390
21013.673245,-2516.700203,-11695.253884,-3447.429741
21013.673578,-1998.556043,-11843.295072,-2911.162892
21013.673912,-444.123565,-11103.089130,-1762.019645
21013.674245,0.000000,-7179.997637,-1532.190996
21013.674578,4071.132681,-7105.977043,1762.019645
21013.674911,3478.967927,-8290.306550,3294.210641
21013.675244,0.000000,-5995.668130,3983.696590
21013.675577,2294.638420,-9178.553681,1762.019645
21013.675910,296.082377,-7772.162391,919.314598
21013.676243,1924.535449,-8808.450710,1149.143247
21013.676576,3478.967927,-7846.182985,766.095498
21013.676910,2368.659014,-9474.636058,1149.143247
21013.677243,888.247130,-10807.006753,-153.219100
21013.677576,2294.638420,-10955.047942,-3217.601092
21013.677909,1184.329507,-10140.821405,-1685.410096
21013.678242,2368.659014,-10732.986159,919.314598
21013.678575,3478.967927,-10658.965565,1149.143247
21013.678908,4589.276840,-7994.224174,2681.334243
21013.679241,4145.153275,-7031.956449,3294.210641
21013.679574,1258.350101,-7772.162391,1455.581446
21013.679908,-1184.329507,-8734.430116,-1378.971896
21013.680241,-74.020594,-11251.130318,-76.609550
21013.680574,-74.020594,-5551.544565,-2451.505594
21013.680907,0.000000,-10658.965565,2374.896044
21013.681240,-962.267725,-7105.977043,-383.047749
21013.681573,-2368.659014,-7179.997637,0.000000
21013.681906,-74.020594,-11251.130318,-76.609550
21013.682239,-592.164754,-9770.718434,536.266849
21013.682572,-592.164754,-10732.986159,-459.657299
21013.682906,740.205942,-9548.656652,-459.657299
21013.683239,1702.473667,-11473.192101,2068.457845
21013.683572,296.082377,-7846.182985,0.000000
21013.683905,-3627.009116,-9252.574275,-1532.190996
21013.684238,-4885.359217,-10436.903782,-2068.457845
21013.684571,-4737.318029,-7476.080014,0.000000
21013.684904,-1184.329507,-11251.130318,4213.525239
21013.685237,518.144159,-6439.791695,3064.381992
21013.685570,0.000000,-4811.338623,4903.011187
21013.685903,2294.638420,-8586.388927,4826.401637
21013.686237,-666.185348,-6809.894666,995.924147
21013.686570,-1628.453072,-10732.986159,-383.047749
21013.686903,-962.267725,-11103.089130,-3140.991542
21013.687236,-1406.391290,-10362.883188,-3677.258390
21013.687569,1776.494261,-10584.944971,-1072.533697
21013.687902,-592.164754,-11473.192101,1762.019645
21013.688235,-2442.679609,-9030.512492,-3524.039291
21013.688568,-2960.823768,-9252.574275,-1838.629195
21013.688901,-370.102971,-10362.883188,-76.609550
21013.689235,888.247130,-8068.244768,2451.505594
21013.689568,4367.215058,-6661.853478,7201.297681
21013.689901,5329.482782,-5033.400406,7660.954980
21013.690234,3404.947333,-6587.832884,3830.477490
21013.690567,2886.803174,-10658.965565,-76.609550
21013.690900,2368.659014,-10955.047942,-76.609550
21013.691233,518.144159,-10436.903782,-4903.011187
21013.691566,0.000000,-11917.315666,-4136.915689
21013.691899,-1776.494261,-10732.986159,-4443.353888
21013.692233,2294.638420,-11251.130318,-2681.334243
21013.692566,-592.164754,-8364.327145,-842.705048
21013.692899,-1110.308913,-7920.203579,-612.876398
21013.693232,74.020594,-7698.141797,1149.143247
21013.693565,1776.494261,-6587.832884,5209.449386
21013.693898,7624.121203,-7105.977043,6511.811733
21013.694231,4737.318029,-5403.503377,5515.887586
21013.694564,4219.173869,-11843.295072,3600.648841
21013.694897,1110.308913,-8660.409521,0.000000
21013.695231,0.000000,-9844.739029,-536.266849
21013.695564,592.164754,-11251.130318,-3370.820191
21013.695897,-2516.700203,-11325.150913,-5898.935335
21013.696230,-2072.576638,-10658.965565,-5975.544884
21013.696563,-1184.329507,-10140.821405,-919.314598
21013.696896,-3034.844362,-7179.997637,-3370.820191
21013.697229,-2368.659014,-9474.636058,-76.609550
21013.697562,-666.185348,-9474.636058,2374.896044
21013.697895,2368.659014,-4811.338623,7354.516781
21013.698228,3849.070898,-4219.173869,7660.954980
21013.698562,3997.112087,-6883.915261,6128.763984
21013.698895,1850.514855,-8734.430116,3447.429741
21013.699228,-962.267725,-10510.924376,-612.876398
21013.699561,-74.020594,-13471.748144,-1378.971896
21013.699894,-2146.597232,-10510.924376,-6741.640382
21013.700227,-4219.173869,-13101.645173,-6128.763984
21013.700560,-2368.659014,-8882.471304,-3524.039291
21013.700893,-2516.700203,-9696.697840,-229.828649
21013.701226,-3552.988522,-8512.368333,2451.505594
21013.701560,-1850.514855,-5477.523971,1532.190996
21013.701893,-4145.153275,-3627.009116,4903.011187
21013.702226,4663.297435,-5625.565159,5286.058936
21013.702559,1850.514855,-6513.812290,5745.716235
21013.702892,2960.823768,-6883.915261,4826.401637
21013.703225,-1258.350101,-9400.615463,-995.924147
21013.703558,-2664.741391,-11843.295072,-5362.668486
21013.703891,-4737.318029,-12953.603985,-6971.469032
21013.704224,-2442.679609,-14211.954086,-4979.620737
21013.704558,-1258.350101,-9548.656652,-5745.716235
21013.704891,-592.164754,-10807.006753,0.000000
21013.705224,2738.761985,-9474.636058,3600.648841
21013.705557,1110.308913,-6143.709319,3983.696590
21013.705890,3108.864956,-6735.874072,6665.030833
21013.706223,4885.359217,-4663.297435,5362.668486
21013.706556,5107.421000,-8956.491898,5669.106685
21013.706889,5329.482782,-7994.224174,5132.839837
21013.707222,2442.679609,-9178.553681,842.705048
21013.707556,-370.102971,-7179.997637,-4903.011187
21013.707889,-2442.679609,-13915.871710,-5592.497135
21013.708222,-2442.679609,-14211.954086,-7431.126331
21013.708555,-3108.864956,-11917.315666,-6128.763984
21013.708888,-1258.350101,-10658.965565,-3447.429741
21013.709221,1554.432478,-8290.306550,1608.800546
21013.709554,4293.194464,-5699.585753,6281.983084
21013.709887,5625.565159,-4145.153275,6818.249932
21013.710220,2368.659014,-4219.173869,3677.258390
21013.710553,3849.070898,-7772.162391,4903.011187
21013.710887,5847.626942,-11251.130318,1608.800546
21013.711220,3256.906145,-7772.162391,2757.943793
21013.711553,5033.400406,-10881.027347,2987.772442
21013.711886,-74.020594,-11547.212695,-5592.497135
21013.712219,-4145.153275,-14730.098246,-6128.763984
21013.712552,-3701.029710,-13989.892304,-5669.106685
21013.712885,-2220.617826,-12213.398043,-3217.601092
21013.713218,-2368.659014,-10436.903782,0.000000
21013.713551,2220.617826,-6217.729913,4673.182538
21013.713885,3627.009116,-3330.926739,7124.688131
21013.714218,3256.906145,-4737.318029,6052.154434
21013.714551,2294.638420,-7105.977043,3600.648841
21013.714884,370.102971,-9474.636058,1762.019645
21013.715217,-1776.494261,-7476.080014,1225.752797
21013.715550,1110.308913,-11843.295072,-76.609550
21013.715883,-1258.350101,-10658.965565,-3753.867940
21013.716216,-1998.556043,-12139.377449,-3983.696590
21013.716549,-4367.215058,-13915.871710,-3907.087040
21013.716883,-4589.276840,-11103.089130,-3217.601092
21013.717216,-5181.441594,-12361.439231,-1225.752797
21013.717549,-814.226536,-6883.915261,2451.505594
21013.717882,2368.659014,-6069.688724,7431.126331
21013.718215,1776.494261,-1850.514855,8580.269578
21013.718548,3256.906145,-7105.977043,6665.030833
21013.718881,1110.308913,-5625.565159,229.828649
21013.719214,-1480.411884,-9178.553681,-689.485948
21013.719547,-666.185348,-13619.789333,-3140.991542
21013.719881,-1258.350101,-11399.171507,-2681.334243
21013.720214,-3256.906145,-11251.130318,-3830.477490
21013.720547,0.000000,-10658.965565,-2298.286494
21013.720880,-2442.679609,-12435.459826,-2528.115143
21013.721213,-148.041188,-11103.089130,0.000000
21013.721546,592.164754,-10881.027347,4519.963438
21013.721879,3182.885551,-7105.977043,3140.991542
21013.722212,2960.823768,-3627.009116,5515.887586
21013.722545,3775.050304,-5699.585753,4903.011187
21013.722878,3034.844362,-6735.874072,2451.505594
21013.723212,-1406.391290,-8586.388927,-459.657299
21013.723545,-740.205942,-10881.027347,-3753.867940
21013.723878,-2294.638420,-9548.656652,-5132.839837
21013.724211,-74.020594,-13619.789333,-1915.238745
21013.724544,1998.556043,-11251.130318,-2528.115143
21013.724877,-1702.473667,-8956.491898,0.000000
21013.725210,2294.638420,-11843.295072,3217.601092
21013.725543,1850.514855,-9252.574275,2834.553343
21013.725876,2886.803174,-8364.327145,3140.991542
21013.726210,4071.132681,-8512.368333,1762.019645
21013.726543,4071.132681,-7994.224174,2221.676944
21013.726876,2368.659014,-7476.080014,3064.381992
21013.727209,4663.297435,-9474.636058,1762.019645
21013.727542,-2886.803174,-9548.656652,-2145.067394
21013.727875,-4737.318029,-8364.327145,-3370.820191
21013.728208,-74.020594,-12731.542202,-76.609550
21013.728541,-1184.329507,-9548.656652,919.314598
21013.728874,-296.082377,-6883.915261,1532.190996
21013.729208,-296.082377,-6365.771101,-459.657299
21013.729541,-666.185348,-9918.759623,76.609550
21013.729874,-1184.329507,-7920.203579,0.000000
21013.730207,-370.102971,-11547.212695,-536.266849
21013.730540,666.185348,-10658.965565,306.438199
21013.730873,814.226536,-8882.471304,76.609550
21013.731206,1702.473667,-9474.636058,-76.609550
21013.731539,-1628.453072,-7772.162391,612.876398
21013.731872,-2442.679609,-11251.130318,-76.609550
21013.732205,-1850.514855,-7476.080014,-1225.752797
21013.732539,-1184.329507,-8734.430116,2757.943793
21013.732872,1702.473667,-9474.636058,4826.401637
21013.733205,296.082377,-6883.915261,2911.162892
21013.733538,1332.370696,-7994.224174,2145.067394
21013.733871,-592.164754,-8512.368333,0.000000
21013.734204,-2368.659014,-9548.656652,-3370.820191
21013.734537,-4071.132681,-10140.821405,-2451.505594
21013.734870,-74.020594,-10658.965565,-2834.553343
21013.735203,888.247130,-7994.224174,-2834.553343
21013.735537,592.164754,-8364.327145,919.314598
21013.735870,2146.597232,-8882.471304,1149.143247
21013.736203,-1924.535449,-9178.553681,1378.971896
21013.736536,592.164754,-8512.368333,1072.533697
21013.736869,222.061783,-7772.162391,1685.410096
21013.737202,2368.659014,-8068.244768,2451.505594
21013.737535,2368.659014,-4811.338623,4903.011187
21013.737868,3478.967927,-7105.977043,-842.705048
21013.738201,0.000000,-9548.656652,-306.438199
21013.738535,1776.494261,-10362.883188,-842.705048
21013.738868,666.185348,-11325.150913,-4290.134789
21013.739201,74.020594,-13175.665768,-2834.553343
21013.739534,0.000000,-9844.739029,-3524.039291
21013.739867,148.041188,-11695.253884,-1532.190996
21013.740200,3478.967927,-8290.306550,2374.896044
21013.740533,0.000000,-9252.574275,3294.210641
21013.740866,-2368.659014,-4811.338623,0.000000
21013.741199,3701.029710,-7031.956449,5669.106685
21013.741532,4071.132681,-7179.997637,4903.011187
21013.741865,7476.080014,-5847.626942,7507.735880
21013.742198,2664.741391,-8438.347739,1225.752797
21013.742532,1184.329507,-10881.027347,-1225.752797
21013.742865,-1628.453072,-12139.377449,-3600.648841
21013.743198,-4441.235652,-9844.739029,-6128.763984
21013.743531,-2368.659014,-14211.954086,-1302.362347
21013.743864,-3034.844362,-10658.965565,-5209.449386
21013.744197,-3849.070898,-7179.997637,-3370.820191
21013.744530,-888.247130,-10066.800811,4826.401637
21013.744863,-1850.514855,-4737.318029,3600.648841
21013.745196,-2368.659014,-5847.626942,4596.572988
21013.745529,2886.803174,-5181.441594,5745.716235
21013.745862,3849.070898,-7698.141797,6818.249932
21013.746195,1480.411884,-5995.668130,3294.210641
21013.746528,4071.132681,-7994.224174,-76.609550
21013.746862,0.000000,-11473.192101,-2451.505594
21013.747195,-740.205942,-11325.150913,-4826.401637
21013.747528,-4589.276840,-16654.633695,-7660.954980
21013.747861,-5847.626942,-13397.727550,-8197.221829
21013.748194,-4515.256246,-13619.789333,-2528.115143
21013.748527,-74.020594,-8882.471304,-1991.848295
21013.748860,0.000000,-5995.668130,7201.297681
21013.749193,-1184.329507,-5477.523971,8580.269578
21013.749526,2590.720797,-1554.432478,6281.983084
21013.749859,4367.215058,-4145.153275,8810.098227
21013.750192,4589.276840,-5107.421000,6128.763984
21013.750525,1998.556043,-7698.141797,2681.334243
21013.750859,0.000000,-9548.656652,-3370.820191
21013.751192,-370.102971,-14211.954086,-7431.126331
21013.751525,-4737.318029,-12509.480420,-10495.508323
21013.751858,-4737.318029,-13693.809927,-9039.926876
21013.752191,-3330.926739,-16580.613101,-5592.497135
21013.752524,-2220.617826,-11325.150913,-1225.752797
21013.752857,1110.308913,-7846.182985,3140.991542
21013.753190,3775.050304,-5403.503377,7890.783629
21013.753523,4219.173869,-4737.318029,10342.289223
21013.753856,7254.018232,-4663.297435,11568.042020
21013.754189,9400.615463,-7105.977043,7277.907231
21013.754522,3849.070898,-8068.244768,5209.449386
21013.754855,2368.659014,-7179.997637,3524.039291
21013.755189,-74.020594,-12731.542202,-3907.087040
21013.755522,-2072.576638,-13249.686362,-7431.126331
21013.755855,-4219.173869,-14285.974681,-9652.803275
21013.756188,-5033.400406,-15396.283594,-8427.050478
21013.756521,-1776.494261,-12583.501014,-4366.744339
21013.756854,-3034.844362,-11843.295072,-1608.800546
21013.757187,0.000000,-4219.173869,766.095498
21013.757520,592.164754,-5403.503377,9269.755526
21013.757853,4071.132681,-4145.153275,6971.469032
21013.758186,2590.720797,-1258.350101,4903.011187
21013.758519,3034.844362,-8290.306550,6971.469032
21013.758852,4959.379811,-7328.038826,5056.230287
21013.759185,3182.885551,-8808.450710,2374.896044
21013.759519,1332.370696,-10658.965565,-2834.553343
21013.759852,-3923.091493,-14804.118840,-7431.126331
21013.760185,-5921.647536,-14434.015869,-9269.755526
21013.760518,-4441.235652,-14211.954086,-7124.688131
21013.760851,-4293.194464,-13545.768739,-3677.258390
21013.761184,-2368.659014,-7772.162391,0.000000
21013.761517,1776.494261,-6587.832884,7277.907231
21013.761850,7031.956449,-5329.482782,7584.345430
21013.762183,3552.988522,-3627.009116,5515.887586
21013.762516,2368.659014,-5995.668130,8427.050478
21013.762849,2368.659014,-6291.750507,4903.011187
21013.763182,2146.597232,-8808.450710,3140.991542
21013.763515,888.247130,-9030.512492,-995.924147
21013.763849,-1628.453072,-10658.965565,-4673.182538
21013.764182,-1258.350101,-13915.871710,-4979.620737
21013.764515,-5181.441594,-11029.068536,-6665.030833
21013.764848,-1850.514855,-13027.624579,-7354.516781
