#time,accel_x,accel_y,accel_z
22310.164092,5329.482782,-11029.068536,306.438199
22310.164425,7846.182985,-8512.368333,2757.943793
22310.164759,9844.739029,-8734.430116,4903.011187
22310.165092,11103.089130,-9400.615463,5286.058936
22310.165426,11843.295072,-8068.244768,5209.449386
22310.165760,9622.677246,-5995.668130,1838.629195
22310.166093,12953.603985,-8882.471304,1149.143247
22310.166427,9400.615463,-9030.512492,-2604.724693
22310.166760,6513.812290,-9548.656652,-2298.286494
22310.167094,9400.615463,-11843.295072,-2528.115143
22310.167428,5329.482782,-11695.253884,-2604.724693
22310.167761,4145.153275,-12065.356855,-3140.991542
22310.168095,3701.029710,-11843.295072,-1532.190996
22310.168428,4441.235652,-11103.089130,2374.896044
22310.168762,5773.606348,-9474.636058,6358.592633
22310.169096,9104.533087,-7105.977043,5132.839837
22310.169429,8290.306550,-3627.009116,5515.887586
22310.169763,10214.842000,-6513.812290,9116.536426
22310.170096,7920.203579,-2442.679609,2451.505594
22310.170430,8290.306550,-7105.977043,-76.609550
22310.170764,6365.771101,-7402.059420,-3830.477490
22310.171097,6143.709319,-9178.553681,-5745.716235
22310.171431,5699.585753,-10955.047942,-7124.688131
22310.171764,6143.709319,-13027.624579,-7431.126331
22310.172098,7920.203579,-11325.150913,-6128.763984
22310.172431,9474.636058,-12805.562797,1685.410096
22310.172765,12953.603985,-14211.954086,4826.401637
22310.173099,9696.697840,-8364.327145,2757.943793
22310.173432,12509.480420,-9474.636058,6971.469032
22310.173766,12435.459826,-5995.668130,7354.516781
22310.174099,13693.809927,-5329.482782,7277.907231
22310.174433,11177.109724,-5921.647536,3524.039291
22310.174767,9400.615463,-8882.471304,-76.609550
22310.175100,5773.606348,-8956.491898,-2911.162892
22310.175434,3478.967927,-10436.903782,-5898.935335
22310.175767,1776.494261,-11399.171507,-6971.469032
22310.176101,1184.329507,-11917.315666,-4290.134789
22310.176435,4737.318029,-11769.274478,-76.609550
22310.176768,9104.533087,-8586.388927,1762.019645
22310.177102,12657.521608,-7254.018232,3983.696590
22310.177435,14211.954086,-7328.038826,8503.660028
22310.177769,12731.542202,-5255.462188,4060.306139
22310.178103,12065.356855,-7402.059420,1762.019645
22310.178436,9696.697840,-7772.162391,-1991.848295
22310.178770,7994.224174,-9178.553681,-3983.696590
22310.179103,7920.203579,-11251.130318,-2528.115143
22310.179437,4885.359217,-13397.727550,-1608.800546
22310.179771,4663.297435,-11029.068536,-4903.011187
22310.180104,9474.636058,-9548.656652,0.000000
22310.180438,15396.283594,-8660.409521,8350.440928
22310.180771,17616.901420,-6217.729913,7354.516781
22310.181105,16210.510130,-7624.121203,5362.668486
22310.181439,15470.304188,-7031.956449,2987.772442
22310.181772,12879.583391,-9252.574275,1225.752797
22310.182106,9474.636058,-8512.368333,-3064.381992
22310.182439,4441.235652,-13619.789333,-6205.373534
22310.182773,3034.844362,-9548.656652,-9193.145976
22310.183107,7402.059420,-9844.739029,-1532.190996
22310.183440,13323.706956,-9474.636058,3294.210641
22310.183774,12213.398043,-7105.977043,2987.772442
22310.184107,11547.212695,-8660.409521,3983.696590
22310.184441,13175.665768,-10362.883188,5362.668486
22310.184774,14804.118840,-8068.244768,5975.544884
22310.185108,14211.954086,-8660.409521,4903.011187
22310.185442,16506.592507,-8290.306550,995.924147
22310.185775,12731.542202,-8660.409521,0.000000
22310.186109,12953.603985,-9474.636058,-1915.238745
22310.186442,7031.956449,-11473.192101,-6741.640382
22310.186776,2960.823768,-11029.068536,-6128.763984
22310.187110,4145.153275,-10288.862594,-3753.867940
22310.187443,8882.471304,-7698.141797,-1838.629195
22310.187777,12139.377449,-8660.409521,2451.505594
22310.188110,13545.768739,-10510.924376,4826.401637
22310.188444,11325.150913,-8364.327145,7354.516781
22310.188778,14211.954086,-10362.883188,8503.660028
22310.189111,13545.768739,-8290.306550,4826.401637
22310.189445,10658.965565,-5995.668130,2451.505594
22310.189778,10658.965565,-5551.544565,-1225.752797
22310.190112,7402.059420,-8734.430116,-5745.716235
22310.190446,5551.544565,-11547.212695,-6435.202183
22310.190779,5699.585753,-11251.130318,-4213.525239
22310.191113,6439.791695,-12435.459826,-1915.238745
22310.191446,8290.306550,-7179.997637,612.876398
22310.191780,6883.915261,-8290.306550,-995.924147
22310.192114,9474.636058,-8364.327145,1072.533697
22310.192447,11843.295072,-10362.883188,5439.278036
22310.192781,17098.757260,-9104.533087,9346.365076
22310.193114,12361.439231,-6365.771101,3524.039291
22310.193448,7846.182985,-6587.832884,1532.190996
22310.193782,9400.615463,-12435.459826,-76.609550
22310.194115,9400.615463,-8216.285956,-1455.581446
22310.194449,8586.388927,-11029.068536,-76.609550
22310.194782,7698.141797,-8216.285956,-2145.067394
22310.195116,5477.523971,-8364.327145,-2374.896044
22310.195450,5551.544565,-11843.295072,-2528.115143
22310.195783,8216.285956,-10066.800811,-1302.362347
22310.196117,8808.450710,-8068.244768,-3064.381992
22310.196450,12361.439231,-10658.965565,6665.030833
22310.196784,14137.933492,-7105.977043,5745.716235
22310.197117,12657.521608,-9696.697840,5209.449386
22310.197451,15322.262999,-8882.471304,6052.154434
22310.197785,10881.027347,-7105.977043,2145.067394
22310.198118,10362.883188,-8142.265362,-612.876398
22310.198452,8290.306550,-8660.409521,-2757.943793
22310.198785,6217.729913,-10140.821405,-5975.544884
22310.199119,2738.761985,-9548.656652,-4903.011187
22310.199453,6291.750507,-8882.471304,-4366.744339
22310.199786,8808.450710,-9474.636058,-3753.867940
22310.200120,11917.315666,-6587.832884,1378.971896
22310.200453,12953.603985,-11177.109724,4903.011187
22310.200787,16432.571912,-5921.647536,6741.640382
22310.201121,11251.130318,-11769.274478,2911.162892
22310.201454,11399.171507,-11325.150913,3830.477490
22310.201788,13619.789333,-5773.606348,1838.629195
22310.202121,9696.697840,-13027.624579,2374.896044
22310.202455,14137.933492,-7994.224174,-4060.306139
22310.202789,5625.565159,-11917.315666,-2451.505594
22310.203122,7698.141797,-10732.986159,1455.581446
22310.203456,5255.462188,-6069.688724,-6741.640382
22310.203789,6143.709319,-12731.542202,-5286.058936
22310.204123,4589.276840,-14508.036463,1455.581446
22310.204457,7772.162391,-7920.203579,4979.620737
22310.204790,8586.388927,-6883.915261,7354.516781
22310.205124,7328.038826,-6513.812290,2911.162892
22310.205457,9844.739029,-7920.203579,5439.278036
22310.205791,5477.523971,-8216.285956,4443.353888
22310.206125,4663.297435,-6957.935855,-689.485948
22310.206458,-1184.329507,-9474.636058,-4366.744339
22310.206792,-1998.556043,-8660.409521,-6128.763984
22310.207125,814.226536,-9844.739029,-4290.134789
22310.207459,4367.215058,-8290.306550,-1608.800546
22310.207793,518.144159,-10658.965565,-2834.553343
22310.208126,2294.638420,-8290.306550,-1302.362347
22310.208460,3108.864956,-7698.141797,306.438199
22310.208793,1554.432478,-11103.089130,1915.238745
22310.209127,6735.874072,-6217.729913,4213.525239
22310.209460,8216.285956,-11843.295072,5439.278036
22310.209794,9474.636058,-10732.986159,12180.918418
22310.210128,8808.450710,-4145.153275,842.705048
22310.210461,2664.741391,-11029.068536,0.000000
22310.210795,2664.741391,-6587.832884,-1225.752797
22310.211128,1850.514855,-10214.842000,-4443.353888
22310.211462,3182.885551,-7402.059420,-3064.381992
22310.211796,-1850.514855,-12435.459826,-4596.572988
22310.212129,-1480.411884,-6291.750507,-5669.106685
22310.212463,0.000000,-12509.480420,-919.314598
22310.212796,6439.791695,-8882.471304,4826.401637
22310.213130,7031.956449,-7105.977043,3600.648841
22310.213464,2368.659014,-9548.656652,5515.887586
22310.213797,5847.626942,-8290.306550,4060.306139
22310.214131,1776.494261,-6587.832884,2145.067394
22310.214464,6365.771101,-7179.997637,2068.457845
22310.214798,2590.720797,-11769.274478,-153.219100
22310.215132,962.267725,-9400.615463,-1455.581446
22310.215465,-1776.494261,-10140.821405,-4903.011187
22310.215799,2886.803174,-12435.459826,-1915.238745
22310.216132,2294.638420,-10658.965565,-2528.115143
22310.216466,962.267725,-11917.315666,0.000000
22310.216800,2590.720797,-9474.636058,-76.609550
22310.217133,2220.617826,-11843.295072,2068.457845
22310.217467,4145.153275,-8956.491898,6435.202183
22310.217800,5847.626942,-6513.812290,6588.421283
22310.218134,2886.803174,-7179.997637,4596.572988
22310.218468,4663.297435,-4737.318029,1762.019645
22310.218801,-74.020594,-7402.059420,-3524.039291
22310.219135,-1776.494261,-7179.997637,-2834.553343
22310.219468,-1184.329507,-14730.098246,-76.609550
22310.219802,-1258.350101,-3849.070898,-6665.030833
22310.220136,-1036.288319,-13323.706956,-3447.429741
22310.220469,3627.009116,-9474.636058,536.266849
22310.220803,3775.050304,-10362.883188,2145.067394
22310.221136,3627.009116,-11029.068536,2757.943793
22310.221470,5847.626942,-12361.439231,6665.030833
22310.221803,1258.350101,-8438.347739,1762.019645
22310.222137,3182.885551,-7624.121203,3064.381992
22310.222471,1776.494261,-9622.677246,2911.162892
22310.222804,0.000000,-5995.668130,0.000000
22310.223138,-4145.153275,-8956.491898,0.000000
22310.223471,-74.020594,-6809.894666,-1608.800546
22310.223805,-4219.173869,-7772.162391,-3677.258390
22310.224139,-2368.659014,-11843.295072,-76.609550
22310.224472,-666.185348,-6513.812290,-76.609550
22310.224806,-4219.173869,-11473.192101,-536.266849
22310.225139,888.247130,-7772.162391,2911.162892
22310.225473,-4071.132681,-10955.047942,2757.943793
22310.225807,1480.411884,-7772.162391,3370.820191
22310.226140,-4737.318029,-9548.656652,5209.449386
22310.226474,1110.308913,-6513.812290,-3753.867940
22310.226807,-3256.906145,-8364.327145,-3064.381992
22310.227141,-1184.329507,-7476.080014,-76.609550
22310.227475,-3849.070898,-10140.821405,-4903.011187
22310.227808,-1776.494261,-7402.059420,-459.657299
22310.228142,-222.061783,-9474.636058,-689.485948
22310.228475,962.267725,-10955.047942,2681.334243
22310.228809,7031.956449,-8290.306550,4213.525239
22310.229143,592.164754,-12805.562797,4213.525239
22310.229476,4663.297435,-11103.089130,3600.648841
22310.229810,4145.153275,-5995.668130,6128.763984
22310.230143,4737.318029,-9844.739029,4826.401637
22310.230477,2294.638420,-6513.812290,-76.609550
22310.230811,-5699.585753,-11325.150913,-7354.516781
22310.231144,-5551.544565,-9844.739029,-4826.401637
22310.231478,-3034.844362,-6365.771101,-3447.429741
22310.231811,-4441.235652,-7772.162391,-5822.325785
22310.232145,-74.020594,-9474.636058,-76.609550
22310.232479,-1480.411884,-5107.421000,0.000000
22310.232812,1184.329507,-12953.603985,5362.668486
22310.233146,6735.874072,-7846.182985,5898.935335
22310.233479,4737.318029,-7476.080014,4290.134789
22310.233813,5181.441594,-8364.327145,5745.716235
22310.234146,6069.688724,-6661.853478,1762.019645
22310.234480,3034.844362,-11695.253884,0.000000
22310.234814,1924.535449,-11547.212695,-459.657299
22310.235147,-1258.350101,-10732.986159,-7354.516781
22310.235481,-1924.535449,-14211.954086,-2528.115143
22310.235814,-74.020594,-11843.295072,2374.896044
22310.236148,-1480.411884,-4811.338623,0.000000
22310.236482,0.000000,-6587.832884,2451.505594
22310.236815,74.020594,-6217.729913,2145.067394
22310.237149,3775.050304,-5329.482782,4290.134789
22310.237482,-1110.308913,-12435.459826,4519.963438
22310.237816,3478.967927,-7105.977043,1915.238745
22310.238150,-5329.482782,-9548.656652,-1838.629195
22310.238483,814.226536,-6365.771101,-4366.744339
22310.238817,-1776.494261,-12879.583391,-3064.381992
22310.239150,888.247130,-9178.553681,-2068.457845
22310.239484,296.082377,-10436.903782,919.314598
22310.239818,-3034.844362,-11251.130318,-2681.334243
22310.240151,0.000000,-8364.327145,0.000000
22310.240485,-814.226536,-11843.295072,1762.019645
22310.240818,4145.153275,-7328.038826,2528.115143
22310.241152,1776.494261,-8364.327145,6971.469032
22310.241486,4589.276840,-8364.327145,3677.258390
22310.241819,2368.659014,-8660.409521,7048.078582
22310.242153,1702.473667,-7994.224174,4366.744339
22310.242486,-74.020594,-10658.965565,1762.019645
22310.242820,-4219.173869,-4885.359217,-4290.134789
22310.243154,-2368.659014,-7031.956449,-7354.516781
22310.243487,-7550.100608,-13027.624579,-3753.867940
22310.243821,-2812.782580,-5921.647536,-7048.078582
22310.244154,-5699.585753,-17172.777854,-3140.991542
22310.244488,370.102971,-9252.574275,612.876398
22310.244822,888.247130,-11399.171507,3217.601092
22310.245155,1998.556043,-7254.018232,4596.572988
22310.245489,3923.091493,-4811.338623,2834.553343
22310.245822,1110.308913,-8364.327145,4903.011187
22310.246156,9400.615463,-4737.318029,4826.401637
22310.246489,0.000000,-7179.997637,0.000000
22310.246823,2368.659014,-8068.244768,0.000000
22310.247157,-666.185348,-11251.130318,-3907.087040
22310.247490,-2072.576638,-10881.027347,-4136.915689
22310.247824,-1554.432478,-11621.233289,-2528.115143
22310.248157,-5329.482782,-11473.192101,-4826.401637
22310.248491,2072.576638,-5551.544565,-4596.572988
22310.248825,-2442.679609,-17172.777854,7277.907231
22310.249158,6439.791695,-3256.906145,5745.716235
22310.249492,-1776.494261,-6587.832884,3983.696590
22310.249825,7031.956449,-9474.636058,4826.401637
22310.250159,-370.102971,-8068.244768,0.000000
22310.250493,4071.132681,-8142.265362,1762.019645
22310.250826,518.144159,-9770.718434,-842.705048
22310.251160,-2220.617826,-9474.636058,-4443.353888
22310.251493,-2960.823768,-11103.089130,-3064.381992
22310.251827,-4737.318029,-11695.253884,-3983.696590
22310.252161,-1776.494261,-10732.986159,-2145.067394
22310.252494,-296.082377,-9918.759623,383.047749
22310.252828,4663.297435,-10658.965565,4213.525239
22310.253161,3552.988522,-2368.659014,6358.592633
22310.253495,2368.659014,-9548.656652,8273.831378
22310.253829,3478.967927,-7105.977043,6052.154434
22310.254162,1702.473667,-9178.553681,1685.410096
22310.254496,3478.967927,-4145.153275,-1915.238745
22310.254829,-5995.668130,-15248.242405,-2528.115143
22310.255163,-2886.803174,-5625.565159,-7431.126331
22310.255497,-5329.482782,-13101.645173,-4136.915689
22310.255830,-740.205942,-9844.739029,-3524.039291
22310.256164,1702.473667,-14804.118840,-383.047749
22310.256497,-4737.318029,-11917.315666,5822.325785
22310.256831,4663.297435,-5625.565159,2681.334243
22310.257165,0.000000,-9474.636058,5439.278036
22310.257498,1480.411884,-8364.327145,3677.258390
22310.257832,3478.967927,-3849.070898,2604.724693
22310.258165,518.144159,-8882.471304,1302.362347
22310.258499,2294.638420,-7328.038826,306.438199
22310.258833,-2294.638420,-10066.800811,-2221.676944
22310.259166,-2590.720797,-7772.162391,-5515.887586
22310.259500,-5551.544565,-14211.954086,-3140.991542
22310.259833,-74.020594,-9474.636058,-5592.497135
22310.260167,-1702.473667,-9548.656652,1225.752797
22310.260501,-296.082377,-8438.347739,3830.477490
22310.260834,1036.288319,-7772.162391,1225.752797
22310.261168,370.102971,-11843.295072,3600.648841
22310.261501,4959.379811,-7772.162391,3677.258390
22310.261835,2442.679609,-9696.697840,4290.134789
22310.262168,3552.988522,-6883.915261,1838.629195
22310.262502,1702.473667,-8290.306550,-2528.115143
22310.262836,0.000000,-7179.997637,-2451.505594
22310.263169,-1184.329507,-9548.656652,-2068.457845
22310.263503,-74.020594,-11251.130318,-2528.115143
22310.263836,-2072.576638,-9474.636058,-3753.867940
22310.264170,-3256.906145,-13693.809927,-1225.752797
22310.264504,-518.144159,-7550.100608,-1991.848295
22310.264837,666.185348,-9326.594869,1455.581446
22310.265171,4663.297435,-8290.306550,6052.154434
22310.265504,2294.638420,-5403.503377,2451.505594
22310.265838,5033.400406,-3923.091493,2681.334243
22310.266172,1110.308913,-13027.624579,2374.896044
22310.266505,1184.329507,-4811.338623,-1532.190996
22310.266839,1850.514855,-14211.954086,-76.609550
22310.267172,962.267725,-9844.739029,-2681.334243
22310.267506,1036.288319,-11473.192101,-4366.744339
22310.267840,-1998.556043,-13545.768739,-383.047749
22310.268173,3478.967927,-7550.100608,-1608.800546
22310.268507,-3849.070898,-15766.386565,0.000000
22310.268840,444.123565,-7179.997637,2145.067394
22310.269174,0.000000,-4959.379811,1455.581446
22310.269508,2368.659014,-7476.080014,6128.763984
22310.269841,4145.153275,-3627.009116,5669.106685
22310.270175,-74.020594,-9474.636058,3600.648841
22310.270508,1406.391290,-666.185348,0.000000
22310.270842,-3552.988522,-13915.871710,-3140.991542
22310.271176,-1036.288319,-10362.883188,-2528.115143
22310.271509,-4737.318029,-9030.512492,-2604.724693
22310.271843,-4145.153275,-9770.718434,-4903.011187
22310.272176,-4959.379811,-10066.800811,-5975.544884
22310.272510,-1776.494261,-14434.015869,-1225.752797
22310.272844,3552.988522,-7179.997637,7814.174080
22310.273177,2294.638420,-10066.800811,4060.306139
22310.273511,2368.659014,-5995.668130,2451.505594
22310.273844,1332.370696,-9400.615463,4519.963438
22310.274178,2960.823768,-6143.709319,2451.505594
22310.274512,1332.370696,-7105.977043,1608.800546
22310.274845,-222.061783,-10510.924376,-1685.410096
22310.275179,-2738.761985,-11251.130318,-3983.696590
22310.275512,-4811.338623,-11843.295072,-1915.238745
22310.275846,-3552.988522,-11547.212695,-1302.362347
22310.276180,-3627.009116,-7179.997637,-3677.258390
22310.276513,0.000000,-6217.729913,4826.401637
22310.276847,-74.020594,-7105.977043,3600.648841
22310.277180,3775.050304,-7105.977043,1608.800546
22310.277514,-518.144159,-8364.327145,612.876398
22310.277847,-370.102971,-10362.883188,-536.266849
22310.278181,2368.659014,-8808.450710,1991.848295
22310.278515,592.164754,-7772.162391,0.000000
22310.278848,6439.791695,-11843.295072,-1302.362347
22310.279182,0.000000,-10140.821405,0.000000
22310.279515,1258.350101,-12731.542202,-3753.867940
22310.279849,3182.885551,-7920.203579,-2451.505594
22310.280183,-3256.906145,-16062.468941,306.438199
22310.280516,3256.906145,-4293.194464,2451.505594
22310.280850,1110.308913,-10362.883188,2451.505594
22310.281183,4811.338623,-5033.400406,6358.592633
22310.281517,-74.020594,-9474.636058,4826.401637
22310.281851,3923.091493,-1554.432478,1225.752797
22310.282184,2368.659014,-11843.295072,3294.210641
22310.282518,-74.020594,-5921.647536,-2834.553343
22310.282851,-2368.659014,-11917.315666,-1455.581446
22310.283185,-8142.265362,-10436.903782,-6665.030833
22310.283519,-3552.988522,-7476.080014,-6741.640382
22310.283852,-2738.761985,-12435.459826,-5822.325785
22310.284186,1554.432478,-11843.295072,689.485948
22310.284519,1110.308913,-9178.553681,2374.896044
22310.284853,-740.205942,-13101.645173,3064.381992
22310.285187,5921.647536,-4219.173869,4290.134789
22310.285520,5181.441594,-8438.347739,5132.839837
22310.285854,5403.503377,-7105.977043,6052.154434
22310.286187,6957.935855,-8956.491898,4443.353888
22310.286521,-592.164754,-10732.986159,1532.190996
22310.286855,4737.318029,-9548.656652,6052.154434
22310.287188,-1850.514855,-11547.212695,-3753.867940
22310.287522,-1480.411884,-7772.162391,-2757.943793
22310.287855,-7698.141797,-10140.821405,-2528.115143
22310.288189,-5403.503377,-9104.533087,-4060.306139
22310.288523,-4811.338623,-9474.636058,-3140.991542
22310.288856,-6439.791695,-10140.821405,-2145.067394
22310.289190,-74.020594,-7105.977043,1149.143247
22310.289523,518.144159,-5995.668130,3064.381992
22310.289857,4367.215058,-9474.636058,6052.154434
22310.290191,5255.462188,-3849.070898,3064.381992
22310.290524,1776.494261,-7179.997637,4903.011187
22310.290858,3478.967927,-13619.789333,-1302.362347
22310.291191,1924.535449,-11251.130318,-1838.629195
22310.291525,-1480.411884,-13619.789333,-2911.162892
22310.291859,814.226536,-8882.471304,-4519.963438
22310.292192,-2664.741391,-12509.480420,-1838.629195
22310.292526,-4367.215058,-7179.997637,0.000000
22310.292859,-2220.617826,-11251.130318,2374.896044
22310.293193,3478.967927,-7105.977043,2987.772442
22310.293527,1480.411884,-5699.585753,4290.134789
22310.293860,1702.473667,-4071.132681,4443.353888
22310.294194,2738.761985,-5181.441594,3907.087040
22310.294527,-3256.906145,-9178.553681,383.047749
22310.294861,444.123565,-9030.512492,-995.924147
22310.295194,0.000000,-9252.574275,-3370.820191
22310.295528,-2960.823768,-16580.613101,-76.609550
22310.295862,-222.061783,-5625.565159,-6511.811733
22310.296195,-6217.729913,-13249.686362,-6128.763984
22310.296529,0.000000,-8364.327145,-2374.896044
22310.296862,3182.885551,-10140.821405,1608.800546
22310.297196,3256.906145,-9030.512492,3830.477490
22310.297530,5625.565159,-9104.533087,5286.058936
22310.297863,2664.741391,-8586.388927,4366.744339
22310.298197,7772.162391,-7846.182985,9193.145976
22310.298530,6735.874072,-5181.441594,4519.963438
22310.298864,4367.215058,-8660.409521,2068.457845
22310.299198,-2368.659014,-9548.656652,-3140.991542
22310.299531,-1998.556043,-9474.636058,-5669.106685
22310.299865,-6809.894666,-9548.656652,-5439.278036
22310.300198,-4737.318029,-10140.821405,-3370.820191
22310.300532,-3034.844362,-8290.306550,-2528.115143
22310.300866,-74.020594,-6883.915261,-3677.258390
22310.301199,4367.215058,-10066.800811,4826.401637
22310.301533,3182.885551,-5477.523971,3140.991542
22310.301866,4441.235652,-9326.594869,3294.210641
22310.302200,2368.659014,-12731.542202,6281.983084
22310.302534,5329.482782,-6365.771101,-76.609550
22310.302867,4663.297435,-13323.706956,3294.210641
22310.303201,0.000000,-7772.162391,1608.800546
22310.303534,2294.638420,-9474.636058,-2221.676944
22310.303868,-2368.659014,-9548.656652,0.000000
22310.304202,-1776.494261,-7179.997637,-3677.258390
22310.304535,-3404.947333,-11325.150913,-3064.381992
22310.304869,-1850.514855,-9178.553681,-1991.848295
22310.305202,370.102971,-8882.471304,2528.115143
22310.305536,1036.288319,-4737.318029,3600.648841
22310.305870,444.123565,-7179.997637,2757.943793
22310.306203,2886.803174,-7698.141797,3600.648841
22310.306537,4071.132681,-6661.853478,0.000000
22310.306870,-2368.659014,-13101.645173,842.705048
22310.307204,2886.803174,-10658.965565,-1302.362347
22310.307538,-5921.647536,-9844.739029,-3064.381992
22310.307871,-5403.503377,-13175.665768,-3600.648841
22310.308205,-4367.215058,-9992.780217,-3600.648841
22310.308538,-2368.659014,-8956.491898,-1991.848295
22310.308872,1184.329507,-11029.068536,1532.190996
22310.309206,4663.297435,-7105.977043,6971.469032
22310.309539,1924.535449,-5477.523971,4366.744339
22310.309873,3552.988522,-6291.750507,8503.660028
22310.310206,4663.297435,-5625.565159,3600.648841
22310.310540,2220.617826,-11029.068536,842.705048
22310.310873,2368.659014,-8290.306550,536.266849
22310.311207,-4737.318029,-11029.068536,-6665.030833
22310.311541,-3182.885551,-13471.748144,-5592.497135
22310.311874,-3034.844362,-11843.295072,-2681.334243
22310.312208,-2442.679609,-9252.574275,-6741.640382
22310.312541,-3552.988522,-9548.656652,1991.848295
22310.312875,-74.020594,-11251.130318,-76.609550
22310.313209,1110.308913,-5033.400406,1915.238745
22310.313542,4515.256246,-5921.647536,6971.469032
22310.313876,2812.782580,-8956.491898,4290.134789
22310.314209,6957.935855,-6587.832884,8656.879127
22310.314543,4515.256246,-6291.750507,76.609550
22310.314877,2886.803174,-12435.459826,-76.609550
22310.315210,-592.164754,-9548.656652,-3217.601092
22310.315544,-3775.050304,-13989.892304,-6665.030833
22310.315877,1406.391290,-8808.450710,-2451.505594
22310.316211,-3256.906145,-14285.974681,-4903.011187
22310.316545,1184.329507,-11843.295072,842.705048
22310.316878,-74.020594,-7402.059420,766.095498
22310.317212,-1702.473667,-6587.832884,2451.505594
22310.317545,6217.729913,-4145.153275,7737.564530
22310.317879,3849.070898,-4515.256246,4979.620737
22310.318213,5551.544565,-8586.388927,6665.030833
22310.318546,2886.803174,-6957.935855,2374.896044
22310.318880,888.247130,-8882.471304,-1685.410096
22310.319213,-370.102971,-12731.542202,-3753.867940
22310.319547,-1628.453072,-13619.789333,-3753.867940
22310.319881,-8068.244768,-13101.645173,-8580.269578
22310.320214,-4441.235652,-11621.233289,-9806.022374
22310.320548,-2812.782580,-11547.212695,995.924147
22310.320881,2368.659014,-8956.491898,2451.505594
22310.321215,6957.935855,-7105.977043,10495.508323
22310.321549,4811.338623,-5477.523971,9499.584175
22310.321882,3627.009116,-7476.080014,6128.763984
22310.322216,1702.473667,-7105.977043,3907.087040
22310.322549,2738.761985,-7105.977043,-76.609550
22310.322883,-3552.988522,-9548.656652,1225.752797
22310.323217,-74.020594,-9474.636058,-3447.429741
22310.323550,-4219.173869,-14211.954086,-5592.497135
22310.323884,-3627.009116,-11843.295072,-4979.620737
22310.324217,-4367.215058,-12065.356855,-5515.887586
22310.324551,-4811.338623,-11843.295072,-2834.553343
22310.324885,-1036.288319,-7550.100608,-612.876398
22310.325218,-3552.988522,-10732.986159,2451.505594
22310.325552,4663.297435,-5773.606348,6358.592633
22310.325885,2960.823768,-7624.121203,7354.516781
22310.326219,7031.956449,-7994.224174,6971.469032
22310.326552,296.082377,-4219.173869,3064.381992
22310.326886,0.000000,-7179.997637,0.000000
22310.327220,0.000000,-7105.977043,536.266849
22310.327553,-4145.153275,-10955.047942,-3983.696590
22310.327887,-2146.597232,-10362.883188,-7354.516781
22310.328220,-3330.926739,-16580.613101,-2834.553343
22310.328554,-3775.050304,-7179.997637,-7354.516781
22310.328888,2886.803174,-13619.789333,-76.609550
22310.329221,4071.132681,-10658.965565,4213.525239
22310.329555,3552.988522,-5403.503377,6435.202183
22310.329888,0.000000,-9548.656652,5515.887586
22310.330222,5921.647536,-4515.256246,4290.134789
22310.330556,666.185348,-8882.471304,2528.115143
22310.330889,4219.173869,-7254.018232,3830.477490
22310.331223,1702.473667,-8290.306550,-3140.991542
22310.331556,-7698.141797,-14582.057057,-4596.572988
22310.331890,-3256.906145,-8512.368333,-4826.401637
22310.332224,-1998.556043,-9474.636058,-2221.676944
22310.332557,-740.205942,-7846.182985,-2451.505594
22310.332891,2664.741391,-13471.748144,2374.896044
22310.333224,1998.556043,-7476.080014,3677.258390
22310.333558,0.000000,-9548.656652,4903.011187
22310.333892,5255.462188,-7698.141797,2068.457845
22310.334225,2886.803174,-10140.821405,3217.601092
22310.334559,2960.823768,-8660.409521,4213.525239
22310.334892,3404.947333,-8660.409521,1838.629195
22310.335226,444.123565,-9178.553681,-2221.676944
22310.335560,-370.102971,-10436.903782,-995.924147
22310.335893,-2146.597232,-10066.800811,-2681.334243
22310.336227,-1332.370696,-8364.327145,-4596.572988
22310.336560,-2442.679609,-13915.871710,-383.047749
22310.336894,2294.638420,-9178.553681,842.705048
22310.337228,-1628.453072,-5403.503377,919.314598
22310.337561,2294.638420,-9474.636058,5439.278036
22310.337895,74.020594,-6217.729913,1072.533697
22310.338228,4367.215058,-9326.594869,4826.401637
22310.338562,2516.700203,-5403.503377,2068.457845
22310.338896,296.082377,-9548.656652,-1838.629195
22310.339229,-4737.318029,-8364.327145,0.000000
22310.339563,-4811.338623,-12731.542202,-6205.373534
22310.339896,-2368.659014,-4959.379811,-7890.783629
22310.340230,-3256.906145,-12805.562797,-3064.381992
22310.340564,-814.226536,-10732.986159,-1838.629195
22310.340897,2590.720797,-5329.482782,229.828649
22310.341231,0.000000,-10881.027347,4519.963438
22310.341564,4441.235652,-6735.874072,4826.401637
22310.341898,6217.729913,-10214.842000,6894.859482
22310.342232,4663.297435,-9474.636058,6052.154434
22310.342565,2294.638420,-5403.503377,-3677.258390
22310.342899,296.082377,-11251.130318,2834.553343
22310.343232,-74.020594,-11843.295072,-383.047749
22310.343566,-1258.350101,-6587.832884,-2451.505594
22310.343899,-4071.132681,-11251.130318,-4060.306139
22310.344233,-4885.359217,-9696.697840,-5822.325785
22310.344567,-3182.885551,-8734.430116,-2451.505594
22310.344900,-4589.276840,-10807.006753,2757.943793
22310.345234,-1184.329507,-7624.121203,2681.334243
22310.345567,-1258.350101,-7105.977043,2987.772442
22310.345901,592.164754,-4811.338623,2451.505594
22310.346235,4663.297435,-12435.459826,9729.412825
22310.346568,5551.544565,-2442.679609,2757.943793
22310.346902,2590.720797,-10066.800811,766.095498
22310.347235,1924.535449,-10732.986159,-1225.752797
22310.347569,888.247130,-12361.439231,-4979.620737
22310.347902,518.144159,-15396.283594,-689.485948
22310.348236,3108.864956,-7920.203579,-76.609550
22310.348569,-4071.132681,-14582.057057,-612.876398
22310.348903,2664.741391,-4663.297435,229.828649
22310.349236,-3404.947333,-9992.780217,1762.019645
22310.349570,2960.823768,-5699.585753,5669.106685
22310.349903,-2368.659014,-4811.338623,4903.011187
22310.350237,2294.638420,-8882.471304,2987.772442
22310.350570,1924.535449,-4145.153275,2068.457845
22310.350903,-2368.659014,-9400.615463,0.000000
22310.351237,3182.885551,-8882.471304,-1991.848295
22310.351570,-3775.050304,-11029.068536,-2604.724693
22310.351904,-2220.617826,-10732.986159,-8120.612279
22310.352237,-2442.679609,-11695.253884,-6511.811733
22310.352571,-2442.679609,-13619.789333,-689.485948
22310.352904,1702.473667,-9474.636058,-2221.676944
22310.353238,2294.638420,-9548.656652,3677.258390
22310.353571,6513.812290,-8142.265362,6511.811733
22310.353904,4441.235652,-6143.709319,7967.393179
22310.354238,4663.297435,-3627.009116,3677.258390
22310.354571,3404.947333,-8586.388927,2374.896044
22310.354905,-666.185348,-8290.306550,0.000000
22310.355238,-74.020594,-9474.636058,-2528.115143
22310.355572,-2368.659014,-9548.656652,-4903.011187
22310.355905,-74.020594,-9474.636058,-3753.867940
22310.356238,-3034.844362,-9474.636058,-3753.867940
22310.356572,-5551.544565,-10140.821405,-4290.134789
22310.356905,-5107.421000,-14211.954086,-689.485948
22310.357239,-2072.576638,-6883.915261,-1915.238745
22310.357572,-888.247130,-8364.327145,3217.601092
22310.357906,3923.091493,-5033.400406,1991.848295
22310.358239,3256.906145,-10288.862594,7354.516781
22310.358573,5033.400406,-6883.915261,5745.716235
22310.358906,4663.297435,-7105.977043,306.438199
22310.359239,3552.988522,-12139.377449,2374.896044
22310.359573,3182.885551,-9474.636058,-3753.867940
22310.359906,-4219.173869,-15100.201217,-3140.991542
22310.360240,2368.659014,-9104.533087,-229.828649
22310.360573,-4737.318029,-12509.480420,-459.657299
22310.360907,3404.947333,-6217.729913,995.924147
22310.361240,1110.308913,-10066.800811,4136.915689
22310.361574,1184.329507,-6883.915261,4749.792088
22310.361907,1998.556043,-3923.091493,2604.724693
22310.362240,-3627.009116,-11029.068536,2145.067394
22310.362574,1776.494261,-3849.070898,153.219100
22310.362907,-5847.626942,-9548.656652,0.000000
22310.363241,2368.659014,-4811.338623,-3064.381992
22310.363574,-3330.926739,-13619.789333,-3907.087040
22310.363908,-2146.597232,-7179.997637,-6128.763984
22310.364241,-2220.617826,-10436.903782,-3753.867940
22310.364575,-1258.350101,-14211.954086,-689.485948
22310.364908,4959.379811,-9474.636058,383.047749
22310.365241,2294.638420,-11029.068536,7201.297681
22310.365575,5847.626942,-4737.318029,3370.820191
22310.365908,2368.659014,-9548.656652,5515.887586
22310.366242,2960.823768,-7179.997637,6665.030833
22310.366575,4663.297435,-6513.812290,383.047749
22310.366909,-3256.906145,-13693.809927,0.000000
22310.367242,-2072.576638,-8512.368333,-229.828649
22310.367575,-4441.235652,-8364.327145,-4903.011187
22310.367909,-814.226536,-8882.471304,-842.705048
22310.368242,-1628.453072,-8142.265362,-995.924147
22310.368576,-2294.638420,-8290.306550,-2451.505594
22310.368909,-4811.338623,-13027.624579,1149.143247
22310.369243,-4663.297435,-7772.162391,-1915.238745
22310.369576,-1850.514855,-7476.080014,0.000000
22310.369910,2664.741391,-4515.256246,2374.896044
22310.370243,3478.967927,-11843.295072,3600.648841
22310.370576,7031.956449,-7698.141797,6052.154434
22310.370910,6439.791695,-8290.306550,2374.896044
22310.371243,2960.823768,-9696.697840,1608.800546
22310.371577,962.267725,-13175.665768,-2604.724693
22310.371910,-5181.441594,-12213.398043,-4596.572988
22310.372244,2886.803174,-10658.965565,-3753.867940
22310.372577,-1776.494261,-10140.821405,0.000000
22310.372911,1184.329507,-10881.027347,4213.525239
22310.373244,1110.308913,-5477.523971,0.000000
22310.373577,-2812.782580,-10436.903782,4596.572988
22310.373911,3256.906145,-2442.679609,4290.134789
22310.374244,1406.391290,-7105.977043,4596.572988
22310.374578,2516.700203,-5477.523971,4366.744339
22310.374911,296.082377,-5477.523971,2451.505594
22310.375245,-74.020594,-5773.606348,-8273.831378
22310.375578,0.000000,-14211.954086,-4060.306139
22310.375911,-814.226536,-15692.365970,-3140.991542
22310.376245,-666.185348,-12731.542202,-5822.325785
22310.376578,-4145.153275,-10732.986159,-3677.258390
22310.376912,-444.123565,-11695.253884,-1302.362347
22310.377245,4367.215058,-8882.471304,5056.230287
22310.377579,6143.709319,-7031.956449,7660.954980
22310.377912,8586.388927,-3775.050304,9193.145976
22310.378246,3775.050304,-6883.915261,7507.735880
22310.378579,2516.700203,-6587.832884,4443.353888
22310.378912,-2812.782580,-9696.697840,0.000000
22310.379246,370.102971,-7624.121203,-3217.601092
22310.379579,-2960.823768,-10732.986159,-3064.381992
22310.379913,-1554.432478,-10658.965565,-8733.488677
22310.380246,-4737.318029,-10140.821405,-2451.505594
22310.380580,-5773.606348,-12583.501014,-1915.238745
22310.380913,-1258.350101,-9474.636058,-1608.800546
22310.381247,-5625.565159,-11325.150913,1225.752797
22310.381580,1332.370696,-3182.885551,1225.752797
22310.381913,1924.535449,-8808.450710,6281.983084
22310.382247,4885.359217,-7920.203579,8197.221829
22310.382580,6439.791695,-4589.276840,4826.401637
22310.382914,-666.185348,-10214.842000,1838.629195
22310.383247,3256.906145,-8216.285956,-612.876398
22310.383581,-74.020594,-14211.954086,-2834.553343
22310.383914,-2220.617826,-11917.315666,-3600.648841
22310.384248,-2146.597232,-12435.459826,-2221.676944
22310.384581,-2516.700203,-9696.697840,-5209.449386
22310.384914,-222.061783,-15692.365970,-76.609550
22310.385248,3256.906145,-6809.894666,7584.345430
22310.385581,1702.473667,-6957.935855,4826.401637
22310.385915,2590.720797,3478.967927,3677.258390
22310.386248,-2368.659014,-9252.574275,2068.457845
22310.386582,2294.638420,-5921.647536,2374.896044
22310.386915,1480.411884,-3330.926739,1378.971896
22310.387248,1110.308913,-9400.615463,-5286.058936
22310.387582,-370.102971,-11991.336260,-2221.676944
22310.387915,-5921.647536,-13989.892304,-8963.317327
22310.388249,444.123565,-13619.789333,-4290.134789
22310.388582,-2812.782580,-12509.480420,-3677.258390
22310.388916,2664.741391,-13249.686362,1762.019645
22310.389249,3478.967927,-8882.471304,2987.772442
22310.389583,5551.544565,-7179.997637,3064.381992
22310.389916,2960.823768,-9548.656652,12027.699319
22310.390249,4663.297435,-4293.194464,2681.334243
22310.390583,4293.194464,-8068.244768,3753.867940
22310.390916,740.205942,-6143.709319,4826.401637
22310.391250,3182.885551,-7772.162391,0.000000
22310.391583,-1776.494261,-9252.574275,-919.314598
22310.391917,-1702.473667,-11547.212695,-4060.306139
22310.392250,-5921.647536,-11473.192101,-4979.620737
22310.392584,-7105.977043,-12065.356855,-4213.525239
22310.392917,-7179.997637,-11251.130318,-6205.373534
22310.393250,-4663.297435,-10362.883188,-1302.362347
22310.393584,0.000000,-5995.668130,1532.190996
22310.393917,8290.306550,-7328.038826,10955.165621
22310.394251,5847.626942,-8290.306550,7890.783629
22310.394584,9400.615463,-5625.565159,7277.907231
22310.394918,-518.144159,-11843.295072,2681.334243
22310.395251,3330.926739,-8882.471304,-2221.676944
22310.395585,-2368.659014,-10584.944971,-2298.286494
22310.395918,-4589.276840,-12435.459826,-5592.497135
22310.396251,-74.020594,-11251.130318,-1608.800546
22310.396585,-4737.318029,-11621.233289,3600.648841
22310.396918,1110.308913,-7994.224174,-2374.896044
22310.397252,-4737.318029,-9548.656652,612.876398
22310.397585,0.000000,-4367.215058,1072.533697
22310.397919,1110.308913,-6217.729913,3294.210641
22310.398252,2516.700203,-6143.709319,2834.553343
22310.398585,4515.256246,-6735.874072,3294.210641
22310.398919,3330.926739,-10732.986159,3677.258390
22310.399252,3330.926739,-7105.977043,-1915.238745
22310.399586,-1850.514855,-18949.272115,-1302.362347
22310.399919,-666.185348,-12435.459826,-7431.126331
22310.400253,-2590.720797,-9548.656652,-4290.134789
22310.400586,-296.082377,-11473.192101,-1072.533697
22310.400920,2368.659014,-9104.533087,3677.258390
22310.401253,0.000000,-5995.668130,4290.134789
22310.401586,1998.556043,-6069.688724,2987.772442
22310.401920,1924.535449,-5329.482782,3600.648841
22310.402253,1184.329507,-7476.080014,2451.505594
22310.402587,7031.956449,-6513.812290,3600.648841
22310.402920,-222.061783,-10658.965565,1149.143247
22310.403254,592.164754,-8364.327145,-919.314598
22310.403587,-3775.050304,-12435.459826,-3447.429741
22310.403921,-888.247130,-11843.295072,-4979.620737
22310.404254,-2590.720797,-12509.480420,-4596.572988
22310.404587,-2886.803174,-10140.821405,-1915.238745
22310.404921,-2368.659014,-10066.800811,-4136.915689
22310.405254,-74.020594,-9474.636058,2374.896044
22310.405588,222.061783,-7179.997637,2451.505594
22310.405921,6587.832884,-4737.318029,7584.345430
22310.406255,2886.803174,-9474.636058,4826.401637
22310.406588,0.000000,-3627.009116,0.000000
22310.406921,1036.288319,-10658.965565,2681.334243
22310.407255,-1924.535449,-10140.821405,-1991.848295
22310.407588,1184.329507,-9548.656652,-1225.752797
22310.407922,-3330.926739,-10807.006753,-1608.800546
22310.408255,2294.638420,-11843.295072,-76.609550
22310.408589,-4589.276840,-8364.327145,-2604.724693
22310.408922,-2368.659014,-10140.821405,-995.924147
22310.409256,-4441.235652,-7254.018232,-1302.362347
22310.409589,0.000000,-6587.832884,306.438199
22310.409922,1554.432478,-10955.047942,2987.772442
22310.410256,-370.102971,-5403.503377,0.000000
22310.410589,1184.329507,-8364.327145,3370.820191
22310.410923,1702.473667,-9474.636058,1149.143247
22310.411256,3552.988522,-8364.327145,0.000000
22310.411590,3182.885551,-11695.253884,-76.609550
22310.411923,1184.329507,-13767.830521,-689.485948
22310.412257,0.000000,-10658.965565,-76.609550
22310.412590,-3627.009116,-11251.130318,-1302.362347
22310.412923,666.185348,-8882.471304,-689.485948
22310.413257,-4145.153275,-10140.821405,0.000000
22310.413590,7031.956449,-4737.318029,4826.401637
22310.413924,2886.803174,-8290.306550,3600.648841
22310.414257,-962.267725,-8290.306550,536.266849
22310.414591,3478.967927,-7550.100608,2604.724693
22310.414924,-4071.132681,-10584.944971,383.047749
22310.415258,5181.441594,-5329.482782,-76.609550
22310.415591,-6217.729913,-13101.645173,-2451.505594
22310.415924,-1258.350101,-11843.295072,-4979.620737
22310.416258,-4737.318029,-9844.739029,-1302.362347
22310.416591,-2442.679609,-10214.842000,-3753.867940
22310.416925,888.247130,-9548.656652,612.876398
22310.417258,4145.153275,-2146.597232,3677.258390
22310.417592,3182.885551,-10881.027347,4903.011187
22310.417925,1110.308913,-5921.647536,536.266849
22310.418258,4663.297435,-9400.615463,2451.505594
22310.418592,-74.020594,-13027.624579,2374.896044
22310.418925,5255.462188,-5995.668130,0.000000
22310.419259,-74.020594,-12731.542202,-76.609550
22310.419592,2886.803174,-10066.800811,-1532.190996
22310.419926,-1776.494261,-8660.409521,-76.609550
22310.420259,-1036.288319,-10955.047942,2834.553343
22310.420593,-3701.029710,-5551.544565,-2911.162892
22310.420926,-4441.235652,-9030.512492,-2834.553343
22310.421259,-2072.576638,-10288.862594,-306.438199
22310.421593,-888.247130,-7402.059420,536.266849
22310.421926,296.082377,-5403.503377,5745.716235
22310.422260,1110.308913,-7846.182985,-1838.629195
22310.422593,6217.729913,-8512.368333,4903.011187
22310.422927,5847.626942,-9474.636058,1455.581446
22310.423260,7031.956449,-10658.965565,3294.210641
22310.423594,-444.123565,-12953.603985,-383.047749
22310.423927,-3034.844362,-15692.365970,-2757.943793
22310.424260,-370.102971,-7624.121203,-2834.553343
22310.424594,592.164754,-10140.821405,-1838.629195
22310.424927,2368.659014,-8512.368333,3600.648841
22310.425261,-3182.885551,-6513.812290,-766.095498
22310.425594,518.144159,-5847.626942,2528.115143
22310.425928,-1480.411884,-8438.347739,2604.724693
22310.426261,4663.297435,-4737.318029,2068.457845
22310.426594,-1184.329507,-9252.574275,2757.943793
22310.426928,2294.638420,-12435.459826,4826.401637
22310.427261,-1258.350101,-6291.750507,-2451.505594
22310.427595,-2664.741391,-11917.315666,-1532.190996
22310.427928,2294.638420,-8882.471304,-4979.620737
22310.428262,-4737.318029,-17320.819043,-2528.115143
22310.428595,5255.462188,-6217.729913,-229.828649
22310.428929,-3923.091493,-12953.603985,0.000000
22310.429262,296.082377,-4219.173869,0.000000
22310.429595,0.000000,-8956.491898,4979.620737
22310.429929,1110.308913,-9326.594869,1149.143247
22310.430262,6439.791695,-6069.688724,1532.190996
22310.430596,592.164754,-11399.171507,6818.249932
22310.430929,7031.956449,-3701.029710,4903.011187
22310.431263,222.061783,-6957.935855,1762.019645
22310.431596,370.102971,-10881.027347,612.876398
22310.431930,-5329.482782,-7920.203579,-5515.887586
22310.432263,-592.164754,-10066.800811,-4903.011187
22310.432596,-3849.070898,-13323.706956,-3753.867940
22310.432930,-6735.874072,-11029.068536,-6128.763984
22310.433263,-4145.153275,-9844.739029,-1838.629195
22310.433597,-74.020594,-10658.965565,536.266849
22310.433930,4737.318029,-4219.173869,6741.640382
22310.434264,5107.421000,-6957.935855,8197.221829
22310.434597,5625.565159,-6365.771101,7354.516781
22310.434931,3997.112087,-6587.832884,3447.429741
22310.435264,4515.256246,-11547.212695,2987.772442
22310.435597,7624.121203,-8882.471304,-76.609550
22310.435931,-1406.391290,-11325.150913,-4290.134789
22310.436264,518.144159,-13323.706956,-1915.238745
22310.436598,-3627.009116,-13619.789333,-5592.497135
22310.436931,-1554.432478,-11843.295072,-2528.115143
22310.437265,-3849.070898,-10214.842000,-1838.629195
22310.437598,-148.041188,-7476.080014,2298.286494
22310.437931,-666.185348,-6439.791695,3600.648841
22310.438265,0.000000,-5995.668130,6128.763984
22310.438598,2294.638420,-2442.679609,3064.381992
22310.438932,444.123565,-8734.430116,4826.401637
22310.439265,1702.473667,-8882.471304,-76.609550
22310.439599,518.144159,-7772.162391,-2145.067394
22310.439932,-3923.091493,-14656.077652,-2528.115143
22310.440266,-2368.659014,-7846.182985,-4673.182538
22310.440599,-3256.906145,-13397.727550,-4366.744339
22310.440932,-370.102971,-11473.192101,-2834.553343
22310.441266,0.000000,-11325.150913,919.314598
22310.441599,-1110.308913,-10288.862594,2911.162892
22310.441933,5773.606348,-6883.915261,2298.286494
22310.442266,666.185348,-8882.471304,4290.134789
22310.442600,6217.729913,-2812.782580,6741.640382
22310.442933,1184.329507,-8364.327145,4979.620737
22310.443267,2738.761985,-4737.318029,536.266849
22310.443600,-4145.153275,-10732.986159,-919.314598
22310.443933,-4219.173869,-11251.130318,-2528.115143
22310.444267,-3627.009116,-7994.224174,-4979.620737
22310.444600,-5921.647536,-10584.944971,-4519.963438
22310.444934,-2220.617826,-8216.285956,-4443.353888
22310.445267,-3256.906145,-10584.944971,-3600.648841
22310.445601,4219.173869,-7105.977043,766.095498
22310.445934,1702.473667,-11843.295072,2374.896044
22310.446267,4737.318029,-7476.080014,5515.887586
22310.446601,3552.988522,-9548.656652,6588.421283
22310.446934,6439.791695,-10807.006753,0.000000
22310.447268,5921.647536,-9548.656652,4903.011187
22310.447601,8808.450710,-10658.965565,4213.525239
22310.447935,2368.659014,-9252.574275,1455.581446
22310.448268,-1258.350101,-6587.832884,-1762.019645
22310.448602,-4293.194464,-13323.706956,-4596.572988
22310.448935,-1554.432478,-10362.883188,-3140.991542
22310.449268,-3627.009116,-9548.656652,-4903.011187
22310.449602,-2664.741391,-8438.347739,1991.848295
22310.449935,-74.020594,-9474.636058,4826.401637
22310.450269,-2146.597232,-4219.173869,1838.629195
22310.450602,4663.297435,-7698.141797,2221.676944
22310.450936,4737.318029,-6365.771101,4596.572988
22310.451269,3404.947333,-10140.821405,1991.848295
22310.451602,3849.070898,-7698.141797,-766.095498
22310.451936,-4737.318029,-13101.645173,-3677.258390
22310.452269,-2368.659014,-10510.924376,-4903.011187
22310.452602,-74.020594,-13619.789333,-4060.306139
22310.452935,518.144159,-11917.315666,-3064.381992
22310.453269,962.267725,-13619.789333,2987.772442
22310.453602,814.226536,-7179.997637,4903.011187
22310.453935,7920.203579,-4737.318029,6665.030833
22310.454269,1184.329507,-5107.421000,9806.022374
22310.454602,2442.679609,-6439.791695,5592.497135
22310.454935,0.000000,-5995.668130,1225.752797
22310.455269,-592.164754,-9474.636058,995.924147
22310.455602,-1628.453072,-7550.100608,-4290.134789
22310.455935,-5551.544565,-11695.253884,-4903.011187
22310.456268,-6883.915261,-11547.212695,-8656.879127
22310.456602,-7105.977043,-10658.965565,-6358.592633
22310.456935,-6809.894666,-10732.986159,-3524.039291
22310.457268,-74.020594,-9474.636058,-1302.362347
22310.457602,-370.102971,-11695.253884,2374.896044
22310.457935,4663.297435,-2960.823768,3294.210641
22310.458268,5477.523971,-11103.089130,7737.564530
22310.458602,7105.977043,-7179.997637,10572.117872
22310.458935,7105.977043,-8216.285956,6205.373534
22310.459268,2294.638420,-9548.656652,3447.429741
22310.459601,3182.885551,-8882.471304,-3753.867940
22310.459935,-3552.988522,-13693.809927,-76.609550
22310.460268,-370.102971,-8290.306550,-5822.325785
22310.460601,-4145.153275,-11917.315666,-6128.763984
22310.460935,-4737.318029,-9548.656652,-4903.011187
22310.461268,-5403.503377,-10658.965565,-4136.915689
22310.461601,-1184.329507,-7698.141797,2145.067394
22310.461935,2516.700203,-3701.029710,5056.230287
22310.462268,5477.523971,-5847.626942,9882.631924
22310.462601,3256.906145,-2442.679609,3907.087040
22310.462934,4663.297435,-8882.471304,3600.648841
22310.463268,2886.803174,-7402.059420,-2145.067394
22310.463601,1184.329507,-11177.109724,-76.609550
22310.463934,-74.020594,-14211.954086,-4979.620737
22310.464268,-1924.535449,-10881.027347,-6435.202183
22310.464601,-2590.720797,-15396.283594,-2681.334243
22310.464934,296.082377,-10658.965565,-766.095498
22310.465268,1776.494261,-9030.512492,1762.019645
22310.465601,0.000000,-10140.821405,3064.381992
22310.465934,6439.791695,-4737.318029,4213.525239
22310.466267,1480.411884,-5403.503377,4903.011187
22310.466601,2368.659014,-7476.080014,6052.154434
22310.466934,3478.967927,-5625.565159,1149.143247
22310.467267,-1480.411884,-11177.109724,536.266849
22310.467601,1554.432478,-7920.203579,-1991.848295
22310.467934,-1776.494261,-13175.665768,-2145.067394
22310.468267,-1776.494261,-10288.862594,-3983.696590
22310.468601,-1258.350101,-11843.295072,-1608.800546
22310.468934,-4811.338623,-9548.656652,-6128.763984
22310.469267,296.082377,-7920.203579,-4213.525239
22310.469600,2294.638420,-16580.613101,3600.648841
22310.469934,4367.215058,-3701.029710,2451.505594
22310.470267,2738.761985,-9474.636058,6665.030833
22310.470600,888.247130,-7920.203579,3447.429741
22310.470934,1628.453072,-9104.533087,3447.429741
22310.471267,4071.132681,-6439.791695,2834.553343
22310.471600,4071.132681,-9178.553681,2987.772442
22310.471934,-1776.494261,-11029.068536,-689.485948
22310.472267,-2886.803174,-10362.883188,-3753.867940
22310.472600,-4441.235652,-11843.295072,-2757.943793
22310.472933,-6365.771101,-9622.677246,-4290.134789
22310.473267,-1776.494261,-8364.327145,-689.485948
22310.473600,-1406.391290,-10066.800811,1455.581446
22310.473933,2442.679609,-2442.679609,1838.629195
22310.474267,1184.329507,-7920.203579,6052.154434
22310.474600,518.144159,-5921.647536,1149.143247
22310.474933,1332.370696,-8364.327145,2145.067394
22310.475267,74.020594,-9622.677246,0.000000
22310.475600,1110.308913,-12287.418637,-459.657299
22310.475933,-592.164754,-11695.253884,766.095498
22310.476266,1036.288319,-10658.965565,-76.609550
22310.476600,-74.020594,-7772.162391,-3677.258390
22310.476933,-2368.659014,-10732.986159,-2451.505594
22310.477266,0.000000,-8438.347739,-536.266849
22310.477600,-2368.659014,-13175.665768,612.876398
22310.477933,1702.473667,-6143.709319,536.266849
22310.478266,1332.370696,-7328.038826,3447.429741
22310.478600,1628.453072,-5847.626942,2145.067394
22310.478933,5551.544565,-8142.265362,3294.210641
22310.479266,2368.659014,-11843.295072,5439.278036
22310.479600,0.000000,-6587.832884,1225.752797
22310.479933,-2442.679609,-13027.624579,-4060.306139
22310.480266,-2590.720797,-10362.883188,-4366.744339
22310.480599,-74.020594,-9474.636058,-1302.362347
22310.480933,2590.720797,-9104.533087,-1838.629195
22310.481266,0.000000,-10362.883188,1455.581446
22310.481599,-814.226536,-7476.080014,-2068.457845
22310.481933,0.000000,-7476.080014,2451.505594
22310.482266,2294.638420,-11843.295072,2068.457845
22310.482599,4737.318029,-7179.997637,2451.505594
22310.482933,1184.329507,-9474.636058,4826.401637
22310.483266,5255.462188,-5255.462188,2451.505594
22310.483599,0.000000,-9548.656652,306.438199
22310.483932,0.000000,-9548.656652,-1915.238745
22310.484266,-3552.988522,-12139.377449,-4979.620737
22310.484599,-3034.844362,-10732.986159,-6052.154434
22310.484932,-74.020594,-13915.871710,1149.143247
22310.485266,-3923.091493,-6143.709319,-3677.258390
22310.485599,2886.803174,-9474.636058,3600.648841
22310.485932,-74.020594,-7105.977043,-76.609550
22310.486266,2960.823768,-7772.162391,6971.469032
22310.486599,1184.329507,-7624.121203,2757.943793
22310.486932,2368.659014,-9548.656652,2987.772442
22310.487265,814.226536,-11473.192101,1608.800546
22310.487599,3256.906145,-8734.430116,2987.772442
22310.487932,2294.638420,-10658.965565,-76.609550
22310.488265,-1184.329507,-8956.491898,0.000000
22310.488599,-5403.503377,-10807.006753,-2068.457845
22310.488932,-4219.173869,-5255.462188,-4903.011187
22310.489265,-5921.647536,-11695.253884,-4519.963438
22310.489599,-2516.700203,-13619.789333,1072.533697
22310.489932,-2220.617826,-6883.915261,1838.629195
22310.490265,0.000000,-3627.009116,2451.505594
22310.490598,5847.626942,-9474.636058,4519.963438
22310.490932,2146.597232,-7772.162391,1991.848295
22310.491265,4737.318029,-8068.244768,5286.058936
22310.491598,-1258.350101,-12213.398043,-229.828649
22310.491932,1332.370696,-13101.645173,-3600.648841
22310.492265,-814.226536,-11251.130318,-1915.238745
22310.492598,-74.020594,-11251.130318,-76.609550
22310.492932,1332.370696,-5995.668130,-2145.067394
22310.493265,-1258.350101,-9474.636058,-76.609550
22310.493598,-74.020594,-7105.977043,-1915.238745
22310.493931,0.000000,-6587.832884,5056.230287
22310.494265,4367.215058,-6513.812290,2068.457845
22310.494598,1776.494261,-10436.903782,3140.991542
22310.494931,148.041188,-9104.533087,2451.505594
22310.495265,1628.453072,-6957.935855,0.000000
22310.495598,-1184.329507,-7772.162391,-5515.887586
22310.495931,-2368.659014,-10140.821405,-2451.505594
22310.496265,-74.020594,-13027.624579,-3753.867940
22310.496598,-74.020594,-9474.636058,-4366.744339
22310.496931,0.000000,-9548.656652,919.314598
22310.497264,-74.020594,-8808.450710,0.000000
22310.497598,5107.421000,-6735.874072,4826.401637
22310.497931,3923.091493,-5847.626942,4366.744339
22310.498264,2960.823768,-7254.018232,3830.477490
22310.498598,2368.659014,-9178.553681,2757.943793
22310.498931,2442.679609,-11177.109724,-76.609550
22310.499264,-74.020594,-12287.418637,1455.581446
22310.499598,2368.659014,-5403.503377,1838.629195
22310.499931,-592.164754,-11991.336260,-689.485948
22310.500264,-3627.009116,-10140.821405,-4903.011187
22310.500597,-4071.132681,-9030.512492,-3447.429741
22310.500931,-4071.132681,-10658.965565,-2145.067394
22310.501264,-1406.391290,-7105.977043,306.438199
22310.501597,-4441.235652,-10658.965565,2145.067394
22310.501931,0.000000,-6291.750507,6665.030833
22310.502264,3478.967927,-7105.977043,1149.143247
22310.502597,2664.741391,-9548.656652,3677.258390
22310.502931,2886.803174,-9474.636058,4826.401637
22310.503264,-370.102971,-7476.080014,-2451.505594
22310.503597,-2072.576638,-11917.315666,-2374.896044
22310.503930,-814.226536,-13915.871710,-2451.505594
22310.504264,1110.308913,-13101.645173,-1149.143247
22310.504597,1924.535449,-10584.944971,3907.087040
22310.504930,-888.247130,-6291.750507,-1302.362347
22310.505264,-3701.029710,-9030.512492,1455.581446
22310.505597,-1480.411884,-6217.729913,2987.772442
22310.505930,1110.308913,-6143.709319,3830.477490
22310.506264,2960.823768,-3627.009116,4443.353888
22310.506597,-4737.318029,-7179.997637,0.000000
22310.506930,-74.020594,-9474.636058,-3140.991542
22310.507263,592.164754,-4811.338623,-3524.039291
22310.507597,-74.020594,-14804.118840,-3294.210641
22310.507930,4071.132681,-11843.295072,-2528.115143
22310.508263,-3330.926739,-15544.324782,-3447.429741
22310.508597,888.247130,-8512.368333,-1838.629195
22310.508930,2368.659014,-7994.224174,1532.190996
22310.509263,5847.626942,-8882.471304,4826.401637
22310.509597,5921.647536,-8512.368333,7660.954980
22310.509930,1184.329507,-9474.636058,5439.278036
22310.510263,2590.720797,-6883.915261,1378.971896
22310.510596,0.000000,-6587.832884,3064.381992
22310.510930,3478.967927,-11029.068536,0.000000
22310.511263,4145.153275,-8586.388927,4213.525239
22310.511596,592.164754,-9252.574275,-383.047749
22310.511930,-1480.411884,-9844.739029,-4290.134789
22310.512263,-4737.318029,-9548.656652,-6435.202183
22310.512596,-1850.514855,-11843.295072,-4979.620737
22310.512930,-1258.350101,-11843.295072,-1302.362347
22310.513263,-6513.812290,-10732.986159,1838.629195
22310.513596,-2442.679609,-8290.306550,-76.609550
22310.513929,-2960.823768,-5107.421000,-459.657299
22310.514263,2590.720797,-8142.265362,2911.162892
22310.514596,2664.741391,-6217.729913,3753.867940
22310.514929,4367.215058,-10066.800811,5975.544884
22310.515263,2664.741391,-7476.080014,2834.553343
22310.515596,2294.638420,-14211.954086,-383.047749
22310.515929,3108.864956,-10140.821405,-1225.752797
22310.516263,592.164754,-12509.480420,-153.219100
22310.516596,2294.638420,-14211.954086,2987.772442
22310.516929,592.164754,-7179.997637,-2451.505594
22310.517262,-6957.935855,-12805.562797,-1225.752797
22310.517596,-5403.503377,-7698.141797,-3217.601092
22310.517929,-2590.720797,-5773.606348,2604.724693
22310.518262,-2960.823768,-3034.844362,5056.230287
22310.518596,1036.288319,-3701.029710,2911.162892
22310.518929,-2664.741391,-7328.038826,4903.011187
22310.519262,-1258.350101,-6439.791695,76.609550
22310.519596,370.102971,-7698.141797,-842.705048
22310.519929,0.000000,-9844.739029,-1225.752797
22310.520262,1110.308913,-11843.295072,-1302.362347
22310.520595,1702.473667,-11843.295072,-4519.963438
22310.520929,-3256.906145,-12509.480420,-3370.820191
22310.521262,1702.473667,-14211.954086,-76.609550
22310.521595,1480.411884,-7920.203579,1915.238745
22310.521929,2590.720797,-9474.636058,3753.867940
22310.522262,4367.215058,-7179.997637,4903.011187
22310.522595,0.000000,-8364.327145,1838.629195
22310.522929,2368.659014,-5995.668130,4903.011187
22310.523262,3478.967927,-7105.977043,5132.839837
22310.523595,2368.659014,-4811.338623,0.000000
22310.523928,-592.164754,-9474.636058,1149.143247
22310.524262,-5625.565159,-8512.368333,-6205.373534
22310.524595,-4145.153275,-11103.089130,-5975.544884
22310.524928,-6513.812290,-11917.315666,-4826.401637
22310.525262,-3849.070898,-9770.718434,-5898.935335
22310.525595,-4811.338623,-13027.624579,-76.609550
22310.525928,0.000000,-5995.668130,5132.839837
22310.526262,3478.967927,-7105.977043,-766.095498
22310.526595,5921.647536,-8364.327145,9806.022374
22310.526928,7031.956449,-9474.636058,6052.154434
22310.527261,5033.400406,-8068.244768,4903.011187
22310.527595,4663.297435,-9326.594869,3064.381992
22310.527928,3034.844362,-12139.377449,-306.438199
22310.528261,3182.885551,-9178.553681,-919.314598
22310.528595,-2294.638420,-10955.047942,-3983.696590
22310.528928,444.123565,-13027.624579,-3753.867940
22310.529261,-2368.659014,-9548.656652,-6435.202183
22310.529595,-2368.659014,-15766.386565,4213.525239
22310.529928,3775.050304,-2664.741391,3600.648841
22310.530261,3182.885551,-4367.215058,4519.963438
22310.530594,518.144159,-4885.359217,2451.505594
22310.530928,-3108.864956,-6291.750507,-1302.362347
22310.531261,-1480.411884,-9474.636058,-689.485948
22310.531594,0.000000,-10732.986159,0.000000
22310.531928,2294.638420,-7698.141797,-2987.772442
22310.532261,-4145.153275,-9696.697840,-689.485948
22310.532594,-74.020594,-10214.842000,-383.047749
22310.532928,-666.185348,-10362.883188,-3600.648841
22310.533261,-1184.329507,-12583.501014,0.000000
22310.533594,3108.864956,-8882.471304,2681.334243
22310.533927,222.061783,-7846.182985,2068.457845
22310.534261,6883.915261,-7772.162391,5898.935335
22310.534594,2368.659014,-8956.491898,6741.640382
22310.534927,7031.956449,-7254.018232,3524.039291
22310.535261,3701.029710,-9104.533087,2604.724693
22310.535594,222.061783,-9548.656652,1378.971896
22310.535927,-3256.906145,-8142.265362,-4443.353888
22310.536261,-8290.306550,-11325.150913,-4596.572988
22310.536594,-2442.679609,-9474.636058,-5592.497135
22310.536927,-5255.462188,-9548.656652,0.000000
22310.537260,-1184.329507,-6217.729913,3907.087040
22310.537594,-3034.844362,-5921.647536,-3140.991542
22310.537927,-4737.318029,-11325.150913,1532.190996
22310.538260,3478.967927,-7698.141797,5822.325785
22310.538594,2812.782580,-8364.327145,3983.696590
22310.538927,3034.844362,-11177.109724,3370.820191
22310.539260,740.205942,-9252.574275,-229.828649
22310.539594,1702.473667,-12435.459826,-2221.676944
22310.539927,1776.494261,-10140.821405,1225.752797
22310.540260,1702.473667,-13619.789333,-1608.800546
22310.540593,-1480.411884,-6883.915261,-3677.258390
22310.540927,-1184.329507,-11029.068536,-76.609550
22310.541260,-2368.659014,-8956.491898,1532.190996
22310.541593,740.205942,-5551.544565,3524.039291
22310.541927,-444.123565,-8734.430116,1072.533697
22310.542260,1110.308913,-7105.977043,1455.581446
22310.542593,-2442.679609,-6291.750507,-4903.011187
22310.542927,4737.318029,-10140.821405,1762.019645
22310.543260,5847.626942,-16580.613101,3600.648841
22310.543593,5107.421000,-9548.656652,5056.230287
22310.543927,4071.132681,-6809.894666,229.828649
22310.544260,-740.205942,-9622.677246,-536.266849
22310.544593,444.123565,-9992.780217,-4443.353888
22310.544926,1480.411884,-11325.150913,766.095498
22310.545260,-3478.967927,-8956.491898,-2298.286494
22310.545593,-4737.318029,-9844.739029,0.000000
22310.545926,-666.185348,-8882.471304,2068.457845
22310.546260,0.000000,-5403.503377,2451.505594
22310.546593,4145.153275,-4811.338623,7354.516781
22310.546926,-74.020594,-12435.459826,2374.896044
22310.547260,3775.050304,-5847.626942,-306.438199
22310.547593,-666.185348,-10584.944971,842.705048
22310.547926,3849.070898,-9400.615463,-1838.629195
22310.548259,592.164754,-7328.038826,-1225.752797
22310.548593,-3034.844362,-13619.789333,-2068.457845
22310.548926,148.041188,-7476.080014,-4060.306139
22310.549259,-3701.029710,-12805.562797,-2681.334243
22310.549593,2294.638420,-11843.295072,-76.609550
22310.549926,518.144159,-9474.636058,-76.609550
22310.550259,222.061783,-7179.997637,3064.381992
22310.550593,5033.400406,-5995.668130,7354.516781
22310.550926,4071.132681,-8882.471304,4519.963438
22310.551259,6439.791695,-8290.306550,6281.983084
22310.551592,-2146.597232,-9030.512492,-76.609550
22310.551925,-1332.370696,-10510.924376,-2834.553343
22310.552258,-1776.494261,-8512.368333,-2298.286494
22310.552592,-5477.523971,-14656.077652,-3753.867940
22310.552925,-888.247130,-9548.656652,-842.705048
22310.553258,-9474.636058,-9548.656652,612.876398
22310.553591,-222.061783,-7105.977043,-4979.620737
22310.553924,888.247130,-6587.832884,3447.429741
22310.554257,2664.741391,-6217.729913,5439.278036
22310.554591,7624.121203,-7105.977043,6052.154434
22310.554924,2442.679609,-11103.089130,4826.401637
22310.555257,3182.885551,-10140.821405,689.485948
22310.555590,3034.844362,-10658.965565,3140.991542
22310.555923,2886.803174,-8882.471304,-1608.800546
22310.556256,-2368.659014,-12065.356855,-1455.581446
22310.556590,-3034.844362,-13545.768739,-2834.553343
22310.556923,-2442.679609,-11103.089130,-6588.421283
22310.557256,-2368.659014,-10288.862594,1532.190996
22310.557589,1702.473667,-5477.523971,612.876398
22310.557922,2072.576638,-7105.977043,4826.401637
22310.558255,444.123565,-6809.894666,4290.134789
22310.558589,0.000000,-5995.668130,689.485948
22310.558922,0.000000,-7179.997637,612.876398
22310.559255,2368.659014,-10288.862594,1762.019645
22310.559588,-1998.556043,-9548.656652,0.000000
22310.559921,-1554.432478,-6291.750507,-3677.258390
22310.560254,-2738.761985,-11251.130318,-4060.306139
22310.560588,0.000000,-10140.821405,-3064.381992
22310.560921,1776.494261,-10510.924376,1378.971896
22310.561254,0.000000,-8586.388927,-459.657299
22310.561587,1998.556043,-9178.553681,1149.143247
22310.561920,1628.453072,-12435.459826,4903.011187
22310.562253,7031.956449,-9474.636058,6052.154434
22310.562587,1776.494261,-7179.997637,4903.011187
22310.562920,2886.803174,-9474.636058,-76.609550
22310.563253,4071.132681,-9474.636058,-2528.115143
22310.563586,296.082377,-8956.491898,6128.763984
22310.563919,3478.967927,-4959.379811,2681.334243
22310.564252,-1628.453072,-9548.656652,-919.314598
22310.564586,-1702.473667,-8882.471304,-1302.362347
22310.564919,-4145.153275,-7920.203579,-4903.011187
22310.565252,-1702.473667,-9474.636058,-2681.334243
22310.565585,-3552.988522,-8660.409521,-3140.991542
22310.565918,-5255.462188,-13175.665768,-2987.772442
22310.566251,222.061783,-6217.729913,0.000000
22310.566585,-740.205942,-9548.656652,306.438199
22310.566918,7920.203579,-8882.471304,4519.963438
22310.567251,3552.988522,-6587.832884,4366.744339
22310.567584,4737.318029,-7476.080014,3064.381992
22310.567917,5255.462188,-9474.636058,3600.648841
22310.568250,-444.123565,-13101.645173,-2145.067394
22310.568583,2072.576638,-9474.636058,-1072.533697
22310.568917,-888.247130,-11325.150913,-766.095498
22310.569250,1184.329507,-10288.862594,0.000000
22310.569583,-2442.679609,-6365.771101,0.000000
22310.569916,-2442.679609,-13619.789333,-1915.238745
22310.570249,-666.185348,-7179.997637,0.000000
22310.570582,-4145.153275,-8364.327145,1225.752797
22310.570916,0.000000,-7179.997637,2911.162892
22310.571249,-2220.617826,-7179.997637,5056.230287
22310.571582,-2368.659014,-5551.544565,-1302.362347
22310.571915,2886.803174,-7550.100608,-995.924147
22310.572248,-74.020594,-13027.624579,1762.019645
22310.572581,740.205942,-7179.997637,-1838.629195
22310.572915,-74.020594,-11843.295072,-2834.553343
22310.573248,-1480.411884,-11917.315666,-3677.258390
22310.573581,-74.020594,-13027.624579,-76.609550
22310.573914,-666.185348,-13915.871710,-76.609550
22310.574247,2812.782580,-9326.594869,-76.609550
22310.574580,666.185348,-12509.480420,4213.525239
22310.574914,7846.182985,-5255.462188,10418.898773
22310.575247,3182.885551,-3478.967927,5209.449386
22310.575580,2960.823768,-6883.915261,7277.907231
22310.575913,-2146.597232,-4811.338623,1225.752797
22310.576246,-6513.812290,-7179.997637,-3524.039291
22310.576579,-1258.350101,-11251.130318,-6205.373534
22310.576913,-6587.832884,-10658.965565,-9499.584175
22310.577246,-4959.379811,-11251.130318,-7048.078582
22310.577579,-2442.679609,-10288.862594,-2068.457845
22310.577912,-666.185348,-13619.789333,-1378.971896
22310.578245,3478.967927,-10066.800811,3907.087040
22310.578578,4663.297435,-9474.636058,4826.401637
22310.578912,4737.318029,-5403.503377,6128.763984
22310.579245,8808.450710,-8882.471304,9729.412825
22310.579578,8808.450710,-7105.977043,2374.896044
22310.579911,4071.132681,-9548.656652,4136.915689
22310.580244,2886.803174,-7698.141797,-1915.238745
22310.580577,-962.267725,-14730.098246,-4366.744339
22310.580911,-3108.864956,-9474.636058,-2987.772442
22310.581244,-4515.256246,-8438.347739,-6128.763984
22310.581577,-4219.173869,-10658.965565,-4060.306139
22310.581910,-1628.453072,-8364.327145,383.047749
22310.582243,-296.082377,-7476.080014,2987.772442
22310.582576,2590.720797,-7994.224174,6665.030833
22310.582910,-2368.659014,-3034.844362,612.876398
22310.583243,-74.020594,-10658.965565,-383.047749
22310.583576,2146.597232,-4811.338623,0.000000
22310.583909,3552.988522,-9992.780217,2374.896044
22310.584242,-814.226536,-13767.830521,-1072.533697
22310.584575,-4589.276840,-8660.409521,-3677.258390
22310.584909,-4367.215058,-9178.553681,-6281.983084
22310.585242,74.020594,-9030.512492,-2451.505594
22310.585575,-1406.391290,-12583.501014,842.705048
22310.585908,4589.276840,-8586.388927,4519.963438
22310.586241,2294.638420,-13027.624579,4826.401637
22310.586574,0.000000,-9548.656652,3370.820191
22310.586907,2960.823768,-9104.533087,8963.317327
22310.587241,5255.462188,-4293.194464,1915.238745
22310.587574,2368.659014,-8660.409521,3677.258390
22310.587907,-3997.112087,-10584.944971,-1225.752797
22310.588240,-1110.308913,-7846.182985,-5592.497135
22310.588573,-6587.832884,-10140.821405,-3600.648841
22310.588906,-2072.576638,-6809.894666,-4136.915689
22310.589240,-5107.421000,-9474.636058,-6205.373534
22310.589573,-4145.153275,-10140.821405,-612.876398
22310.589906,-74.020594,-5329.482782,-1915.238745
22310.590239,962.267725,-6587.832884,2451.505594
22310.590572,6439.791695,-9474.636058,6665.030833
22310.590905,3849.070898,-7772.162391,5975.544884
22310.591239,7624.121203,-8956.491898,3370.820191
22310.591572,7105.977043,-8734.430116,7354.516781
22310.591905,4737.318029,-9548.656652,2145.067394
22310.592238,-666.185348,-13841.851115,-2451.505594
22310.592571,-3552.988522,-9104.533087,-3907.087040
22310.592904,-6291.750507,-14211.954086,-5745.716235
22310.593238,-1554.432478,-4737.318029,-4060.306139
22310.593571,-2368.659014,-9548.656652,-2451.505594
22310.593904,-2146.597232,-8734.430116,2374.896044
22310.594237,-1702.473667,-7772.162391,2604.724693
22310.594570,888.247130,-6069.688724,4136.915689
22310.594903,5255.462188,-5773.606348,4826.401637
22310.595237,592.164754,-10140.821405,4443.353888
22310.595570,3478.967927,-9178.553681,995.924147
22310.595903,-1850.514855,-7179.997637,-4903.011187
22310.596236,1776.494261,-10436.903782,-1685.410096
22310.596569,1776.494261,-8364.327145,-5439.278036
22310.596902,-2664.741391,-15840.407159,-1685.410096
22310.597236,1998.556043,-7772.162391,-1685.410096
22310.597569,-592.164754,-11843.295072,536.266849
22310.597902,1702.473667,-11843.295072,-76.609550
22310.598235,4737.318029,-9252.574275,10495.508323
22310.598568,2146.597232,-5995.668130,6435.202183
22310.598901,2960.823768,-6587.832884,4290.134789
22310.599235,-370.102971,-8734.430116,2528.115143
22310.599568,2294.638420,-7105.977043,-76.609550
22310.599901,-4145.153275,-7179.997637,-2451.505594
22310.600234,-4737.318029,-11325.150913,-4979.620737
22310.600567,-4515.256246,-7772.162391,-4903.011187
22310.600900,-5921.647536,-5403.503377,-6128.763984
22310.601234,-74.020594,-10658.965565,-4979.620737
22310.601567,-4145.153275,-13693.809927,-459.657299
22310.601900,-3478.967927,-11177.109724,-2221.676944
22310.602233,4737.318029,-7031.956449,2681.334243
22310.602566,6291.750507,-7994.224174,5132.839837
22310.602899,7402.059420,-7476.080014,13406.671215
22310.603233,6439.791695,-9474.636058,6052.154434
22310.603566,2368.659014,-11917.315666,4903.011187
22310.603899,2664.741391,-8512.368333,1225.752797
22310.604232,-74.020594,-7994.224174,-4903.011187
22310.604565,-518.144159,-9474.636058,-4979.620737
22310.604898,-5255.462188,-12805.562797,-5286.058936
22310.605231,-3627.009116,-9104.533087,-4903.011187
22310.605565,-7105.977043,-11325.150913,-2451.505594
22310.605898,-1776.494261,-6957.935855,-76.609550
22310.606231,-370.102971,-5403.503377,153.219100
22310.606564,1406.391290,-6587.832884,4903.011187
22310.606897,4737.318029,-8882.471304,7277.907231
22310.607230,-1924.535449,-6587.832884,1838.629195
22310.607564,4071.132681,-8290.306550,2987.772442
22310.607897,-74.020594,-8586.388927,229.828649
22310.608230,4293.194464,-7920.203579,383.047749
22310.608563,-148.041188,-12731.542202,-536.266849
22310.608896,-74.020594,-14211.954086,-7431.126331
22310.609229,-3552.988522,-11917.315666,-3064.381992
22310.609563,-592.164754,-11843.295072,3294.210641
22310.609896,4663.297435,-10658.965565,-76.609550
22310.610229,2368.659014,-7179.997637,7354.516781
22310.610562,444.123565,-6513.812290,1762.019645
22310.610895,1110.308913,-6735.874072,3294.210641
22310.611228,962.267725,-6217.729913,1608.800546
22310.611562,-74.020594,-9400.615463,919.314598
22310.611895,-74.020594,-9474.636058,153.219100
22310.612228,-1332.370696,-7105.977043,-2911.162892
22310.612561,-4441.235652,-9770.718434,-5822.325785
22310.612894,-3775.050304,-8438.347739,-4060.306139
22310.613227,-4737.318029,-10140.821405,0.000000
22310.613561,2294.638420,-7105.977043,-5132.839837
22310.613894,592.164754,-10732.986159,306.438199
22310.614227,2664.741391,-9548.656652,3907.087040
22310.614560,5551.544565,-11843.295072,6052.154434
22310.614893,6143.709319,-6883.915261,6894.859482
22310.615226,3404.947333,-8512.368333,1378.971896
22310.615560,4219.173869,-8586.388927,2911.162892
22310.615893,592.164754,-8956.491898,-1225.752797
22310.616226,-2590.720797,-13471.748144,-3677.258390
22310.616559,-74.020594,-8290.306550,-4979.620737
22310.616892,-6809.894666,-9104.533087,-3064.381992
22310.617225,-4737.318029,-9548.656652,-1991.848295
22310.617559,-2960.823768,-8364.327145,-1685.410096
22310.617892,-2368.659014,-7031.956449,1532.190996
22310.618225,1702.473667,-5551.544565,2374.896044
22310.618558,2368.659014,-6587.832884,4903.011187
22310.618891,1110.308913,-10658.965565,4826.401637
22310.619224,740.205942,-8364.327145,2451.505594
22310.619558,4663.297435,-8290.306550,1762.019645
22310.619891,-1184.329507,-7920.203579,1225.752797
22310.620224,3478.967927,-9474.636058,-1302.362347
22310.620557,-2442.679609,-14211.954086,-2528.115143
22310.620890,-296.082377,-13619.789333,-153.219100
22310.621223,2590.720797,-7254.018232,766.095498
22310.621557,296.082377,-12435.459826,2528.115143
22310.621890,1332.370696,-6587.832884,-1225.752797
22310.622223,-1480.411884,-11917.315666,3600.648841
22310.622556,0.000000,-5995.668130,1838.629195
22310.622889,0.000000,-5403.503377,4290.134789
22310.623222,3478.967927,-7105.977043,1455.581446
22310.623555,592.164754,-5995.668130,1838.629195
22310.623889,-370.102971,-5329.482782,-2528.115143
22310.624222,814.226536,-9326.594869,-383.047749
22310.624555,-4071.132681,-9474.636058,-1149.143247
22310.624888,1184.329507,-5921.647536,-7737.564530
22310.625221,-1258.350101,-18357.107362,-2528.115143
22310.625554,-2368.659014,-9548.656652,3064.381992
22310.625888,1998.556043,-7105.977043,-1915.238745
22310.626221,3478.967927,-12657.521608,5209.449386
22310.626554,2368.659014,-5699.585753,3064.381992
22310.626887,3478.967927,-4737.318029,4826.401637
22310.627220,2220.617826,-7772.162391,2681.334243
22310.627553,2590.720797,-9770.718434,2374.896044
22310.627887,-740.205942,-9400.615463,919.314598
22310.628220,-1554.432478,-11843.295072,-2068.457845
22310.628553,-2368.659014,-8216.285956,-4213.525239
22310.628886,-814.226536,-9548.656652,-6358.592633
22310.629219,1258.350101,-12213.398043,-76.609550
22310.629552,-2368.659014,-7179.997637,-3370.820191
22310.629886,-2812.782580,-11547.212695,-2528.115143
22310.630219,-2368.659014,-9548.656652,0.000000
22310.630552,0.000000,-7476.080014,4979.620737
22310.630885,6143.709319,-6957.935855,7277.907231
22310.631218,222.061783,-4811.338623,1225.752797
22310.631551,1776.494261,-9844.739029,-383.047749
22310.631885,888.247130,-8364.327145,7431.126331
22310.632218,2590.720797,-5329.482782,1378.971896
22310.632551,1702.473667,-9474.636058,-76.609550
22310.632884,-2442.679609,-13619.789333,-3753.867940
22310.633217,-5921.647536,-12509.480420,-4596.572988
22310.633550,-2368.659014,-12509.480420,2068.457845
22310.633884,-666.185348,-8142.265362,-3753.867940
22310.634217,-2368.659014,-8364.327145,3140.991542
22310.634550,0.000000,-8068.244768,1991.848295
22310.634883,2442.679609,-9030.512492,4903.011187
22310.635216,2442.679609,-6809.894666,3447.429741
22310.635549,3552.988522,-6365.771101,3140.991542
22310.635883,2294.638420,-6661.853478,-2068.457845
22310.636216,4737.318029,-11325.150913,1149.143247
22310.636549,2294.638420,-15840.407159,-1608.800546
22310.636882,2294.638420,-8808.450710,-1225.752797
22310.637215,-74.020594,-11251.130318,-1302.362347
22310.637548,-1110.308913,-6587.832884,-1378.971896
22310.637882,-3552.988522,-10510.924376,-3753.867940
22310.638215,2294.638420,-6513.812290,2681.334243
22310.638548,1184.329507,-7772.162391,2451.505594
22310.638881,4515.256246,-5551.544565,3064.381992
22310.639214,3404.947333,-10066.800811,6665.030833
22310.639547,1110.308913,-6957.935855,0.000000
22310.639881,1184.329507,-8364.327145,306.438199
22310.640214,2368.659014,-7179.997637,-2451.505594
22310.640547,-814.226536,-14656.077652,-1608.800546
22310.640880,-2812.782580,-8660.409521,-3753.867940
22310.641213,-3034.844362,-12361.439231,-3294.210641
22310.641546,-74.020594,-8290.306550,-1302.362347
22310.641879,0.000000,-7476.080014,2911.162892
22310.642213,-74.020594,-9178.553681,1991.848295
22310.642546,2294.638420,-6587.832884,2451.505594
22310.642879,2960.823768,-11251.130318,4826.401637
22310.643212,2664.741391,-7179.997637,4136.915689
22310.643545,3997.112087,-4737.318029,3447.429741
22310.643878,444.123565,-11251.130318,689.485948
22310.644212,-2886.803174,-10955.047942,-2145.067394
22310.644545,-4811.338623,-11547.212695,-6205.373534
22310.644878,-3256.906145,-8734.430116,-1608.800546
22310.645211,-2516.700203,-8956.491898,-4903.011187
22310.645544,-2368.659014,-13841.851115,919.314598
22310.645877,-666.185348,-7402.059420,3447.429741
22310.646211,-74.020594,-8290.306550,3600.648841
22310.646544,592.164754,-4811.338623,1225.752797
22310.646877,740.205942,-10658.965565,4213.525239
22310.647210,3182.885551,-8956.491898,3217.601092
22310.647543,2960.823768,-5403.503377,2451.505594
22310.647876,5255.462188,-11251.130318,1455.581446
22310.648210,4219.173869,-9474.636058,-1302.362347
22310.648543,-1702.473667,-12731.542202,-229.828649
22310.648876,-1406.391290,-8660.409521,-5898.935335
22310.649209,-3627.009116,-12139.377449,-2528.115143
22310.649542,0.000000,-9030.512492,-76.609550
22310.649875,-74.020594,-10658.965565,1762.019645
22310.650209,-1554.432478,-5403.503377,2451.505594
22310.650542,2960.823768,-5551.544565,7354.516781
22310.650875,2294.638420,-5477.523971,2528.115143
22310.651208,4071.132681,-7994.224174,2374.896044
22310.651541,740.205942,-8512.368333,-76.609550
22310.651874,-666.185348,-12139.377449,-1915.238745
22310.652207,2368.659014,-9548.656652,0.000000
22310.652541,0.000000,-13323.706956,-689.485948
22310.652874,2294.638420,-7179.997637,-4749.792088
22310.653207,-1554.432478,-8660.409521,-3677.258390
22310.653540,0.000000,-10658.965565,-1915.238745
22310.653873,-1184.329507,-12657.521608,1915.238745
22310.654206,2368.659014,-9326.594869,4596.572988
22310.654539,2886.803174,-7698.141797,1149.143247
22310.654872,2368.659014,-7550.100608,4519.963438
22310.655206,3997.112087,-9030.512492,6818.249932
22310.655539,3478.967927,-9474.636058,4826.401637
22310.655872,-2960.823768,-6291.750507,0.000000
22310.656205,-1924.535449,-7698.141797,-2528.115143
22310.656538,-4811.338623,-13027.624579,-7431.126331
22310.656871,-3552.988522,-9548.656652,-1838.629195
22310.657204,222.061783,-7031.956449,-1225.752797
22310.657537,-4367.215058,-12509.480420,-2298.286494
22310.657871,-1110.308913,-9326.594869,-689.485948
22310.658204,-1998.556043,-11843.295072,612.876398
22310.658537,4959.379811,-8956.491898,4060.306139
22310.658870,5551.544565,-7031.956449,6358.592633
22310.659203,2886.803174,-8808.450710,4519.963438
22310.659536,1480.411884,-8956.491898,1225.752797
22310.659869,0.000000,-6587.832884,1225.752797
22310.660203,4663.297435,-9474.636058,-1915.238745
22310.660536,-1036.288319,-9548.656652,0.000000
22310.660869,296.082377,-7698.141797,-3907.087040
22310.661202,-4811.338623,-10658.965565,-3140.991542
22310.661535,-4145.153275,-8956.491898,-2451.505594
22310.661868,-518.144159,-6661.853478,-306.438199
22310.662201,-2960.823768,-9770.718434,3217.601092
22310.662534,2368.659014,-5403.503377,0.000000
22310.662868,-666.185348,-11251.130318,3677.258390
22310.663201,4663.297435,-8882.471304,-76.609550
22310.663534,4145.153275,-7476.080014,2451.505594
22310.663867,0.000000,-11917.315666,4290.134789
22310.664200,4737.318029,-6291.750507,306.438199
22310.664533,-3552.988522,-12139.377449,-689.485948
22310.664866,2812.782580,-7624.121203,-4673.182538
22310.665199,-1332.370696,-10881.027347,-1608.800546
22310.665533,1702.473667,-11843.295072,-76.609550
22310.665866,0.000000,-9548.656652,1225.752797
22310.666199,-666.185348,-10658.965565,-76.609550
22310.666532,4145.153275,-4811.338623,3983.696590
22310.666865,4071.132681,-9474.636058,6052.154434
22310.667198,3478.967927,-10362.883188,-76.609550
22310.667531,-74.020594,-12435.459826,2987.772442
22310.667864,-3108.864956,-8364.327145,536.266849
22310.668198,-888.247130,-3256.906145,-1838.629195
22310.668531,-3627.009116,-8438.347739,-2834.553343
22310.668864,-2146.597232,-12065.356855,-2528.115143
22310.669197,-3997.112087,-7328.038826,0.000000
22310.669530,-3627.009116,-6291.750507,-3677.258390
22310.669863,-370.102971,-11843.295072,-76.609550
22310.670196,-2738.761985,-7846.182985,0.000000
22310.670530,3330.926739,-9474.636058,1838.629195
22310.670863,3256.906145,-11029.068536,5975.544884
22310.671196,3849.070898,-7920.203579,3677.258390
22310.671529,3923.091493,-8734.430116,2145.067394
22310.671862,4663.297435,-8290.306550,-76.609550
22310.672195,2960.823768,-11621.233289,1225.752797
22310.672528,-814.226536,-14211.954086,4826.401637
22310.672861,3478.967927,-5921.647536,-3753.867940
22310.673195,-5329.482782,-8364.327145,-3677.258390
22310.673528,-962.267725,-7994.224174,-3524.039291
22310.673861,-1702.473667,-7476.080014,689.485948
22310.674194,-1702.473667,-5995.668130,4136.915689
22310.674527,0.000000,-4589.276840,919.314598
22310.674860,-1850.514855,-13027.624579,229.828649
22310.675193,148.041188,-10140.821405,1149.143247
22310.675526,2368.659014,-7328.038826,229.828649
22310.675860,2738.761985,-8660.409521,842.705048
22310.676193,2664.741391,-10436.903782,766.095498
22310.676526,-962.267725,-11547.212695,-2221.676944
22310.676859,0.000000,-9548.656652,-7277.907231
22310.677192,2368.659014,-11473.192101,3600.648841
22310.677525,2738.761985,-9474.636058,229.828649
22310.677858,1702.473667,-7179.997637,3064.381992
22310.678192,-2368.659014,-9104.533087,383.047749
22310.678525,2812.782580,-8660.409521,1991.848295
22310.678858,2368.659014,-9548.656652,6205.373534
22310.679191,4663.297435,-8290.306550,1608.800546
22310.679524,2294.638420,-9474.636058,-76.609550
22310.679857,-3256.906145,-8956.491898,-4596.572988
22310.680190,-2368.659014,-15470.304188,1149.143247
22310.680523,-1924.535449,-8290.306550,-76.609550
22310.680857,-296.082377,-9844.739029,-1302.362347
22310.681190,-1036.288319,-7328.038826,612.876398
22310.681523,-2886.803174,-6661.853478,-3753.867940
22310.681856,-1924.535449,-9252.574275,383.047749
22310.682189,74.020594,-7105.977043,1915.238745
22310.682522,-74.020594,-8438.347739,-1915.238745
22310.682855,2442.679609,-13471.748144,7277.907231
22310.683188,814.226536,-6883.915261,153.219100
22310.683522,1184.329507,-9548.656652,4903.011187
22310.683855,4367.215058,-7105.977043,2987.772442
22310.684188,0.000000,-8364.327145,612.876398
22310.684521,-74.020594,-9918.759623,-1225.752797
22310.684854,-1480.411884,-10510.924376,-3677.258390
22310.685187,0.000000,-11325.150913,153.219100
22310.685520,-1850.514855,-8068.244768,-2145.067394
22310.685853,-2072.576638,-11399.171507,1149.143247
22310.686187,-2442.679609,-5625.565159,-3983.696590
22310.686520,-888.247130,-9844.739029,0.000000
22310.686853,3627.009116,-8068.244768,3217.601092
22310.687186,4811.338623,-8142.265362,2451.505594
22310.687519,3404.947333,-13027.624579,5745.716235
22310.687852,1776.494261,-5181.441594,1378.971896
22310.688185,1702.473667,-11103.089130,-76.609550
22310.688519,592.164754,-8364.327145,-76.609550
22310.688852,1110.308913,-9770.718434,-5898.935335
22310.689185,-1258.350101,-7772.162391,-2451.505594
22310.689518,-2220.617826,-10362.883188,-2528.115143
22310.689851,-2960.823768,-12509.480420,-1532.190996
22310.690184,888.247130,-7624.121203,-76.609550
22310.690517,2738.761985,-9252.574275,2221.676944
22310.690850,3034.844362,-9474.636058,4213.525239
22310.691184,3775.050304,-9474.636058,2987.772442
22310.691517,1184.329507,-9252.574275,2528.115143
22310.691850,1776.494261,-8068.244768,612.876398
22310.692183,814.226536,-12287.418637,2374.896044
22310.692516,-1924.535449,-10214.842000,3907.087040
22310.692849,2294.638420,0.000000,-5592.497135
22310.693182,-3997.112087,-13101.645173,0.000000
22310.693515,-3404.947333,-10510.924376,-76.609550
22310.693849,-2442.679609,-7105.977043,-3830.477490
22310.694182,-4737.318029,-9548.656652,0.000000
22310.694515,3478.967927,-9474.636058,-76.609550
22310.694848,1258.350101,-10658.965565,5515.887586
22310.695181,2516.700203,-6957.935855,2068.457845
22310.695514,1110.308913,-9030.512492,229.828649
22310.695847,74.020594,-8512.368333,0.000000
22310.696180,3849.070898,-9030.512492,4213.525239
22310.696514,1702.473667,-9178.553681,-383.047749
22310.696847,-2368.659014,-8364.327145,-2451.505594
22310.697180,-2516.700203,-13027.624579,-383.047749
22310.697513,-962.267725,-3627.009116,-5975.544884
22310.697846,-1924.535449,-11029.068536,-1072.533697
22310.698179,222.061783,-9992.780217,-689.485948
22310.698512,1036.288319,-11325.150913,2451.505594
22310.698846,592.164754,-9548.656652,3677.258390
22310.699179,4293.194464,-11843.295072,2374.896044
22310.699512,1850.514855,-9548.656652,4903.011187
22310.699845,2960.823768,-4811.338623,4979.620737
22310.700178,3478.967927,-10658.965565,1149.143247
22310.700511,-2960.823768,-10732.986159,76.609550
22310.700844,-5255.462188,-6809.894666,-5745.716235
22310.701177,-814.226536,-7476.080014,-1072.533697
22310.701511,1406.391290,-5921.647536,-2068.457845
22310.701844,-3108.864956,-14804.118840,2068.457845
22310.702177,2294.638420,-4737.318029,-2528.115143
22310.702510,-6513.812290,-10732.986159,0.000000
22310.702843,2960.823768,-10955.047942,3600.648841
22310.703176,3182.885551,-7698.141797,1455.581446
22310.703509,592.164754,-11325.150913,4673.182538
22310.703842,4959.379811,-5551.544565,4673.182538
22310.704176,-814.226536,-5921.647536,-1302.362347
22310.704509,5107.421000,-10955.047942,-689.485948
22310.704842,-4071.132681,-13027.624579,-1302.362347
22310.705175,0.000000,-8512.368333,-4060.306139
22310.705508,-2442.679609,-10584.944971,-2145.067394
22310.705841,74.020594,-9326.594869,-1608.800546
22310.706174,-2368.659014,-9548.656652,0.000000
22310.706507,1184.329507,-8364.327145,7048.078582
22310.706841,3478.967927,-8290.306550,4213.525239
22310.707174,0.000000,-6587.832884,1225.752797
22310.707507,1776.494261,-7476.080014,3983.696590
22310.707840,-1332.370696,-8290.306550,1608.800546
22310.708173,444.123565,-7550.100608,689.485948
22310.708506,-1554.432478,-9252.574275,-766.095498
22310.708839,-74.020594,-5625.565159,-6818.249932
22310.709173,-4811.338623,-12731.542202,-4979.620737
22310.709506,-5329.482782,-10732.986159,-6511.811733
22310.709839,-1258.350101,-10066.800811,-4749.792088
22310.710172,-2368.659014,-11917.315666,2451.505594
22310.710505,7105.977043,-7698.141797,6665.030833
22310.710838,4663.297435,-9178.553681,9729.412825
22310.711171,5329.482782,-5033.400406,4826.401637
22310.711504,3849.070898,-10140.821405,8273.831378
22310.711838,2294.638420,-10140.821405,3524.039291
22310.712171,2368.659014,-6365.771101,-612.876398
22310.712504,1110.308913,-13249.686362,-1302.362347
22310.712837,-1776.494261,-9548.656652,-4596.572988
22310.713170,-1776.494261,-11103.089130,-1915.238745
22310.713503,-74.020594,-8290.306550,-5592.497135
22310.713836,-4737.318029,-7179.997637,-4903.011187
22310.714169,-4219.173869,-11547.212695,-4519.963438
22310.714503,0.000000,-7179.997637,1532.190996
22310.714836,740.205942,-9178.553681,3524.039291
22310.715169,3849.070898,-8216.285956,7737.564530
22310.715502,2442.679609,-5033.400406,3907.087040
22310.715835,2368.659014,-8882.471304,3600.648841
22310.716168,2294.638420,-10658.965565,2374.896044
22310.716501,4071.132681,-9474.636058,-1608.800546
22310.716835,1480.411884,-10436.903782,-919.314598
22310.717168,-888.247130,-8216.285956,-1838.629195
22310.717501,-3034.844362,-9770.718434,-5286.058936
22310.717834,-1998.556043,-11325.150913,0.000000
22310.718167,0.000000,-7105.977043,-2374.896044
22310.718500,1480.411884,-11917.315666,1225.752797
22310.718833,4663.297435,-13915.871710,6052.154434
22310.719166,2960.823768,-4811.338623,7354.516781
22310.719500,2368.659014,-8956.491898,10955.165621
22310.719833,6735.874072,-4737.318029,7277.907231
22310.720166,-3552.988522,-6587.832884,-1225.752797
22310.720499,-2442.679609,-8290.306550,-5592.497135
22310.720832,-7179.997637,-11251.130318,-8120.612279
22310.721165,-8068.244768,-11695.253884,-8656.879127
22310.721498,-3552.988522,-9844.739029,-2145.067394
22310.721831,-3923.091493,-10510.924376,-1302.362347
22310.722165,1036.288319,-7105.977043,536.266849
22310.722498,3182.885551,-8660.409521,6128.763984
22310.722831,8808.450710,-5921.647536,6971.469032
22310.723164,3552.988522,-7772.162391,7354.516781
22310.723497,6439.791695,-11843.295072,3600.648841
22310.723830,3775.050304,-8660.409521,0.000000
22310.724163,592.164754,-12879.583391,3600.648841
22310.724496,6735.874072,-7105.977043,-1608.800546
22310.724830,-6587.832884,-14582.057057,-6052.154434
22310.725163,-4663.297435,-8882.471304,-8963.317327
22310.725496,-5699.585753,-9770.718434,-4979.620737
22310.725829,-5625.565159,-9548.656652,-2451.505594
22310.726162,-1406.391290,-2442.679609,612.876398
22310.726495,-74.020594,-12435.459826,5439.278036
22310.726828,4589.276840,-2812.782580,4060.306139
22310.727162,592.164754,-5699.585753,5362.668486
22310.727495,1702.473667,-10066.800811,1762.019645
22310.727828,2664.741391,-9104.533087,3524.039291
22310.728161,-592.164754,-9918.759623,-1685.410096
22310.728494,1036.288319,-10658.965565,-4826.401637
22310.728827,-2812.782580,-13841.851115,-2757.943793
22310.729160,-3552.988522,-7179.997637,-2451.505594
22310.729493,2294.638420,-8290.306550,-2528.115143
22310.729827,-1628.453072,-10140.821405,0.000000
22310.730160,-1776.494261,-11325.150913,4290.134789
22310.730493,4515.256246,-7105.977043,6128.763984
22310.730826,518.144159,-9474.636058,3140.991542
22310.731159,4367.215058,-8882.471304,3830.477490
22310.731492,3256.906145,-11917.315666,8656.879127
22310.731825,4367.215058,-3108.864956,536.266849
22310.732158,1776.494261,-9474.636058,3294.210641
22310.732492,-7105.977043,-7179.997637,-7967.393179
22310.732825,-3552.988522,-6291.750507,-3677.258390
22310.733158,-5403.503377,-9474.636058,-3140.991542
22310.733491,-962.267725,-7105.977043,-6205.373534
22310.733824,-3478.967927,-10362.883188,-919.314598
22310.734157,-222.061783,-8290.306550,-842.705048
22310.734490,1036.288319,-10658.965565,1072.533697
22310.734823,2368.659014,-11917.315666,5209.449386
22310.735157,4663.297435,-9474.636058,1762.019645
22310.735490,4737.318029,-9548.656652,5515.887586
22310.735823,9400.615463,-13619.789333,6052.154434
22310.736156,4071.132681,-8660.409521,3677.258390
22310.736489,4071.132681,-5921.647536,-76.609550
22310.736822,-2960.823768,-8956.491898,-3447.429741
22310.737155,-3627.009116,-11843.295072,-6205.373534
22310.737489,-1184.329507,-5329.482782,-5056.230287
22310.737822,-6513.812290,-13693.809927,-2298.286494
22310.738155,-1258.350101,-7402.059420,-2374.896044
22310.738488,-5181.441594,-12879.583391,306.438199
22310.738821,-222.061783,-6735.874072,2068.457845
22310.739154,2294.638420,-7105.977043,6281.983084
22310.739487,-1776.494261,-5995.668130,3983.696590
22310.739820,6439.791695,-5921.647536,1762.019645
22310.740154,-2590.720797,-8660.409521,0.000000
22310.740487,3701.029710,-8290.306550,-76.609550
22310.740820,-74.020594,-11843.295072,-1608.800546
22310.741153,1480.411884,-8956.491898,-1838.629195
22310.741486,-370.102971,-11251.130318,-3140.991542
22310.741819,-370.102971,-13101.645173,-1685.410096
22310.742152,-2146.597232,-9474.636058,-3447.429741
22310.742485,2294.638420,-11843.295072,4826.401637
22310.742819,4071.132681,-9992.780217,8273.831378
22310.743152,4737.318029,-5403.503377,7354.516781
22310.743485,2072.576638,-8882.471304,7890.783629
22310.743818,-2442.679609,-7476.080014,306.438199
22310.744151,-1036.288319,-6069.688724,2374.896044
22310.744484,-4737.318029,-7550.100608,-689.485948
22310.744817,-3552.988522,-7476.080014,-8886.707777
22310.745150,-5033.400406,-10584.944971,-5515.887586
22310.745484,-4219.173869,-8364.327145,-7737.564530
22310.745817,-4663.297435,-10732.986159,-2451.505594
22310.746150,518.144159,-11547.212695,2068.457845
22310.746483,4071.132681,-11251.130318,1149.143247
22310.746816,6735.874072,-8660.409521,7354.516781
22310.747149,11473.192101,-9918.759623,7277.907231
22310.747482,6439.791695,-10807.006753,9806.022374
22310.747816,7476.080014,-6365.771101,4826.401637
22310.748149,-740.205942,-10955.047942,2221.676944
22310.748482,-1480.411884,-8216.285956,-3064.381992
22310.748815,-2664.741391,-7846.182985,-2834.553343
22310.749148,-4219.173869,-11251.130318,-5592.497135
22310.749481,-4441.235652,-5107.421000,-5515.887586
22310.749814,-6513.812290,-11325.150913,-689.485948
22310.750147,-2442.679609,-5403.503377,-4290.134789
22310.750481,0.000000,-8956.491898,2911.162892
22310.750814,3108.864956,-10658.965565,4443.353888
22310.751147,4071.132681,-8512.368333,6205.373534
22310.751480,0.000000,-10066.800811,4903.011187
22310.751813,2812.782580,-9326.594869,-2987.772442
22310.752146,2146.597232,-12509.480420,2451.505594
22310.752479,1776.494261,-8364.327145,-1225.752797
22310.752812,3478.967927,-8290.306550,229.828649
22310.753146,-2368.659014,-8438.347739,-1762.019645
22310.753479,-2368.659014,-7476.080014,-6128.763984
22310.753812,2294.638420,-10362.883188,3600.648841
22310.754145,3182.885551,-8882.471304,2374.896044
22310.754478,2886.803174,-7105.977043,2374.896044
22310.754811,1998.556043,-9326.594869,3907.087040
22310.755144,-2368.659014,-12065.356855,689.485948
22310.755477,-296.082377,-9474.636058,612.876398
22310.755811,222.061783,-9326.594869,1225.752797
22310.756144,-370.102971,-10362.883188,-76.609550
22310.756477,-592.164754,-9992.780217,-76.609550
22310.756810,-4811.338623,-9474.636058,-5898.935335
22310.757143,-4737.318029,-9548.656652,-4903.011187
22310.757476,0.000000,-3330.926739,383.047749
22310.757809,592.164754,-8364.327145,612.876398
22310.758142,4589.276840,-5107.421000,2374.896044
22310.758476,4811.338623,-11843.295072,4596.572988
22310.758809,5625.565159,-11251.130318,6511.811733
22310.759142,5477.523971,-7179.997637,2451.505594
22310.759475,3478.967927,-14804.118840,3600.648841
22310.759808,1406.391290,-7772.162391,-3677.258390
22310.760141,1110.308913,-13619.789333,-76.609550
22310.760474,-666.185348,-11843.295072,-1608.800546
22310.760807,-3552.988522,-5403.503377,-2911.162892
22310.761141,-7846.182985,-9992.780217,-3983.696590
22310.761474,-4515.256246,-5699.585753,-1149.143247
22310.761807,-5329.482782,-8586.388927,-383.047749
22310.762140,1184.329507,-3627.009116,1225.752797
22310.762473,2294.638420,-10658.965565,4213.525239
22310.762806,2368.659014,-6883.915261,2451.505594
22310.763139,6291.750507,-9474.636058,4519.963438
22310.763472,1110.308913,-11843.295072,0.000000
22310.763806,9918.759623,-9474.636058,2374.896044
22310.764139,-370.102971,-15174.221811,2757.943793
22310.764472,-1184.329507,-10658.965565,-3524.039291
22310.764805,-2812.782580,-7698.141797,-7201.297681
22310.765138,-74.020594,-14211.954086,3600.648841
22310.765471,4071.132681,-74.020594,0.000000
22310.765804,-1480.411884,-8364.327145,4519.963438
22310.766137,-1258.350101,-9474.636058,-76.609550
22310.766470,-4811.338623,-7920.203579,-3524.039291
22310.766804,-74.020594,-9474.636058,1762.019645
22310.767137,2886.803174,-10066.800811,4749.792088
22310.767470,-1702.473667,-11695.253884,536.266849
22310.767803,-1184.329507,-11325.150913,-1149.143247
22310.768136,2886.803174,-6365.771101,-689.485948
22310.768469,592.164754,-6957.935855,1225.752797
22310.768802,2146.597232,-5477.523971,0.000000
22310.769135,-370.102971,-14804.118840,-612.876398
22310.769469,-1628.453072,1110.308913,-9193.145976
22310.769802,1850.514855,-23686.590144,4826.401637
22310.770135,1702.473667,-888.247130,0.000000
22310.770468,1480.411884,-5995.668130,3064.381992
22310.770801,-4145.153275,-26055.249158,5132.839837
22310.771134,4293.194464,-9918.759623,229.828649
22310.771467,10584.944971,9326.594869,1455.581446
22310.771800,5255.462188,-7105.977043,3830.477490
22310.772134,-74.020594,-13915.871710,3907.087040
22310.772467,-10658.965565,-17320.819043,919.314598
22310.772800,-4811.338623,-11769.274478,-1302.362347
22310.773133,-3627.009116,-14804.118840,-5822.325785
22310.773466,0.000000,-3997.112087,-9806.022374
22310.773799,4219.173869,-9474.636058,-2834.553343
22310.774132,2664.741391,-4219.173869,-3677.258390
22310.774465,4663.297435,-7105.977043,2834.553343
22310.774799,592.164754,-11029.068536,7201.297681
22310.775132,4589.276840,-7476.080014,6818.249932
22310.775465,2886.803174,-6809.894666,6052.154434
22310.775798,5033.400406,-7698.141797,6052.154434
22310.776131,0.000000,-8364.327145,4903.011187
22310.776464,5625.565159,-4293.194464,6971.469032
22310.776797,-1258.350101,-12435.459826,-995.924147
22310.777130,-2442.679609,-17172.777854,1149.143247
22310.777464,-5181.441594,-11399.171507,-4979.620737
22310.777797,-9474.636058,-13989.892304,-7048.078582
22310.778130,-5403.503377,-11325.150913,-4979.620737
22310.778463,-5921.647536,-9548.656652,-6128.763984
22310.778796,3478.967927,-10658.965565,2374.896044
22310.779129,3552.988522,-7328.038826,6128.763984
22310.779462,3478.967927,-9474.636058,-76.609550
22310.779795,1628.453072,-7772.162391,1838.629195
22310.780129,1184.329507,-9844.739029,306.438199
22310.780462,3997.112087,-7846.182985,-1302.362347
22310.780795,4145.153275,-11695.253884,-766.095498
22310.781128,888.247130,-10362.883188,-2221.676944
22310.781461,-74.020594,-9474.636058,-2528.115143
22310.781794,-5107.421000,-9548.656652,-6741.640382
22310.782127,-2146.597232,-10658.965565,-5592.497135
22310.782460,-2442.679609,-8290.306550,-3753.867940
22310.782794,0.000000,-8956.491898,5362.668486
22310.783127,2516.700203,-4367.215058,4366.744339
22310.783460,2738.761985,-6957.935855,6665.030833
22310.783793,3256.906145,-5403.503377,5515.887586
22310.784126,2220.617826,-9178.553681,3600.648841
22310.784459,1702.473667,-8882.471304,2374.896044
22310.784792,-2960.823768,-10732.986159,0.000000
22310.785125,-3775.050304,-12139.377449,-2834.553343
22310.785459,-1258.350101,-9474.636058,-3447.429741
22310.785792,518.144159,-7698.141797,-842.705048
22310.786125,3182.885551,-9474.636058,1455.581446
22310.786458,3330.926739,-6587.832884,4903.011187
22310.786791,0.000000,-9548.656652,6741.640382
22310.787124,4663.297435,-8290.306550,2987.772442
22310.787457,3256.906145,-9992.780217,6128.763984
22310.787790,2368.659014,-9474.636058,8503.660028
22310.788124,4663.297435,-2294.638420,2681.334243
22310.788457,-518.144159,-9918.759623,842.705048
22310.788790,-814.226536,-11325.150913,-3524.039291
22310.789123,-3627.009116,-9326.594869,-4366.744339
22310.789456,-8956.491898,-11029.068536,-7048.078582
22310.789789,-1258.350101,-7698.141797,-6205.373534
22310.790122,-2442.679609,-13027.624579,-995.924147
22310.790455,1776.494261,-8956.491898,3064.381992
22310.790789,3478.967927,-9474.636058,3600.648841
22310.791122,1036.288319,-10436.903782,3064.381992
22310.791455,4071.132681,-9400.615463,2834.553343
22310.791788,3627.009116,-11029.068536,3753.867940
22310.792121,5329.482782,-9548.656652,1302.362347
22310.792454,-2368.659014,-9548.656652,3677.258390
22310.792787,4071.132681,-7105.977043,-4979.620737
22310.793120,-2442.679609,-9474.636058,-1915.238745
22310.793453,-5033.400406,-5107.421000,-7048.078582
22310.793787,-3034.844362,-6883.915261,-7967.393179
22310.794120,-5403.503377,-13767.830521,-3447.429741
22310.794453,-962.267725,-10362.883188,-2451.505594
22310.794786,-1258.350101,-11695.253884,3447.429741
22310.795119,3849.070898,-7105.977043,6741.640382
22310.795452,3701.029710,-9474.636058,4826.401637
22310.795785,4663.297435,-6735.874072,2604.724693
22310.796118,2368.659014,-8068.244768,3600.648841
22310.796452,-74.020594,-9474.636058,2987.772442
22310.796785,-962.267725,-3627.009116,-4596.572988
22310.797118,-3034.844362,-11251.130318,-1915.238745
22310.797451,-888.247130,-6587.832884,-689.485948
22310.797784,0.000000,-6439.791695,0.000000
22310.798117,-1332.370696,-11251.130318,1072.533697
22310.798450,0.000000,-10066.800811,-76.609550
22310.798783,-74.020594,-14211.954086,4826.401637
22310.799117,518.144159,-7772.162391,4903.011187
22310.799450,4367.215058,-9474.636058,4826.401637
22310.799783,2294.638420,-10732.986159,6128.763984
22310.800116,2664.741391,-4959.379811,3753.867940
22310.800449,222.061783,-7920.203579,-2298.286494
22310.800782,-370.102971,-10881.027347,-1225.752797
22310.801115,-2442.679609,-9918.759623,-3907.087040
22310.801448,-1554.432478,-9474.636058,-536.266849
22310.801782,-1776.494261,-11103.089130,-1302.362347
22310.802115,-2220.617826,-8956.491898,-3600.648841
22310.802448,0.000000,-7476.080014,76.609550
22310.802781,592.164754,-9844.739029,2528.115143
22310.803114,1184.329507,-8364.327145,6128.763984
22310.803447,4663.297435,-9474.636058,1762.019645
22310.803780,4441.235652,-10732.986159,612.876398
22310.804113,1184.329507,-11843.295072,2528.115143
22310.804447,3478.967927,-8734.430116,1149.143247
22310.804780,444.123565,-4441.235652,-2757.943793
22310.805113,-1850.514855,-10214.842000,-4749.792088
22310.805446,-4515.256246,-11251.130318,-5898.935335
22310.805779,-1554.432478,-11843.295072,-6818.249932
22310.806112,-1924.535449,-13175.665768,-76.609550
22310.806445,1702.473667,-9178.553681,-76.609550
22310.806778,0.000000,-7179.997637,4903.011187
22310.807112,5033.400406,-6587.832884,6741.640382
22310.807445,3997.112087,-8512.368333,3983.696590
22310.807778,3478.967927,-10288.862594,3600.648841
22310.808111,3923.091493,-7328.038826,2068.457845
22310.808444,-1702.473667,-11399.171507,-536.266849
22310.808777,888.247130,-7179.997637,-3064.381992
22310.809110,-1554.432478,-11251.130318,-3753.867940
22310.809443,-4515.256246,-9178.553681,-5132.839837
22310.809777,-5921.647536,-6587.832884,-3064.381992
22310.810110,-2738.761985,-9474.636058,-2528.115143
22310.810443,0.000000,-5995.668130,1532.190996
22310.810776,-592.164754,-10510.924376,4749.792088
22310.811109,3775.050304,-9400.615463,6665.030833
22310.811442,1554.432478,-8512.368333,3677.258390
22310.811775,740.205942,-10288.862594,5975.544884
22310.812108,3478.967927,-8882.471304,842.705048
22310.812442,-1184.329507,-9548.656652,3064.381992
22310.812775,0.000000,-5995.668130,0.000000
22310.813108,-3034.844362,-11251.130318,-4060.306139
22310.813441,-3256.906145,-8660.409521,-1838.629195
22310.813774,-4219.173869,-9252.574275,-5439.278036
22310.814107,-3701.029710,-9252.574275,-1685.410096
22310.814440,-4071.132681,-10807.006753,-995.924147
22310.814773,1184.329507,-7179.997637,3983.696590
22310.815107,2886.803174,-11621.233289,7201.297681
22310.815440,8438.347739,-5625.565159,6818.249932
22310.815773,1480.411884,-11991.336260,5822.325785
22310.816106,5255.462188,-4737.318029,689.485948
22310.816439,1184.329507,-11029.068536,3600.648841
22310.816772,1998.556043,-10658.965565,2374.896044
22310.817105,1702.473667,-4811.338623,-8273.831378
22310.817438,-5625.565159,-10732.986159,-4749.792088
22310.817772,-1258.350101,-9474.636058,-4979.620737
22310.818105,-4515.256246,-10807.006753,-4060.306139
22310.818438,1110.308913,-11251.130318,842.705048
22310.818771,592.164754,-10436.903782,2145.067394
22310.819104,2960.823768,-7476.080014,3983.696590
22310.819437,1184.329507,-6291.750507,4903.011187
22310.819770,8216.285956,-7105.977043,4213.525239
22310.820103,4737.318029,-5403.503377,3294.210641
22310.820436,2516.700203,-9548.656652,2451.505594
22310.820770,296.082377,-9548.656652,-2374.896044
22310.821103,-3404.947333,-10066.800811,-4366.744339
22310.821436,-666.185348,-7031.956449,-5056.230287
22310.821769,-4145.153275,-9474.636058,-3677.258390
22310.822102,1702.473667,-8882.471304,-689.485948
22310.822435,-4737.318029,-8660.409521,1149.143247
22310.822768,-74.020594,-7179.997637,0.000000
22310.823101,592.164754,-6587.832884,4903.011187
22310.823435,3404.947333,-10658.965565,6665.030833
22310.823768,4293.194464,-8808.450710,4290.134789
22310.824101,3330.926739,-11695.253884,842.705048
22310.824434,-1554.432478,-14063.912898,3524.039291
22310.824767,-1036.288319,-7105.977043,-612.876398
22310.825100,-4219.173869,-7254.018232,-4979.620737
22310.825433,-74.020594,-9178.553681,-76.609550
22310.825766,-6957.935855,-7698.141797,-3753.867940
22310.826100,-3552.988522,-4811.338623,-2451.505594
22310.826433,-1258.350101,-11843.295072,-76.609550
22310.826766,-2146.597232,-8290.306550,459.657299
22310.827099,148.041188,-10732.986159,4290.134789
22310.827432,1924.535449,-9696.697840,2911.162892
22310.827765,2812.782580,-9474.636058,2681.334243
22310.828098,0.000000,-10732.986159,1991.848295
22310.828431,6439.791695,-7994.224174,306.438199
22310.828765,0.000000,-8660.409521,-459.657299
22310.829098,2368.659014,-13101.645173,-76.609550
22310.829431,-666.185348,-9178.553681,2221.676944
22310.829764,0.000000,-3330.926739,-5822.325785
22310.830097,-2664.741391,-11177.109724,-612.876398
22310.830430,-2812.782580,-7105.977043,-3907.087040
22310.830763,-1110.308913,-9104.533087,0.000000
22310.831096,2368.659014,-9548.656652,5822.325785
22310.831430,4367.215058,-8438.347739,1838.629195
22310.831763,2072.576638,-8586.388927,4903.011187
22310.832096,2886.803174,-9252.574275,612.876398
22310.832429,3849.070898,-8660.409521,2374.896044
22310.832762,0.000000,-8956.491898,0.000000
22310.833095,4071.132681,-7698.141797,-1302.362347
22310.833428,-6809.894666,-9548.656652,-3677.258390
22310.833761,-74.020594,-8290.306550,-4366.744339
22310.834095,-1850.514855,-10658.965565,-689.485948
22310.834428,-1184.329507,-5699.585753,0.000000
22310.834761,3330.926739,-8734.430116,1762.019645
22310.835094,1776.494261,-9400.615463,4136.915689
22310.835427,3552.988522,-10436.903782,4903.011187
22310.835760,4589.276840,-9992.780217,4826.401637
22310.836093,3182.885551,-11547.212695,1532.190996
22310.836426,0.000000,-8956.491898,0.000000
22310.836760,4663.297435,-9474.636058,-2528.115143
22310.837093,-1628.453072,-8956.491898,-2451.505594
22310.837426,-2960.823768,-12657.521608,-76.609550
22310.837759,-2072.576638,-5995.668130,-3370.820191
22310.838092,-2294.638420,-9326.594869,153.219100
22310.838425,-3627.009116,-8290.306550,-153.219100
22310.838758,1110.308913,-7994.224174,1149.143247
22310.839091,-74.020594,-7476.080014,1225.752797
22310.839425,1776.494261,-8512.368333,2987.772442
22310.839758,2886.803174,-11843.295072,2987.772442
22310.840091,0.000000,-9104.533087,1532.190996
22310.840424,2590.720797,-9474.636058,-76.609550
22310.840757,222.061783,-10510.924376,842.705048
22310.841090,-2368.659014,-7698.141797,-2911.162892
22310.841423,74.020594,-9844.739029,-1302.362347
22310.841756,-4737.318029,-5403.503377,-1225.752797
22310.842090,-2960.823768,-7179.997637,-2451.505594
22310.842423,-1258.350101,-11251.130318,-76.609550
22310.842756,518.144159,-7846.182985,1532.190996
22310.843089,296.082377,-7179.997637,3983.696590
22310.843422,-74.020594,-10510.924376,3907.087040
22310.843755,2220.617826,-10288.862594,1991.848295
22310.844088,2368.659014,-9548.656652,3677.258390
22310.844421,4293.194464,-9178.553681,1532.190996
22310.844755,-1776.494261,-9548.656652,0.000000
22310.845088,-2220.617826,-7105.977043,-3830.477490
22310.845421,-3330.926739,-11695.253884,-3140.991542
22310.845754,-1184.329507,-6365.771101,-3064.381992
22310.846087,1702.473667,-9474.636058,-76.609550
22310.846420,-3552.988522,-9474.636058,-689.485948
22310.846753,0.000000,-7179.997637,612.876398
22310.847086,518.144159,-11843.295072,4826.401637
22310.847419,5551.544565,-7994.224174,3447.429741
22310.847753,4071.132681,-9474.636058,3600.648841
22310.848086,3701.029710,-10066.800811,3600.648841
22310.848419,2960.823768,-10140.821405,689.485948
22310.848752,1924.535449,-10584.944971,-919.314598
22310.849085,3478.967927,-9474.636058,-3524.039291
22310.849418,-1184.329507,-14582.057057,2987.772442
22310.849751,0.000000,-2442.679609,-612.876398
22310.850084,-1554.432478,-11843.295072,-995.924147
22310.850418,-1924.535449,-6291.750507,-2451.505594
22310.850751,-1036.288319,-6661.853478,-1149.143247
22310.851084,-1332.370696,-11843.295072,2528.115143
22310.851417,3330.926739,-7402.059420,2451.505594
22310.851750,-1850.514855,-9474.636058,3524.039291
22310.852083,5181.441594,-9622.677246,6052.154434
22310.852416,3182.885551,-6513.812290,3600.648841
22310.852749,3701.029710,-6513.812290,-76.609550
22310.853082,-740.205942,-10658.965565,-5592.497135
22310.853415,-5255.462188,-11917.315666,-7354.516781
22310.853748,-4145.153275,-11917.315666,-4903.011187
22310.854081,-1036.288319,-11991.336260,153.219100
22310.854414,1036.288319,-9252.574275,0.000000
22310.854747,2738.761985,-7550.100608,3753.867940
22310.855080,2664.741391,-7772.162391,3447.429741
22310.855413,4145.153275,-3627.009116,2451.505594
22310.855746,6735.874072,-13027.624579,6052.154434
22310.856079,3552.988522,-9548.656652,5592.497135
22310.856412,0.000000,-8364.327145,3677.258390
22310.856745,-370.102971,-9474.636058,-76.609550
22310.857079,-1850.514855,-7698.141797,-6205.373534
22310.857412,-2812.782580,-8956.491898,-2604.724693
22310.857745,-2738.761985,-7105.977043,-4136.915689
22310.858078,-5699.585753,-9548.656652,-4596.572988
22310.858411,-4811.338623,-10066.800811,-2528.115143
22310.858744,-2442.679609,-10658.965565,-1838.629195
22310.859077,2368.659014,-8364.327145,7048.078582
22310.859410,4663.297435,-11695.253884,8503.660028
22310.859743,4071.132681,-6513.812290,2374.896044
22310.860076,2368.659014,-10881.027347,3447.429741
22310.860409,0.000000,-12361.439231,2528.115143
22310.860742,4145.153275,-8438.347739,1225.752797
22310.861075,-1406.391290,-9474.636058,-689.485948
22310.861408,1184.329507,-9548.656652,-1455.581446
22310.861741,-3849.070898,-9104.533087,-3294.210641
22310.862074,-888.247130,-8068.244768,-4519.963438
22310.862407,-1258.350101,-9474.636058,383.047749
22310.862740,-2442.679609,-9548.656652,0.000000
22310.863073,2368.659014,-7920.203579,4290.134789
22310.863406,-74.020594,-13027.624579,6665.030833
22310.863739,-74.020594,-7328.038826,306.438199
22310.864072,-2368.659014,-7179.997637,3447.429741
22310.864405,-1554.432478,-10658.965565,-1302.362347
22310.864738,-4441.235652,-10436.903782,-1072.533697
22310.865071,-8216.285956,-9770.718434,-4826.401637
22310.865405,-5181.441594,-9326.594869,-4826.401637
22310.865738,-9474.636058,-9548.656652,-2451.505594
22310.866071,-5921.647536,-5403.503377,1532.190996
22310.866404,-3034.844362,-5033.400406,0.000000
22310.866737,-2368.659014,-7179.997637,0.000000
22310.867070,0.000000,-9104.533087,6511.811733
22310.867403,-2220.617826,-10140.821405,2451.505594
22310.867736,-962.267725,-11695.253884,2221.676944
22310.868069,-3034.844362,-15100.201217,536.266849
22310.868402,-3997.112087,-12509.480420,2374.896044
22310.868735,-5107.421000,-10658.965565,-1302.362347
22310.869068,-7105.977043,-9992.780217,-76.609550
22310.869401,-10140.821405,-6957.935855,-4596.572988
22310.869734,-8290.306550,-3034.844362,-1302.362347
22310.870067,-7179.997637,-7994.224174,2374.896044
22310.870400,-6291.750507,-5921.647536,1149.143247
22310.870733,-7772.162391,-7846.182985,1455.581446
22310.871066,-4663.297435,-7105.977043,2374.896044
22310.871399,-5699.585753,-11251.130318,1149.143247
22310.871732,-5625.565159,-8068.244768,153.219100
22310.872065,-1258.350101,-13027.624579,1149.143247
22310.872398,-7105.977043,-10732.986159,-2451.505594
22310.872731,-5921.647536,-12805.562797,-76.609550
22310.873064,-5995.668130,-10362.883188,-689.485948
22310.873398,-7772.162391,-7698.141797,-2987.772442
22310.873731,-7550.100608,-7179.997637,153.219100
22310.874064,-7476.080014,-9474.636058,-536.266849
22310.874397,-9030.512492,-7476.080014,1685.410096
22310.874730,-8290.306550,-9548.656652,5515.887586
22310.875063,-4811.338623,-5181.441594,1532.190996
22310.875396,-5181.441594,-9474.636058,6052.154434
22310.875729,-8956.491898,-8882.471304,-1302.362347
22310.876062,-9474.636058,-9548.656652,1225.752797
22310.876395,-12435.459826,-10955.047942,-2528.115143
22310.876728,-10658.965565,-10732.986159,-3064.381992
22310.877061,-12287.418637,-10807.006753,-3217.601092
22310.877394,-11473.192101,-8068.244768,-3983.696590
22310.877727,-10362.883188,-7476.080014,-76.609550
22310.878060,-9844.739029,-4515.256246,0.000000
22310.878393,-7476.080014,-6513.812290,-689.485948
22310.878726,-7328.038826,-9918.759623,1225.752797
22310.879059,-3182.885551,-10881.027347,4826.401637
22310.879392,-5329.482782,-12361.439231,4903.011187
22310.879725,-962.267725,-11695.253884,2221.676944
22310.880058,-4737.318029,-9548.656652,3677.258390
22310.880391,-3034.844362,-11843.295072,2068.457845
22310.880724,-4515.256246,-7105.977043,-2604.724693
22310.881057,-9474.636058,-10732.986159,-3064.381992
22310.881390,-11843.295072,-12065.356855,-3600.648841
22310.881724,-13397.727550,-9770.718434,-2374.896044
22310.882057,-15322.262999,-8438.347739,-4213.525239
22310.882390,-11917.315666,-8882.471304,-689.485948
22310.882723,-11029.068536,-6587.832884,306.438199
22310.883056,-6513.812290,-7105.977043,3677.258390
22310.883389,-5773.606348,-13619.789333,7277.907231
22310.883722,-5477.523971,-5181.441594,4673.182538
22310.884055,-7402.059420,-11177.109724,3907.087040
22310.884388,-7772.162391,-9474.636058,689.485948
22310.884721,-10510.924376,-10362.883188,-2451.505594
22310.885054,-11991.336260,-9770.718434,-3677.258390
22310.885387,-11843.295072,-7698.141797,-4979.620737
22310.885720,-15544.324782,-7179.997637,-4903.011187
22310.886053,-13101.645173,-11251.130318,-1302.362347
22310.886386,-13101.645173,-11547.212695,-1302.362347
22310.886719,-13989.892304,-8364.327145,0.000000
22310.887052,-9548.656652,-7105.977043,2987.772442
22310.887385,-9918.759623,-10658.965565,3983.696590
22310.887718,-7476.080014,-8068.244768,5286.058936
22310.888051,-6809.894666,-9326.594869,4213.525239
22310.888384,-6513.812290,-8142.265362,3064.381992
22310.888717,-8216.285956,-9992.780217,3600.648841
22310.889050,-9548.656652,-10658.965565,-4979.620737
22310.889383,-14804.118840,-9548.656652,-4903.011187
22310.889716,-14804.118840,-9844.739029,-3447.429741
22310.890050,-10140.821405,-7550.100608,-4903.011187
22310.890383,-12583.501014,-10658.965565,-1915.238745
22310.890716,-12879.583391,-10584.944971,-612.876398
22310.891049,-10658.965565,-9622.677246,3217.601092
22310.891382,-6217.729913,-7772.162391,5209.449386
22310.891715,-2738.761985,-8734.430116,9269.755526
22310.892048,-5773.606348,-7254.018232,4979.620737
22310.892381,-5551.544565,-8586.388927,2221.676944
22310.892714,-8364.327145,-10658.965565,-76.609550
22310.893047,-11251.130318,-11251.130318,-3753.867940
22310.893380,-14211.954086,-9548.656652,-3983.696590
22310.893713,-12213.398043,-10955.047942,-4979.620737
22310.894046,-10881.027347,-8290.306550,-6205.373534
22310.894379,-8068.244768,-7105.977043,-689.485948
22310.894712,-6365.771101,-9104.533087,2221.676944
22310.895045,-7476.080014,-9474.636058,3294.210641
22310.895378,-7550.100608,-9844.739029,4290.134789
22310.895711,-6439.791695,-9474.636058,3753.867940
22310.896044,-4219.173869,-10955.047942,6052.154434
22310.896377,-3552.988522,-9844.739029,8810.098227
22310.896710,-2442.679609,-7994.224174,1302.362347
22310.897043,-7105.977043,-6587.832884,-3370.820191
22310.897376,-10510.924376,-9548.656652,-3677.258390
22310.897709,-12657.521608,-10436.903782,-7354.516781
22310.898043,-11917.315666,-10584.944971,-4519.963438
22310.898376,-11621.233289,-10362.883188,-2068.457845
22310.898709,-8882.471304,-7624.121203,995.924147
22310.899042,-7031.956449,-3108.864956,2681.334243
22310.899375,-4071.132681,-7994.224174,6665.030833
22310.899708,-5403.503377,-8882.471304,2681.334243
22310.900041,-11843.295072,-10881.027347,1225.752797
22310.900374,-11843.295072,-13175.665768,-76.609550
22310.900707,-13767.830521,-12213.398043,-612.876398
22310.901040,-11325.150913,-9548.656652,-1225.752797
22310.901373,-9918.759623,-5699.585753,383.047749
22310.901706,-9030.512492,-4367.215058,-76.609550
22310.902039,-9474.636058,-4219.173869,0.000000
22310.902372,-9548.656652,-8882.471304,-2528.115143
22310.902705,-10732.986159,-9474.636058,-2528.115143
22310.903038,-13027.624579,-12065.356855,0.000000
22310.903371,-11325.150913,-14211.954086,-76.609550
22310.903704,-11917.315666,-13471.748144,-383.047749
22310.904037,-13323.706956,-11621.233289,-76.609550
22310.904370,-13101.645173,-10732.986159,1991.848295
22310.904703,-11917.315666,-9030.512492,4060.306139
22310.905036,-9548.656652,-8882.471304,6665.030833
22310.905369,-8660.409521,-2590.720797,2451.505594
22310.905702,-8290.306550,-2590.720797,5898.935335
22310.906035,-3627.009116,-4737.318029,2987.772442
22310.906369,-6883.915261,-4589.276840,-4290.134789
22310.906702,-7550.100608,-10955.047942,-5592.497135
22310.907035,-8660.409521,-13545.768739,-7660.954980
22310.907368,-8882.471304,-16358.551318,-7354.516781
22310.907701,-5847.626942,-15544.324782,-4826.401637
22310.908034,-1258.350101,-14804.118840,2374.896044
22310.908367,0.000000,-9548.656652,5209.449386
22310.908700,1036.288319,-6365.771101,7354.516781
22310.909033,1406.391290,-6217.729913,8733.488677
22310.909366,0.000000,-3923.091493,6128.763984
22310.909699,-2368.659014,-5699.585753,5669.106685
22310.910032,-1258.350101,-5921.647536,229.828649
22310.910365,-3034.844362,-6809.894666,-4136.915689
22310.910698,-3552.988522,-8660.409521,-2757.943793
22310.911031,-2664.741391,-11843.295072,-2221.676944
22310.911364,-3701.029710,-13471.748144,-1915.238745
22310.911697,-4219.173869,-12583.501014,-1608.800546
22310.912030,-2886.803174,-11769.274478,1302.362347
22310.912363,-1480.411884,-9548.656652,6588.421283
22310.912696,0.000000,-7920.203579,10648.727422
22310.913029,-962.267725,-5107.421000,5515.887586
22310.913362,-3552.988522,-6587.832884,6128.763984
22310.913695,-3034.844362,-8290.306550,4826.401637
22310.914028,-4145.153275,-8956.491898,2757.943793
22310.914362,-3256.906145,-10658.965565,4366.744339
22310.914695,-2960.823768,-10436.903782,4596.572988
22310.915028,-2664.741391,-10436.903782,5286.058936
22310.915361,-1258.350101,-10658.965565,4826.401637
22310.915694,0.000000,-12213.398043,9729.412825
22310.916027,-370.102971,-10732.986159,9806.022374
22310.916360,-3256.906145,-10732.986159,13023.623466
22310.916693,-4737.318029,-9252.574275,14096.157163
22310.917026,-3034.844362,-8882.471304,13406.671215
22310.917359,-4959.379811,-6587.832884,13176.842566
22310.917692,-4885.359217,-6143.709319,14938.862211
22310.918025,-5033.400406,-5699.585753,14709.033562
22310.918358,-7698.141797,-5551.544565,13789.718964
22310.918691,-4811.338623,-8290.306550,13406.671215
22310.919024,-4145.153275,-9252.574275,17160.539155
22310.919357,-2368.659014,-8808.450710,20454.749797
22310.919690,-1258.350101,-8512.368333,18462.901502
22310.920023,-2072.576638,-7179.997637,19612.044749
22310.920356,666.185348,-7476.080014,21986.940793
22310.920689,814.226536,-5625.565159,22063.550342
22310.921022,1480.411884,-4811.338623,21144.235745
22310.921355,2294.638420,-6513.812290,19535.435199
22310.921688,-1258.350101,-3034.844362,15934.786358
22310.922021,592.164754,-8882.471304,18922.558801
22310.922354,-666.185348,-9474.636058,15551.738609
22310.922688,-4441.235652,-9548.656652,16547.662757
22310.923021,-3552.988522,-8660.409521,17773.415554
22310.923354,0.000000,-7624.121203,21220.845295
22310.923687,3923.091493,-4737.318029,22676.426741
22310.924020,3997.112087,-6217.729913,23289.303139
22310.924353,7031.956449,-6365.771101,25051.322785
22310.924686,2664.741391,-1554.432478,18692.730151
22310.925019,3182.885551,-4663.297435,14862.252661
22310.925352,-518.144159,-5699.585753,11491.432470
22310.925685,-2664.741391,-10140.821405,11108.384721
22310.926018,-2812.782580,-10658.965565,12793.794817
22310.926351,-4367.215058,-8956.491898,9806.022374
22310.926684,-4441.235652,-9548.656652,13483.280765
22310.927017,2886.803174,-9474.636058,16471.053207
22310.927350,3330.926739,-9178.553681,18692.730151
22310.927683,2368.659014,-7772.162391,19458.825649
22310.928016,296.082377,-9548.656652,14709.033562
22310.928349,0.000000,-10658.965565,13713.109414
22310.928682,-148.041188,-8290.306550,13176.842566
22310.929015,1998.556043,-7105.977043,11261.603821
22310.929348,148.041188,-4811.338623,9806.022374
22310.929681,148.041188,-8586.388927,10418.898773
22310.930014,-74.020594,-9474.636058,9116.536426
22310.930347,-4219.173869,-4071.132681,3217.601092
22310.930681,-4811.338623,-6513.812290,-76.609550
22310.931014,-2664.741391,-10436.903782,4136.915689
22310.931347,2368.659014,-12139.377449,10725.336972
22310.931680,814.226536,-11547.212695,10495.508323
22310.932013,-888.247130,-7920.203579,6128.763984
22310.932346,-4145.153275,-7772.162391,6128.763984
22310.932679,1702.473667,-9178.553681,4826.401637
22310.933012,3256.906145,-4811.338623,2604.724693
22310.933345,1184.329507,-10881.027347,5439.278036
22310.933678,-74.020594,-6883.915261,-1838.629195
22310.934011,-1258.350101,-8734.430116,-689.485948
22310.934344,-1184.329507,-5551.544565,-612.876398
22310.934677,-888.247130,-4145.153275,-3830.477490
22310.935010,592.164754,-11177.109724,306.438199
22310.935343,3182.885551,-17468.860231,6665.030833
22310.935676,3182.885551,-17764.942608,7737.564530
22310.936009,2368.659014,-10436.903782,11031.775171
22310.936342,4737.318029,-6883.915261,13406.671215
22310.936675,2886.803174,-3330.926739,4903.011187
22310.937008,2590.720797,-4737.318029,1378.971896
22310.937341,-1036.288319,-11843.295072,-1149.143247
22310.937674,-3330.926739,-10955.047942,-2528.115143
22310.938007,-1850.514855,-9992.780217,612.876398
22310.938340,-2146.597232,-8882.471304,-76.609550
22310.938673,-1406.391290,-5033.400406,-1072.533697
22310.939007,444.123565,-12435.459826,2528.115143
22310.939340,2590.720797,-13619.789333,4826.401637
22310.939673,2368.659014,-14285.974681,7507.735880
22310.940006,592.164754,-11917.315666,12257.527968
22310.940339,3478.967927,-12435.459826,14632.424012
22310.940672,3478.967927,-11251.130318,14632.424012
22310.941005,-74.020594,-2072.576638,7584.345430
22310.941338,-1554.432478,-5329.482782,2221.676944
22310.941671,-74.020594,-6513.812290,4673.182538
22310.942004,-962.267725,-7920.203579,7967.393179
22310.942337,-3108.864956,-7476.080014,8350.440928
22310.942670,-3627.009116,-8142.265362,4826.401637
22310.943003,-2368.659014,-12509.480420,9729.412825
22310.943336,1702.473667,-9770.718434,10801.946522
22310.943669,0.000000,-6587.832884,9882.631924
22310.944002,592.164754,-8364.327145,12870.404366
22310.944335,1406.391290,-9918.759623,14709.033562
22310.944668,2886.803174,-12435.459826,21220.845295
22310.945001,1258.350101,-7105.977043,18386.291952
22310.945334,74.020594,-4441.235652,13636.499864
22310.945667,0.000000,-370.102971,11338.213370
22310.946000,1702.473667,-3256.906145,13406.671215
22310.946333,-74.020594,-5477.523971,13176.842566
22310.946666,-2072.576638,-6291.750507,13636.499864
22310.947000,-74.020594,-9474.636058,12793.794817
22310.947333,0.000000,-8660.409521,15475.129060
22310.947666,2738.761985,-9400.615463,18003.244203
22310.947999,2812.782580,-8438.347739,20684.578446
22310.948332,3182.885551,-6069.688724,17773.415554
22310.948665,3552.988522,-10881.027347,22063.550342
22310.948998,3478.967927,-13027.624579,18309.682402
22310.949331,814.226536,-8660.409521,15858.176809
22310.949664,-2960.823768,-5995.668130,16394.443657
22310.949997,-1554.432478,1776.494261,7890.783629
22310.950330,-1480.411884,-5477.523971,10955.165621
22310.950663,-2146.597232,-10066.800811,12793.794817
22310.950996,-1924.535449,-9548.656652,12257.527968
22310.951329,-2516.700203,-9474.636058,14555.814462
22310.951662,1110.308913,-7105.977043,15858.176809
22310.951995,3182.885551,-3923.091493,13483.280765
22310.952328,3849.070898,-7179.997637,19075.777900
22310.952661,4367.215058,-10510.924376,17083.929605
22310.952994,2294.638420,-11251.130318,13406.671215
