#time,accel_x,accel_y,accel_z
22516.625455,6439.791695,-7846.182985,2528.115143
22516.625789,3256.906145,-8438.347739,0.000000
22516.626123,2368.659014,-8660.409521,-2757.943793
22516.626456,1850.514855,-7624.121203,-5822.325785
22516.626790,1776.494261,-11029.068536,-2604.724693
22516.627124,5551.544565,-11843.295072,-2528.115143
22516.627457,4515.256246,-9548.656652,0.000000
22516.627791,11473.192101,-11843.295072,6052.154434
22516.628125,8512.368333,-7328.038826,3064.381992
22516.628458,11177.109724,-9474.636058,4903.011187
22516.628792,11547.212695,-8068.244768,4903.011187
22516.629126,10955.047942,-8068.244768,2911.162892
22516.629459,9770.718434,-7772.162391,1225.752797
22516.629793,9474.636058,-10955.047942,-76.609550
22516.630127,8068.244768,-8956.491898,-3983.696590
22516.630460,6735.874072,-7772.162391,-4596.572988
22516.630794,5921.647536,-11251.130318,-3830.477490
22516.631128,3552.988522,-11769.274478,-2528.115143
22516.631461,2812.782580,-11621.233289,-2298.286494
22516.631795,3775.050304,-10955.047942,1608.800546
22516.632129,5033.400406,-8956.491898,4290.134789
22516.632462,8216.285956,-8290.306550,8197.221829
22516.632796,10584.944971,-7105.977043,7277.907231
22516.633130,7402.059420,-4811.338623,8733.488677
22516.633463,10288.862594,-6513.812290,4826.401637
22516.633797,7031.956449,-6513.812290,-1915.238745
22516.634131,5329.482782,-7772.162391,-2681.334243
22516.634464,5847.626942,-8882.471304,-6128.763984
22516.634798,5107.421000,-10955.047942,-6665.030833
22516.635132,5255.462188,-12213.398043,-6971.469032
22516.635465,8808.450710,-13915.871710,-2528.115143
22516.635799,10288.862594,-11991.336260,612.876398
22516.636133,10362.883188,-11251.130318,3524.039291
22516.636466,10881.027347,-11029.068536,4673.182538
22516.636800,9474.636058,-7179.997637,5515.887586
22516.637134,12213.398043,-4811.338623,6741.640382
22516.637467,15322.262999,-5921.647536,6665.030833
22516.637801,10288.862594,-4293.194464,1915.238745
22516.638135,7105.977043,-7476.080014,612.876398
22516.638468,4145.153275,-7920.203579,-4290.134789
22516.638802,2664.741391,-10214.842000,-6128.763984
22516.639136,1258.350101,-10362.883188,-6971.469032
22516.639469,3330.926739,-11695.253884,-4213.525239
22516.639803,7031.956449,-11473.192101,2221.676944
22516.640136,9696.697840,-7179.997637,3064.381992
22516.640470,15026.180623,-9474.636058,4213.525239
22516.640804,12435.459826,-6291.750507,6128.763984
22516.641137,11843.295072,-7179.997637,6588.421283
22516.641471,12879.583391,-8068.244768,2451.505594
22516.641805,10140.821405,-8586.388927,-2528.115143
22516.642138,7920.203579,-9252.574275,-4060.306139
22516.642472,6883.915261,-10584.944971,-3830.477490
22516.642806,5329.482782,-11843.295072,-4519.963438
22516.643139,3552.988522,-10732.986159,-1685.410096
22516.643473,8364.327145,-7994.224174,-1378.971896
22516.643807,11843.295072,-7476.080014,6128.763984
22516.644140,17690.922014,-6809.894666,7277.907231
22516.644474,16210.510130,-7402.059420,4826.401637
22516.644808,15914.427753,-8882.471304,2987.772442
22516.645141,13841.851115,-8882.471304,995.924147
22516.645475,11177.109724,-10214.842000,-1608.800546
22516.645809,7031.956449,-11399.171507,-5975.544884
22516.646142,6439.791695,-13619.789333,-4979.620737
22516.646476,5921.647536,-8364.327145,-3064.381992
22516.646810,7105.977043,-7179.997637,0.000000
22516.647143,11769.274478,-8290.306550,1762.019645
22516.647477,11251.130318,-7772.162391,3064.381992
22516.647811,12065.356855,-9548.656652,5209.449386
22516.648144,13101.645173,-8068.244768,4673.182538
22516.648478,13101.645173,-7328.038826,2987.772442
22516.648812,14211.954086,-7698.141797,1915.238745
22516.649145,13397.727550,-6587.832884,-2757.943793
22516.649479,10066.800811,-9548.656652,0.000000
22516.649813,8808.450710,-12731.542202,-1915.238745
22516.650146,5847.626942,-11843.295072,-5132.839837
22516.650480,2368.659014,-9548.656652,-3677.258390
22516.650814,8216.285956,-8364.327145,-612.876398
22516.651147,9474.636058,-6809.894666,1991.848295
22516.651481,11177.109724,-7994.224174,4213.525239
22516.651815,11843.295072,-8290.306550,5975.544884
22516.652148,12657.521608,-7920.203579,4903.011187
22516.652482,13545.768739,-7328.038826,4366.744339
22516.652816,13989.892304,-8290.306550,1685.410096
22516.653149,11917.315666,-7698.141797,-1608.800546
22516.653483,9400.615463,-10362.883188,-3140.991542
22516.653817,6883.915261,-12435.459826,-6205.373534
22516.654150,3552.988522,-9548.656652,-7354.516781
22516.654484,7105.977043,-9548.656652,-766.095498
22516.654817,12065.356855,-9474.636058,1762.019645
22516.655151,5921.647536,-8364.327145,306.438199
22516.655485,5995.668130,-11695.253884,0.000000
22516.655818,11251.130318,-8438.347739,5745.716235
22516.656152,13619.789333,-6883.915261,9116.536426
22516.656486,15914.427753,-3256.906145,6052.154434
22516.656819,10584.944971,-9178.553681,383.047749
22516.657153,7105.977043,-9252.574275,-1302.362347
22516.657487,5921.647536,-9548.656652,-689.485948
22516.657820,10288.862594,-8290.306550,-3140.991542
22516.658154,9400.615463,-9030.512492,-2834.553343
22516.658488,4441.235652,-11917.315666,-3294.210641
22516.658821,6143.709319,-10807.006753,-2681.334243
22516.659155,7105.977043,-9548.656652,-2451.505594
22516.659489,8290.306550,-10732.986159,1838.629195
22516.659822,11473.192101,-4811.338623,0.000000
22516.660156,13545.768739,-11843.295072,6665.030833
22516.660490,13841.851115,-3923.091493,3677.258390
22516.660823,10362.883188,-9548.656652,4903.011187
22516.661157,14211.954086,-3627.009116,2987.772442
22516.661491,11843.295072,-9030.512492,1685.410096
22516.661824,8512.368333,-9104.533087,-2604.724693
22516.662158,7476.080014,-11177.109724,-3447.429741
22516.662492,8068.244768,-11251.130318,-3447.429741
22516.662825,5921.647536,-7179.997637,-2298.286494
22516.663159,9178.553681,-9178.553681,-3753.867940
22516.663493,11769.274478,-9918.759623,76.609550
22516.663826,11843.295072,-7179.997637,1225.752797
22516.664160,14952.160028,-11843.295072,7354.516781
22516.664494,11991.336260,-8882.471304,2987.772442
22516.664827,12657.521608,-10881.027347,2374.896044
22516.665161,10881.027347,-8586.388927,2911.162892
22516.665495,12435.459826,-5329.482782,306.438199
22516.665828,14211.954086,-10362.883188,1762.019645
22516.666162,8660.409521,-7476.080014,-3064.381992
22516.666496,8216.285956,-7772.162391,-3677.258390
22516.666829,5773.606348,-11251.130318,-1915.238745
22516.667163,9400.615463,-10658.965565,-3064.381992
22516.667497,9030.512492,-10214.842000,-1915.238745
22516.667830,9548.656652,-10955.047942,1838.629195
22516.668164,11769.274478,-7179.997637,3983.696590
22516.668498,8216.285956,-7254.018232,2068.457845
22516.668831,11695.253884,-9178.553681,3447.429741
22516.669165,12287.418637,-9696.697840,3140.991542
22516.669498,12805.562797,-10066.800811,3983.696590
22516.669832,8808.450710,-7105.977043,3907.087040
22516.670166,5255.462188,-7105.977043,-3140.991542
22516.670499,7254.018232,-6291.750507,1225.752797
22516.670833,7402.059420,-8734.430116,-1302.362347
22516.671167,9104.533087,-7698.141797,-3064.381992
22516.671500,2960.823768,-10140.821405,-2451.505594
22516.671834,5551.544565,-11621.233289,-4903.011187
22516.672168,7624.121203,-8586.388927,2068.457845
22516.672501,6735.874072,-10658.965565,153.219100
22516.672835,9548.656652,-12139.377449,4366.744339
22516.673169,7698.141797,-7179.997637,3983.696590
22516.673502,8808.450710,-12731.542202,6665.030833
22516.673836,8808.450710,-4737.318029,4519.963438
22516.674170,2960.823768,-6587.832884,0.000000
22516.674503,3478.967927,-11843.295072,-76.609550
22516.674837,1184.329507,-5403.503377,-2757.943793
22516.675171,5255.462188,-5181.441594,-9116.536426
22516.675504,-4811.338623,-15544.324782,-3600.648841
22516.675838,2812.782580,-8808.450710,-2604.724693
22516.676172,3552.988522,-14730.098246,1762.019645
22516.676505,12361.439231,-11251.130318,6665.030833
22516.676839,2664.741391,-7772.162391,0.000000
22516.677173,3552.988522,-9548.656652,6435.202183
22516.677506,7254.018232,-8882.471304,5745.716235
22516.677840,4293.194464,-8216.285956,2681.334243
22516.678174,3923.091493,-9992.780217,3140.991542
22516.678507,2368.659014,-5847.626942,-1072.533697
22516.678841,3404.947333,-10436.903782,-2757.943793
22516.679175,1998.556043,-3330.926739,-2221.676944
22516.679508,4663.297435,-8882.471304,-2528.115143
22516.679842,0.000000,-10140.821405,-1532.190996
22516.680176,8216.285956,-8586.388927,-1302.362347
22516.680509,-74.020594,-17542.880825,-3677.258390
22516.680843,2960.823768,-11473.192101,4826.401637
22516.681177,3552.988522,-8808.450710,3677.258390
22516.681510,6217.729913,-7179.997637,7201.297681
22516.681844,8364.327145,-3478.967927,4903.011187
22516.682178,5847.626942,-7698.141797,4213.525239
22516.682511,74.020594,-9104.533087,-1991.848295
22516.682845,-962.267725,-9622.677246,-3294.210641
22516.683179,-4367.215058,-9326.594869,-6511.811733
22516.683512,888.247130,-5995.668130,-3677.258390
22516.683846,148.041188,-8660.409521,-1225.752797
22516.684180,5551.544565,-10658.965565,-76.609550
22516.684513,4145.153275,-9030.512492,1762.019645
22516.684847,2368.659014,-10732.986159,3217.601092
22516.685180,3552.988522,-11325.150913,4290.134789
22516.685514,2960.823768,-6735.874072,-1225.752797
22516.685848,1258.350101,-11917.315666,3370.820191
22516.686181,1702.473667,-8734.430116,-995.924147
22516.686515,4663.297435,-10362.883188,2374.896044
22516.686849,0.000000,-5995.668130,3907.087040
22516.687182,-666.185348,-5921.647536,-6971.469032
22516.687516,-2368.659014,-10436.903782,-1302.362347
22516.687850,-74.020594,-10362.883188,-995.924147
22516.688183,1110.308913,-9178.553681,-76.609550
22516.688517,2146.597232,-7550.100608,2987.772442
22516.688851,5625.565159,-9326.594869,2374.896044
22516.689184,1332.370696,-9992.780217,1915.238745
22516.689518,2516.700203,-12583.501014,4136.915689
22516.689852,1406.391290,-11399.171507,-76.609550
22516.690185,0.000000,-7772.162391,-4290.134789
22516.690519,-2368.659014,-11325.150913,-1685.410096
22516.690853,-2442.679609,-7624.121203,-2374.896044
22516.691186,-5181.441594,-6587.832884,-3064.381992
22516.691520,-1258.350101,-6365.771101,-2604.724693
22516.691854,1776.494261,-7994.224174,1149.143247
22516.692187,296.082377,-8290.306550,4060.306139
22516.692521,-740.205942,-9918.759623,2221.676944
22516.692855,-1554.432478,-10658.965565,-76.609550
22516.693188,-4737.318029,-12509.480420,1838.629195
22516.693522,6439.791695,-6513.812290,7277.907231
22516.693856,1110.308913,-5995.668130,1225.752797
22516.694189,0.000000,-7624.121203,612.876398
22516.694523,-5329.482782,-13101.645173,-612.876398
22516.694857,-4441.235652,-7920.203579,-4443.353888
22516.695190,518.144159,-7772.162391,842.705048
22516.695524,-1702.473667,-5773.606348,-6741.640382
22516.695858,-2368.659014,-7179.997637,-2451.505594
22516.696191,-6291.750507,-14211.954086,-689.485948
22516.696525,2368.659014,-9548.656652,2451.505594
22516.696859,2368.659014,-7772.162391,9806.022374
22516.697192,6513.812290,-8882.471304,6665.030833
22516.697526,4737.318029,-5995.668130,3677.258390
22516.697860,-2146.597232,-10658.965565,1762.019645
22516.698193,2368.659014,-7550.100608,-2374.896044
22516.698527,-74.020594,-10955.047942,919.314598
22516.698861,0.000000,-8660.409521,-2145.067394
22516.699194,-4959.379811,-10584.944971,-5209.449386
22516.699528,-6365.771101,-11325.150913,-4366.744339
22516.699861,666.185348,-6809.894666,-2528.115143
22516.700195,2886.803174,-10658.965565,3600.648841
22516.700529,5329.482782,-5551.544565,4903.011187
22516.700862,-444.123565,-12287.418637,6665.030833
22516.701196,-1258.350101,-9326.594869,229.828649
22516.701530,2516.700203,-7920.203579,5056.230287
22516.701863,7254.018232,-6291.750507,4519.963438
22516.702197,6143.709319,-6587.832884,3140.991542
22516.702531,-5921.647536,-11769.274478,-3370.820191
22516.702864,-3997.112087,-11029.068536,-7124.688131
22516.703198,-3552.988522,-10732.986159,-3677.258390
22516.703532,-2368.659014,-9548.656652,-3064.381992
22516.703865,4663.297435,-7105.977043,-76.609550
22516.704199,-2738.761985,-10658.965565,-1302.362347
22516.704533,148.041188,-8956.491898,2451.505594
22516.704866,5255.462188,-5921.647536,5439.278036
22516.705200,5477.523971,-10658.965565,8120.612279
22516.705533,8216.285956,-3775.050304,6971.469032
22516.705866,518.144159,-5699.585753,919.314598
22516.706200,-4589.276840,-12139.377449,-4903.011187
22516.706533,-1776.494261,-8364.327145,-3064.381992
22516.706866,-74.020594,-15100.201217,-4060.306139
22516.707200,2294.638420,-9548.656652,-1685.410096
22516.707533,-8290.306550,-11917.315666,-3524.039291
22516.707866,-5625.565159,-10732.986159,-4290.134789
22516.708200,-74.020594,-9474.636058,-2528.115143
22516.708533,5921.647536,-7254.018232,10418.898773
22516.708866,6217.729913,-6957.935855,10495.508323
22516.709200,2886.803174,-5773.606348,4826.401637
22516.709533,-2368.659014,-8364.327145,4443.353888
22516.709866,-74.020594,-5551.544565,-3524.039291
22516.710200,3182.885551,-5995.668130,1225.752797
22516.710533,-2960.823768,-10362.883188,-3753.867940
22516.710866,-5995.668130,-13027.624579,-6818.249932
22516.711200,-11917.315666,-12287.418637,-8197.221829
22516.711533,-5921.647536,-13693.809927,-3447.429741
22516.711866,2294.638420,-3552.988522,-383.047749
22516.712200,1184.329507,-14285.974681,5669.106685
22516.712533,4071.132681,-7105.977043,6971.469032
22516.712866,-2368.659014,-7179.997637,4290.134789
22516.713200,5847.626942,-11251.130318,6052.154434
22516.713533,5847.626942,-3849.070898,3753.867940
22516.713866,3552.988522,-3923.091493,2757.943793
22516.714200,-962.267725,-9474.636058,-3294.210641
22516.714533,-6217.729913,-14211.954086,-6052.154434
22516.714866,-3552.988522,-10510.924376,-5132.839837
22516.715200,-2738.761985,-15174.221811,-383.047749
22516.715533,-74.020594,-5921.647536,-76.609550
22516.715866,-4737.318029,-8142.265362,-2834.553343
22516.716200,-4811.338623,-12287.418637,-1455.581446
22516.716533,5921.647536,-1924.535449,3753.867940
22516.716866,2960.823768,-10732.986159,7354.516781
22516.717200,9400.615463,-5921.647536,6511.811733
22516.717533,888.247130,-5995.668130,0.000000
22516.717866,-3552.988522,-13397.727550,-306.438199
22516.718200,4367.215058,-6365.771101,-3217.601092
22516.718533,-1110.308913,-14878.139434,-3064.381992
22516.718866,1406.391290,-9696.697840,0.000000
22516.719200,-74.020594,-7476.080014,-1991.848295
22516.719533,-2590.720797,-14211.954086,766.095498
22516.719866,2294.638420,-8290.306550,-76.609550
22516.720200,5773.606348,-11251.130318,5745.716235
22516.720533,0.000000,-3627.009116,1378.971896
22516.720866,0.000000,-7772.162391,3217.601092
22516.721200,-2442.679609,-9178.553681,-76.609550
22516.721533,0.000000,-11029.068536,3370.820191
22516.721866,5699.585753,-2368.659014,2374.896044
22516.722200,3849.070898,-11473.192101,-76.609550
22516.722533,1110.308913,-11917.315666,-4519.963438
22516.722867,-2442.679609,-11843.295072,-5898.935335
22516.723200,814.226536,-15100.201217,-1302.362347
22516.723533,592.164754,-8364.327145,1302.362347
22516.723867,3182.885551,-8290.306550,2374.896044
22516.724200,-3034.844362,-10658.965565,-2987.772442
22516.724533,2294.638420,-7105.977043,3294.210641
22516.724867,-1924.535449,-8734.430116,2221.676944
22516.725200,6217.729913,-8512.368333,6435.202183
22516.725533,3108.864956,-2812.782580,7890.783629
22516.725867,-1184.329507,-4811.338623,0.000000
22516.726200,-2738.761985,-8068.244768,-5822.325785
22516.726533,-1184.329507,-13397.727550,-76.609550
22516.726867,1702.473667,-9474.636058,-6281.983084
22516.727200,-2368.659014,-10732.986159,-2451.505594
22516.727533,-6513.812290,-11325.150913,-7048.078582
22516.727867,-7179.997637,-16284.530724,-3140.991542
22516.728200,962.267725,-5625.565159,1225.752797
22516.728533,2590.720797,-10510.924376,4673.182538
22516.728867,6439.791695,-4737.318029,8810.098227
22516.729200,0.000000,-6883.915261,5132.839837
22516.729533,-74.020594,-9178.553681,4826.401637
22516.729867,2220.617826,-2442.679609,3064.381992
22516.730200,3404.947333,-11251.130318,5745.716235
22516.730533,444.123565,-5699.585753,-4519.963438
22516.730867,-7105.977043,-12361.439231,-8350.440928
22516.731200,-10288.862594,-16136.489536,-8350.440928
22516.731533,-5033.400406,-9622.677246,-3294.210641
22516.731867,-1258.350101,-8882.471304,1762.019645
22516.732200,-592.164754,-10214.842000,1149.143247
22516.732533,-296.082377,-8364.327145,2834.553343
22516.732867,-1924.535449,-6809.894666,1302.362347
22516.733200,3701.029710,-10510.924376,4443.353888
22516.733533,9400.615463,-6809.894666,7277.907231
22516.733867,4737.318029,-7772.162391,4903.011187
22516.734200,4663.297435,-9474.636058,2374.896044
22516.734533,-3330.926739,-11325.150913,-4903.011187
22516.734867,-3552.988522,-9548.656652,-4903.011187
22516.735200,-74.020594,-11843.295072,-1608.800546
22516.735533,-814.226536,-8438.347739,1225.752797
22516.735867,-3923.091493,-9474.636058,-3447.429741
22516.736200,-8068.244768,-12583.501014,-5975.544884
22516.736533,888.247130,-4811.338623,229.828649
22516.736867,3552.988522,-8216.285956,7277.907231
22516.737200,9400.615463,-4737.318029,8503.660028
22516.737533,2886.803174,-5995.668130,1838.629195
22516.737867,1184.329507,-13397.727550,3907.087040
22516.738200,2886.803174,-6883.915261,0.000000
22516.738533,4515.256246,-10658.965565,-766.095498
22516.738867,3256.906145,-7476.080014,-1838.629195
22516.739200,-2368.659014,-13397.727550,-4903.011187
22516.739533,-4737.318029,-13249.686362,-6128.763984
22516.739867,-370.102971,-14211.954086,-1302.362347
22516.740200,666.185348,-10732.986159,1225.752797
22516.740533,2664.741391,-2442.679609,4903.011187
22516.740867,814.226536,-7105.977043,3600.648841
22516.741200,-4145.153275,-7179.997637,0.000000
22516.741533,2886.803174,-7698.141797,4060.306139
22516.741867,4885.359217,-5255.462188,4826.401637
22516.742200,5255.462188,-7105.977043,6511.811733
22516.742533,-4219.173869,-10658.965565,-76.609550
22516.742867,-4811.338623,-9474.636058,-11721.261119
22516.743200,-7105.977043,-14878.139434,-6128.763984
22516.743533,4959.379811,-10362.883188,-76.609550
22516.743867,-74.020594,-13027.624579,536.266849
22516.744200,-4145.153275,-8660.409521,-766.095498
22516.744533,-5847.626942,-14656.077652,-2604.724693
22516.744867,814.226536,-7105.977043,5822.325785
22516.745200,6735.874072,-5107.421000,6588.421283
22516.745533,5551.544565,-5921.647536,9729.412825
22516.745867,-1036.288319,-5403.503377,689.485948
22516.746200,-4885.359217,-10658.965565,2834.553343
22516.746533,4737.318029,-1332.370696,612.876398
22516.746867,-4737.318029,-14878.139434,0.000000
22516.747200,0.000000,-3627.009116,-3524.039291
22516.747533,-6143.709319,-14804.118840,-8656.879127
22516.747867,-8882.471304,-14285.974681,-9193.145976
22516.748200,-1776.494261,-8660.409521,-1991.848295
22516.748533,-1480.411884,-15174.221811,4443.353888
22516.748867,10362.883188,-296.082377,7277.907231
22516.749200,0.000000,-11473.192101,6435.202183
22516.749533,2294.638420,-4737.318029,1532.190996
22516.749867,7328.038826,-9474.636058,7814.174080
22516.750200,5403.503377,-8364.327145,4979.620737
22516.750533,10584.944971,-4737.318029,3600.648841
22516.750867,-3849.070898,-9548.656652,-2451.505594
22516.751200,-6513.812290,-13249.686362,-7431.126331
22516.751533,-4811.338623,-9474.636058,-7967.393179
22516.751867,-1184.329507,-15766.386565,-1915.238745
22516.752200,1258.350101,-9104.533087,1072.533697
22516.752533,-2664.741391,-8808.450710,766.095498
22516.752867,-3552.988522,-7031.956449,-612.876398
22516.753200,2368.659014,-8364.327145,7890.783629
22516.753533,8586.388927,-2442.679609,5515.887586
22516.753867,8290.306550,-7179.997637,10801.946522
22516.754200,4663.297435,-7550.100608,0.000000
22516.754533,-1850.514855,-11547.212695,-3447.429741
22516.754867,-74.020594,-10658.965565,-4979.620737
22516.755200,74.020594,-14730.098246,-2911.162892
22516.755533,2886.803174,-6217.729913,-3140.991542
22516.755867,-6661.853478,-16210.510130,-5592.497135
22516.756200,-2442.679609,-8882.471304,-2528.115143
22516.756533,-3552.988522,-9548.656652,3983.696590
22516.756867,7105.977043,-9400.615463,7277.907231
22516.757200,9104.533087,-2368.659014,8580.269578
22516.757533,-5921.647536,-9548.656652,306.438199
22516.757867,3478.967927,-4293.194464,689.485948
22516.758200,-3849.070898,-11769.274478,229.828649
22516.758533,8882.471304,-4515.256246,1838.629195
22516.758867,1406.391290,-11325.150913,2068.457845
22516.759200,-1480.411884,-10140.821405,-7048.078582
22516.759533,-4145.153275,-14063.912898,-4979.620737
22516.759867,-4219.173869,-11843.295072,-4979.620737
22516.760200,2442.679609,-10140.821405,-4290.134789
22516.760533,-2368.659014,-11029.068536,6741.640382
22516.760867,1184.329507,-4811.338623,1532.190996
22516.761200,-4515.256246,-8956.491898,2681.334243
22516.761533,3404.947333,-5551.544565,5362.668486
22516.761867,2294.638420,-6587.832884,4749.792088
22516.762200,6291.750507,-2442.679609,7507.735880
22516.762533,-2516.700203,-7254.018232,-2681.334243
22516.762867,-7624.121203,-13397.727550,-4519.963438
22516.763200,-4959.379811,-9918.759623,-4979.620737
22516.763533,-1258.350101,-11843.295072,-4979.620737
22516.763867,1554.432478,-7920.203579,-3064.381992
22516.764200,-4293.194464,-13545.768739,-2451.505594
22516.764533,-296.082377,-12953.603985,-2528.115143
22516.764867,-3034.844362,-14804.118840,2374.896044
22516.765200,7105.977043,-5699.585753,6665.030833
22516.765534,6365.771101,-6883.915261,8197.221829
22516.765867,4959.379811,-4959.379811,6741.640382
22516.766200,518.144159,-6957.935855,1302.362347
22516.766534,-1776.494261,-7846.182985,0.000000
22516.766867,4663.297435,-6291.750507,-2451.505594
22516.767200,-74.020594,-13027.624579,-76.609550
22516.767534,-1850.514855,-9474.636058,-6205.373534
22516.767867,-10214.842000,-12805.562797,-7048.078582
22516.768200,-3627.009116,-7994.224174,-4366.744339
22516.768534,0.000000,-11029.068536,-3830.477490
22516.768867,3478.967927,-10510.924376,6128.763984
22516.769200,4885.359217,-3552.988522,689.485948
22516.769534,148.041188,-11917.315666,4903.011187
22516.769867,4589.276840,-6587.832884,4903.011187
22516.770200,9400.615463,-9474.636058,4826.401637
22516.770534,5107.421000,-8956.491898,3983.696590
22516.770867,4737.318029,-7772.162391,-689.485948
22516.771200,-2960.823768,-12805.562797,-4290.134789
22516.771534,-148.041188,-9474.636058,-1915.238745
22516.771867,0.000000,-7846.182985,-3370.820191
22516.772200,-2664.741391,-10732.986159,-1991.848295
22516.772534,-74.020594,-11843.295072,-1302.362347
22516.772867,-6809.894666,-10436.903782,-306.438199
22516.773200,74.020594,-5921.647536,2068.457845
22516.773534,0.000000,-6587.832884,6741.640382
22516.773867,5847.626942,-4145.153275,8503.660028
22516.774200,2886.803174,-4737.318029,2834.553343
22516.774534,-1332.370696,-11843.295072,-2145.067394
22516.774867,4663.297435,-9474.636058,-4213.525239
22516.775200,740.205942,-15396.283594,2757.943793
22516.775534,-1702.473667,-8660.409521,-3064.381992
22516.775867,-666.185348,-10658.965565,-3753.867940
22516.776200,-9474.636058,-13397.727550,-5822.325785
22516.776534,1184.329507,-9622.677246,-76.609550
22516.776867,1702.473667,-9918.759623,4903.011187
22516.777200,5403.503377,-5477.523971,6665.030833
22516.777534,-1702.473667,-6957.935855,3677.258390
22516.777867,-4367.215058,-7105.977043,2451.505594
22516.778200,4219.173869,-7105.977043,4366.744339
22516.778534,1480.411884,-5551.544565,6741.640382
22516.778867,4663.297435,-4737.318029,1762.019645
22516.779200,-3997.112087,-6217.729913,-8656.879127
22516.779534,-10066.800811,-18135.045579,-8273.831378
22516.779867,-3108.864956,-8956.491898,-7354.516781
22516.780200,-3849.070898,-14285.974681,-3677.258390
22516.780534,1702.473667,-12435.459826,-76.609550
22516.780867,2294.638420,-9178.553681,0.000000
22516.781200,-1776.494261,-10288.862594,5209.449386
22516.781534,9104.533087,-4737.318029,11874.480219
22516.781867,4663.297435,-4219.173869,8580.269578
22516.782200,10436.903782,-4959.379811,10035.851024
22516.782534,222.061783,-8734.430116,1991.848295
22516.782867,-3404.947333,-10436.903782,-6128.763984
22516.783200,-5033.400406,-11325.150913,-6128.763984
22516.783534,-74.020594,-11103.089130,-4673.182538
22516.783867,592.164754,-9548.656652,-2451.505594
22516.784200,-2442.679609,-14211.954086,-2528.115143
22516.784534,-8068.244768,-11473.192101,-7048.078582
22516.784867,0.000000,-7476.080014,-2221.676944
22516.785200,6217.729913,-12879.583391,8656.879127
22516.785534,9474.636058,-2442.679609,12487.356617
22516.785867,4145.153275,-7179.997637,7660.954980
22516.786200,2294.638420,-9178.553681,3600.648841
22516.786534,2294.638420,-6365.771101,-4290.134789
22516.786867,5921.647536,-7920.203579,5286.058936
22516.787200,4663.297435,-11251.130318,-76.609550
22516.787534,-1258.350101,-9548.656652,-7048.078582
22516.787867,-6587.832884,-14211.954086,-7431.126331
22516.788200,-5033.400406,-13841.851115,-5209.449386
22516.788534,2220.617826,-9326.594869,842.705048
22516.788867,2294.638420,-9178.553681,2221.676944
22516.789200,1776.494261,-6587.832884,4366.744339
22516.789534,-3552.988522,-7179.997637,0.000000
22516.789867,2072.576638,-10658.965565,5745.716235
22516.790200,4811.338623,-2442.679609,5209.449386
22516.790534,4737.318029,-6587.832884,6128.763984
22516.790867,3478.967927,-8290.306550,842.705048
22516.791200,-6809.894666,-11325.150913,-6741.640382
22516.791534,-3627.009116,-12139.377449,-7201.297681
22516.791867,-592.164754,-10288.862594,-842.705048
22516.792200,74.020594,-11621.233289,-3524.039291
22516.792534,-2146.597232,-10955.047942,1685.410096
22516.792867,-6661.853478,-11177.109724,0.000000
22516.793200,-1184.329507,-6883.915261,3753.867940
22516.793534,7624.121203,-3552.988522,7277.907231
22516.793867,4071.132681,-9474.636058,4213.525239
22516.794200,592.164754,-3627.009116,6741.640382
22516.794534,-4811.338623,-13915.871710,-2834.553343
22516.794867,-74.020594,-7994.224174,-2451.505594
22516.795200,1702.473667,-10362.883188,1455.581446
22516.795534,370.102971,-10658.965565,-1762.019645
22516.795867,-2590.720797,-6883.915261,-3983.696590
22516.796200,-6587.832884,-15174.221811,-6511.811733
22516.796534,-5033.400406,-15988.448347,229.828649
22516.796867,3849.070898,-4811.338623,6665.030833
22516.797200,1628.453072,-7476.080014,7354.516781
22516.797534,5477.523971,-2368.659014,8197.221829
22516.797867,-2442.679609,-11547.212695,-76.609550
22516.798200,-2368.659014,-6217.729913,-2681.334243
22516.798534,4071.132681,-9178.553681,3447.429741
22516.798867,1554.432478,-12065.356855,-842.705048
22516.799200,5403.503377,-6957.935855,2987.772442
22516.799534,-9844.739029,-14211.954086,-7507.735880
22516.799867,1110.308913,-9474.636058,-5592.497135
22516.800200,2072.576638,-10658.965565,3600.648841
22516.800534,5033.400406,-12435.459826,2374.896044
22516.800867,3478.967927,-7254.018232,2451.505594
22516.801200,-7105.977043,-11325.150913,612.876398
22516.801534,1702.473667,-4737.318029,-1608.800546
22516.801867,5255.462188,-9104.533087,5515.887586
22516.802200,9696.697840,-6513.812290,5898.935335
22516.802534,222.061783,-7994.224174,1455.581446
22516.802867,-2368.659014,-9844.739029,-2451.505594
22516.803200,-1258.350101,-11843.295072,-5592.497135
22516.803534,0.000000,-6587.832884,-1915.238745
22516.803867,5329.482782,-7105.977043,-4979.620737
22516.804200,-4219.173869,-17468.860231,-4673.182538
22516.804534,-4145.153275,-10140.821405,-2528.115143
22516.804867,-2220.617826,-12065.356855,-2221.676944
22516.805200,5551.544565,-8364.327145,7354.516781
22516.805534,5551.544565,-3701.029710,5209.449386
22516.805867,6439.791695,-9474.636058,6971.469032
22516.806200,3182.885551,-4811.338623,2451.505594
22516.806534,-444.123565,-11251.130318,1455.581446
22516.806867,4071.132681,-7105.977043,-76.609550
22516.807200,-1776.494261,-7179.997637,0.000000
22516.807533,-2442.679609,-11251.130318,-4979.620737
22516.807867,-7105.977043,-12361.439231,-5439.278036
22516.808200,-6439.791695,-13397.727550,-5056.230287
22516.808533,-2960.823768,-11917.315666,-2145.067394
22516.808867,0.000000,-5181.441594,3677.258390
22516.809200,-370.102971,-7105.977043,3600.648841
22516.809533,-74.020594,-9178.553681,4826.401637
22516.809867,592.164754,-4811.338623,3064.381992
22516.810200,296.082377,-7179.997637,4903.011187
22516.810533,6809.894666,-5921.647536,6052.154434
22516.810866,-74.020594,-9474.636058,-76.609550
22516.811200,-7698.141797,-13101.645173,-612.876398
22516.811533,-3182.885551,-8290.306550,-4903.011187
22516.811866,-1406.391290,-11325.150913,-2451.505594
22516.812200,2294.638420,-6365.771101,0.000000
22516.812533,-2146.597232,-11547.212695,-995.924147
22516.812866,-7105.977043,-9474.636058,-4060.306139
22516.813199,-3627.009116,-10584.944971,612.876398
22516.813533,0.000000,-5921.647536,6052.154434
22516.813866,9400.615463,0.000000,-1302.362347
22516.814199,-3552.988522,-11917.315666,3983.696590
22516.814533,1998.556043,-5921.647536,-76.609550
22516.814866,2294.638420,-10510.924376,1762.019645
22516.815199,4737.318029,-9844.739029,6128.763984
22516.815532,3478.967927,-7328.038826,-3370.820191
22516.815866,-3108.864956,-15026.180623,306.438199
22516.816199,-2368.659014,-8512.368333,-6588.421283
22516.816532,-3330.926739,-14804.118840,-3677.258390
22516.816866,2886.803174,-7994.224174,1378.971896
22516.817199,2368.659014,-5995.668130,4826.401637
22516.817532,2294.638420,-10066.800811,2681.334243
22516.817866,0.000000,-4811.338623,-2451.505594
22516.818199,1110.308913,-13027.624579,3217.601092
22516.818532,6809.894666,-4663.297435,4596.572988
22516.818865,4515.256246,-9252.574275,7967.393179
22516.819199,740.205942,-8882.471304,-2528.115143
22516.819532,-666.185348,-8586.388927,-5362.668486
22516.819865,-4737.318029,-14285.974681,-1072.533697
22516.820199,4663.297435,-7698.141797,-689.485948
22516.820532,-74.020594,-8734.430116,-459.657299
22516.820865,0.000000,-9474.636058,-2528.115143
22516.821198,-3775.050304,-14434.015869,153.219100
22516.821532,-222.061783,-7550.100608,2451.505594
22516.821865,7550.100608,-6587.832884,6358.592633
22516.822198,5921.647536,-4811.338623,7660.954980
22516.822532,5921.647536,-8364.327145,5515.887586
22516.822865,1998.556043,-9474.636058,3600.648841
22516.823198,-2738.761985,-11325.150913,-4290.134789
22516.823531,1036.288319,-10955.047942,1838.629195
22516.823865,2294.638420,-7105.977043,-4979.620737
22516.824198,-7105.977043,-14285.974681,-4290.134789
22516.824531,-5181.441594,-8734.430116,-4979.620737
22516.824865,-6439.791695,-13101.645173,-3600.648841
22516.825198,3923.091493,-7550.100608,6818.249932
22516.825531,3552.988522,-3627.009116,4903.011187
22516.825865,4367.215058,-7994.224174,8197.221829
22516.826198,-1702.473667,-7254.018232,1685.410096
22516.826531,-74.020594,-9548.656652,0.000000
22516.826864,5847.626942,-8290.306550,3600.648841
22516.827198,2442.679609,-6587.832884,0.000000
22516.827531,-2960.823768,-9992.780217,-2528.115143
22516.827864,-8364.327145,-11843.295072,-10189.070123
22516.828198,-8882.471304,-14878.139434,-4903.011187
22516.828531,1702.473667,-8882.471304,-1915.238745
22516.828864,-962.267725,-13619.789333,4213.525239
22516.829197,-1480.411884,-4515.256246,2451.505594
22516.829531,-3997.112087,-7328.038826,1608.800546
22516.829864,0.000000,-5995.668130,4903.011187
22516.830197,8216.285956,-5921.647536,4903.011187
22516.830531,8068.244768,-9474.636058,7277.907231
22516.830864,962.267725,-4959.379811,0.000000
22516.831197,-4737.318029,-13397.727550,-4136.915689
22516.831531,-3552.988522,-9548.656652,-6128.763984
22516.831864,0.000000,-13249.686362,-2757.943793
22516.832197,1184.329507,-9696.697840,-1838.629195
22516.832530,370.102971,-11177.109724,-1302.362347
22516.832864,-2738.761985,-13619.789333,-76.609550
22516.833197,814.226536,-3627.009116,0.000000
22516.833530,5847.626942,-9474.636058,6665.030833
22516.833864,6735.874072,-3034.844362,6435.202183
22516.834197,5551.544565,-4737.318029,3600.648841
22516.834530,-1258.350101,-13915.871710,-2528.115143
22516.834863,1184.329507,-6735.874072,229.828649
22516.835197,1406.391290,-11695.253884,-1302.362347
22516.835530,7698.141797,-10066.800811,3370.820191
22516.835863,-2368.659014,-11029.068536,-1838.629195
22516.836197,-4145.153275,-11917.315666,-5209.449386
22516.836530,-3330.926739,-10140.821405,-2451.505594
22516.836863,-2368.659014,-9548.656652,0.000000
22516.837196,7476.080014,-8882.471304,5745.716235
22516.837530,222.061783,-3552.988522,3294.210641
22516.837863,2590.720797,-5329.482782,383.047749
22516.838196,-1554.432478,-10140.821405,2451.505594
22516.838530,7698.141797,-4959.379811,4903.011187
22516.838863,2072.576638,-8956.491898,2528.115143
22516.839196,-74.020594,-9474.636058,-1915.238745
22516.839530,-7105.977043,-11029.068536,-5515.887586
22516.839863,-7254.018232,-14211.954086,-3753.867940
22516.840196,3478.967927,-9474.636058,-3140.991542
22516.840529,-1110.308913,-12213.398043,-842.705048
22516.840863,3182.885551,-7402.059420,-689.485948
22516.841196,-6587.832884,-14582.057057,-536.266849
22516.841529,518.144159,-5921.647536,3294.210641
22516.841863,3478.967927,-7402.059420,4519.963438
22516.842196,7031.956449,-6809.894666,8503.660028
22516.842529,4663.297435,-4145.153275,5822.325785
22516.842862,-3330.926739,-10140.821405,0.000000
22516.843196,-74.020594,-7476.080014,-1608.800546
22516.843529,-3256.906145,-11029.068536,0.000000
22516.843862,-1554.432478,-12435.459826,-1608.800546
22516.844196,-5921.647536,-1850.514855,-8580.269578
22516.844529,-9474.636058,-16950.716072,-7201.297681
22516.844862,-1554.432478,-8882.471304,-2834.553343
22516.845195,-2368.659014,-12509.480420,1532.190996
22516.845529,7031.956449,-2294.638420,4290.134789
22516.845862,2072.576638,-7476.080014,4826.401637
22516.846195,2294.638420,-7105.977043,459.657299
22516.846529,6439.791695,-10658.965565,5439.278036
22516.846862,4663.297435,-12435.459826,2374.896044
22516.847195,5329.482782,-8956.491898,4673.182538
22516.847529,2294.638420,-9474.636058,2374.896044
22516.847862,962.267725,-10807.006753,-5592.497135
22516.848195,-6513.812290,-10140.821405,-1762.019645
22516.848528,148.041188,-10288.862594,-4366.744339
22516.848862,-3849.070898,-11843.295072,-2911.162892
22516.849195,-74.020594,-7698.141797,-76.609550
22516.849528,-6217.729913,-8734.430116,-1149.143247
22516.849862,1554.432478,-740.205942,229.828649
22516.850195,5921.647536,-5995.668130,5439.278036
22516.850528,7031.956449,-10066.800811,5745.716235
22516.850861,7105.977043,-4219.173869,2451.505594
22516.851195,-1110.308913,-14804.118840,-2528.115143
22516.851528,740.205942,-15470.304188,-536.266849
22516.851861,1702.473667,-10658.965565,-2987.772442
22516.852195,1184.329507,-13027.624579,-76.609550
22516.852528,888.247130,-7031.956449,-1838.629195
22516.852861,-6291.750507,-10732.986159,-4903.011187
22516.853195,-1776.494261,-8808.450710,2374.896044
22516.853528,3330.926739,-5773.606348,4443.353888
22516.853861,2368.659014,-4811.338623,5669.106685
22516.854194,4737.318029,-74.020594,3677.258390
22516.854528,-2590.720797,-11103.089130,-1915.238745
22516.854861,2886.803174,-7402.059420,229.828649
22516.855194,148.041188,-11843.295072,612.876398
22516.855528,3478.967927,-10658.965565,-689.485948
22516.855861,-2368.659014,-12213.398043,-1915.238745
22516.856194,-4219.173869,-11843.295072,-6588.421283
22516.856527,-2590.720797,-10140.821405,-4290.134789
22516.856861,-74.020594,-15100.201217,1762.019645
22516.857194,2368.659014,-5995.668130,1225.752797
22516.857527,-666.185348,-10140.821405,2911.162892
22516.857861,3997.112087,-5033.400406,8503.660028
22516.858194,1702.473667,-3182.885551,5362.668486
22516.858527,7031.956449,-5921.647536,6971.469032
22516.858860,1776.494261,-6883.915261,3907.087040
22516.859194,-4145.153275,-9548.656652,-4136.915689
22516.859527,-6513.812290,-14063.912898,-4443.353888
22516.859860,-8882.471304,-11103.089130,-9729.412825
22516.860194,-74.020594,-14211.954086,-2528.115143
22516.860527,-4737.318029,-10140.821405,-612.876398
22516.860860,3182.885551,-8882.471304,-1608.800546
22516.861194,-6883.915261,-10140.821405,-2145.067394
22516.861527,1184.329507,-7179.997637,4903.011187
22516.861860,7031.956449,-4145.153275,5745.716235
22516.862193,4145.153275,-10066.800811,8503.660028
22516.862527,6883.915261,-4219.173869,5056.230287
22516.862860,592.164754,-10732.986159,2374.896044
22516.863193,3775.050304,-8364.327145,1225.752797
22516.863527,1776.494261,-11843.295072,2374.896044
22516.863860,518.144159,-9474.636058,-1915.238745
22516.864193,-5107.421000,-7179.997637,-7967.393179
22516.864526,-6439.791695,-15988.448347,-7431.126331
22516.864860,-3775.050304,-14285.974681,-2451.505594
22516.865193,-444.123565,-7105.977043,-1302.362347
22516.865526,5255.462188,-7031.956449,5286.058936
22516.865860,1036.288319,-6587.832884,5362.668486
22516.866193,2960.823768,-5995.668130,3370.820191
22516.866526,3108.864956,-11843.295072,4519.963438
22516.866859,9548.656652,-4219.173869,2757.943793
22516.867193,2664.741391,-9548.656652,5515.887586
22516.867526,5551.544565,-10362.883188,2374.896044
22516.867859,-1480.411884,-8364.327145,-5056.230287
22516.868193,-8956.491898,-18949.272115,-7277.907231
22516.868526,2516.700203,-7328.038826,-5592.497135
22516.868859,-2516.700203,-14508.036463,-459.657299
22516.869193,2220.617826,-8142.265362,3600.648841
22516.869526,-2442.679609,-4737.318029,-1302.362347
22516.869859,-3552.988522,-8364.327145,5056.230287
22516.870192,7402.059420,-2368.659014,9729.412825
22516.870526,3478.967927,-6957.935855,4979.620737
22516.870859,3552.988522,-4589.276840,4826.401637
22516.871192,-5995.668130,-11621.233289,-5515.887586
22516.871526,-370.102971,-11473.192101,-4596.572988
22516.871859,3108.864956,-11251.130318,153.219100
22516.872192,-666.185348,-14211.954086,-4060.306139
22516.872525,1702.473667,-8512.368333,-2911.162892
22516.872859,-9178.553681,-17616.901420,-3753.867940
22516.873192,962.267725,-6587.832884,-2221.676944
22516.873525,0.000000,-8364.327145,4903.011187
22516.873859,3849.070898,-5403.503377,7814.174080
22516.874192,5847.626942,-3997.112087,7277.907231
22516.874525,-2368.659014,-4959.379811,4213.525239
22516.874858,1184.329507,-3627.009116,1838.629195
22516.875192,-1184.329507,-11029.068536,0.000000
22516.875525,-740.205942,-10436.903782,-2451.505594
22516.875858,-5699.585753,-11103.089130,-7967.393179
22516.876192,-3849.070898,-14137.933492,-6052.154434
22516.876525,-3627.009116,-11251.130318,-2528.115143
22516.876858,0.000000,-9548.656652,536.266849
22516.877192,2294.638420,-7698.141797,-1302.362347
22516.877525,-2072.576638,-9104.533087,2451.505594
22516.877858,-4737.318029,-10881.027347,1225.752797
22516.878191,4663.297435,-5329.482782,7737.564530
22516.878525,4145.153275,-6809.894666,6358.592633
22516.878858,8734.430116,-5551.544565,7660.954980
22516.879191,3552.988522,-7920.203579,7048.078582
22516.879525,1258.350101,-6365.771101,-3370.820191
22516.879858,-4145.153275,-13545.768739,-842.705048
22516.880191,-3552.988522,-8364.327145,-8580.269578
22516.880524,-3552.988522,-12731.542202,-2145.067394
22516.880858,-4219.173869,-9326.594869,-4979.620737
22516.881191,-8290.306550,-10436.903782,-8810.098227
22516.881524,-3034.844362,-10658.965565,-1302.362347
22516.881858,4441.235652,-7105.977043,5592.497135
22516.882191,4367.215058,-6661.853478,5898.935335
22516.882524,6513.812290,-3997.112087,5286.058936
22516.882858,1702.473667,-11843.295072,-383.047749
22516.883191,2664.741391,-11325.150913,7507.735880
22516.883524,10066.800811,-6735.874072,4826.401637
22516.883857,5551.544565,-13027.624579,383.047749
22516.884191,0.000000,-7179.997637,-4290.134789
22516.884524,-7920.203579,-14285.974681,-4903.011187
22516.884857,-6587.832884,-11843.295072,-5056.230287
22516.885191,-1702.473667,-9104.533087,-5132.839837
22516.885524,1702.473667,-10510.924376,3600.648841
22516.885857,74.020594,-3627.009116,0.000000
22516.886190,2368.659014,-7698.141797,6665.030833
22516.886524,-222.061783,-7772.162391,1838.629195
22516.886857,8216.285956,-4367.215058,5515.887586
22516.887190,2368.659014,-8068.244768,4903.011187
22516.887524,4367.215058,-5995.668130,0.000000
22516.887857,-2960.823768,-13471.748144,-3753.867940
22516.888190,-1850.514855,-12509.480420,-4749.792088
22516.888523,-666.185348,-11769.274478,-2528.115143
22516.888857,-1406.391290,-10140.821405,-5515.887586
22516.889190,-3108.864956,-11103.089130,-1378.971896
22516.889523,-2664.741391,-8068.244768,-2221.676944
22516.889857,-1480.411884,-9252.574275,2911.162892
22516.890190,3478.967927,-4737.318029,6665.030833
22516.890523,1850.514855,-5403.503377,4903.011187
22516.890857,2960.823768,-4959.379811,7354.516781
22516.891190,-74.020594,-8882.471304,-1302.362347
22516.891523,-5625.565159,-11325.150913,0.000000
22516.891856,-1184.329507,-6291.750507,766.095498
22516.892190,-2738.761985,-12435.459826,-6741.640382
22516.892523,1628.453072,-10140.821405,-2451.505594
22516.892856,-3256.906145,-15840.407159,-4826.401637
22516.893190,-6735.874072,-14285.974681,-4673.182538
22516.893523,2886.803174,-2738.761985,0.000000
22516.893856,-592.164754,-16506.592507,4213.525239
22516.894189,11473.192101,-3256.906145,10955.165621
22516.894523,-2146.597232,-7772.162391,2604.724693
22516.894856,2294.638420,-9474.636058,3600.648841
22516.895189,3552.988522,-2146.597232,9499.584175
22516.895523,444.123565,-6735.874072,4290.134789
22516.895856,4737.318029,-3997.112087,-3524.039291
22516.896189,-10955.047942,-15766.386565,-8656.879127
22516.896522,-4885.359217,-11621.233289,-11031.775171
22516.896856,-74.020594,-11843.295072,-2528.115143
22516.897189,-222.061783,-13175.665768,-2451.505594
22516.897522,0.000000,-5403.503377,-1225.752797
22516.897856,-2072.576638,-11621.233289,1225.752797
22516.898189,3997.112087,-8808.450710,2221.676944
22516.898522,6217.729913,-6957.935855,11261.603821
22516.898856,9030.512492,-6661.853478,6511.811733
22516.899189,6439.791695,-9474.636058,9422.974625
22516.899522,1184.329507,-7031.956449,3907.087040
22516.899855,2738.761985,-6809.894666,-1915.238745
22516.900189,-2072.576638,-6587.832884,0.000000
22516.900522,2294.638420,-9474.636058,-7431.126331
22516.900855,-3627.009116,-14211.954086,-2834.553343
22516.901189,-9548.656652,-13767.830521,-10342.289223
22516.901522,-5847.626942,-12213.398043,-4979.620737
22516.901855,-888.247130,-8956.491898,2987.772442
22516.902188,2368.659014,-5995.668130,4903.011187
22516.902522,7031.956449,-2368.659014,4826.401637
22516.902855,1184.329507,-5995.668130,4903.011187
22516.903188,0.000000,-12805.562797,5975.544884
22516.903522,8216.285956,-6217.729913,5898.935335
22516.903855,4663.297435,-9992.780217,1762.019645
22516.904188,740.205942,-11769.274478,-2451.505594
22516.904521,-3849.070898,-10140.821405,-6894.859482
22516.904855,-6661.853478,-14508.036463,-8120.612279
22516.905188,-2368.659014,-9548.656652,-1838.629195
22516.905521,-74.020594,-9474.636058,-995.924147
22516.905854,-5181.441594,-13693.809927,4290.134789
22516.906187,-3108.864956,-444.123565,5439.278036
22516.906521,0.000000,-4515.256246,1072.533697
22516.906854,2368.659014,-3627.009116,6741.640382
22516.907187,8660.409521,-6957.935855,8503.660028
22516.907520,518.144159,-5403.503377,0.000000
22516.907853,-1480.411884,-11695.253884,-2221.676944
22516.908187,-5995.668130,-16580.613101,-8044.002729
22516.908520,-1628.453072,-9844.739029,-3983.696590
22516.908853,1332.370696,-11843.295072,-4060.306139
22516.909186,-148.041188,-13693.809927,0.000000
22516.909519,-2738.761985,-11843.295072,-76.609550
22516.909852,0.000000,-7772.162391,4290.134789
22516.910186,3552.988522,-3627.009116,6128.763984
22516.910519,6513.812290,-7105.977043,9422.974625
22516.910852,4515.256246,-3256.906145,4673.182538
22516.911185,-4515.256246,-8882.471304,-3370.820191
22516.911518,-2368.659014,-9844.739029,-1302.362347
22516.911851,-740.205942,-7550.100608,-2757.943793
22516.912185,1036.288319,-10362.883188,-2451.505594
22516.912518,-2442.679609,-10658.965565,-4673.182538
22516.912851,-666.185348,-11843.295072,-6205.373534
22516.913184,-666.185348,-16580.613101,-5439.278036
22516.913517,1924.535449,-11029.068536,4979.620737
22516.913850,9400.615463,-9474.636058,6665.030833
22516.914184,3034.844362,-8956.491898,6128.763984
22516.914517,5625.565159,-4737.318029,3600.648841
22516.914850,-3182.885551,-12287.418637,766.095498
22516.915183,5403.503377,-5921.647536,3600.648841
22516.915516,4885.359217,-6587.832884,2145.067394
22516.915849,1702.473667,-9104.533087,1608.800546
22516.916183,-1776.494261,-7179.997637,-3677.258390
22516.916516,-7105.977043,-11029.068536,-2528.115143
22516.916849,-74.020594,-5033.400406,-6665.030833
22516.917182,-1850.514855,-11917.315666,-4903.011187
22516.917515,1702.473667,-12435.459826,-1608.800546
22516.917849,-4737.318029,-11029.068536,-1532.190996
22516.918182,-888.247130,-10066.800811,1685.410096
22516.918515,3775.050304,-6217.729913,4366.744339
22516.918848,6513.812290,-5699.585753,6894.859482
22516.919181,8290.306550,-4589.276840,7584.345430
22516.919514,0.000000,-10807.006753,-383.047749
22516.919848,3478.967927,-11177.109724,4443.353888
22516.920181,666.185348,-9326.594869,-76.609550
22516.920514,4663.297435,-11251.130318,-76.609550
22516.920847,-5255.462188,-8364.327145,-4596.572988
22516.921180,-4441.235652,-11843.295072,-6205.373534
22516.921513,-8364.327145,-14211.954086,-5592.497135
22516.921847,-2960.823768,-8290.306550,-1225.752797
22516.922180,962.267725,-7105.977043,3294.210641
22516.922513,0.000000,-6143.709319,5362.668486
22516.922846,2294.638420,-3701.029710,2221.676944
22516.923179,-1554.432478,-10955.047942,2834.553343
22516.923512,3849.070898,-5107.421000,4749.792088
22516.923846,1332.370696,-5995.668130,612.876398
22516.924179,-74.020594,-15396.283594,1149.143247
22516.924512,-3330.926739,-9474.636058,-4979.620737
22516.924845,-5107.421000,-11103.089130,-7431.126331
22516.925178,3182.885551,-12879.583391,-4366.744339
22516.925511,148.041188,-13101.645173,3370.820191
22516.925845,1998.556043,-5921.647536,1991.848295
22516.926178,-2368.659014,-10955.047942,2451.505594
22516.926511,-2442.679609,-9474.636058,1149.143247
22516.926844,296.082377,-8438.347739,5822.325785
22516.927177,7624.121203,-3552.988522,3600.648841
22516.927511,2664.741391,-4811.338623,4290.134789
22516.927844,-2960.823768,-7772.162391,-919.314598
22516.928177,-2220.617826,-11029.068536,-2451.505594
22516.928510,-2738.761985,-9030.512492,-6588.421283
22516.928843,814.226536,-11843.295072,-3753.867940
22516.929176,296.082377,-8956.491898,-1225.752797
22516.929510,-3849.070898,-9548.656652,-6128.763984
22516.929843,-444.123565,-13619.789333,2987.772442
22516.930176,4515.256246,-6513.812290,3294.210641
22516.930509,7402.059420,-1258.350101,6435.202183
22516.930842,6439.791695,-9474.636058,7277.907231
22516.931175,3552.988522,-8660.409521,153.219100
22516.931509,74.020594,-16062.468941,-1072.533697
22516.931842,5773.606348,-11843.295072,5975.544884
22516.932175,4441.235652,-6587.832884,766.095498
22516.932508,592.164754,-7476.080014,1838.629195
22516.932841,-74.020594,-8882.471304,-5592.497135
22516.933174,-4737.318029,-10140.821405,-5515.887586
22516.933508,-5921.647536,-9548.656652,-919.314598
22516.933841,-74.020594,-10658.965565,-1302.362347
22516.934174,-1776.494261,-7179.997637,3370.820191
22516.934507,-222.061783,-8438.347739,2528.115143
22516.934840,-74.020594,-8216.285956,1991.848295
22516.935173,2664.741391,-8438.347739,2451.505594
22516.935507,2960.823768,-7179.997637,5362.668486
22516.935840,3701.029710,-6957.935855,1378.971896
22516.936173,-1332.370696,-12657.521608,306.438199
22516.936506,-2738.761985,-10658.965565,-3983.696590
22516.936839,1998.556043,-9992.780217,-3677.258390
22516.937172,-2960.823768,-11917.315666,5056.230287
22516.937506,2886.803174,-5773.606348,-4366.744339
22516.937839,-3627.009116,-14063.912898,-1685.410096
22516.938172,-2960.823768,-5847.626942,1915.238745
22516.938505,-3627.009116,-10658.965565,1149.143247
22516.938838,1184.329507,-5477.523971,4596.572988
22516.939172,-740.205942,-9548.656652,1225.752797
22516.939505,-740.205942,-5847.626942,3447.429741
22516.939838,-1184.329507,-7179.997637,1225.752797
22516.940171,-4145.153275,-8364.327145,0.000000
22516.940504,2294.638420,-7179.997637,-2451.505594
22516.940837,-3552.988522,-10732.986159,612.876398
22516.941171,2294.638420,-4737.318029,-2528.115143
22516.941504,-8882.471304,-14582.057057,-5822.325785
22516.941837,2812.782580,-8216.285956,-2681.334243
22516.942170,1702.473667,-12139.377449,-2221.676944
22516.942503,4145.153275,-16062.468941,11031.775171
22516.942836,8808.450710,-2960.823768,7277.907231
22516.943170,-1184.329507,-12509.480420,7277.907231
22516.943503,8216.285956,-1628.453072,3983.696590
22516.943836,0.000000,-8068.244768,2987.772442
22516.944169,2294.638420,-11251.130318,1149.143247
22516.944502,-2442.679609,-4737.318029,-4366.744339
22516.944835,-6587.832884,-16358.551318,-5286.058936
22516.945169,666.185348,-5921.647536,-3677.258390
22516.945502,-2368.659014,-9104.533087,-3294.210641
22516.945835,-5847.626942,-7476.080014,-5822.325785
22516.946168,2886.803174,-9474.636058,-76.609550
22516.946501,-2368.659014,-12509.480420,1838.629195
22516.946834,9474.636058,-4811.338623,3983.696590
22516.947168,5847.626942,-14211.954086,8810.098227
22516.947501,4959.379811,-74.020594,4596.572988
22516.947834,6809.894666,-7254.018232,1225.752797
22516.948167,2590.720797,-10436.903782,3830.477490
22516.948500,-962.267725,-12361.439231,-6052.154434
22516.948834,-2812.782580,-14656.077652,-3677.258390
22516.949167,-2442.679609,-6735.874072,-9499.584175
22516.949500,-8586.388927,-14137.933492,-3753.867940
22516.949833,-4219.173869,-9474.636058,-1302.362347
22516.950166,-1628.453072,-4811.338623,2451.505594
22516.950499,592.164754,-11325.150913,5515.887586
22516.950833,4145.153275,-962.267725,9499.584175
22516.951166,2886.803174,-2294.638420,5209.449386
22516.951499,1924.535449,-7105.977043,1838.629195
22516.951832,5773.606348,-12657.521608,4596.572988
22516.952165,-518.144159,-13101.645173,-4749.792088
22516.952498,740.205942,-12805.562797,-3217.601092
22516.952832,-5107.421000,-14804.118840,-7277.907231
22516.953165,-4737.318029,-13249.686362,-4443.353888
22516.953498,-1184.329507,-8068.244768,2451.505594
22516.953831,4367.215058,-7698.141797,1302.362347
22516.954164,2368.659014,-3034.844362,7354.516781
22516.954497,296.082377,-6365.771101,6052.154434
22516.954831,-962.267725,-7105.977043,4826.401637
22516.955164,0.000000,-2442.679609,3370.820191
22516.955497,3701.029710,-8956.491898,2068.457845
22516.955830,-962.267725,-9104.533087,383.047749
22516.956163,-2886.803174,-10140.821405,-5898.935335
22516.956496,-6587.832884,-16284.530724,-7431.126331
22516.956830,-666.185348,-8364.327145,-7354.516781
22516.957163,-2220.617826,-17690.922014,0.000000
22516.957496,1554.432478,-7698.141797,4213.525239
22516.957829,-2146.597232,-10066.800811,-3064.381992
22516.958162,-74.020594,-7550.100608,4213.525239
22516.958496,1628.453072,-7994.224174,4979.620737
22516.958829,8216.285956,-4663.297435,8810.098227
22516.959162,3627.009116,-8068.244768,4826.401637
22516.959495,-1258.350101,-7179.997637,-2987.772442
22516.959828,-4737.318029,-10140.821405,-2451.505594
22516.960161,-74.020594,-9474.636058,-3907.087040
22516.960495,2294.638420,-12731.542202,-4366.744339
22516.960828,-3256.906145,-10732.986159,-1838.629195
22516.961161,-1554.432478,-9400.615463,-4290.134789
22516.961494,-3923.091493,-10510.924376,-459.657299
22516.961827,2368.659014,-4293.194464,3217.601092
22516.962160,2516.700203,-7846.182985,1915.238745
22516.962494,6217.729913,-7476.080014,7660.954980
22516.962827,1554.432478,-8882.471304,1149.143247
22516.963160,-666.185348,-11177.109724,0.000000
22516.963493,1924.535449,-9474.636058,-76.609550
22516.963826,4663.297435,-13027.624579,-76.609550
22516.964159,5847.626942,-5107.421000,2451.505594
22516.964493,1110.308913,-7550.100608,-4519.963438
22516.964826,-3923.091493,-16654.633695,-1225.752797
22516.965159,-3997.112087,-6143.709319,-3600.648841
22516.965492,740.205942,-12731.542202,-1072.533697
22516.965825,0.000000,-9400.615463,4213.525239
22516.966158,-74.020594,-9474.636058,2374.896044
22516.966492,-5995.668130,-7772.162391,0.000000
22516.966825,5033.400406,-5921.647536,4826.401637
22516.967158,1110.308913,-8808.450710,1225.752797
22516.967491,7846.182985,-7624.121203,6205.373534
22516.967824,3997.112087,-5699.585753,5286.058936
22516.968158,-2146.597232,-12361.439231,-4673.182538
22516.968491,2664.741391,-15988.448347,766.095498
22516.968824,0.000000,-10140.821405,-3907.087040
22516.969157,-74.020594,-12583.501014,-1072.533697
22516.969490,-2442.679609,-7328.038826,-2911.162892
22516.969823,-7179.997637,-14211.954086,-4136.915689
22516.970157,-2368.659014,-8660.409521,2068.457845
22516.970490,2368.659014,-3034.844362,3677.258390
22516.970823,6439.791695,-6513.812290,7890.783629
22516.971156,1480.411884,-2368.659014,4136.915689
22516.971489,-2220.617826,-8512.368333,1915.238745
22516.971822,-666.185348,-9474.636058,689.485948
22516.972156,370.102971,-6439.791695,-2528.115143
22516.972489,814.226536,-10732.986159,-1838.629195
22516.972822,-2294.638420,-10658.965565,-4366.744339
22516.973155,-3923.091493,-15988.448347,-4979.620737
22516.973488,-2368.659014,-11843.295072,-1838.629195
22516.973821,-1258.350101,-11251.130318,-1608.800546
22516.974155,-1110.308913,-6883.915261,0.000000
22516.974488,1184.329507,-5995.668130,4903.011187
22516.974821,814.226536,-9548.656652,2451.505594
22516.975154,3552.988522,-7402.059420,8427.050478
22516.975487,4959.379811,-5477.523971,5745.716235
22516.975820,7624.121203,-5329.482782,5056.230287
22516.976154,148.041188,-5403.503377,0.000000
22516.976487,-1554.432478,-15100.201217,-4979.620737
22516.976820,-3627.009116,-10658.965565,-7431.126331
22516.977153,-5921.647536,-14285.974681,-5515.887586
22516.977486,-1258.350101,-14211.954086,-1915.238745
22516.977820,-4145.153275,-10732.986159,1149.143247
22516.978153,-4589.276840,-6661.853478,-2604.724693
22516.978486,2220.617826,-7031.956449,2374.896044
22516.978819,6883.915261,-8068.244768,7277.907231
22516.979152,10955.047942,-6883.915261,10342.289223
22516.979485,4663.297435,-8290.306550,4826.401637
22516.979819,4737.318029,-8660.409521,3830.477490
22516.980152,4367.215058,-11547.212695,2374.896044
22516.980485,3478.967927,-9474.636058,-2681.334243
22516.980818,-2072.576638,-12065.356855,-5592.497135
22516.981151,-4219.173869,-12879.583391,-7354.516781
22516.981484,-5403.503377,-13915.871710,-4903.011187
22516.981818,-2294.638420,-7698.141797,1072.533697
22516.982151,592.164754,-6735.874072,4826.401637
22516.982484,1036.288319,-4367.215058,1838.629195
22516.982817,2220.617826,-8438.347739,5592.497135
22516.983150,1406.391290,-6661.853478,4519.963438
22516.983483,3478.967927,-5551.544565,2757.943793
22516.983817,3552.988522,-7772.162391,3830.477490
22516.984150,4071.132681,-9474.636058,0.000000
22516.984483,-2590.720797,-8660.409521,-3677.258390
22516.984816,-3256.906145,-14211.954086,-4979.620737
22516.985149,-3627.009116,-14211.954086,-4060.306139
22516.985482,0.000000,-8068.244768,-3447.429741
22516.985816,-1850.514855,-13915.871710,1225.752797
22516.986149,666.185348,-5847.626942,4443.353888
22516.986482,296.082377,-8512.368333,4903.011187
22516.986815,2368.659014,-1850.514855,11031.775171
22516.987148,1110.308913,-3330.926739,612.876398
22516.987482,-1184.329507,-9548.656652,1225.752797
22516.987815,-2368.659014,-10732.986159,-76.609550
22516.988148,-5181.441594,-13175.665768,-3983.696590
22516.988481,148.041188,-5995.668130,-2834.553343
22516.988814,-1332.370696,-8956.491898,-3370.820191
22516.989147,-2664.741391,-12805.562797,-3907.087040
22516.989481,-74.020594,-10658.965565,-1608.800546
22516.989814,-4441.235652,-14952.160028,-76.609550
22516.990147,3478.967927,-3627.009116,-3677.258390
22516.990480,3552.988522,-14878.139434,7890.783629
22516.990813,9400.615463,-5329.482782,9729.412825
22516.991146,2590.720797,-6809.894666,3600.648841
22516.991480,2590.720797,-8808.450710,3064.381992
22516.991813,370.102971,-9252.574275,1378.971896
22516.992146,4737.318029,-6661.853478,2911.162892
22516.992479,0.000000,-5995.668130,-2451.505594
22516.992812,-4811.338623,-13619.789333,-6205.373534
22516.993145,-4145.153275,-8364.327145,-7201.297681
22516.993479,-6513.812290,-12361.439231,-2528.115143
22516.993812,2294.638420,-13323.706956,-76.609550
22516.994145,-3256.906145,-5477.523971,0.000000
22516.994478,-4145.153275,-10732.986159,536.266849
22516.994811,2368.659014,-5847.626942,3140.991542
22516.995144,5477.523971,-7402.059420,7584.345430
22516.995478,9326.594869,-7624.121203,9499.584175
22516.995811,7920.203579,-4811.338623,2757.943793
22516.996144,2294.638420,-15100.201217,3294.210641
22516.996477,1628.453072,-7179.997637,-2451.505594
22516.996810,-2368.659014,-8660.409521,-3447.429741
22516.997144,592.164754,-12065.356855,-3140.991542
22516.997477,-4589.276840,-9548.656652,-3983.696590
22516.997810,-4071.132681,-8364.327145,-5362.668486
22516.998143,-9030.512492,-12287.418637,-2911.162892
22516.998476,-2442.679609,-9474.636058,-76.609550
22516.998809,-740.205942,-7328.038826,4903.011187
22516.999143,2442.679609,-5403.503377,7354.516781
22516.999476,1628.453072,-3627.009116,919.314598
22516.999809,1850.514855,-9104.533087,4443.353888
22517.000142,5921.647536,-8512.368333,3524.039291
22517.000475,7328.038826,-9104.533087,1072.533697
22517.000808,0.000000,-12509.480420,919.314598
22517.001142,-3923.091493,-14211.954086,-10189.070123
22517.001475,-3182.885551,-14137.933492,-9729.412825
22517.001808,-3552.988522,-16210.510130,459.657299
22517.002141,6143.709319,-5477.523971,2374.896044
22517.002474,962.267725,-10510.924376,8580.269578
22517.002807,148.041188,-3256.906145,7507.735880
22517.003141,-74.020594,-1776.494261,4826.401637
22517.003474,1702.473667,-4811.338623,2528.115143
22517.003807,8216.285956,-7105.977043,4826.401637
22517.004140,-1258.350101,-11251.130318,-1991.848295
22517.004473,-4737.318029,-8512.368333,-3983.696590
22517.004806,-2442.679609,-13027.624579,-7431.126331
22517.005140,-2368.659014,-11029.068536,-4903.011187
22517.005473,814.226536,-10658.965565,-1685.410096
22517.005806,-814.226536,-11695.253884,-689.485948
22517.006139,-8586.388927,-10732.986159,-5822.325785
22517.006472,-4145.153275,-7179.997637,0.000000
22517.006805,5847.626942,-8290.306550,4826.401637
22517.007139,7698.141797,-4811.338623,10418.898773
22517.007472,10658.965565,-962.267725,12717.185267
22517.007805,-74.020594,-8956.491898,153.219100
22517.008138,3330.926739,-8882.471304,-76.609550
22517.008471,-4441.235652,-10510.924376,-4979.620737
22517.008804,0.000000,-11621.233289,-4136.915689
22517.009137,-2294.638420,-11473.192101,-3370.820191
22517.009471,-9548.656652,-14211.954086,-7431.126331
22517.009804,-7846.182985,-7772.162391,-4903.011187
22517.010137,-2294.638420,-8512.368333,-1838.629195
22517.010470,7031.956449,-9178.553681,4213.525239
22517.010803,592.164754,-8364.327145,9806.022374
22517.011136,2960.823768,-3923.091493,6052.154434
22517.011469,-74.020594,-12731.542202,-76.609550
22517.011802,4145.153275,-11843.295072,5132.839837
22517.012135,9400.615463,-6809.894666,2987.772442
22517.012468,5551.544565,-13027.624579,4213.525239
22517.012801,0.000000,-7772.162391,-3907.087040
22517.013134,-8290.306550,-11917.315666,-4903.011187
22517.013468,-74.020594,-7698.141797,-5592.497135
22517.013801,-2294.638420,-9548.656652,-3064.381992
22517.014134,-814.226536,-9474.636058,153.219100
22517.014467,-7105.977043,-10807.006753,-1072.533697
22517.014800,-1776.494261,-7772.162391,919.314598
22517.015133,1702.473667,-8290.306550,5439.278036
22517.015466,9030.512492,-3404.947333,6665.030833
22517.015799,5699.585753,-7920.203579,8580.269578
22517.016132,2072.576638,-5847.626942,1072.533697
22517.016465,2220.617826,-10881.027347,0.000000
22517.016798,2294.638420,-13545.768739,-1608.800546
22517.017132,2368.659014,-10732.986159,-76.609550
22517.017465,-1258.350101,-13619.789333,-3370.820191
22517.017798,0.000000,-7772.162391,-4903.011187
22517.018131,-5921.647536,-10881.027347,-2757.943793
22517.018464,-2738.761985,-6735.874072,-1532.190996
22517.018797,3256.906145,-6143.709319,3064.381992
22517.019130,370.102971,-8216.285956,6205.373534
22517.019463,2072.576638,-5921.647536,3217.601092
22517.019796,-1924.535449,-6587.832884,1072.533697
22517.020129,1998.556043,-7105.977043,2374.896044
22517.020462,2294.638420,-3552.988522,-1838.629195
22517.020795,3108.864956,-11843.295072,-76.609550
22517.021129,-1258.350101,-18949.272115,-1915.238745
22517.021462,-2960.823768,-9844.739029,-5515.887586
22517.021795,-3330.926739,-12879.583391,-5898.935335
22517.022128,1332.370696,-11843.295072,2681.334243
22517.022461,2590.720797,-3256.906145,76.609550
22517.022794,0.000000,-14434.015869,8580.269578
22517.023127,4663.297435,-6513.812290,1302.362347
22517.023460,296.082377,-4811.338623,1225.752797
22517.023793,2960.823768,-6587.832884,8197.221829
22517.024126,4663.297435,-3552.988522,4826.401637
22517.024459,-1776.494261,-10066.800811,-3447.429741
22517.024793,-3701.029710,-11621.233289,-2451.505594
22517.025126,-3330.926739,-8290.306550,-8427.050478
22517.025459,1480.411884,-9104.533087,-3524.039291
22517.025792,1702.473667,-14804.118840,1762.019645
22517.026125,-1258.350101,-4219.173869,-9193.145976
22517.026458,-5329.482782,-14878.139434,842.705048
22517.026791,2294.638420,-10658.965565,-2528.115143
22517.027124,4737.318029,-5995.668130,10112.460574
22517.027457,5107.421000,-10658.965565,12180.918418
22517.027790,4441.235652,-3552.988522,5132.839837
22517.028123,370.102971,-8438.347739,3217.601092
22517.028456,6513.812290,-3256.906145,3294.210641
22517.028790,3478.967927,-9326.594869,3600.648841
22517.029123,-1110.308913,-7476.080014,-5362.668486
22517.029456,-9548.656652,-17172.777854,-8656.879127
22517.029789,-7105.977043,-11769.274478,-8427.050478
22517.030122,-5921.647536,-7476.080014,-3064.381992
22517.030455,-5329.482782,-10955.047942,-2834.553343
22517.030788,4071.132681,-6957.935855,1225.752797
22517.031121,-2590.720797,-9548.656652,3677.258390
22517.031454,9252.574275,-10362.883188,6665.030833
22517.031787,2960.823768,-7179.997637,4673.182538
22517.032120,8734.430116,-8586.388927,8503.660028
22517.032454,3923.091493,-7624.121203,2298.286494
22517.032787,2812.782580,-9844.739029,3217.601092
22517.033120,-1850.514855,-11251.130318,-6818.249932
22517.033453,0.000000,-8734.430116,-3753.867940
22517.033786,-3923.091493,-9548.656652,-4903.011187
22517.034119,-1776.494261,-9844.739029,0.000000
22517.034452,-5921.647536,-11547.212695,1455.581446
22517.034785,-6143.709319,-11029.068536,-5515.887586
22517.035118,-1036.288319,-6439.791695,2068.457845
22517.035451,3330.926739,-3627.009116,4826.401637
22517.035784,4737.318029,-8808.450710,8350.440928
22517.036117,148.041188,-8290.306550,2451.505594
22517.036451,4071.132681,-8882.471304,1149.143247
22517.036784,-2368.659014,-7772.162391,1225.752797
22517.037117,6365.771101,-9474.636058,995.924147
22517.037450,-74.020594,-14211.954086,-689.485948
22517.037783,-814.226536,-13619.789333,-6971.469032
22517.038116,-5773.606348,-16062.468941,-2145.067394
22517.038449,148.041188,-8142.265362,536.266849
22517.038782,4441.235652,-8364.327145,2834.553343
22517.039115,5329.482782,-4219.173869,8120.612279
22517.039448,-666.185348,-7105.977043,-766.095498
22517.039781,1332.370696,-9178.553681,2451.505594
22517.040115,-74.020594,-9474.636058,-76.609550
22517.040448,-2072.576638,-7179.997637,-919.314598
22517.040781,0.000000,-7772.162391,2451.505594
22517.041114,-6365.771101,-8216.285956,-5592.497135
22517.041447,-3182.885551,-7698.141797,-8427.050478
22517.041780,-2368.659014,-11325.150913,-3600.648841
22517.042113,4367.215058,-13027.624579,2374.896044
22517.042446,0.000000,-8364.327145,3064.381992
22517.042779,3478.967927,-11843.295072,2681.334243
22517.043112,592.164754,-4811.338623,0.000000
22517.043445,1480.411884,-10955.047942,5745.716235
22517.043778,9770.718434,-9474.636058,5822.325785
22517.044112,4737.318029,-9474.636058,5745.716235
22517.044445,0.000000,-9104.533087,1685.410096
22517.044778,-2294.638420,-9918.759623,-1302.362347
22517.045111,-4737.318029,-8882.471304,-6205.373534
22517.045444,0.000000,-9548.656652,-2757.943793
22517.045777,74.020594,-8438.347739,383.047749
22517.046110,-3330.926739,-8808.450710,-3677.258390
22517.046443,-4589.276840,-9844.739029,-3600.648841
22517.046776,-2738.761985,-12731.542202,-2528.115143
22517.047109,4441.235652,-6587.832884,3983.696590
22517.047442,7402.059420,-9474.636058,10955.165621
22517.047776,1554.432478,-5403.503377,-1838.629195
22517.048109,-1776.494261,-15914.427753,5592.497135
22517.048442,1554.432478,-6809.894666,2374.896044
22517.048775,7254.018232,-5995.668130,3140.991542
22517.049108,4737.318029,-7031.956449,5132.839837
22517.049441,-1850.514855,-9030.512492,-4903.011187
22517.049774,-7254.018232,-13323.706956,-3983.696590
22517.050107,-4737.318029,-9548.656652,-4903.011187
22517.050440,-2442.679609,-11251.130318,-4903.011187
22517.050773,1110.308913,-9548.656652,306.438199
22517.051106,0.000000,-7179.997637,842.705048
22517.051439,-1258.350101,-10362.883188,-842.705048
22517.051773,1184.329507,-6513.812290,4443.353888
22517.052106,4737.318029,-6365.771101,2451.505594
22517.052439,4293.194464,-10881.027347,7660.954980
22517.052772,4737.318029,-5995.668130,3677.258390
22517.053105,-4737.318029,-13693.809927,1149.143247
22517.053438,-74.020594,-4367.215058,-3983.696590
22517.053771,-5921.647536,-10732.986159,-7354.516781
22517.054104,2960.823768,-10066.800811,-76.609550
22517.054437,-3552.988522,-8364.327145,0.000000
22517.054770,-4811.338623,-13915.871710,-3217.601092
22517.055103,-740.205942,-6883.915261,1991.848295
22517.055437,74.020594,-4589.276840,536.266849
22517.055770,7031.956449,-10066.800811,6971.469032
22517.056103,1554.432478,-10362.883188,7277.907231
22517.056436,-1110.308913,-7476.080014,0.000000
22517.056769,-2960.823768,-9252.574275,2221.676944
22517.057102,5847.626942,-7105.977043,-3753.867940
22517.057435,1554.432478,-11325.150913,842.705048
22517.057768,-518.144159,-10288.862594,-2911.162892
22517.058101,-2886.803174,-13693.809927,-5745.716235
22517.058434,-4367.215058,-11991.336260,-2145.067394
22517.058767,1924.535449,-7179.997637,0.000000
22517.059100,4663.297435,-7105.977043,919.314598
22517.059434,5033.400406,-7179.997637,9806.022374
22517.059767,4071.132681,-8290.306550,4826.401637
22517.060100,740.205942,-6587.832884,4903.011187
22517.060433,5107.421000,-5403.503377,5745.716235
22517.060766,-1110.308913,-7994.224174,-1149.143247
22517.061099,-1998.556043,-11843.295072,-995.924147
22517.061432,-7624.121203,-13323.706956,-7124.688131
22517.061765,-5625.565159,-6735.874072,-8273.831378
22517.062098,-2812.782580,-11325.150913,-2451.505594
22517.062431,-1850.514855,-7105.977043,-1532.190996
22517.062764,-1850.514855,-11103.089130,689.485948
22517.063098,1554.432478,-11695.253884,2604.724693
22517.063431,4145.153275,-5699.585753,4519.963438
22517.063764,5847.626942,-8882.471304,4826.401637
22517.064097,5921.647536,-8364.327145,4443.353888
22517.064430,4663.297435,-14063.912898,3600.648841
22517.064763,5847.626942,-8586.388927,5132.839837
22517.065096,-1776.494261,-8068.244768,-1762.019645
22517.065429,666.185348,-8956.491898,-2681.334243
22517.065762,-1850.514855,-11769.274478,-3064.381992
22517.066095,-1332.370696,-5033.400406,-1302.362347
22517.066428,-5329.482782,-9104.533087,-2451.505594
22517.066761,-5403.503377,-7179.997637,-4903.011187
22517.067095,-3108.864956,-9548.656652,2451.505594
22517.067428,2664.741391,-3330.926739,5745.716235
22517.067761,518.144159,-7698.141797,1149.143247
22517.068094,-2812.782580,-12435.459826,995.924147
22517.068427,814.226536,-10732.986159,842.705048
22517.068760,4071.132681,-7624.121203,4749.792088
22517.069093,3478.967927,-9474.636058,3217.601092
22517.069426,-962.267725,-9474.636058,-1608.800546
22517.069759,-6217.729913,-12509.480420,-9193.145976
22517.070092,1480.411884,-13619.789333,-1838.629195
22517.070425,2886.803174,-11843.295072,1149.143247
22517.070759,3849.070898,-2442.679609,1225.752797
22517.071092,-962.267725,-14804.118840,3907.087040
22517.071425,-1036.288319,-8734.430116,2068.457845
22517.071758,1184.329507,-2738.761985,2528.115143
22517.072091,1776.494261,-7254.018232,2604.724693
22517.072424,2442.679609,-6587.832884,1378.971896
22517.072757,-5921.647536,-9844.739029,2374.896044
22517.073090,-1850.514855,-10658.965565,-3447.429741
22517.073423,-5773.606348,-3627.009116,-7354.516781
22517.073756,-2960.823768,-11029.068536,-2451.505594
22517.074089,1110.308913,-8290.306550,766.095498
22517.074422,-2072.576638,-10066.800811,-1915.238745
22517.074756,-1036.288319,-8586.388927,-3600.648841
22517.075089,2294.638420,-12805.562797,383.047749
22517.075422,2664.741391,-8956.491898,9806.022374
22517.075755,7328.038826,-5033.400406,8197.221829
22517.076088,2072.576638,-10140.821405,4826.401637
22517.076421,888.247130,-10436.903782,-1302.362347
22517.076754,4663.297435,-9474.636058,1149.143247
22517.077087,2294.638420,-11843.295072,-2451.505594
22517.077420,1776.494261,-4219.173869,-2604.724693
22517.077753,-7179.997637,-18949.272115,-6205.373534
22517.078086,-3627.009116,-9548.656652,-4903.011187
22517.078420,-2960.823768,-9474.636058,-2451.505594
22517.078753,1924.535449,-4737.318029,-76.609550
22517.079086,5107.421000,-7994.224174,5822.325785
22517.079419,1110.308913,-5477.523971,4903.011187
22517.079752,1332.370696,-6069.688724,4213.525239
22517.080085,666.185348,-7254.018232,-2374.896044
22517.080418,5921.647536,-8364.327145,3447.429741
22517.080751,1110.308913,-14211.954086,-1915.238745
22517.081084,3330.926739,-9548.656652,0.000000
22517.081417,-4515.256246,-9474.636058,-4979.620737
22517.081750,-1776.494261,-9548.656652,-3983.696590
22517.082083,74.020594,-11473.192101,766.095498
22517.082417,2442.679609,-11621.233289,2068.457845
22517.082750,-3552.988522,-7179.997637,612.876398
22517.083083,-1850.514855,-4885.359217,-3600.648841
22517.083416,2294.638420,-13619.789333,6052.154434
22517.083749,8808.450710,-5033.400406,7967.393179
22517.084082,5921.647536,-8068.244768,6128.763984
22517.084415,0.000000,-7772.162391,-1072.533697
22517.084748,-2368.659014,-13545.768739,-4673.182538
22517.085081,-2368.659014,-12953.603985,-5975.544884
22517.085414,-2368.659014,-14508.036463,2145.067394
22517.085747,2294.638420,-4145.153275,-5286.058936
22517.086081,-8290.306550,-14285.974681,0.000000
22517.086414,-74.020594,-2664.741391,-2911.162892
22517.086747,-3182.885551,-5403.503377,0.000000
22517.087080,2664.741391,-5033.400406,5439.278036
22517.087413,8808.450710,-7105.977043,7277.907231
22517.087746,-4737.318029,-15026.180623,2987.772442
22517.088079,4293.194464,-9474.636058,2757.943793
22517.088412,-3775.050304,-10362.883188,-2604.724693
22517.088745,3923.091493,-6365.771101,-1149.143247
22517.089078,1924.535449,-12657.521608,1762.019645
22517.089411,-4441.235652,-11917.315666,-2451.505594
22517.089744,-1702.473667,-10066.800811,-1302.362347
22517.090078,-666.185348,-9474.636058,-4979.620737
22517.090411,1110.308913,-8882.471304,-383.047749
22517.090744,3701.029710,-7994.224174,3294.210641
22517.091077,666.185348,-7105.977043,2911.162892
22517.091410,-4811.338623,-12139.377449,-689.485948
22517.091743,2146.597232,-9548.656652,-1608.800546
22517.092076,2072.576638,-15100.201217,7584.345430
22517.092409,11547.212695,-2886.803174,5439.278036
22517.092742,1850.514855,-9918.759623,2987.772442
22517.093075,-1258.350101,-9548.656652,-3064.381992
22517.093408,-3552.988522,-6587.832884,-5515.887586
22517.093742,-1702.473667,-13027.624579,-2528.115143
22517.094075,5847.626942,-8882.471304,-76.609550
22517.094408,-6587.832884,-11621.233289,-3677.258390
22517.094741,-1776.494261,-7624.121203,-1302.362347
22517.095074,-3627.009116,-7994.224174,-2068.457845
22517.095407,3552.988522,-6661.853478,3830.477490
22517.095740,5551.544565,-7328.038826,8273.831378
22517.096073,2664.741391,-8364.327145,3753.867940
22517.096406,1184.329507,-13101.645173,612.876398
22517.096739,1924.535449,-14211.954086,1762.019645
22517.097072,7031.956449,-4219.173869,919.314598
22517.097405,2294.638420,-9548.656652,0.000000
22517.097739,4145.153275,-8882.471304,-76.609550
22517.098072,-9178.553681,-12509.480420,-6128.763984
22517.098405,-1184.329507,-7105.977043,-4366.744339
22517.098738,-2664.741391,-9918.759623,-1685.410096
22517.099071,1702.473667,-10140.821405,3294.210641
22517.099404,4663.297435,-6513.812290,7277.907231
22517.099737,-1332.370696,-9474.636058,4826.401637
22517.100070,1776.494261,-1258.350101,2451.505594
22517.100403,814.226536,-11843.295072,4213.525239
22517.100736,8216.285956,-8290.306550,1149.143247
22517.101069,-666.185348,-11473.192101,-76.609550
22517.101403,-3552.988522,-13545.768739,-4290.134789
22517.101736,-3701.029710,-11399.171507,-4213.525239
22517.102069,518.144159,-11103.089130,-5592.497135
22517.102402,2368.659014,-10732.986159,4903.011187
22517.102735,1998.556043,-6365.771101,2681.334243
22517.103068,-2368.659014,-7476.080014,2221.676944
22517.103401,-74.020594,-8586.388927,6052.154434
22517.103734,1184.329507,-666.185348,919.314598
22517.104067,3108.864956,-5403.503377,6511.811733
22517.104400,666.185348,-10362.883188,2987.772442
22517.104733,-3256.906145,-9474.636058,-3294.210641
22517.105066,-7698.141797,-11695.253884,-2834.553343
22517.105400,-74.020594,-7994.224174,-4979.620737
22517.105733,-4737.318029,-10732.986159,-3983.696590
22517.106066,-666.185348,-13915.871710,-1302.362347
22517.106399,-4811.338623,-9474.636058,-2987.772442
22517.106732,-2960.823768,-4219.173869,-3064.381992
22517.107065,1776.494261,-8956.491898,2604.724693
22517.107398,4071.132681,-9178.553681,6052.154434
22517.107731,8660.409521,-6587.832884,5515.887586
22517.108064,1406.391290,-13323.706956,7967.393179
22517.108397,4367.215058,-8882.471304,2068.457845
22517.108730,4145.153275,-8068.244768,3600.648841
22517.109063,2960.823768,-10807.006753,1378.971896
22517.109396,3478.967927,-6883.915261,0.000000
22517.109729,-7772.162391,-13323.706956,-4826.401637
22517.110062,-370.102971,-7698.141797,-3753.867940
22517.110395,-4737.318029,-7105.977043,-2834.553343
22517.110728,0.000000,-9548.656652,0.000000
22517.111061,-74.020594,-9474.636058,4826.401637
22517.111394,-7846.182985,-12435.459826,-5286.058936
22517.111727,4071.132681,-7105.977043,153.219100
22517.112060,2368.659014,-10214.842000,7277.907231
22517.112393,10807.006753,-3775.050304,4979.620737
22517.112726,5847.626942,-9326.594869,6741.640382
22517.113058,2516.700203,-5995.668130,0.000000
22517.113391,2368.659014,-11103.089130,-76.609550
22517.113724,4071.132681,-9474.636058,-1302.362347
22517.114057,0.000000,-10732.986159,-3677.258390
22517.114390,-74.020594,-16432.571912,3294.210641
22517.114723,-370.102971,-9104.533087,-1225.752797
22517.115056,-3627.009116,-8290.306550,-2528.115143
22517.115389,1036.288319,-7994.224174,2221.676944
22517.115722,0.000000,-7105.977043,2374.896044
22517.116055,0.000000,-9548.656652,7354.516781
22517.116388,-1258.350101,-8290.306550,-689.485948
22517.116721,0.000000,-6587.832884,1149.143247
22517.117054,4663.297435,-10658.965565,4213.525239
22517.117387,3478.967927,-5847.626942,0.000000
22517.117720,0.000000,-11103.089130,-1302.362347
22517.118053,-5255.462188,-12509.480420,-6281.983084
22517.118386,-1406.391290,-14285.974681,-8350.440928
22517.118719,-444.123565,-15026.180623,3064.381992
22517.119051,4959.379811,-5625.565159,1608.800546
22517.119384,1702.473667,-10732.986159,3677.258390
22517.119717,3478.967927,-9474.636058,4213.525239
22517.120050,-1776.494261,-4811.338623,4903.011187
22517.120383,3552.988522,-5403.503377,11797.870669
22517.120716,7624.121203,-3256.906145,229.828649
22517.121049,-5921.647536,-14285.974681,306.438199
22517.121382,-5625.565159,-9474.636058,-7431.126331
22517.121715,-5107.421000,-8956.491898,-8273.831378
22517.122048,-2368.659014,-13989.892304,-3677.258390
22517.122381,1184.329507,-8734.430116,-2911.162892
22517.122714,-1702.473667,-10288.862594,-919.314598
22517.123047,-4663.297435,-7994.224174,-4136.915689
22517.123380,2590.720797,-8882.471304,3600.648841
22517.123713,1332.370696,-7105.977043,5745.716235
22517.124046,9474.636058,-4811.338623,9193.145976
22517.124379,3256.906145,-14063.912898,12180.918418
22517.124712,5255.462188,-6957.935855,1838.629195
22517.125045,2886.803174,-8882.471304,2374.896044
22517.125377,3923.091493,-7994.224174,-76.609550
22517.125710,296.082377,-9844.739029,-5209.449386
22517.126043,-6513.812290,-11029.068536,-5439.278036
22517.126376,-8068.244768,-11473.192101,-9806.022374
22517.126709,-6587.832884,-12731.542202,-4366.744339
22517.127042,0.000000,-8364.327145,3370.820191
22517.127375,2294.638420,-7698.141797,2068.457845
22517.127708,-4367.215058,-10658.965565,5745.716235
22517.128041,0.000000,-74.020594,-919.314598
22517.128374,3182.885551,-13323.706956,2221.676944
22517.128707,8586.388927,-8586.388927,4749.792088
22517.129040,6365.771101,-10436.903782,6205.373534
22517.129373,1406.391290,-7402.059420,-76.609550
22517.129706,-3627.009116,-13619.789333,-6205.373534
22517.130039,-370.102971,-6513.812290,-6205.373534
22517.130372,-222.061783,-13619.789333,-1915.238745
22517.130705,0.000000,-5403.503377,-1225.752797
22517.131038,-3849.070898,-12805.562797,1225.752797
22517.131371,-5329.482782,-8956.491898,0.000000
22517.131703,4737.318029,-3627.009116,3983.696590
22517.132036,-1258.350101,-9548.656652,3064.381992
22517.132369,9104.533087,-5921.647536,5132.839837
22517.132702,0.000000,-10732.986159,1225.752797
22517.133035,3478.967927,-13027.624579,-689.485948
22517.133368,592.164754,-3627.009116,-1149.143247
22517.133701,0.000000,-10732.986159,1455.581446
22517.134034,4663.297435,-6809.894666,-1915.238745
22517.134367,-2072.576638,-11695.253884,-1455.581446
22517.134700,-3552.988522,-12805.562797,-4903.011187
22517.135033,666.185348,-6809.894666,-1838.629195
22517.135366,-740.205942,-12361.439231,3677.258390
22517.135699,11177.109724,-8882.471304,12717.185267
22517.136032,1998.556043,-5995.668130,4903.011187
22517.136365,-1184.329507,-8364.327145,2374.896044
22517.136698,-2442.679609,-14211.954086,-2528.115143
22517.137031,1406.391290,-5329.482782,-2221.676944
22517.137364,4441.235652,-9474.636058,1762.019645
22517.137696,-3330.926739,-11251.130318,-153.219100
22517.138029,-5033.400406,-3997.112087,-6358.592633
22517.138362,-7772.162391,-12879.583391,-7124.688131
22517.138695,2886.803174,-9474.636058,-76.609550
22517.139028,0.000000,-10584.944971,1838.629195
22517.139361,592.164754,-8512.368333,-1762.019645
22517.139694,-2738.761985,-17468.860231,919.314598
22517.140027,0.000000,-8364.327145,3064.381992
22517.140360,6513.812290,-7402.059420,9729.412825
22517.140693,7031.956449,-6217.729913,7277.907231
22517.141026,3182.885551,-4811.338623,0.000000
22517.141359,-2368.659014,-7772.162391,1455.581446
22517.141692,1702.473667,-4737.318029,-689.485948
22517.142025,-2072.576638,-8660.409521,-2834.553343
22517.142358,-3108.864956,-10881.027347,-5515.887586
22517.142691,-5477.523971,-11843.295072,-6358.592633
22517.143024,-3330.926739,-13027.624579,-2528.115143
22517.143357,-4219.173869,-13619.789333,-2528.115143
22517.143690,0.000000,-8364.327145,2451.505594
22517.144022,7624.121203,-5921.647536,8503.660028
22517.144355,7031.956449,-8882.471304,6665.030833
22517.144688,5625.565159,-7698.141797,6435.202183
22517.145021,5847.626942,-6513.812290,2451.505594
22517.145354,5403.503377,-11843.295072,5745.716235
22517.145687,4515.256246,-7031.956449,2834.553343
22517.146020,-814.226536,-11547.212695,-3447.429741
22517.146353,-962.267725,-9178.553681,-4366.744339
22517.146686,-9474.636058,-10732.986159,-7048.078582
22517.147019,-1258.350101,-9474.636058,-3294.210641
22517.147352,-1554.432478,-8290.306550,-4366.744339
22517.147685,-4145.153275,-10732.986159,1838.629195
22517.148018,-3034.844362,-8808.450710,4903.011187
22517.148351,-74.020594,-5329.482782,383.047749
22517.148684,3849.070898,-7179.997637,5286.058936
22517.149017,6513.812290,-7994.224174,8350.440928
22517.149350,7328.038826,-13323.706956,6052.154434
22517.149683,1998.556043,-9548.656652,0.000000
22517.150015,-1184.329507,-8364.327145,-6128.763984
22517.150348,-74.020594,-13027.624579,-3753.867940
22517.150681,1850.514855,-7179.997637,-3677.258390
22517.151014,-4219.173869,-8660.409521,-4903.011187
22517.151347,-814.226536,-8438.347739,-1072.533697
22517.151680,-4441.235652,-11473.192101,689.485948
22517.152013,1036.288319,-6809.894666,6281.983084
22517.152346,-666.185348,-5403.503377,5209.449386
22517.152679,4737.318029,-4737.318029,6052.154434
22517.153012,-1258.350101,-11547.212695,1532.190996
22517.153345,-4737.318029,-5403.503377,0.000000
22517.153678,0.000000,-11917.315666,-2145.067394
22517.154011,-3182.885551,-7772.162391,-4903.011187
22517.154344,370.102971,-11399.171507,-4519.963438
22517.154677,-8216.285956,-12657.521608,-3677.258390
22517.155010,2294.638420,-7031.956449,-5132.839837
22517.155343,-3627.009116,-11917.315666,1225.752797
22517.155676,6513.812290,-6957.935855,5592.497135
22517.156009,6735.874072,-7846.182985,9652.803275
22517.156341,2442.679609,-8364.327145,8427.050478
22517.156674,4071.132681,-7105.977043,2374.896044
22517.157007,-814.226536,-10140.821405,1991.848295
22517.157340,2072.576638,-7254.018232,-2451.505594
22517.157673,-814.226536,-11843.295072,-1915.238745
22517.158006,-5255.462188,-11029.068536,-6894.859482
22517.158339,-9474.636058,-9548.656652,-5515.887586
22517.158672,-4737.318029,-5847.626942,-3524.039291
22517.159005,962.267725,-7846.182985,-2681.334243
22517.159338,74.020594,-11325.150913,229.828649
22517.159671,2294.638420,-10955.047942,-229.828649
22517.160004,1702.473667,-9548.656652,3983.696590
22517.160337,8512.368333,-8290.306550,8503.660028
22517.160670,7476.080014,-13027.624579,4519.963438
22517.161003,7254.018232,-5995.668130,6741.640382
22517.161336,-1258.350101,-10658.965565,-1302.362347
22517.161669,-1628.453072,-6735.874072,-3064.381992
22517.162002,-2294.638420,-10288.862594,-3447.429741
22517.162334,1850.514855,-6217.729913,383.047749
22517.162667,0.000000,-5995.668130,766.095498
22517.163000,-5403.503377,-8364.327145,-7354.516781
22517.163333,-2442.679609,-9474.636058,-5592.497135
22517.163666,-4515.256246,-10732.986159,-4903.011187
22517.163999,5921.647536,-10140.821405,4903.011187
22517.164332,2368.659014,-8364.327145,3677.258390
22517.164665,3330.926739,-14211.954086,4366.744339
22517.164998,2220.617826,-7254.018232,3447.429741
22517.165331,3552.988522,-7772.162391,3217.601092
22517.165664,8216.285956,-8882.471304,2987.772442
22517.165997,2368.659014,-9548.656652,2145.067394
22517.166330,-2442.679609,-8882.471304,-2528.115143
22517.166663,-4367.215058,-3034.844362,-5822.325785
22517.166996,-3775.050304,-9918.759623,-1838.629195
22517.167329,1702.473667,-13027.624579,4519.963438
22517.167662,-1258.350101,3478.967927,-3370.820191
22517.167995,-5477.523971,-26425.352129,2987.772442
22517.168328,-5107.421000,-3182.885551,-4366.744339
22517.168660,-1406.391290,962.267725,-1991.848295
22517.168993,-74.020594,-27831.743419,7277.907231
22517.169326,0.000000,-19319.375086,8580.269578
22517.169659,3552.988522,12657.521608,-76.609550
22517.169992,6439.791695,6661.853478,-4826.401637
22517.170325,1406.391290,-12953.603985,766.095498
22517.170658,222.061783,-18061.024985,1685.410096
22517.170991,-6291.750507,-16580.613101,4903.011187
22517.171324,-3701.029710,-12953.603985,-5898.935335
22517.171657,-7105.977043,-11917.315666,-7354.516781
22517.171990,6439.791695,-3552.988522,-4213.525239
22517.172323,8808.450710,-5033.400406,2221.676944
22517.172656,5699.585753,-8882.471304,8503.660028
22517.172989,1110.308913,-9844.739029,5898.935335
22517.173322,-1110.308913,-1554.432478,6435.202183
22517.173655,-518.144159,-1776.494261,-76.609550
22517.173988,5551.544565,-5921.647536,1149.143247
22517.174321,-3849.070898,-8660.409521,0.000000
22517.174654,0.000000,-6069.688724,-842.705048
22517.174986,-5995.668130,-10288.862594,-6128.763984
22517.175319,-3256.906145,-13471.748144,-4443.353888
22517.175652,4293.194464,-14359.995275,4290.134789
22517.175985,2960.823768,-11917.315666,4903.011187
22517.176318,3552.988522,-14878.139434,2451.505594
22517.176651,2294.638420,-15396.283594,2374.896044
22517.176984,7105.977043,-6587.832884,2451.505594
22517.177317,6513.812290,-9844.739029,6818.249932
22517.177650,6439.791695,-11843.295072,4213.525239
22517.177983,-2960.823768,-5995.668130,-6128.763984
22517.178316,-5107.421000,-10362.883188,-8810.098227
22517.178649,-2812.782580,-9474.636058,-11797.870669
22517.178982,-1702.473667,-6291.750507,-6741.640382
22517.179315,1702.473667,-11843.295072,-2528.115143
22517.179648,-3627.009116,-14211.954086,-4903.011187
22517.179981,-5033.400406,-13027.624579,-1608.800546
22517.180314,0.000000,-4811.338623,0.000000
22517.180647,4737.318029,-9548.656652,5209.449386
22517.180979,6143.709319,-13323.706956,9729.412825
22517.181312,1628.453072,-7402.059420,3447.429741
22517.181645,-1406.391290,-10140.821405,2145.067394
22517.181978,2072.576638,-2294.638420,842.705048
22517.182311,-1258.350101,-7105.977043,-689.485948
22517.182644,296.082377,-1258.350101,0.000000
22517.182977,-4145.153275,-9326.594869,-1302.362347
22517.183310,-3923.091493,-11547.212695,-1608.800546
22517.183643,-962.267725,-5403.503377,0.000000
22517.183976,3330.926739,-11843.295072,7277.907231
22517.184309,3997.112087,-8956.491898,8273.831378
22517.184642,1184.329507,-9696.697840,3294.210641
22517.184975,-3552.988522,-11473.192101,2528.115143
22517.185308,814.226536,-6513.812290,1149.143247
22517.185641,3404.947333,-7179.997637,4290.134789
22517.185974,4219.173869,-6513.812290,2221.676944
22517.186307,-1850.514855,-7994.224174,-995.924147
22517.186640,-4737.318029,-6069.688724,-3064.381992
22517.186973,-1258.350101,-6809.894666,-2528.115143
22517.187305,-74.020594,-11547.212695,-2834.553343
22517.187638,0.000000,-11917.315666,0.000000
22517.187971,0.000000,-13397.727550,1532.190996
22517.188304,0.000000,-10288.862594,4903.011187
22517.188637,4811.338623,-10510.924376,3907.087040
22517.188970,5403.503377,-10584.944971,5439.278036
22517.189303,2960.823768,-10658.965565,3447.429741
22517.189636,-74.020594,-8290.306550,-2528.115143
22517.189969,-3552.988522,-9548.656652,-2298.286494
22517.190302,-1554.432478,-6291.750507,-7354.516781
22517.190635,0.000000,-8512.368333,842.705048
22517.190968,-666.185348,-10510.924376,-1302.362347
22517.191301,-1258.350101,-7105.977043,-4979.620737
22517.191634,-3627.009116,-12731.542202,-4366.744339
22517.191967,1702.473667,-13915.871710,383.047749
22517.192300,7031.956449,-10807.006753,6971.469032
22517.192633,4515.256246,-11843.295072,3677.258390
22517.192966,5847.626942,-10658.965565,4826.401637
22517.193298,-2368.659014,-9548.656652,0.000000
22517.193631,6513.812290,-5773.606348,3600.648841
22517.193964,1702.473667,-5995.668130,0.000000
22517.194297,0.000000,-7179.997637,-1225.752797
22517.194630,-5995.668130,-9622.677246,-2987.772442
22517.194963,-3923.091493,-5625.565159,-3140.991542
22517.195296,-1554.432478,-5773.606348,-4443.353888
22517.195629,-2146.597232,-8290.306550,1302.362347
22517.195962,1628.453072,-6217.729913,-1455.581446
22517.196295,-2812.782580,-14211.954086,4826.401637
22517.196628,3478.967927,-13027.624579,3600.648841
22517.196961,3182.885551,-7772.162391,3677.258390
22517.197294,6809.894666,-10881.027347,9346.365076
22517.197627,4737.318029,-4219.173869,5209.449386
22517.197960,-2146.597232,-12065.356855,1378.971896
22517.198293,-370.102971,-8734.430116,-2221.676944
22517.198626,-2442.679609,-10288.862594,-3677.258390
22517.198959,0.000000,-8364.327145,1838.629195
22517.199292,2294.638420,-6513.812290,-689.485948
22517.199624,-5921.647536,-9548.656652,-1225.752797
22517.199957,-5921.647536,-5403.503377,-2451.505594
22517.200290,-74.020594,-11251.130318,2374.896044
22517.200623,2664.741391,-10140.821405,3677.258390
22517.200956,1184.329507,-8808.450710,612.876398
22517.201289,-74.020594,-13323.706956,2068.457845
22517.201622,-2368.659014,-11103.089130,-229.828649
22517.201955,1480.411884,-8068.244768,0.000000
22517.202288,2368.659014,-8734.430116,-1991.848295
22517.202621,2368.659014,-10584.944971,-1608.800546
22517.202954,-4589.276840,-9696.697840,1915.238745
22517.203287,-666.185348,-4737.318029,-9422.974625
22517.203620,0.000000,-12509.480420,1838.629195
22517.203953,3478.967927,-6957.935855,-76.609550
22517.204286,1702.473667,-6143.709319,0.000000
22517.204619,-2960.823768,-12879.583391,2987.772442
22517.204952,2886.803174,-10510.924376,-1608.800546
22517.205285,-222.061783,-14878.139434,4213.525239
22517.205617,6291.750507,-4811.338623,3370.820191
22517.205950,-666.185348,-10140.821405,689.485948
22517.206283,-4737.318029,-8364.327145,-4903.011187
22517.206616,-4737.318029,-6587.832884,-3370.820191
22517.206949,-2442.679609,-8290.306550,-4979.620737
22517.207282,1184.329507,-3627.009116,-1762.019645
22517.207615,-3552.988522,-8364.327145,1991.848295
22517.207948,740.205942,-4811.338623,1762.019645
22517.208281,0.000000,-7254.018232,2221.676944
22517.208614,5255.462188,-11399.171507,6205.373534
22517.208947,3182.885551,-8956.491898,3677.258390
22517.209279,7031.956449,-11251.130318,3907.087040
22517.209612,-2368.659014,-15766.386565,2374.896044
22517.209945,5255.462188,-7105.977043,2681.334243
22517.210278,2368.659014,-3923.091493,1225.752797
22517.210611,1184.329507,-8512.368333,4826.401637
22517.210943,-2294.638420,-6883.915261,-3217.601092
22517.211276,-4811.338623,-9474.636058,-3753.867940
22517.211609,-5477.523971,-10436.903782,-2757.943793
22517.211942,-2664.741391,-8734.430116,-2528.115143
22517.212275,1406.391290,-11547.212695,4213.525239
22517.212607,2368.659014,-8660.409521,6358.592633
22517.212940,-962.267725,-7179.997637,0.000000
22517.213273,0.000000,-5995.668130,-306.438199
22517.213606,5847.626942,-13915.871710,536.266849
22517.213939,5847.626942,-7031.956449,3370.820191
22517.214271,3478.967927,-11695.253884,689.485948
22517.214604,-1998.556043,-11621.233289,-1991.848295
22517.214937,-3775.050304,-8734.430116,-5362.668486
22517.215270,-74.020594,-9178.553681,-2528.115143
22517.215603,2294.638420,-8882.471304,1149.143247
22517.215935,-2960.823768,-9548.656652,612.876398
22517.216268,-370.102971,-10955.047942,1149.143247
22517.216601,-1258.350101,-7846.182985,306.438199
22517.216934,1184.329507,-5403.503377,3830.477490
22517.217267,4663.297435,-7994.224174,3600.648841
22517.217599,1036.288319,-11695.253884,4213.525239
22517.217932,-2738.761985,-5625.565159,-536.266849
22517.218265,-4293.194464,-11325.150913,-4673.182538
22517.218598,1998.556043,-9474.636058,-3447.429741
22517.218931,-1924.535449,-10362.883188,-383.047749
22517.219263,1258.350101,-5329.482782,-1608.800546
22517.219596,-4885.359217,-10658.965565,-1608.800546
22517.219929,-4737.318029,-7179.997637,-4903.011187
22517.220262,4071.132681,-9178.553681,-383.047749
22517.220595,2960.823768,-8364.327145,7354.516781
22517.220927,9474.636058,-8808.450710,10342.289223
22517.221260,1406.391290,-10362.883188,6358.592633
22517.221593,1406.391290,-6587.832884,0.000000
22517.221926,-1850.514855,-9474.636058,-1608.800546
22517.222259,2294.638420,-11399.171507,1762.019645
22517.222591,74.020594,-8512.368333,-4673.182538
22517.222924,-4811.338623,-15396.283594,-3447.429741
22517.223257,-3923.091493,-8882.471304,-5592.497135
22517.223590,-8290.306550,-6735.874072,-1532.190996
22517.223923,1184.329507,-6587.832884,3600.648841
22517.224255,5551.544565,-8586.388927,3217.601092
22517.224588,2368.659014,-12065.356855,9422.974625
22517.224921,888.247130,-5995.668130,4136.915689
22517.225254,2886.803174,-8364.327145,2451.505594
22517.225587,7105.977043,-7031.956449,4596.572988
22517.225919,3182.885551,-10658.965565,2068.457845
22517.226252,4663.297435,-6291.750507,-4213.525239
22517.226585,-6513.812290,-15396.283594,-4979.620737
22517.226918,-1850.514855,-11251.130318,-5745.716235
22517.227251,-962.267725,-10510.924376,-1762.019645
22517.227583,-3923.091493,-11843.295072,1149.143247
22517.227916,-1924.535449,-5329.482782,-1608.800546
22517.228249,-1406.391290,-5625.565159,-689.485948
22517.228582,2738.761985,-5921.647536,2374.896044
22517.228915,7105.977043,-7624.121203,7354.516781
22517.229247,3923.091493,-8956.491898,3677.258390
22517.229580,6735.874072,-13767.830521,2987.772442
22517.229913,-2442.679609,-13767.830521,-2451.505594
22517.230246,3701.029710,-8660.409521,-4290.134789
22517.230579,-2072.576638,-13397.727550,-1225.752797
22517.230911,2516.700203,-7920.203579,-2221.676944
22517.231244,-2220.617826,-9326.594869,-1608.800546
22517.231577,-1998.556043,-5403.503377,-766.095498
22517.231910,-666.185348,-6513.812290,-2528.115143
22517.232243,0.000000,-11029.068536,6665.030833
22517.232575,2294.638420,-7476.080014,1915.238745
22517.232908,-3256.906145,-8364.327145,2451.505594
22517.233241,-74.020594,-12731.542202,2068.457845
22517.233574,666.185348,-8808.450710,-1838.629195
22517.233907,1702.473667,-8586.388927,1532.190996
22517.234239,2072.576638,-7328.038826,-2834.553343
22517.234572,-1184.329507,-13249.686362,-3064.381992
22517.234905,-3034.844362,-13027.624579,-4979.620737
22517.235238,-3108.864956,-11547.212695,2681.334243
22517.235571,0.000000,-4811.338623,0.000000
22517.235903,962.267725,-7476.080014,4060.306139
22517.236236,-3034.844362,-7698.141797,76.609550
22517.236569,2294.638420,-7105.977043,-76.609550
22517.236902,-4145.153275,-11325.150913,2451.505594
22517.237235,5033.400406,-10066.800811,3907.087040
22517.237567,2516.700203,-10140.821405,7354.516781
22517.237900,0.000000,-9548.656652,0.000000
22517.238233,1998.556043,-9326.594869,1149.143247
22517.238566,-4515.256246,-6587.832884,-3983.696590
22517.238899,2220.617826,-7698.141797,-5439.278036
22517.239231,-1554.432478,-10955.047942,229.828649
22517.239564,-4737.318029,-6883.915261,-6128.763984
22517.239897,-4145.153275,-12657.521608,-76.609550
22517.240230,-1850.514855,-13027.624579,-76.609550
22517.240563,3552.988522,-4811.338623,4290.134789
22517.240895,5847.626942,-13619.789333,9729.412825
22517.241228,4441.235652,-4811.338623,2757.943793
22517.241561,1258.350101,-10955.047942,536.266849
22517.241894,4589.276840,-9474.636058,5439.278036
22517.242227,4663.297435,-6957.935855,842.705048
22517.242559,592.164754,-9844.739029,-919.314598
22517.242892,-666.185348,-13027.624579,-1915.238745
22517.243225,-7698.141797,-7179.997637,-7354.516781
22517.243558,-5625.565159,-9548.656652,-2451.505594
22517.243891,-2294.638420,-10658.965565,-995.924147
22517.244223,-1184.329507,-6587.832884,2145.067394
22517.244556,-1258.350101,-6069.688724,3983.696590
22517.244889,1480.411884,-6587.832884,2145.067394
22517.245222,1554.432478,-11843.295072,3370.820191
22517.245555,9400.615463,-9474.636058,6052.154434
22517.245887,3775.050304,-11843.295072,2987.772442
22517.246220,3552.988522,-7476.080014,2221.676944
22517.246553,1110.308913,-8734.430116,-5132.839837
22517.246886,-666.185348,-8364.327145,-6741.640382
22517.247219,3552.988522,-8364.327145,2068.457845
22517.247552,-3034.844362,-10881.027347,-1685.410096
22517.247884,814.226536,-7476.080014,76.609550
22517.248217,-7402.059420,-8660.409521,0.000000
22517.248550,-74.020594,-6513.812290,4519.963438
22517.248883,2368.659014,-2146.597232,2298.286494
22517.249216,666.185348,-13027.624579,2451.505594
22517.249548,-1628.453072,-9252.574275,2604.724693
22517.249881,-8882.471304,-10732.986159,-3677.258390
22517.250214,-3552.988522,-13693.809927,1225.752797
22517.250547,-2442.679609,-9474.636058,-76.609550
22517.250880,-4441.235652,-7476.080014,-2451.505594
22517.251212,-5329.482782,-6439.791695,2068.457845
22517.251545,-7402.059420,-6291.750507,-4596.572988
22517.251878,-7105.977043,-9252.574275,842.705048
22517.252211,-3256.906145,-7105.977043,1532.190996
22517.252544,-7105.977043,-13397.727550,1455.581446
22517.252876,-5699.585753,-13027.624579,7890.783629
22517.253209,-8438.347739,-7179.997637,-1608.800546
22517.253542,-4811.338623,-8956.491898,2451.505594
22517.253875,-2960.823768,-7772.162391,3600.648841
22517.254208,-2442.679609,-9474.636058,2987.772442
22517.254540,-7772.162391,-6513.812290,-76.609550
22517.254873,-10140.821405,-9770.718434,-6205.373534
22517.255206,-12139.377449,-12657.521608,-1685.410096
22517.255539,-8586.388927,-7179.997637,-4290.134789
22517.255872,-8512.368333,-8660.409521,-3140.991542
22517.256204,-7698.141797,-8956.491898,1608.800546
22517.256537,-7698.141797,-9548.656652,0.000000
22517.256870,-1184.329507,-8290.306550,4826.401637
22517.257203,-1258.350101,-14211.954086,3600.648841
22517.257536,-3404.947333,-9844.739029,5745.716235
22517.257868,-74.020594,-7105.977043,4519.963438
22517.258201,-1850.514855,-10807.006753,4979.620737
22517.258534,-3330.926739,-7698.141797,536.266849
22517.258867,-4515.256246,-5847.626942,-2911.162892
22517.259200,-8364.327145,-12731.542202,-3140.991542
22517.259532,-9474.636058,-6587.832884,-2221.676944
22517.259865,-11399.171507,-12435.459826,-2834.553343
22517.260198,-9548.656652,-10214.842000,-2221.676944
22517.260531,-9474.636058,-11917.315666,2757.943793
22517.260864,-5329.482782,-3997.112087,153.219100
22517.261196,-7254.018232,-11917.315666,4903.011187
22517.261529,-3997.112087,-4737.318029,1225.752797
22517.261862,-7031.956449,-12805.562797,3294.210641
22517.262195,-7550.100608,-9548.656652,1225.752797
22517.262528,-3775.050304,-8882.471304,1762.019645
22517.262860,-9104.533087,-7550.100608,-2451.505594
22517.263193,-7105.977043,-4811.338623,0.000000
22517.263526,-9474.636058,-6291.750507,-1991.848295
22517.263859,-8142.265362,-9548.656652,-2145.067394
22517.264192,-8364.327145,-10807.006753,-1302.362347
22517.264524,-11843.295072,-15840.407159,-2681.334243
22517.264857,-6957.935855,-10807.006753,1072.533697
22517.265190,-6513.812290,-8364.327145,3370.820191
22517.265523,-5551.544565,-8586.388927,3600.648841
22517.265856,-6587.832884,-9474.636058,5439.278036
22517.266188,-8882.471304,-8068.244768,1608.800546
22517.266521,-9548.656652,-9474.636058,-76.609550
22517.266854,-11917.315666,-8068.244768,-2451.505594
22517.267187,-12731.542202,-8734.430116,-1225.752797
22517.267520,-14285.974681,-9178.553681,-3753.867940
22517.267852,-14211.954086,-5107.421000,-5822.325785
22517.268185,-12435.459826,-10881.027347,766.095498
22517.268518,-11029.068536,-10436.903782,-612.876398
22517.268851,-7698.141797,-8956.491898,3677.258390
22517.269184,-11251.130318,-12953.603985,3370.820191
22517.269516,-7402.059420,-8808.450710,1072.533697
22517.269849,-10140.821405,-9548.656652,2451.505594
22517.270182,-5995.668130,-11843.295072,3600.648841
22517.270515,-9104.533087,-7698.141797,-1302.362347
22517.270848,-11843.295072,-9548.656652,-1838.629195
22517.271180,-10140.821405,-9474.636058,-1608.800546
22517.271513,-13989.892304,-9252.574275,229.828649
22517.271846,-10584.944971,-5995.668130,-3140.991542
22517.272179,-12509.480420,-8660.409521,536.266849
22517.272512,-13027.624579,-8216.285956,-1532.190996
22517.272844,-11843.295072,-5107.421000,0.000000
22517.273177,-9548.656652,-11843.295072,536.266849
22517.273510,-9252.574275,-8068.244768,766.095498
22517.273843,-9474.636058,-9548.656652,5822.325785
22517.274176,-9326.594869,-9548.656652,153.219100
22517.274508,-8068.244768,-7254.018232,306.438199
22517.274841,-8734.430116,-8068.244768,-383.047749
22517.275174,-9548.656652,-9474.636058,-3294.210641
22517.275507,-9548.656652,-9474.636058,-2528.115143
22517.275840,-10066.800811,-11029.068536,-689.485948
22517.276172,-7772.162391,-9474.636058,-76.609550
22517.276505,-7476.080014,-7772.162391,0.000000
22517.276838,-4589.276840,-10658.965565,3677.258390
22517.277171,-4811.338623,-11843.295072,4213.525239
22517.277504,-5033.400406,-8364.327145,2451.505594
22517.277836,-5699.585753,-12435.459826,3140.991542
22517.278169,-8068.244768,-11547.212695,1685.410096
22517.278502,-11547.212695,-9548.656652,0.000000
22517.278835,-9548.656652,-9178.553681,-2834.553343
22517.279168,-11843.295072,-7920.203579,-1302.362347
22517.279500,-10140.821405,-8882.471304,-1302.362347
22517.279833,-10436.903782,-5403.503377,-4136.915689
22517.280166,-12213.398043,-10955.047942,-1762.019645
22517.280499,-10288.862594,-10140.821405,459.657299
22517.280832,-7179.997637,-8290.306550,3447.429741
22517.281164,-5181.441594,-9844.739029,4749.792088
22517.281497,-7105.977043,-8364.327145,2451.505594
22517.281830,-7179.997637,-10362.883188,1149.143247
22517.282163,-8068.244768,-10955.047942,1302.362347
22517.282496,-8142.265362,-11029.068536,1302.362347
22517.282828,-9548.656652,-9474.636058,689.485948
22517.283161,-13027.624579,-6291.750507,-2451.505594
22517.283494,-11325.150913,-8290.306550,-1915.238745
22517.283827,-12509.480420,-5403.503377,-5515.887586
22517.284160,-11843.295072,-9252.574275,-76.609550
22517.284492,-8068.244768,-9178.553681,2374.896044
22517.284825,-10140.821405,-7920.203579,306.438199
22517.285158,-7846.182985,-10658.965565,2451.505594
22517.285491,-7179.997637,-9696.697840,3140.991542
22517.285824,-9474.636058,-11843.295072,2374.896044
22517.286156,-10510.924376,-12139.377449,3370.820191
22517.286489,-10140.821405,-10658.965565,229.828649
22517.286822,-11843.295072,-7179.997637,-2298.286494
22517.287155,-9474.636058,-8068.244768,3600.648841
22517.287488,-7772.162391,-6217.729913,1072.533697
22517.287820,-9474.636058,-5551.544565,1762.019645
22517.288153,-11991.336260,-8512.368333,-1838.629195
22517.288486,-13027.624579,-11621.233289,-3524.039291
22517.288819,-13397.727550,-12213.398043,-3370.820191
22517.289152,-8660.409521,-13619.789333,-76.609550
22517.289485,-5995.668130,-8068.244768,0.000000
22517.289817,-5033.400406,-9474.636058,5439.278036
22517.290150,-2442.679609,-8882.471304,5439.278036
22517.290483,-6587.832884,-7105.977043,995.924147
22517.290816,-8364.327145,-10658.965565,-1302.362347
22517.291149,-14211.954086,-11769.274478,-3064.381992
22517.291481,-15174.221811,-11991.336260,-3524.039291
22517.291814,-13619.789333,-9400.615463,-1991.848295
22517.292147,-10955.047942,-5403.503377,0.000000
22517.292480,-7698.141797,-4367.215058,1225.752797
22517.292813,-5255.462188,-7994.224174,2987.772442
22517.293145,-3627.009116,-7698.141797,1072.533697
22517.293478,-5699.585753,-10436.903782,1532.190996
22517.293811,-3627.009116,-14211.954086,536.266849
22517.294144,-6439.791695,-14137.933492,1149.143247
22517.294477,-8882.471304,-12139.377449,-2221.676944
22517.294809,-11547.212695,-11029.068536,-3753.867940
22517.295142,-15396.283594,-10140.821405,-4903.011187
22517.295475,-13767.830521,-9992.780217,-76.609550
22517.295808,-12731.542202,-6883.915261,2374.896044
22517.296141,-9400.615463,-5625.565159,4136.915689
22517.296473,-5995.668130,-4145.153275,7277.907231
22517.296806,-3034.844362,-4441.235652,6665.030833
22517.297139,-2294.638420,-2442.679609,2451.505594
22517.297472,-1480.411884,-9770.718434,1225.752797
22517.297805,-3330.926739,-14211.954086,-3753.867940
22517.298137,-3923.091493,-17468.860231,-5592.497135
22517.298470,-6809.894666,-17172.777854,-6205.373534
22517.298803,-6809.894666,-14582.057057,-4903.011187
22517.299136,-5699.585753,-11399.171507,-1225.752797
22517.299469,-4293.194464,-8438.347739,2757.943793
22517.299801,-2442.679609,-6143.709319,7584.345430
22517.300134,-4737.318029,-2442.679609,7354.516781
22517.300467,-2960.823768,-5847.626942,7890.783629
22517.300800,-1850.514855,-7105.977043,5745.716235
22517.301133,-3256.906145,-5995.668130,3677.258390
22517.301465,-2442.679609,-10066.800811,229.828649
22517.301798,-3108.864956,-12657.521608,-229.828649
22517.302131,-3552.988522,-13101.645173,-842.705048
22517.302464,-5477.523971,-12805.562797,-2221.676944
22517.302797,-6587.832884,-10658.965565,-3294.210641
22517.303129,-5773.606348,-10658.965565,-76.609550
22517.303462,-4811.338623,-8882.471304,1762.019645
22517.303795,-7105.977043,-4811.338623,5056.230287
22517.304128,-5329.482782,-7254.018232,5822.325785
22517.304461,-7402.059420,-6587.832884,4979.620737
22517.304793,-4219.173869,-8142.265362,5898.935335
22517.305126,-2072.576638,-9992.780217,8044.002729
22517.305459,-148.041188,-11251.130318,8886.707777
22517.305792,-1776.494261,-10732.986159,6128.763984
22517.306125,-74.020594,-11843.295072,4826.401637
22517.306457,-1110.308913,-10658.965565,6052.154434
22517.306790,-2664.741391,-8364.327145,7354.516781
22517.307123,-2738.761985,-11547.212695,8503.660028
22517.307456,-6809.894666,-9252.574275,7584.345430
22517.307789,-7846.182985,-8290.306550,8963.317327
22517.308121,-5625.565159,-6291.750507,11261.603821
22517.308454,-4737.318029,-6809.894666,13636.499864
22517.308787,-2442.679609,-8290.306550,17083.929605
22517.309120,-74.020594,-6217.729913,14709.033562
22517.309453,0.000000,-8068.244768,19535.435199
22517.309786,2368.659014,-9992.780217,21374.064394
22517.310119,1702.473667,-10658.965565,16777.491406
22517.310452,592.164754,-10066.800811,18003.244203
22517.310784,0.000000,-9252.574275,17926.634653
22517.311117,0.000000,-5403.503377,17160.539155
22517.311450,444.123565,-5329.482782,17237.148705
22517.311783,1998.556043,-5477.523971,19535.435199
22517.312116,888.247130,-4293.194464,18999.168350
22517.312449,0.000000,-6513.812290,17696.806004
22517.312782,-1628.453072,-8438.347739,17160.539155
22517.313114,-3256.906145,-9548.656652,17773.415554
22517.313447,-1776.494261,-11917.315666,23212.693589
22517.313780,1110.308913,-9474.636058,21680.502593
22517.314113,0.000000,-5403.503377,22676.426741
22517.314446,2072.576638,-6143.709319,25970.637382
22517.314779,5551.544565,-3552.988522,24438.446386
22517.315112,4589.276840,-2664.741391,23825.569988
22517.315445,2738.761985,-1924.535449,18003.244203
22517.315777,-962.267725,-2220.617826,12717.185267
22517.316110,-2072.576638,-6957.935855,12870.404366
22517.316443,-2516.700203,-13471.748144,14019.547613
22517.316776,-4219.173869,-11325.150913,10418.898773
22517.317109,-4663.297435,-11991.336260,15321.909960
22517.317442,-888.247130,-10066.800811,16471.053207
22517.317775,1924.535449,-7031.956449,17160.539155
22517.318108,5255.462188,-6069.688724,20607.968896
22517.318440,3108.864956,-5921.647536,18845.949251
22517.318773,1924.535449,-9326.594869,17237.148705
22517.319106,1110.308913,-9474.636058,14632.424012
22517.319439,-1776.494261,-9474.636058,14632.424012
22517.319772,-3034.844362,-2442.679609,7354.516781
22517.320105,-2368.659014,-3923.091493,5439.278036
22517.320438,-2072.576638,-6143.709319,4903.011187
22517.320770,-1258.350101,-9474.636058,4826.401637
22517.321103,-2738.761985,-11621.233289,7048.078582
22517.321436,-3034.844362,-11473.192101,6894.859482
22517.321769,-1184.329507,-12435.459826,8886.707777
22517.322102,1776.494261,-9548.656652,10418.898773
22517.322435,6439.791695,-8290.306550,9729.412825
22517.322768,3552.988522,-7476.080014,7967.393179
22517.323101,3108.864956,-11547.212695,7277.907231
22517.323433,-3256.906145,-7179.997637,1838.629195
22517.323766,-2960.823768,-9548.656652,1225.752797
22517.324099,888.247130,-8808.450710,2681.334243
22517.324432,740.205942,-9400.615463,-76.609550
22517.324765,592.164754,-8290.306550,-995.924147
22517.325098,1702.473667,-11547.212695,-76.609550
22517.325431,0.000000,-9548.656652,2451.505594
22517.325764,4441.235652,-13027.624579,7277.907231
22517.326096,1998.556043,-14211.954086,6665.030833
22517.326429,0.000000,-7772.162391,6435.202183
22517.326762,296.082377,-7179.997637,4903.011187
22517.327095,1184.329507,-7550.100608,5056.230287
22517.327428,1406.391290,-9030.512492,4596.572988
22517.327761,814.226536,-10362.883188,3447.429741
22517.328094,-666.185348,-9178.553681,1762.019645
22517.328426,-4589.276840,-8660.409521,-2298.286494
22517.328759,-3330.926739,-8290.306550,-1378.971896
22517.329092,-1480.411884,-6291.750507,-1608.800546
22517.329425,148.041188,-7698.141797,-459.657299
22517.329758,4663.297435,-14211.954086,8197.221829
22517.330091,296.082377,-16654.633695,11031.775171
22517.330424,2368.659014,-8956.491898,15245.300410
22517.330757,1110.308913,-6957.935855,6052.154434
22517.331089,0.000000,-3701.029710,4673.182538
22517.331422,888.247130,-11473.192101,4673.182538
22517.331755,-1628.453072,-12065.356855,6741.640382
22517.332088,-1850.514855,-11325.150913,4826.401637
22517.332421,-2368.659014,-11103.089130,5209.449386
22517.332754,-1554.432478,-4441.235652,2834.553343
22517.333087,-3552.988522,-4811.338623,1225.752797
22517.333419,3478.967927,-11251.130318,8503.660028
22517.333752,3478.967927,-12731.542202,8503.660028
22517.334085,148.041188,-13693.809927,13023.623466
22517.334418,2294.638420,-9474.636058,10955.165621
22517.334751,1480.411884,-10214.842000,13406.671215
22517.335084,3182.885551,-8956.491898,15475.129060
22517.335417,1628.453072,-7920.203579,15092.081311
22517.335750,-2960.823768,-7179.997637,10418.898773
22517.336082,-3552.988522,-3627.009116,13483.280765
22517.336415,2294.638420,-7994.224174,12793.794817
22517.336748,-1036.288319,-5995.668130,14785.643111
22517.337081,-3552.988522,-7179.997637,15092.081311
22517.337414,0.000000,-3627.009116,12563.966167
22517.337747,1554.432478,-8882.471304,15245.300410
22517.338080,2072.576638,-9622.677246,19765.263848
22517.338413,2738.761985,-13249.686362,22829.645840
22517.338745,4071.132681,-8290.306550,23825.569988
22517.339078,1332.370696,-6661.853478,24438.446386
22517.339411,2294.638420,-6809.894666,19841.873398
22517.339744,0.000000,-3627.009116,20531.359346
22517.340077,-2072.576638,-2294.638420,17696.806004
22517.340410,-74.020594,-2220.617826,15168.690860
22517.340743,-2960.823768,-7550.100608,13483.280765
22517.341075,-2442.679609,-8586.388927,17083.929605
22517.341408,-3330.926739,-3034.844362,12793.794817
22517.341741,-1184.329507,-4811.338623,14555.814462
22517.342074,-74.020594,-7105.977043,13100.233016
22517.342407,0.000000,-9844.739029,12257.527968
22517.342740,2368.659014,-11917.315666,21680.502593
22517.343073,2886.803174,-9918.759623,16088.005458
22517.343406,3478.967927,-6439.791695,15858.176809
22517.343738,0.000000,-4589.276840,11338.213370
22517.344071,-1258.350101,-8882.471304,9576.193725
22517.344404,-1258.350101,-10362.883188,10648.727422
22517.344737,-2960.823768,-7179.997637,9193.145976
22517.345070,-1702.473667,-5255.462188,8273.831378
22517.345403,814.226536,-8290.306550,13866.328514
22517.345736,4071.132681,-7920.203579,17850.025103
22517.346068,962.267725,-5551.544565,13559.890315
22517.346401,370.102971,-6513.812290,9422.974625
22517.346734,2294.638420,-15396.283594,13406.671215
22517.347067,1554.432478,-7179.997637,12870.404366
22517.347400,3108.864956,-8364.327145,12640.575717
22517.347733,-296.082377,-5329.482782,8427.050478
22517.348066,-3404.947333,-5551.544565,0.000000
22517.348399,1702.473667,-8660.409521,5132.839837
22517.348731,-2072.576638,-11325.150913,2451.505594
22517.349064,0.000000,-7698.141797,1149.143247
22517.349397,-2960.823768,-11621.233289,1225.752797
22517.349730,3182.885551,-9474.636058,2451.505594
22517.350063,2738.761985,-7179.997637,5209.449386
22517.350396,4145.153275,-7772.162391,4826.401637
22517.350729,5847.626942,-9178.553681,1149.143247
22517.351062,592.164754,-9326.594869,-76.609550
22517.351394,-1036.288319,-12065.356855,-3064.381992
22517.351727,-2960.823768,-11843.295072,-3217.601092
22517.352060,-2368.659014,-9030.512492,-6818.249932
22517.352393,-370.102971,-12435.459826,-2528.115143
22517.352726,-666.185348,-5551.544565,-6588.421283
22517.353059,-3552.988522,-6587.832884,-8273.831378
22517.353392,4071.132681,-13027.624579,-689.485948
22517.353724,0.000000,-12509.480420,0.000000
22517.354057,2294.638420,-11843.295072,2068.457845
22517.354390,-1036.288319,-7920.203579,-4673.182538
22517.354723,518.144159,-9992.780217,-4443.353888
22517.355056,3478.967927,-6069.688724,-3370.820191
22517.355389,3182.885551,-8586.388927,-5898.935335
22517.355722,0.000000,-14285.974681,-1838.629195
22517.356055,2294.638420,-11843.295072,-5592.497135
22517.356387,1406.391290,-6513.812290,-5592.497135
22517.356720,0.000000,-5995.668130,-7354.516781
22517.357053,-1850.514855,-5329.482782,-12947.013916
22517.357386,-4219.173869,-13841.851115,-12947.013916
22517.357719,518.144159,-20355.663405,-4749.792088
22517.358052,444.123565,-15766.386565,76.609550
22517.358385,1110.308913,-6513.812290,-2528.115143
22517.358717,2368.659014,-5699.585753,-1915.238745
22517.359050,1036.288319,-4515.256246,-5209.449386
22517.359383,2590.720797,-8586.388927,-4213.525239
22517.359716,4441.235652,-13397.727550,-2298.286494
22517.360049,4663.297435,-15988.448347,-1302.362347
22517.360382,-1332.370696,-6883.915261,-2298.286494
22517.360715,-5921.647536,-1850.514855,-9652.803275
22517.361048,-1850.514855,-8216.285956,-12640.575717
22517.361380,2368.659014,-11769.274478,-7048.078582
22517.361713,4515.256246,-18061.024985,1608.800546
22517.362046,2590.720797,-15766.386565,3677.258390
22517.362379,148.041188,-5329.482782,612.876398
22517.362712,1702.473667,-6809.894666,229.828649
22517.363045,4145.153275,-4293.194464,536.266849
22517.363378,0.000000,-8660.409521,-612.876398
22517.363711,962.267725,-14804.118840,-689.485948
22517.364043,518.144159,-14211.954086,-76.609550
22517.364376,-2738.761985,-9178.553681,-689.485948
22517.364709,-2220.617826,-814.226536,-3370.820191
22517.365042,-2516.700203,-8438.347739,-3447.429741
22517.365375,222.061783,-15766.386565,3677.258390
22517.365708,0.000000,-9548.656652,6741.640382
22517.366041,-74.020594,-13027.624579,4519.963438
22517.366373,2368.659014,-6587.832884,10572.117872
22517.366706,3478.967927,-11251.130318,7890.783629
22517.367039,592.164754,-8364.327145,9806.022374
22517.367372,-2960.823768,-2442.679609,-612.876398
22517.367705,-1184.329507,-6291.750507,-612.876398
22517.368038,2146.597232,-8882.471304,4826.401637
22517.368371,296.082377,-9992.780217,5515.887586
22517.368704,-74.020594,-11843.295072,6665.030833
22517.369036,-3182.885551,-5403.503377,0.000000
22517.369369,1998.556043,-8882.471304,3600.648841
22517.369702,4663.297435,-4737.318029,4213.525239
22517.370035,1480.411884,-13101.645173,10648.727422
22517.370368,1702.473667,-14063.912898,10648.727422
22517.370701,296.082377,-8808.450710,7354.516781
22517.371034,370.102971,-12435.459826,9729.412825
22517.371367,2664.741391,-7402.059420,12334.137518
22517.371699,2368.659014,-4145.153275,11261.603821
22517.372032,-592.164754,-2442.679609,9729.412825
22517.372365,-2146.597232,3478.967927,-2145.067394
22517.372698,296.082377,-8142.265362,1838.629195
22517.373031,-74.020594,-14211.954086,4213.525239
22517.373364,-370.102971,-14730.098246,6818.249932
22517.373697,-3775.050304,-10510.924376,5745.716235
22517.374029,-592.164754,-370.102971,-766.095498
22517.374362,4959.379811,-10140.821405,5132.839837
22517.374695,7105.977043,-14582.057057,13942.938064
22517.375028,5329.482782,-12805.562797,13406.671215
22517.375361,-296.082377,-4737.318029,5439.278036
22517.375694,-296.082377,814.226536,-4213.525239
22517.376027,-1850.514855,-10658.965565,-1302.362347
22517.376360,-666.185348,-9918.759623,0.000000
22517.376692,-4737.318029,-9030.512492,-2911.162892
22517.377025,-1850.514855,-11843.295072,-3140.991542
22517.377358,-962.267725,-7179.997637,-3064.381992
22517.377691,888.247130,-8068.244768,5209.449386
22517.378024,1998.556043,-5329.482782,-2834.553343
22517.378357,444.123565,-13841.851115,0.000000
22517.378690,888.247130,-16728.654289,1608.800546
22517.379022,2146.597232,-6069.688724,2451.505594
22517.379355,1776.494261,-8660.409521,3677.258390
22517.379688,2368.659014,-12805.562797,1149.143247
22517.380021,-74.020594,-11029.068536,-1532.190996
22517.380354,-4811.338623,-8660.409521,-11031.775171
22517.380687,666.185348,-10881.027347,-3217.601092
22517.381020,-1258.350101,-2442.679609,-7048.078582
22517.381353,3256.906145,-2442.679609,-6205.373534
22517.381685,1702.473667,-11177.109724,-459.657299
22517.382018,-1480.411884,-12065.356855,-7277.907231
22517.382351,3478.967927,-16580.613101,-689.485948
22517.382684,3478.967927,-16580.613101,-1302.362347
22517.383017,518.144159,-7772.162391,-4903.011187
22517.383350,2368.659014,-13323.706956,3600.648841
22517.383683,4071.132681,-9474.636058,-3294.210641
22517.384016,-2368.659014,-11325.150913,-1532.190996
22517.384348,-2664.741391,-7994.224174,-5898.935335
22517.384681,296.082377,-4737.318029,-8197.221829
22517.385014,-1924.535449,-7698.141797,-4443.353888
22517.385347,-1776.494261,-2664.741391,-7660.954980
22517.385680,-3627.009116,-16580.613101,-1302.362347
22517.386013,0.000000,-10436.903782,-1225.752797
22517.386346,3256.906145,-12361.439231,4060.306139
22517.386678,8216.285956,-5921.647536,1149.143247
22517.387011,3478.967927,-7105.977043,-3753.867940
22517.387344,3923.091493,-12657.521608,2221.676944
22517.387677,1924.535449,-10881.027347,1302.362347
22517.388010,-1628.453072,-11769.274478,-2911.162892
22517.388343,740.205942,-10510.924376,-4443.353888
22517.388676,-5255.462188,-11917.315666,-6128.763984
22517.389009,-1850.514855,-10510.924376,-2834.553343
22517.389341,-5995.668130,-3552.988522,-8656.879127
22517.389674,-3552.988522,-4219.173869,-4903.011187
22517.390007,2442.679609,-10066.800811,4519.963438
22517.390340,1036.288319,-9474.636058,4826.401637
22517.390673,0.000000,-11177.109724,2911.162892
22517.391006,-2590.720797,-15470.304188,3064.381992
22517.391339,3256.906145,-8364.327145,7354.516781
22517.391671,2368.659014,-4959.379811,7048.078582
22517.392004,4959.379811,-5107.421000,4136.915689
22517.392337,2368.659014,-3849.070898,-4979.620737
22517.392670,666.185348,-9918.759623,-5209.449386
22517.393003,1184.329507,-18949.272115,3677.258390
22517.393336,-2146.597232,-21021.848753,6971.469032
22517.393669,-2368.659014,-1850.514855,6435.202183
22517.394002,-1258.350101,2664.741391,-4290.134789
22517.394334,1110.308913,-11843.295072,-76.609550
22517.394667,2368.659014,-18209.066173,9116.536426
22517.395000,592.164754,-17172.777854,8044.002729
22517.395333,-592.164754,-1702.473667,4366.744339
22517.395666,-2664.741391,-4737.318029,3907.087040
22517.395999,-74.020594,-7698.141797,7277.907231
22517.396332,-2960.823768,-4811.338623,4290.134789
22517.396665,2960.823768,-9030.512492,1762.019645
22517.396997,2886.803174,-6957.935855,-1991.848295
22517.397330,-2368.659014,-15470.304188,4903.011187
22517.397663,3478.967927,-16580.613101,15858.176809
22517.397996,0.000000,-3256.906145,11108.384721
22517.398329,1332.370696,-518.144159,2757.943793
22517.398662,5329.482782,-5551.544565,3753.867940
22517.398995,2516.700203,-14285.974681,5362.668486
22517.399327,1184.329507,-13693.809927,13330.061665
22517.399660,-3034.844362,-2368.659014,4519.963438
22517.399993,-5995.668130,-3849.070898,-1225.752797
22517.400326,-4885.359217,-10214.842000,-76.609550
22517.400659,-592.164754,-10288.862594,-2374.896044
22517.400992,2072.576638,-7328.038826,-1991.848295
22517.401325,1184.329507,-9770.718434,1532.190996
22517.401658,-74.020594,-11251.130318,5745.716235
22517.401990,0.000000,-5995.668130,7354.516781
22517.402323,4663.297435,-9474.636058,6052.154434
22517.402656,222.061783,-14285.974681,1225.752797
22517.402989,3552.988522,-10140.821405,2451.505594
22517.403322,2294.638420,-9474.636058,4826.401637
22517.403655,-1776.494261,-13101.645173,10112.460574
22517.403988,-1258.350101,-4737.318029,1455.581446
22517.404320,-3478.967927,-2146.597232,-5286.058936
22517.404653,1628.453072,-4663.297435,-7507.735880
22517.404986,2294.638420,-15544.324782,-2604.724693
22517.405319,2294.638420,-4589.276840,-766.095498
22517.405652,-888.247130,-8882.471304,-4519.963438
22517.405985,2368.659014,-9474.636058,0.000000
22517.406318,-3552.988522,-9548.656652,-2451.505594
22517.406651,-3552.988522,-17838.963202,-919.314598
22517.406983,-74.020594,-18949.272115,-2528.115143
22517.407316,-2368.659014,-4811.338623,-7354.516781
22517.407649,5329.482782,-5625.565159,-383.047749
22517.407982,3701.029710,-9030.512492,153.219100
22517.408315,4219.173869,-4737.318029,689.485948
22517.408648,-2516.700203,-13175.665768,-2451.505594
22517.408980,962.267725,-2368.659014,-7354.516781
22517.409313,-1776.494261,-3849.070898,-7124.688131
22517.409646,-5551.544565,-11917.315666,-7354.516781
22517.409979,-3034.844362,-23686.590144,-76.609550
22517.410312,-4811.338623,-14582.057057,-2145.067394
22517.410644,4145.153275,-5773.606348,1149.143247
22517.410977,8216.285956,-5921.647536,2068.457845
22517.411310,7105.977043,-4811.338623,153.219100
22517.411643,7031.956449,-13619.789333,6511.811733
22517.411976,296.082377,-3034.844362,-76.609550
