#time,accel_x,accel_y,accel_z
22277.565204,9474.636058,-8586.388927,3217.601092
22277.565538,9400.615463,-9474.636058,2604.724693
22277.565871,8734.430116,-9030.512492,919.314598
22277.566205,7105.977043,-10510.924376,0.000000
22277.566539,7031.956449,-9178.553681,-3677.258390
22277.566873,8290.306550,-10807.006753,-76.609550
22277.567206,7624.121203,-8808.450710,-3524.039291
22277.567540,7105.977043,-8956.491898,-2145.067394
22277.567874,10214.842000,-8660.409521,1225.752797
22277.568207,11251.130318,-8808.450710,3907.087040
22277.568541,12879.583391,-9474.636058,4826.401637
22277.568875,10510.924376,-9548.656652,2757.943793
22277.569208,10584.944971,-11251.130318,2374.896044
22277.569542,3256.906145,-10140.821405,612.876398
22277.569876,4367.215058,-11843.295072,-1915.238745
22277.570209,-1554.432478,-9548.656652,-3677.258390
22277.570543,2294.638420,-10658.965565,-995.924147
22277.570877,4663.297435,-7994.224174,1762.019645
22277.571210,6069.688724,-5921.647536,2374.896044
22277.571544,6661.853478,-5921.647536,2987.772442
22277.571878,8586.388927,-5995.668130,2681.334243
22277.572211,11399.171507,-7550.100608,4213.525239
22277.572545,10881.027347,-10140.821405,3600.648841
22277.572879,10584.944971,-8586.388927,-3370.820191
22277.573212,9474.636058,-10732.986159,-3677.258390
22277.573546,9770.718434,-12879.583391,-1302.362347
22277.573880,9400.615463,-13027.624579,-2528.115143
22277.574213,6365.771101,-13915.871710,-2681.334243
22277.574547,5255.462188,-12287.418637,-2068.457845
22277.574881,5921.647536,-9548.656652,689.485948
22277.575214,9770.718434,-6883.915261,2681.334243
22277.575548,10955.047942,-6217.729913,5745.716235
22277.575882,12435.459826,-4737.318029,6128.763984
22277.576215,12657.521608,-6069.688724,6665.030833
22277.576549,10288.862594,-8290.306550,4213.525239
22277.576883,7402.059420,-7772.162391,-1455.581446
22277.577216,3849.070898,-9844.739029,-2757.943793
22277.577550,2368.659014,-9844.739029,-3064.381992
22277.577884,5847.626942,-10658.965565,-3753.867940
22277.578217,5033.400406,-8956.491898,-3370.820191
22277.578551,9400.615463,-9474.636058,-229.828649
22277.578885,8512.368333,-8438.347739,536.266849
22277.579218,9548.656652,-7920.203579,-306.438199
22277.579552,8808.450710,-8956.491898,-459.657299
22277.579886,9770.718434,-7179.997637,0.000000
22277.580219,11843.295072,-8956.491898,4903.011187
22277.580553,12953.603985,-10362.883188,3600.648841
22277.580887,10584.944971,-10955.047942,1378.971896
22277.581220,9474.636058,-9844.739029,3370.820191
22277.581554,13249.686362,-6587.832884,3677.258390
22277.581888,15100.201217,-6661.853478,5286.058936
22277.582221,13027.624579,-5995.668130,1225.752797
22277.582555,11695.253884,-7105.977043,-2221.676944
22277.582889,10510.924376,-9474.636058,-2834.553343
22277.583222,11769.274478,-14211.954086,-3140.991542
22277.583556,5255.462188,-10732.986159,-7354.516781
22277.583890,5921.647536,-14804.118840,-4979.620737
22277.584223,8216.285956,-12435.459826,-3753.867940
22277.584557,11843.295072,-8068.244768,4290.134789
22277.584891,15766.386565,-6217.729913,7737.564530
22277.585224,17987.004391,-5625.565159,10418.898773
22277.585558,16654.633695,-5847.626942,9346.365076
22277.585892,12361.439231,-6587.832884,3907.087040
22277.586225,11769.274478,-9474.636058,-76.609550
22277.586559,9400.615463,-6587.832884,-4903.011187
22277.586893,7402.059420,-10140.821405,-4060.306139
22277.587226,8586.388927,-11177.109724,-4979.620737
22277.587560,5847.626942,-13027.624579,-7431.126331
22277.587894,4441.235652,-13323.706956,-4903.011187
22277.588227,7031.956449,-12139.377449,-76.609550
22277.588561,10658.965565,-8216.285956,4366.744339
22277.588895,12139.377449,-6587.832884,8580.269578
22277.589228,16210.510130,-1850.514855,7967.393179
22277.589562,14508.036463,-4811.338623,4903.011187
22277.589896,13915.871710,-10658.965565,6052.154434
22277.590229,9992.780217,-8586.388927,-842.705048
22277.590563,7031.956449,-9474.636058,-4060.306139
22277.590897,7994.224174,-9400.615463,-5286.058936
22277.591230,5847.626942,-10362.883188,-7737.564530
22277.591564,4959.379811,-10658.965565,-6894.859482
22277.591898,5033.400406,-10732.986159,-3524.039291
22277.592231,8364.327145,-10881.027347,1302.362347
22277.592565,14730.098246,-6365.771101,6281.983084
22277.592899,15544.324782,-7846.182985,7584.345430
22277.593232,12361.439231,-8364.327145,4903.011187
22277.593566,10658.965565,-8068.244768,3524.039291
22277.593900,13545.768739,-9474.636058,2374.896044
22277.594233,11177.109724,-6587.832884,612.876398
22277.594567,7698.141797,-10807.006753,0.000000
22277.594901,3478.967927,-11547.212695,-4979.620737
22277.595234,0.000000,-11029.068536,-7277.907231
22277.595568,5551.544565,-10807.006753,-3447.429741
22277.595902,11177.109724,-6809.894666,-76.609550
22277.596235,13323.706956,-6661.853478,7201.297681
22277.596569,11843.295072,-7254.018232,4903.011187
22277.596903,11473.192101,-10362.883188,0.000000
22277.597236,11769.274478,-10658.965565,3447.429741
22277.597570,14211.954086,-7179.997637,3983.696590
22277.597904,12953.603985,-9474.636058,2374.896044
22277.598237,8512.368333,-9474.636058,-229.828649
22277.598571,8142.265362,-9030.512492,-2221.676944
22277.598905,6365.771101,-8956.491898,-919.314598
22277.599238,11103.089130,-6957.935855,-1072.533697
22277.599572,9104.533087,-10362.883188,-689.485948
22277.599906,8808.450710,-5995.668130,-2451.505594
22277.600239,9474.636058,-10732.986159,0.000000
22277.600573,12583.501014,-10362.883188,4213.525239
22277.600907,10362.883188,-8364.327145,2451.505594
22277.601240,11177.109724,-6809.894666,-1685.410096
22277.601574,12879.583391,-10807.006753,2834.553343
22277.601908,10140.821405,-6587.832884,1302.362347
22277.602241,10658.965565,-11917.315666,919.314598
22277.602575,8956.491898,-7772.162391,-2298.286494
22277.602909,4737.318029,-11917.315666,306.438199
22277.603242,10288.862594,-8290.306550,-1302.362347
22277.603576,7624.121203,-11843.295072,-2528.115143
22277.603910,5329.482782,-10140.821405,-4903.011187
22277.604243,8512.368333,-9770.718434,229.828649
22277.604577,8512.368333,-9326.594869,5132.839837
22277.604911,9474.636058,-7105.977043,3983.696590
22277.605244,9178.553681,-7105.977043,3370.820191
22277.605578,5625.565159,-8956.491898,229.828649
22277.605912,5995.668130,-5995.668130,842.705048
22277.606245,2812.782580,-10288.862594,-1149.143247
22277.606579,3478.967927,-7550.100608,-2681.334243
22277.606913,2072.576638,-14211.954086,-76.609550
22277.607246,3478.967927,-10362.883188,-689.485948
22277.607580,296.082377,-8660.409521,0.000000
22277.607914,0.000000,-7772.162391,306.438199
22277.608247,3330.926739,-9474.636058,1762.019645
22277.608581,2368.659014,-8660.409521,1225.752797
22277.608915,7031.956449,-7105.977043,3294.210641
22277.609248,4737.318029,-7624.121203,2681.334243
22277.609582,5625.565159,-8364.327145,3524.039291
22277.609916,4663.297435,-5625.565159,-383.047749
22277.610249,6291.750507,-10658.965565,-2528.115143
22277.610583,-2368.659014,-14582.057057,842.705048
22277.610917,5255.462188,-7402.059420,-76.609550
22277.611250,2294.638420,-13027.624579,-76.609550
22277.611584,2886.803174,-4737.318029,-76.609550
22277.611918,222.061783,-8142.265362,-3064.381992
22277.612251,4663.297435,-9918.759623,2374.896044
22277.612585,9474.636058,-6291.750507,4213.525239
22277.612919,2664.741391,-9548.656652,1838.629195
22277.613252,9104.533087,-10362.883188,3907.087040
22277.613586,0.000000,-10732.986159,1762.019645
22277.613920,3478.967927,-11547.212695,-383.047749
22277.614254,3256.906145,-5403.503377,-2145.067394
22277.614587,888.247130,-8364.327145,-1838.629195
22277.614921,3775.050304,-9178.553681,995.924147
22277.615255,1110.308913,-6809.894666,-689.485948
22277.615588,444.123565,-10362.883188,-2604.724693
22277.615922,3404.947333,-12287.418637,4213.525239
22277.616256,4663.297435,-7920.203579,0.000000
22277.616589,4663.297435,-11547.212695,2987.772442
22277.616923,3478.967927,-8290.306550,842.705048
22277.617257,3256.906145,-5699.585753,2451.505594
22277.617590,4737.318029,-10140.821405,6894.859482
22277.617924,4663.297435,-6883.915261,2221.676944
22277.618258,814.226536,-10066.800811,-1838.629195
22277.618591,-4071.132681,-9474.636058,-5898.935335
22277.618925,-1258.350101,-9474.636058,-4826.401637
22277.619259,-3552.988522,-9548.656652,-459.657299
22277.619592,2738.761985,-10658.965565,-76.609550
22277.619926,1110.308913,-9474.636058,-76.609550
22277.620260,0.000000,-9548.656652,3677.258390
22277.620593,4737.318029,-7179.997637,6435.202183
22277.620927,5773.606348,-8438.347739,4673.182538
22277.621261,6069.688724,-8808.450710,4903.011187
22277.621594,1332.370696,-10362.883188,2374.896044
22277.621928,4959.379811,-7402.059420,-1608.800546
22277.622262,-2368.659014,-14878.139434,3524.039291
22277.622595,222.061783,-7179.997637,-3370.820191
22277.622929,-2664.741391,-13471.748144,-919.314598
22277.623263,-6217.729913,-7772.162391,-4443.353888
22277.623596,-3627.009116,-9474.636058,-2528.115143
22277.623930,-5625.565159,-7179.997637,612.876398
22277.624264,592.164754,-6439.791695,5898.935335
22277.624597,-1850.514855,-5921.647536,2911.162892
22277.624931,1776.494261,-7328.038826,4903.011187
22277.625265,3182.885551,-9474.636058,2374.896044
22277.625598,2960.823768,-9252.574275,4366.744339
22277.625932,-1628.453072,-11917.315666,1072.533697
22277.626266,1702.473667,-5477.523971,-2145.067394
22277.626599,-5551.544565,-11917.315666,-6435.202183
22277.626933,-3256.906145,-9548.656652,-4290.134789
22277.627267,-2442.679609,-12435.459826,-1915.238745
22277.627600,-2442.679609,-13027.624579,-2528.115143
22277.627934,-1480.411884,-8956.491898,612.876398
22277.628268,1702.473667,-5329.482782,1225.752797
22277.628601,5329.482782,-8142.265362,4826.401637
22277.628935,2886.803174,-8290.306550,8197.221829
22277.629269,3034.844362,-4515.256246,4673.182538
22277.629602,1184.329507,-7179.997637,2757.943793
22277.629936,0.000000,-7179.997637,3983.696590
22277.630270,-74.020594,-9548.656652,-4903.011187
22277.630603,-3478.967927,-10732.986159,-7967.393179
22277.630937,-3552.988522,-12657.521608,-4060.306139
22277.631271,-6809.894666,-8956.491898,-6741.640382
22277.631604,-1850.514855,-12731.542202,-1915.238745
22277.631938,1702.473667,-6217.729913,-76.609550
22277.632272,1628.453072,-11029.068536,2757.943793
22277.632605,7031.956449,-8290.306550,8503.660028
22277.632939,3849.070898,-8290.306550,7277.907231
22277.633273,3478.967927,-5625.565159,612.876398
22277.633606,5921.647536,-9696.697840,6894.859482
22277.633940,7920.203579,-5625.565159,6665.030833
22277.634274,5551.544565,-10510.924376,2374.896044
22277.634607,0.000000,-8512.368333,-3677.258390
22277.634941,-5847.626942,-15248.242405,-6511.811733
22277.635275,-2886.803174,-9474.636058,-3983.696590
22277.635608,-6513.812290,-9548.656652,-2374.896044
22277.635942,-2442.679609,-9474.636058,-4213.525239
22277.636276,0.000000,-7772.162391,0.000000
22277.636609,3256.906145,-8882.471304,3294.210641
22277.636943,3701.029710,-7179.997637,6741.640382
22277.637277,4663.297435,-7624.121203,7584.345430
22277.637610,5329.482782,-10658.965565,6741.640382
22277.637944,-370.102971,-7105.977043,0.000000
22277.638278,3478.967927,-7476.080014,-2298.286494
22277.638611,-2220.617826,-9548.656652,-3677.258390
22277.638945,-370.102971,-10807.006753,-3677.258390
22277.639279,-1702.473667,-10658.965565,-3140.991542
22277.639612,-2516.700203,-12361.439231,-1072.533697
22277.639946,-814.226536,-8882.471304,-1302.362347
22277.640280,-1184.329507,-11251.130318,1149.143247
22277.640613,2294.638420,-11843.295072,4826.401637
22277.640947,-1332.370696,-3627.009116,2451.505594
22277.641281,4071.132681,-6513.812290,4826.401637
22277.641614,3552.988522,-7105.977043,5515.887586
22277.641948,1332.370696,-6143.709319,4290.134789
22277.642282,-814.226536,-8660.409521,-1762.019645
22277.642615,-4441.235652,-11621.233289,-5362.668486
22277.642949,-4737.318029,-12213.398043,-5056.230287
22277.643283,-4145.153275,-11917.315666,-4596.572988
22277.643616,-1258.350101,-8142.265362,-3830.477490
22277.643950,-1258.350101,-6883.915261,-3677.258390
22277.644284,-2368.659014,-13841.851115,3217.601092
22277.644617,2294.638420,-8290.306550,1762.019645
22277.644951,-592.164754,-11399.171507,5286.058936
22277.645285,4885.359217,-5107.421000,4136.915689
22277.645618,7105.977043,-8290.306550,7354.516781
22277.645952,2368.659014,-6587.832884,5286.058936
22277.646286,4663.297435,-8290.306550,-76.609550
22277.646619,-4219.173869,-8364.327145,-4596.572988
22277.646953,-3552.988522,-12213.398043,-6741.640382
22277.647287,-2812.782580,-11251.130318,-76.609550
22277.647620,-6513.812290,-8068.244768,-4903.011187
22277.647954,-1554.432478,-10658.965565,-5898.935335
22277.648288,-2072.576638,-11251.130318,-689.485948
22277.648621,1480.411884,-9622.677246,3447.429741
22277.648955,1998.556043,-9252.574275,6588.421283
22277.649289,4663.297435,-5625.565159,4060.306139
22277.649622,4737.318029,-5403.503377,6741.640382
22277.649956,4663.297435,-9474.636058,3600.648841
22277.650290,4145.153275,-4219.173869,-1149.143247
22277.650623,-2960.823768,-9548.656652,-2451.505594
22277.650957,1998.556043,-13027.624579,-2528.115143
22277.651291,0.000000,-9474.636058,-1991.848295
22277.651624,-2368.659014,-12583.501014,-3447.429741
22277.651958,-2442.679609,-10436.903782,-3677.258390
22277.652292,-5181.441594,-12435.459826,-3753.867940
22277.652625,2590.720797,-8142.265362,5362.668486
22277.652959,5107.421000,-3997.112087,8503.660028
22277.653293,4441.235652,-7179.997637,5439.278036
22277.653626,4737.318029,-7179.997637,5669.106685
22277.653960,-2738.761985,-9474.636058,-4060.306139
22277.654294,592.164754,-7179.997637,0.000000
22277.654627,-2960.823768,-14434.015869,-76.609550
22277.654961,814.226536,-9474.636058,-4060.306139
22277.655295,-4737.318029,-8364.327145,-3677.258390
22277.655628,-2738.761985,-13027.624579,-4519.963438
22277.655962,-2590.720797,-8068.244768,-2374.896044
22277.656296,-2442.679609,-10955.047942,-919.314598
22277.656629,3478.967927,-8882.471304,4826.401637
22277.656963,3849.070898,-7105.977043,3600.648841
22277.657297,3552.988522,-11917.315666,6741.640382
22277.657630,4589.276840,-6957.935855,10955.165621
22277.657964,2294.638420,-8290.306550,536.266849
22277.658298,2146.597232,-8290.306550,3600.648841
22277.658631,-3330.926739,-10881.027347,-3677.258390
22277.658965,-3849.070898,-9400.615463,-4443.353888
22277.659299,-6809.894666,-9474.636058,-4673.182538
22277.659632,-6513.812290,-8364.327145,-7354.516781
22277.659966,-4811.338623,-11843.295072,-76.609550
22277.660300,-4145.153275,-5995.668130,2911.162892
22277.660634,1998.556043,-11843.295072,2987.772442
22277.660967,296.082377,-5995.668130,2451.505594
22277.661301,2368.659014,-8068.244768,2987.772442
22277.661635,888.247130,-8364.327145,3064.381992
22277.661968,3108.864956,-6735.874072,995.924147
22277.662302,370.102971,-11547.212695,536.266849
22277.662636,3997.112087,-8290.306550,2145.067394
22277.662969,-1258.350101,-10140.821405,-4903.011187
22277.663303,-1554.432478,-13619.789333,-76.609550
22277.663637,-74.020594,-8290.306550,-3753.867940
22277.663970,-1776.494261,-10140.821405,1225.752797
22277.664304,2368.659014,-11695.253884,5209.449386
22277.664638,3478.967927,-4145.153275,4826.401637
22277.664971,1110.308913,-9030.512492,1532.190996
22277.665305,1776.494261,-7105.977043,3064.381992
22277.665638,1110.308913,-8290.306550,-689.485948
22277.665972,0.000000,-9548.656652,4290.134789
22277.666305,3478.967927,-5625.565159,-383.047749
22277.666639,-2368.659014,-7179.997637,-7354.516781
22277.666972,-1184.329507,-12953.603985,-689.485948
22277.667306,-666.185348,-8882.471304,-6205.373534
22277.667639,-1332.370696,-15692.365970,-2604.724693
22277.667973,0.000000,-10732.986159,-1072.533697
22277.668306,3701.029710,-8290.306550,1608.800546
22277.668640,4367.215058,-8586.388927,5745.716235
22277.668973,7105.977043,-6291.750507,7737.564530
22277.669307,4811.338623,-6439.791695,2604.724693
22277.669640,4959.379811,-10658.965565,4519.963438
22277.669974,0.000000,-10955.047942,1608.800546
22277.670307,1702.473667,-5403.503377,-3600.648841
22277.670641,0.000000,-13101.645173,0.000000
22277.670974,-74.020594,-9474.636058,-1302.362347
22277.671308,-2738.761985,-7772.162391,-4903.011187
22277.671641,-4737.318029,-11399.171507,-3524.039291
22277.671975,-2442.679609,-11251.130318,-1915.238745
22277.672308,-7698.141797,-7772.162391,-919.314598
22277.672642,0.000000,-2886.803174,-76.609550
22277.672975,-740.205942,-11029.068536,1762.019645
22277.673309,0.000000,-8956.491898,4903.011187
22277.673642,592.164754,-5403.503377,4903.011187
22277.673976,4367.215058,-8586.388927,2987.772442
22277.674309,1184.329507,-4811.338623,0.000000
22277.674643,-1184.329507,-11325.150913,-1072.533697
22277.674976,-2368.659014,-9548.656652,-4673.182538
22277.675310,-4145.153275,-12731.542202,-3753.867940
22277.675643,-1406.391290,-10955.047942,-1302.362347
22277.675977,-2146.597232,-10732.986159,1225.752797
22277.676310,-74.020594,-7994.224174,1608.800546
22277.676644,0.000000,-8364.327145,4826.401637
22277.676977,-74.020594,-7105.977043,229.828649
22277.677311,1184.329507,-5699.585753,4596.572988
22277.677644,592.164754,-11325.150913,11568.042020
22277.677978,4071.132681,-2368.659014,3370.820191
22277.678311,-666.185348,-10658.965565,-842.705048
22277.678645,-74.020594,-9474.636058,-3370.820191
22277.678978,-5255.462188,-11695.253884,-8427.050478
22277.679312,-3330.926739,-9548.656652,-3600.648841
22277.679645,-370.102971,-14211.954086,-2528.115143
22277.679979,-2368.659014,-10140.821405,-2145.067394
22277.680312,0.000000,-8364.327145,2757.943793
22277.680646,4663.297435,-8882.471304,1762.019645
22277.680979,3330.926739,-6809.894666,4060.306139
22277.681313,3775.050304,-7179.997637,4903.011187
22277.681646,6365.771101,-8142.265362,6665.030833
22277.681980,5329.482782,-6661.853478,3677.258390
22277.682313,4737.318029,-9252.574275,3064.381992
22277.682647,2294.638420,-8290.306550,-2987.772442
22277.682980,-1184.329507,-11621.233289,-1302.362347
22277.683314,-2072.576638,-13323.706956,-2528.115143
22277.683647,-4219.173869,-11325.150913,-5592.497135
22277.683981,-2072.576638,-7254.018232,-4903.011187
22277.684314,-5403.503377,-11769.274478,-4749.792088
22277.684648,2294.638420,-8734.430116,1455.581446
22277.684981,1110.308913,-5477.523971,4903.011187
22277.685315,4145.153275,-9030.512492,6894.859482
22277.685648,2738.761985,-5699.585753,5056.230287
22277.685982,2886.803174,-3923.091493,2374.896044
22277.686315,2072.576638,-9474.636058,-1149.143247
22277.686649,1258.350101,-11547.212695,-612.876398
22277.686982,-2368.659014,-9548.656652,-4290.134789
22277.687316,-2442.679609,-14656.077652,-3753.867940
22277.687649,-6513.812290,-10732.986159,-1838.629195
22277.687983,-666.185348,-13027.624579,-2834.553343
22277.688316,-1258.350101,-11251.130318,-76.609550
22277.688650,0.000000,-7179.997637,3370.820191
22277.688983,1554.432478,-7476.080014,5822.325785
22277.689317,2886.803174,-5773.606348,5515.887586
22277.689650,5403.503377,-3923.091493,7967.393179
22277.689984,2590.720797,-8290.306550,4826.401637
22277.690317,4663.297435,-4441.235652,-1685.410096
22277.690651,-3849.070898,-13323.706956,-612.876398
22277.690984,-1850.514855,-11843.295072,-7431.126331
22277.691318,-1998.556043,-12731.542202,-4290.134789
22277.691651,-3552.988522,-12657.521608,-4519.963438
22277.691985,296.082377,-12805.562797,0.000000
22277.692318,-5847.626942,-10658.965565,-1302.362347
22277.692652,3034.844362,-7328.038826,1991.848295
22277.692985,4071.132681,-7105.977043,8503.660028
22277.693319,6439.791695,-1850.514855,4903.011187
22277.693652,8216.285956,-6513.812290,8503.660028
22277.693986,1406.391290,-7105.977043,689.485948
22277.694319,296.082377,-7179.997637,0.000000
22277.694653,-1850.514855,-12879.583391,-2528.115143
22277.694986,-222.061783,-7550.100608,-4979.620737
22277.695320,-5477.523971,-13027.624579,-5669.106685
22277.695653,-1184.329507,-11843.295072,-5592.497135
22277.695987,-3108.864956,-11917.315666,-1225.752797
22277.696320,-2368.659014,-9622.677246,0.000000
22277.696653,5847.626942,-11843.295072,4213.525239
22277.696987,-1036.288319,-5107.421000,4903.011187
22277.697320,2664.741391,-5403.503377,6435.202183
22277.697654,1110.308913,-7698.141797,4366.744339
22277.697987,3330.926739,-6513.812290,842.705048
22277.698321,-3849.070898,-12731.542202,2298.286494
22277.698654,2664.741391,-1776.494261,-919.314598
22277.698988,-4145.153275,-15470.304188,-4290.134789
22277.699321,2368.659014,-6291.750507,-2528.115143
22277.699655,-1776.494261,-15396.283594,-2374.896044
22277.699988,-5255.462188,-10066.800811,-5515.887586
22277.700322,-666.185348,-11843.295072,-76.609550
22277.700655,-2442.679609,-13027.624579,-76.609550
22277.700989,5329.482782,-5995.668130,8580.269578
22277.701322,3034.844362,-5773.606348,6665.030833
22277.701656,6439.791695,-8290.306550,4826.401637
22277.701989,-666.185348,-9178.553681,2987.772442
22277.702323,5477.523971,-7105.977043,2681.334243
22277.702656,-740.205942,-10510.924376,1915.238745
22277.702990,3478.967927,-6143.709319,766.095498
22277.703323,-3256.906145,-11917.315666,-6588.421283
22277.703657,-74.020594,-9474.636058,-3753.867940
22277.703990,-5921.647536,-12213.398043,-4596.572988
22277.704324,-1258.350101,-13619.789333,-2528.115143
22277.704657,3849.070898,-9548.656652,1608.800546
22277.704991,-2072.576638,-8364.327145,2145.067394
22277.705324,7328.038826,-5551.544565,4903.011187
22277.705658,1998.556043,-6365.771101,3830.477490
22277.705991,7476.080014,-7698.141797,6052.154434
22277.706325,1480.411884,-7179.997637,5745.716235
22277.706658,4145.153275,-4811.338623,0.000000
22277.706992,2294.638420,-13619.789333,-76.609550
22277.707325,814.226536,-9474.636058,-4979.620737
22277.707659,-5329.482782,-14878.139434,-1991.848295
22277.707992,1110.308913,-4737.318029,-4979.620737
22277.708326,-666.185348,-17468.860231,-383.047749
22277.708659,-2960.823768,-6883.915261,0.000000
22277.708993,3182.885551,-7624.121203,1532.190996
22277.709326,-2368.659014,-10510.924376,3524.039291
22277.709660,3256.906145,-8734.430116,4826.401637
22277.709993,-74.020594,-4811.338623,2451.505594
22277.710327,5033.400406,-4071.132681,5515.887586
22277.710660,4663.297435,-7105.977043,-1915.238745
22277.710994,-2368.659014,-13101.645173,1225.752797
22277.711327,-3034.844362,-10955.047942,-7737.564530
22277.711661,-7254.018232,-15322.262999,-6435.202183
22277.711994,-2664.741391,-11917.315666,-2911.162892
22277.712328,-962.267725,-9844.739029,1378.971896
22277.712661,2590.720797,-4885.359217,3830.477490
22277.712995,0.000000,-5995.668130,4290.134789
22277.713328,2590.720797,-11843.295072,6052.154434
22277.713662,0.000000,-4811.338623,1378.971896
22277.713995,2368.659014,-5403.503377,7354.516781
22277.714329,2886.803174,-5329.482782,1302.362347
22277.714662,-1184.329507,-9252.574275,-6128.763984
22277.714996,-3404.947333,-11547.212695,-4290.134789
22277.715329,-4367.215058,-9548.656652,-7967.393179
22277.715663,-2220.617826,-11325.150913,-2221.676944
22277.715996,-3775.050304,-9992.780217,-3447.429741
22277.716330,-1184.329507,-12805.562797,-306.438199
22277.716663,-2146.597232,-11843.295072,3677.258390
22277.716997,7031.956449,-6365.771101,4213.525239
22277.717330,4663.297435,-4885.359217,3677.258390
22277.717664,5921.647536,-5995.668130,7431.126331
22277.717997,7031.956449,-9474.636058,6665.030833
22277.718331,592.164754,-5995.668130,2451.505594
22277.718664,2368.659014,-9548.656652,-919.314598
22277.718998,-2368.659014,-12805.562797,-4519.963438
22277.719331,0.000000,-9178.553681,-6128.763984
22277.719665,-5921.647536,-17987.004391,-3064.381992
22277.719998,518.144159,-7105.977043,-1302.362347
22277.720332,-2960.823768,-9548.656652,76.609550
22277.720665,2294.638420,-8882.471304,612.876398
22277.720999,740.205942,-5995.668130,3677.258390
22277.721332,1184.329507,-8660.409521,7890.783629
22277.721666,2886.803174,-5921.647536,4213.525239
22277.721999,4515.256246,-7698.141797,4213.525239
22277.722333,3552.988522,-6439.791695,229.828649
22277.722666,3849.070898,-9844.739029,536.266849
22277.723000,-2960.823768,-13101.645173,-4673.182538
22277.723333,1110.308913,-11843.295072,-3753.867940
22277.723667,-3256.906145,-13101.645173,-4903.011187
22277.724000,888.247130,-11251.130318,-1608.800546
22277.724334,222.061783,-10436.903782,0.000000
22277.724667,0.000000,-6587.832884,306.438199
22277.725001,2294.638420,-8586.388927,2374.896044
22277.725334,2294.638420,-7994.224174,7737.564530
22277.725668,5847.626942,-4515.256246,6052.154434
22277.726001,888.247130,-7476.080014,3830.477490
22277.726335,1110.308913,-8290.306550,1762.019645
22277.726668,-2960.823768,-8956.491898,-2528.115143
22277.727002,-1406.391290,-14211.954086,-3140.991542
22277.727335,-3034.844362,-9548.656652,-3677.258390
22277.727669,-4441.235652,-11177.109724,-1838.629195
22277.728002,-518.144159,-4959.379811,-4596.572988
22277.728336,-6143.709319,-13989.892304,-3217.601092
22277.728669,-3182.885551,-8660.409521,-4366.744339
22277.729003,-74.020594,-12139.377449,4826.401637
22277.729336,1776.494261,-4811.338623,3677.258390
22277.729670,7031.956449,-9474.636058,4519.963438
22277.730003,2886.803174,-6587.832884,5669.106685
22277.730337,1184.329507,-4811.338623,3600.648841
22277.730670,2664.741391,-11251.130318,3294.210641
22277.731004,0.000000,-8956.491898,-3524.039291
22277.731337,-1850.514855,-13101.645173,-1838.629195
22277.731671,-74.020594,-9400.615463,-4443.353888
22277.732004,-3034.844362,-14952.160028,-459.657299
22277.732338,-2220.617826,-4811.338623,-2451.505594
22277.732671,-2146.597232,-11473.192101,1762.019645
22277.733005,-1628.453072,-7994.224174,1532.190996
22277.733338,1110.308913,-5181.441594,2374.896044
22277.733672,-370.102971,-7105.977043,4519.963438
22277.734005,1554.432478,-3627.009116,3677.258390
22277.734339,444.123565,-7105.977043,3600.648841
22277.734672,3478.967927,-9474.636058,-1991.848295
22277.735006,2368.659014,-10732.986159,1991.848295
22277.735339,-1480.411884,-13989.892304,-1302.362347
22277.735673,148.041188,-8364.327145,-4903.011187
22277.736006,-3330.926739,-14359.995275,-4826.401637
22277.736340,-1480.411884,-13471.748144,-2757.943793
22277.736673,1406.391290,-7179.997637,0.000000
22277.737007,3478.967927,-7179.997637,4903.011187
22277.737340,8216.285956,-7105.977043,8810.098227
22277.737674,4663.297435,-7105.977043,6052.154434
22277.738007,2220.617826,-4811.338623,1532.190996
22277.738341,-518.144159,-10362.883188,-689.485948
22277.738674,592.164754,-7476.080014,-1455.581446
22277.739008,-444.123565,-10807.006753,-459.657299
22277.739341,-1332.370696,-6513.812290,-4443.353888
22277.739675,-3849.070898,-11325.150913,-8886.707777
22277.740008,-7105.977043,-17246.798449,-6741.640382
22277.740342,-74.020594,-8290.306550,-4366.744339
22277.740675,-1480.411884,-12509.480420,2451.505594
22277.741009,5921.647536,-6587.832884,8427.050478
22277.741342,4145.153275,-2442.679609,4903.011187
22277.741676,5255.462188,-8734.430116,7584.345430
22277.742009,6587.832884,-6661.853478,5209.449386
22277.742343,2738.761985,-8586.388927,1608.800546
22277.742676,3478.967927,-11547.212695,2374.896044
22277.743010,-2072.576638,-7476.080014,-2987.772442
22277.743343,-5699.585753,-11843.295072,-8044.002729
22277.743677,-3923.091493,-10436.903782,-5822.325785
22277.744010,-1776.494261,-12361.439231,-4903.011187
22277.744344,-1258.350101,-14211.954086,1149.143247
22277.744677,-370.102971,-7105.977043,1838.629195
22277.745011,-3034.844362,-9844.739029,3294.210641
22277.745344,3923.091493,-2960.823768,8197.221829
22277.745678,-1776.494261,-3330.926739,3064.381992
22277.746011,2886.803174,-8290.306550,4826.401637
22277.746345,148.041188,-4219.173869,1225.752797
22277.746678,-3552.988522,-11325.150913,383.047749
22277.747012,5551.544565,-8882.471304,842.705048
22277.747345,-7031.956449,-10732.986159,-8273.831378
22277.747679,-3404.947333,-11473.192101,-6128.763984
22277.748012,-5995.668130,-13323.706956,-6128.763984
22277.748346,-888.247130,-12583.501014,-1302.362347
22277.748679,148.041188,-7105.977043,2374.896044
22277.749013,2368.659014,-8142.265362,6052.154434
22277.749346,3627.009116,-6143.709319,7354.516781
22277.749680,444.123565,-7105.977043,6052.154434
22277.750013,4959.379811,-4219.173869,4749.792088
22277.750347,1110.308913,-10658.965565,4213.525239
22277.750680,4737.318029,-4811.338623,4443.353888
22277.751014,-1850.514855,-8290.306550,-3753.867940
22277.751347,-5181.441594,-11325.150913,-9806.022374
22277.751681,-4811.338623,-16580.613101,-6358.592633
22277.752014,-666.185348,-13619.789333,-6205.373534
22277.752348,0.000000,-13545.768739,-1225.752797
22277.752681,-1184.329507,-9918.759623,-3140.991542
22277.753015,4663.297435,-9474.636058,4749.792088
22277.753348,2368.659014,-4959.379811,6128.763984
22277.753682,8290.306550,-4219.173869,8120.612279
22277.754015,5847.626942,-7994.224174,7431.126331
22277.754349,2368.659014,-2442.679609,4903.011187
22277.754682,3034.844362,-9474.636058,3294.210641
22277.755016,-666.185348,-8290.306550,-5515.887586
22277.755349,-2442.679609,-11547.212695,-6818.249932
22277.755683,-7550.100608,-12139.377449,-7354.516781
22277.756016,-2664.741391,-11991.336260,-4673.182538
22277.756350,-4737.318029,-12213.398043,-2145.067394
22277.756683,2368.659014,-6587.832884,2374.896044
22277.757017,1702.473667,-10584.944971,3064.381992
22277.757350,888.247130,-8216.285956,8580.269578
22277.757684,3256.906145,-4145.153275,4060.306139
22277.758017,1776.494261,-6291.750507,4903.011187
22277.758351,5403.503377,-6735.874072,2834.553343
22277.758684,4737.318029,-7328.038826,3983.696590
22277.759018,-1554.432478,-11251.130318,-3140.991542
22277.759351,-962.267725,-10955.047942,-5592.497135
22277.759685,-3923.091493,-15396.283594,-3753.867940
22277.760018,1702.473667,-8956.491898,-3677.258390
22277.760352,-2368.659014,-10732.986159,612.876398
22277.760685,-74.020594,-10658.965565,-76.609550
22277.761019,814.226536,-11251.130318,4826.401637
22277.761352,3256.906145,-4663.297435,4673.182538
22277.761686,4145.153275,-8808.450710,7048.078582
22277.762019,1406.391290,-6513.812290,4673.182538
22277.762353,1480.411884,-2442.679609,0.000000
22277.762686,-1554.432478,-10658.965565,-1455.581446
22277.763020,1184.329507,-7179.997637,-2451.505594
22277.763353,-4737.318029,-10732.986159,-2987.772442
22277.763687,-3034.844362,-11843.295072,-8580.269578
22277.764020,-1258.350101,-13767.830521,-5286.058936
22277.764354,-3997.112087,-12805.562797,-2298.286494
22277.764687,666.185348,-9474.636058,919.314598
22277.765021,962.267725,-9696.697840,4136.915689
22277.765354,4737.318029,-4811.338623,7660.954980
22277.765687,2294.638420,-5107.421000,3677.258390
22277.766020,7846.182985,-4811.338623,7967.393179
22277.766354,1850.514855,-8216.285956,4060.306139
22277.766687,1332.370696,-8438.347739,-766.095498
22277.767020,-2960.823768,-8438.347739,-2068.457845
22277.767353,-4219.173869,-14211.954086,-8044.002729
22277.767687,-3552.988522,-10732.986159,-2145.067394
22277.768020,-1998.556043,-9178.553681,-3140.991542
22277.768353,-1776.494261,-13915.871710,-3064.381992
22277.768687,-7105.977043,-10732.986159,-1532.190996
22277.769020,-1554.432478,-9844.739029,-842.705048
22277.769353,0.000000,-7772.162391,7354.516781
22277.769686,7031.956449,0.000000,5132.839837
22277.770020,4737.318029,-7772.162391,7890.783629
22277.770353,4663.297435,-6069.688724,2911.162892
22277.770686,1776.494261,-7476.080014,1378.971896
22277.771020,-74.020594,-14211.954086,-76.609550
22277.771353,2294.638420,-9474.636058,-4979.620737
22277.771686,-4145.153275,-14730.098246,-1608.800546
22277.772019,-1850.514855,-8808.450710,-5439.278036
22277.772353,-4145.153275,-13989.892304,-3447.429741
22277.772686,-2368.659014,-11029.068536,-76.609550
22277.773019,1702.473667,-9474.636058,4826.401637
22277.773352,2886.803174,-5477.523971,4903.011187
22277.773686,3552.988522,-2738.761985,6128.763984
22277.774019,3478.967927,-8882.471304,4826.401637
22277.774352,2812.782580,-3627.009116,2451.505594
22277.774686,518.144159,-10658.965565,536.266849
22277.775019,2146.597232,-10807.006753,-612.876398
22277.775352,74.020594,-7698.141797,-3600.648841
22277.775685,-3330.926739,-14952.160028,-5286.058936
22277.776019,-74.020594,-11547.212695,-5056.230287
22277.776352,-7698.141797,-10732.986159,-7354.516781
22277.776685,-1184.329507,-12139.377449,-76.609550
22277.777019,4071.132681,-9474.636058,2987.772442
22277.777352,592.164754,-5995.668130,6128.763984
22277.777685,7920.203579,-1184.329507,6511.811733
22277.778018,2146.597232,-9030.512492,3830.477490
22277.778352,4293.194464,-8142.265362,4673.182538
22277.778685,888.247130,-6587.832884,-842.705048
22277.779018,2590.720797,-12435.459826,1762.019645
22277.779351,-1036.288319,-8068.244768,-4519.963438
22277.779685,-5773.606348,-13989.892304,-5515.887586
22277.780018,-2590.720797,-9770.718434,-6205.373534
22277.780351,-3552.988522,-13101.645173,-2451.505594
22277.780685,2146.597232,-12731.542202,-1915.238745
22277.781018,1628.453072,-10732.986159,4903.011187
22277.781351,0.000000,-3627.009116,5515.887586
22277.781684,3182.885551,-7994.224174,6052.154434
22277.782018,2590.720797,-2738.761985,3064.381992
22277.782351,1554.432478,-11843.295072,4826.401637
22277.782684,2590.720797,-3552.988522,4519.963438
22277.783018,-2294.638420,-9918.759623,-2298.286494
22277.783351,-74.020594,-10658.965565,-3140.991542
22277.783684,-1998.556043,-13915.871710,-2528.115143
22277.784017,-6217.729913,-11325.150913,-5515.887586
22277.784351,-2368.659014,-9548.656652,-2451.505594
22277.784684,-4293.194464,-12435.459826,-1302.362347
22277.785017,4071.132681,-10362.883188,4519.963438
22277.785350,2294.638420,-5625.565159,5745.716235
22277.785684,3404.947333,-7994.224174,4673.182538
22277.786017,222.061783,-7772.162391,3217.601092
22277.786350,2368.659014,-4811.338623,3064.381992
22277.786684,3775.050304,-10658.965565,2987.772442
22277.787017,0.000000,-6587.832884,4290.134789
22277.787350,-1258.350101,-11103.089130,-4979.620737
22277.787683,-7105.977043,-10066.800811,-4979.620737
22277.788017,-4737.318029,-8438.347739,-10801.946522
22277.788350,-4071.132681,-14730.098246,-2451.505594
22277.788683,-1998.556043,-9326.594869,-1072.533697
22277.789017,1036.288319,-9178.553681,2068.457845
22277.789350,3849.070898,-8956.491898,7967.393179
22277.789683,5255.462188,-3627.009116,1838.629195
22277.790016,6439.791695,-11547.212695,9729.412825
22277.790350,8216.285956,-3552.988522,3140.991542
22277.790683,2664.741391,-11843.295072,4519.963438
22277.791016,1628.453072,-8068.244768,-2451.505594
22277.791349,-2960.823768,-12065.356855,-4213.525239
22277.791683,-4737.318029,-12509.480420,-7431.126331
22277.792016,1110.308913,-9252.574275,-2987.772442
22277.792349,-3404.947333,-13619.789333,-1608.800546
22277.792683,0.000000,-5995.668130,612.876398
22277.793016,-74.020594,-10362.883188,-1302.362347
22277.793349,0.000000,-9548.656652,0.000000
22277.793682,4737.318029,-6513.812290,9116.536426
22277.794016,1110.308913,-9474.636058,3677.258390
22277.794349,6069.688724,-3552.988522,5439.278036
22277.794682,1776.494261,-8956.491898,2374.896044
22277.795016,5107.421000,-8808.450710,1072.533697
22277.795349,1554.432478,-10658.965565,-2528.115143
22277.795682,-4737.318029,-14434.015869,-5822.325785
22277.796015,-1184.329507,-10214.842000,-3370.820191
22277.796349,-5699.585753,-14211.954086,-4979.620737
22277.796682,1850.514855,-7698.141797,-536.266849
22277.797015,-666.185348,-11843.295072,2374.896044
22277.797348,1776.494261,-5403.503377,2757.943793
22277.797682,3552.988522,-8956.491898,10801.946522
22277.798015,2294.638420,-4811.338623,3217.601092
22277.798348,5329.482782,-6143.709319,7431.126331
22277.798682,-370.102971,-9474.636058,842.705048
22277.799015,2960.823768,-8068.244768,2298.286494
22277.799348,-7179.997637,-7772.162391,-7431.126331
22277.799681,-1924.535449,-12731.542202,-8886.707777
22277.800015,-4811.338623,-13249.686362,-4749.792088
22277.800348,-3849.070898,-11917.315666,-3064.381992
22277.800681,4071.132681,-7994.224174,2374.896044
22277.801015,-74.020594,-11547.212695,1455.581446
22277.801348,2368.659014,-5995.668130,3983.696590
22277.801681,3182.885551,-7105.977043,6052.154434
22277.802014,5477.523971,-7402.059420,6052.154434
22277.802348,3478.967927,-5699.585753,3907.087040
22277.802681,2590.720797,-9400.615463,5669.106685
22277.803014,-888.247130,-6587.832884,-3064.381992
22277.803347,-7105.977043,-11917.315666,-1532.190996
22277.803681,-2442.679609,-10510.924376,-8503.660028
22277.804014,-4737.318029,-10732.986159,-6741.640382
22277.804347,-1184.329507,-10214.842000,-2528.115143
22277.804681,-4441.235652,-9844.739029,-3677.258390
22277.805014,-4663.297435,-12213.398043,1455.581446
22277.805347,1702.473667,-4737.318029,2374.896044
22277.805680,3923.091493,-8586.388927,8273.831378
22277.806014,5255.462188,-5921.647536,7277.907231
22277.806347,5477.523971,-5329.482782,4826.401637
22277.806680,1110.308913,-7179.997637,1225.752797
22277.807014,0.000000,-8512.368333,153.219100
22277.807347,-592.164754,-10066.800811,-1455.581446
22277.807680,-666.185348,-15174.221811,-2528.115143
22277.808013,-1184.329507,-11029.068536,-4903.011187
22277.808347,-1998.556043,-12065.356855,-2911.162892
22277.808680,-3256.906145,-11103.089130,-3677.258390
22277.809013,-740.205942,-7550.100608,0.000000
22277.809346,1702.473667,-8882.471304,1915.238745
22277.809680,4737.318029,-6735.874072,6128.763984
22277.810013,4589.276840,-6513.812290,6665.030833
22277.810346,2664.741391,-7179.997637,2451.505594
22277.810680,3478.967927,-8512.368333,5439.278036
22277.811013,1628.453072,-7105.977043,-919.314598
22277.811346,-2072.576638,-12509.480420,-1685.410096
22277.811679,-2886.803174,-11843.295072,-4596.572988
22277.812013,-2294.638420,-8068.244768,-6281.983084
22277.812346,-1998.556043,-12509.480420,-2451.505594
22277.812679,-1776.494261,-8142.265362,-2834.553343
22277.813013,-1702.473667,-9474.636058,-383.047749
22277.813346,1850.514855,-9622.677246,4749.792088
22277.813679,2590.720797,-4737.318029,4826.401637
22277.814012,7031.956449,-9474.636058,6052.154434
22277.814346,2590.720797,-6587.832884,2451.505594
22277.814679,1184.329507,-9474.636058,1838.629195
22277.815012,2220.617826,-9992.780217,0.000000
22277.815345,148.041188,-11325.150913,612.876398
22277.815679,0.000000,-9474.636058,-2757.943793
22277.816012,-2960.823768,-12657.521608,-5286.058936
22277.816345,-3182.885551,-13915.871710,-5286.058936
22277.816679,-6513.812290,-11917.315666,0.000000
22277.817012,1702.473667,-5921.647536,0.000000
22277.817345,1702.473667,-7772.162391,5822.325785
22277.817678,2072.576638,-4071.132681,6052.154434
22277.818012,4663.297435,-4737.318029,1149.143247
22277.818345,-592.164754,-10288.862594,4749.792088
22277.818678,3849.070898,-4663.297435,0.000000
22277.819012,-2442.679609,-13323.706956,3140.991542
22277.819345,-1998.556043,-7550.100608,-5898.935335
22277.819678,-1776.494261,-12435.459826,-4979.620737
22277.820011,-5403.503377,-13101.645173,-7354.516781
22277.820345,3701.029710,-11843.295072,-919.314598
22277.820678,-3627.009116,-13027.624579,-2528.115143
22277.821011,1776.494261,-5995.668130,2451.505594
22277.821344,-2442.679609,-11547.212695,3447.429741
22277.821678,7698.141797,-2812.782580,5669.106685
22277.822011,1924.535449,-9548.656652,5209.449386
22277.822344,3997.112087,-8290.306550,3753.867940
22277.822678,3478.967927,-5625.565159,1762.019645
22277.823011,-2368.659014,-9548.656652,2451.505594
22277.823344,5847.626942,-8290.306550,-2068.457845
22277.823677,-5699.585753,-10362.883188,-4060.306139
22277.824011,-7105.977043,-7179.997637,-7354.516781
22277.824344,-5403.503377,-12731.542202,-8656.879127
22277.824677,-3108.864956,-13619.789333,-4290.134789
22277.825011,-1036.288319,-9474.636058,536.266849
22277.825344,3701.029710,-6513.812290,7431.126331
22277.825677,4589.276840,-7105.977043,6052.154434
22277.826010,4737.318029,-7105.977043,6358.592633
22277.826344,2738.761985,-7179.997637,3140.991542
22277.826677,5625.565159,-7920.203579,4290.134789
22277.827010,4145.153275,-9548.656652,3064.381992
22277.827343,-74.020594,-11843.295072,-2528.115143
22277.827677,-3775.050304,-8512.368333,-6128.763984
22277.828010,-7105.977043,-11917.315666,-7354.516781
22277.828343,-518.144159,-14211.954086,-2221.676944
22277.828677,-1480.411884,-7179.997637,-2451.505594
22277.829010,-1184.329507,-10362.883188,1149.143247
22277.829343,1332.370696,-7994.224174,2374.896044
22277.829676,1184.329507,-11103.089130,7890.783629
22277.830010,8808.450710,-2368.659014,7277.907231
22277.830343,3923.091493,-10658.965565,7277.907231
22277.830676,2368.659014,-3627.009116,4290.134789
22277.831010,-74.020594,-10362.883188,2068.457845
22277.831343,-2738.761985,-7920.203579,-4903.011187
22277.831676,-3627.009116,-10955.047942,-4979.620737
22277.832009,-6587.832884,-12583.501014,-8427.050478
22277.832343,148.041188,-11029.068536,-4060.306139
22277.832676,-2368.659014,-13693.809927,1302.362347
22277.833009,-1776.494261,-5403.503377,0.000000
22277.833342,1702.473667,-8290.306550,2681.334243
22277.833676,0.000000,-6587.832884,4213.525239
22277.834009,5255.462188,-8142.265362,3600.648841
22277.834342,2368.659014,-9548.656652,5515.887586
22277.834676,5995.668130,-4145.153275,4136.915689
22277.835009,-1628.453072,-9918.759623,1072.533697
22277.835342,2220.617826,-8808.450710,-2451.505594
22277.835675,-6883.915261,-13767.830521,-5745.716235
22277.836009,-1628.453072,-10807.006753,-2911.162892
22277.836342,-1258.350101,-8216.285956,-5515.887586
22277.836675,-2738.761985,-14211.954086,1072.533697
22277.837009,1406.391290,-6809.894666,2374.896044
22277.837342,-3552.988522,-3775.050304,612.876398
22277.837675,1184.329507,-10436.903782,612.876398
22277.838008,4071.132681,-7476.080014,7737.564530
22277.838342,3330.926739,-7624.121203,2987.772442
22277.838675,3849.070898,-6809.894666,4596.572988
22277.839008,1628.453072,-9474.636058,-1302.362347
22277.839341,1184.329507,-9548.656652,612.876398
22277.839675,1110.308913,-12731.542202,-689.485948
22277.840008,0.000000,-6809.894666,-6818.249932
22277.840341,-5921.647536,-14285.974681,-2451.505594
22277.840675,-1406.391290,-9474.636058,-2528.115143
22277.841008,-2368.659014,-10881.027347,-1149.143247
22277.841341,814.226536,-8734.430116,2987.772442
22277.841674,2368.659014,-7105.977043,6205.373534
22277.842008,4367.215058,-4737.318029,4826.401637
22277.842341,6513.812290,-8068.244768,7890.783629
22277.842674,1332.370696,-8364.327145,3907.087040
22277.843008,3552.988522,-5551.544565,1072.533697
22277.843341,-4145.153275,-15618.345376,-1072.533697
22277.843674,-666.185348,-7994.224174,-6818.249932
22277.844007,-3849.070898,-11473.192101,-3983.696590
22277.844341,-74.020594,-14211.954086,-76.609550
22277.844674,444.123565,-5995.668130,-2451.505594
22277.845007,-6661.853478,-14137.933492,-2221.676944
22277.845340,2294.638420,-9474.636058,1455.581446
22277.845674,-444.123565,-7402.059420,4903.011187
22277.846007,6143.709319,-5995.668130,6128.763984
22277.846340,4737.318029,-5403.503377,6971.469032
22277.846674,0.000000,-6883.915261,153.219100
22277.847007,1184.329507,-7179.997637,2145.067394
22277.847340,-666.185348,-10807.006753,-3677.258390
22277.847673,-2368.659014,-9548.656652,-3064.381992
22277.848007,-6513.812290,-11843.295072,-4979.620737
22277.848340,-666.185348,-9770.718434,-6741.640382
22277.848673,-5329.482782,-11621.233289,-2834.553343
22277.849007,-2368.659014,-8586.388927,-1762.019645
22277.849340,740.205942,-6365.771101,3217.601092
22277.849673,592.164754,-6883.915261,7967.393179
22277.850006,3552.988522,-5255.462188,10955.165621
22277.850340,1702.473667,-4811.338623,0.000000
22277.850673,2738.761985,-11843.295072,7277.907231
22277.851006,4071.132681,-7105.977043,-689.485948
22277.851339,1480.411884,-9548.656652,0.000000
22277.851673,-666.185348,-12731.542202,-2298.286494
22277.852006,148.041188,-10288.862594,-5209.449386
22277.852339,-1702.473667,-13989.892304,-1225.752797
22277.852673,-74.020594,-11251.130318,-5286.058936
22277.853006,-2368.659014,-14211.954086,-689.485948
22277.853339,1110.308913,-6439.791695,1991.848295
22277.853672,1184.329507,-6587.832884,6741.640382
22277.854006,6439.791695,-5625.565159,8503.660028
22277.854339,5551.544565,-6513.812290,5745.716235
22277.854672,2368.659014,-7179.997637,1532.190996
22277.855006,1480.411884,-11621.233289,3140.991542
22277.855339,1332.370696,-9548.656652,459.657299
22277.855672,-2072.576638,-6735.874072,-4903.011187
22277.856005,-1258.350101,-9770.718434,-5362.668486
22277.856339,-3552.988522,-13693.809927,-4903.011187
22277.856672,-2442.679609,-11843.295072,-2528.115143
22277.857005,-814.226536,-9992.780217,-2911.162892
22277.857338,1702.473667,-9474.636058,4213.525239
22277.857672,666.185348,-6661.853478,7048.078582
22277.858005,4737.318029,-4737.318029,4519.963438
22277.858338,-296.082377,-9918.759623,4213.525239
22277.858672,2368.659014,-4811.338623,612.876398
22277.859005,5551.544565,-9030.512492,4213.525239
22277.859338,2812.782580,-8290.306550,536.266849
22277.859671,0.000000,-10732.986159,-1915.238745
22277.860005,-5773.606348,-12879.583391,-6971.469032
22277.860338,-1554.432478,-10955.047942,-4519.963438
22277.860671,-3034.844362,-17764.942608,-2528.115143
22277.861004,-1258.350101,-8068.244768,-2451.505594
22277.861338,-2516.700203,-9474.636058,2451.505594
22277.861671,5551.544565,-3552.988522,4673.182538
22277.862004,1184.329507,-7179.997637,8273.831378
22277.862338,1850.514855,-6291.750507,6511.811733
22277.862671,3552.988522,-6883.915261,2604.724693
22277.863004,962.267725,-9844.739029,3677.258390
22277.863337,0.000000,-9548.656652,-2451.505594
22277.863671,-1258.350101,-8734.430116,-3983.696590
22277.864004,-7105.977043,-10732.986159,-6741.640382
22277.864337,-1850.514855,-13915.871710,-6205.373534
22277.864671,-2442.679609,-13619.789333,-2528.115143
22277.865004,-2960.823768,-9326.594869,536.266849
22277.865337,148.041188,-5551.544565,2451.505594
22277.865670,2294.638420,-7105.977043,5132.839837
22277.866004,5329.482782,-4071.132681,6741.640382
22277.866337,4367.215058,-9474.636058,4826.401637
22277.866670,6661.853478,-7179.997637,2451.505594
22277.867003,740.205942,-10807.006753,3677.258390
22277.867337,5551.544565,-9474.636058,-1915.238745
22277.867670,-2368.659014,-9548.656652,-3677.258390
22277.868003,-5699.585753,-12731.542202,-7737.564530
22277.868337,-2368.659014,-9178.553681,-5592.497135
22277.868670,-3627.009116,-12435.459826,-3830.477490
22277.869003,1184.329507,-9474.636058,-766.095498
22277.869336,0.000000,-8882.471304,5209.449386
22277.869669,0.000000,-4811.338623,6128.763984
22277.870002,5847.626942,-7698.141797,4519.963438
22277.870335,592.164754,-6587.832884,612.876398
22277.870668,7328.038826,-6365.771101,3217.601092
22277.871001,2294.638420,-8734.430116,2987.772442
22277.871334,4663.297435,-6809.894666,-4060.306139
22277.871667,-3552.988522,-14285.974681,-1455.581446
22277.872000,-1332.370696,-10658.965565,-5286.058936
22277.872333,-1702.473667,-11843.295072,-4366.744339
22277.872666,-3034.844362,-14952.160028,-766.095498
22277.872999,-444.123565,-4515.256246,459.657299
22277.873332,-2146.597232,-7920.203579,383.047749
22277.873665,592.164754,-8660.409521,5439.278036
22277.873998,3478.967927,-4737.318029,3294.210641
22277.874331,0.000000,-9548.656652,5515.887586
22277.874664,7031.956449,-8290.306550,6052.154434
22277.874997,-74.020594,-9548.656652,0.000000
22277.875330,1776.494261,-8512.368333,0.000000
22277.875663,-3997.112087,-12139.377449,-5515.887586
22277.875996,-1406.391290,-11843.295072,-4596.572988
22277.876329,-296.082377,-11917.315666,-1838.629195
22277.876662,-1258.350101,-11843.295072,-1455.581446
22277.876995,0.000000,-5921.647536,-1915.238745
22277.877328,-4737.318029,-12509.480420,2757.943793
22277.877661,3923.091493,-4441.235652,4826.401637
22277.877994,-74.020594,-8290.306550,3600.648841
22277.878327,4663.297435,-7698.141797,6052.154434
22277.878660,2368.659014,-6069.688724,4673.182538
22277.878993,2442.679609,-8586.388927,1149.143247
22277.879326,2590.720797,-9770.718434,459.657299
22277.879659,-6957.935855,-10732.986159,-4596.572988
22277.879992,-74.020594,-11843.295072,-5745.716235
22277.880325,-3552.988522,-11917.315666,-76.609550
22277.880658,-1850.514855,-11621.233289,-4290.134789
22277.880991,-4441.235652,-7328.038826,0.000000
22277.881324,-1258.350101,-5699.585753,-1685.410096
22277.881657,592.164754,-8956.491898,3217.601092
22277.881990,3108.864956,-8142.265362,6971.469032
22277.882323,1850.514855,-8660.409521,3677.258390
22277.882656,4663.297435,-7105.977043,4213.525239
22277.882989,518.144159,-10732.986159,-1838.629195
22277.883322,3478.967927,-10658.965565,-76.609550
22277.883655,-74.020594,-9474.636058,-3294.210641
22277.883988,1332.370696,-11103.089130,-1072.533697
22277.884321,2664.741391,-10955.047942,1149.143247
22277.884654,-1702.473667,-11843.295072,-1608.800546
22277.884987,-222.061783,-8734.430116,995.924147
22277.885320,-3627.009116,-8808.450710,153.219100
22277.885653,3552.988522,-3552.988522,-1302.362347
22277.885986,592.164754,-7772.162391,6358.592633
22277.886319,4663.297435,-7105.977043,-1532.190996
22277.886652,1184.329507,-11029.068536,4903.011187
22277.886985,6217.729913,-9474.636058,2987.772442
22277.887318,4663.297435,-13323.706956,1762.019645
22277.887651,-1184.329507,-10140.821405,-689.485948
22277.887984,-814.226536,-9770.718434,-6205.373534
22277.888317,-2442.679609,-11991.336260,-919.314598
22277.888650,1184.329507,-9400.615463,-1532.190996
22277.888983,-3849.070898,-9844.739029,1149.143247
22277.889316,-5329.482782,-9548.656652,-1532.190996
22277.889649,1702.473667,-3923.091493,1378.971896
22277.889982,2368.659014,-8956.491898,5822.325785
22277.890315,7031.956449,-4145.153275,5439.278036
22277.890648,2664.741391,-8364.327145,4519.963438
22277.890981,-74.020594,-13027.624579,-689.485948
22277.891314,0.000000,-9548.656652,-1838.629195
22277.891647,-1480.411884,-14063.912898,-2834.553343
22277.891980,5847.626942,-11251.130318,-1915.238745
22277.892313,-3552.988522,-14359.995275,536.266849
22277.892646,-2886.803174,-8586.388927,-3140.991542
22277.892979,-3775.050304,-8438.347739,-2221.676944
22277.893312,-3404.947333,-8364.327145,0.000000
22277.893645,4737.318029,-5995.668130,7277.907231
22277.893978,1702.473667,-8586.388927,5132.839837
22277.894311,3182.885551,-3034.844362,1838.629195
22277.894644,-1776.494261,-9696.697840,536.266849
22277.894977,1110.308913,-7698.141797,-2298.286494
22277.895310,1406.391290,-8882.471304,-1915.238745
22277.895643,-1406.391290,-13323.706956,-3983.696590
22277.895976,814.226536,-11103.089130,-1991.848295
22277.896309,-3552.988522,-12509.480420,-1225.752797
22277.896642,-1184.329507,-11325.150913,-76.609550
22277.896975,-3034.844362,-9548.656652,0.000000
22277.897308,-1184.329507,-3923.091493,612.876398
22277.897641,3627.009116,-5329.482782,4826.401637
22277.897974,1480.411884,-7179.997637,6741.640382
22277.898307,1332.370696,-7328.038826,2374.896044
22277.898640,666.185348,-9992.780217,0.000000
22277.898973,4293.194464,-9992.780217,0.000000
22277.899306,-74.020594,-13619.789333,2374.896044
22277.899639,5847.626942,-7698.141797,1149.143247
22277.899972,-370.102971,-10140.821405,-3677.258390
22277.900305,-3256.906145,-10288.862594,-2451.505594
22277.900638,-3552.988522,-11843.295072,-2681.334243
22277.900971,-3034.844362,-11251.130318,1149.143247
22277.901304,-1776.494261,-4811.338623,-612.876398
22277.901637,1406.391290,-9400.615463,5056.230287
22277.901970,2146.597232,-3256.906145,3753.867940
22277.902303,0.000000,-5551.544565,-2145.067394
22277.902636,2294.638420,-9104.533087,0.000000
22277.902969,2960.823768,-11029.068536,3217.601092
22277.903302,6439.791695,-9474.636058,1455.581446
22277.903635,0.000000,-11917.315666,-1225.752797
22277.903968,1332.370696,-11547.212695,-4060.306139
22277.904301,-4145.153275,-14285.974681,-2451.505594
22277.904634,4515.256246,-5255.462188,-2528.115143
22277.904967,370.102971,-13545.768739,612.876398
22277.905300,-1184.329507,-8364.327145,2451.505594
22277.905633,1998.556043,-4811.338623,3064.381992
22277.905966,1998.556043,-10066.800811,6665.030833
22277.906299,4145.153275,-3701.029710,1991.848295
22277.906632,1702.473667,-8734.430116,2681.334243
22277.906965,-1184.329507,-6291.750507,-1455.581446
22277.907298,-74.020594,-11843.295072,-1915.238745
22277.907631,-6513.812290,-12213.398043,-2451.505594
22277.907964,1110.308913,-8586.388927,-1302.362347
22277.908297,-3034.844362,-14804.118840,-2528.115143
22277.908630,592.164754,-6587.832884,1225.752797
22277.908963,-2072.576638,-8364.327145,3217.601092
22277.909296,4441.235652,-3256.906145,383.047749
22277.909629,444.123565,-9104.533087,3524.039291
22277.909962,296.082377,-10436.903782,0.000000
22277.910295,1998.556043,-7179.997637,0.000000
22277.910628,888.247130,-11917.315666,4903.011187
22277.910961,6735.874072,-9474.636058,2374.896044
22277.911294,2294.638420,-7105.977043,-1225.752797
22277.911627,0.000000,-15396.283594,1762.019645
22277.911960,-74.020594,-7031.956449,-2528.115143
22277.912293,-3182.885551,-14211.954086,-1149.143247
22277.912626,-2516.700203,-8438.347739,0.000000
22277.912959,-3923.091493,-6513.812290,-1915.238745
22277.913292,-4293.194464,-3627.009116,1225.752797
22277.913625,-962.267725,-6957.935855,3600.648841
22277.913958,-370.102971,-5329.482782,-1225.752797
22277.914291,0.000000,-8364.327145,3677.258390
22277.914624,-74.020594,-9178.553681,-2757.943793
22277.914957,740.205942,-10288.862594,689.485948
22277.915290,148.041188,-11473.192101,1378.971896
22277.915623,1110.308913,-9770.718434,-2451.505594
22277.915956,2886.803174,-7476.080014,-3294.210641
22277.916289,0.000000,-14285.974681,2987.772442
22277.916622,1702.473667,-9992.780217,1378.971896
22277.916955,888.247130,-7179.997637,-2451.505594
22277.917288,2368.659014,-8956.491898,5669.106685
22277.917621,-74.020594,-7698.141797,1762.019645
22277.917954,-1184.329507,-6957.935855,689.485948
22277.918287,-444.123565,-7031.956449,-1915.238745
22277.918620,-592.164754,-11769.274478,766.095498
22277.918953,2442.679609,-3923.091493,536.266849
22277.919286,0.000000,-9474.636058,1072.533697
22277.919619,-3775.050304,-9178.553681,-5439.278036
22277.919952,-3552.988522,-9844.739029,-4903.011187
22277.920285,-1554.432478,-14211.954086,2374.896044
22277.920618,5847.626942,-3552.988522,995.924147
22277.920951,0.000000,-8364.327145,1225.752797
22277.921284,-2368.659014,-8364.327145,0.000000
22277.921617,-74.020594,-10066.800811,-76.609550
22277.921950,3849.070898,-7476.080014,2451.505594
22277.922283,6587.832884,-11695.253884,5669.106685
22277.922616,4071.132681,-10288.862594,3294.210641
22277.922949,5329.482782,-6883.915261,1915.238745
22277.923282,-666.185348,-11843.295072,-1455.581446
22277.923615,6069.688724,-10066.800811,1762.019645
22277.923949,0.000000,-7772.162391,1225.752797
22277.924282,-74.020594,-12287.418637,-1455.581446
22277.924615,-3627.009116,-7698.141797,-5822.325785
22277.924948,-5699.585753,-10362.883188,-4979.620737
22277.925281,-4959.379811,-7772.162391,-2757.943793
22277.925614,-814.226536,-6439.791695,536.266849
22277.925947,-518.144159,-9104.533087,3217.601092
22277.926280,0.000000,-4811.338623,3064.381992
22277.926613,-74.020594,-8882.471304,229.828649
22277.926946,4145.153275,-9178.553681,4213.525239
22277.927279,1702.473667,-10214.842000,536.266849
22277.927612,2368.659014,-8364.327145,0.000000
22277.927945,1184.329507,-12065.356855,-612.876398
22277.928278,2812.782580,-11917.315666,-1762.019645
22277.928611,-222.061783,-13027.624579,2221.676944
22277.928944,370.102971,-7846.182985,-3983.696590
22277.929277,-2442.679609,-17764.942608,-76.609550
22277.929610,-4737.318029,-4219.173869,0.000000
22277.929943,1998.556043,-5921.647536,536.266849
22277.930276,-1776.494261,-4811.338623,4903.011187
22277.930609,5625.565159,-7105.977043,5439.278036
22277.930942,-2442.679609,-8290.306550,2374.896044
22277.931275,296.082377,-8512.368333,1302.362347
22277.931608,-3478.967927,-7476.080014,-3677.258390
22277.931941,-1924.535449,-10066.800811,-5209.449386
22277.932274,-2072.576638,-11917.315666,-2757.943793
22277.932607,-3552.988522,-10140.821405,-2681.334243
22277.932940,-2146.597232,-10732.986159,-4903.011187
22277.933273,-1628.453072,-11325.150913,1225.752797
22277.933606,6439.791695,-4737.318029,3294.210641
22277.933939,4663.297435,-8290.306550,8810.098227
22277.934272,7994.224174,-6809.894666,8503.660028
22277.934605,3552.988522,-7476.080014,4060.306139
22277.934938,1628.453072,-9548.656652,2374.896044
22277.935271,2590.720797,-7254.018232,-1072.533697
22277.935604,-2072.576638,-14804.118840,-3447.429741
22277.935937,0.000000,-12287.418637,-3983.696590
22277.936270,-2886.803174,-11991.336260,-2068.457845
22277.936603,-2664.741391,-10436.903782,-3753.867940
22277.936936,-962.267725,-8882.471304,-995.924147
22277.937269,-1776.494261,-8290.306550,2068.457845
22277.937602,2294.638420,-7994.224174,6665.030833
22277.937935,4071.132681,-1924.535449,5515.887586
22277.938268,2960.823768,-6883.915261,4903.011187
22277.938601,4663.297435,-8290.306550,2068.457845
22277.938934,1184.329507,-10881.027347,0.000000
22277.939267,1628.453072,-7402.059420,-2528.115143
22277.939600,2368.659014,-11621.233289,-1915.238745
22277.939933,-3256.906145,-13397.727550,-3677.258390
22277.940266,0.000000,-10732.986159,-3524.039291
22277.940599,-1406.391290,-15026.180623,-5822.325785
22277.940932,2294.638420,-11843.295072,2451.505594
22277.941265,592.164754,-5107.421000,4136.915689
22277.941598,4367.215058,-3627.009116,4903.011187
22277.941931,3034.844362,-4145.153275,4060.306139
22277.942264,148.041188,-9104.533087,3370.820191
22277.942597,-222.061783,-9178.553681,1378.971896
22277.942930,-1258.350101,-8882.471304,-153.219100
22277.943263,-1258.350101,-13027.624579,-1302.362347
22277.943596,-4737.318029,-7179.997637,-2451.505594
22277.943929,-2368.659014,-9326.594869,-2681.334243
22277.944262,-2220.617826,-11547.212695,-3907.087040
22277.944595,-1776.494261,-11325.150913,-766.095498
22277.944928,0.000000,-9696.697840,2221.676944
22277.945261,-1480.411884,-9030.512492,2757.943793
22277.945594,5329.482782,-6883.915261,7584.345430
22277.945927,3627.009116,-4367.215058,5439.278036
22277.946260,5255.462188,-8882.471304,2987.772442
22277.946593,-2368.659014,-9548.656652,2451.505594
22277.946926,4071.132681,-9474.636058,-1302.362347
22277.947259,592.164754,-12139.377449,-1532.190996
22277.947592,3478.967927,-8290.306550,4213.525239
22277.947925,-1036.288319,-9844.739029,-3064.381992
22277.948258,-1998.556043,-8290.306550,-3217.601092
22277.948591,-4737.318029,-10436.903782,-3830.477490
22277.948924,-4441.235652,-9548.656652,0.000000
22277.949257,-2442.679609,-5477.523971,612.876398
22277.949590,-1406.391290,-9474.636058,2374.896044
22277.949923,-74.020594,-6513.812290,919.314598
22277.950256,-3256.906145,-7476.080014,2145.067394
22277.950589,3478.967927,-8882.471304,2987.772442
22277.950922,2368.659014,-7994.224174,2757.943793
22277.951255,4367.215058,-10140.821405,4213.525239
22277.951588,1998.556043,-7105.977043,-1532.190996
22277.951921,0.000000,-13101.645173,-3983.696590
22277.952254,1628.453072,-15470.304188,-1225.752797
22277.952587,1998.556043,-9178.553681,995.924147
22277.952920,1554.432478,-11843.295072,-766.095498
22277.953253,-370.102971,-9474.636058,1608.800546
22277.953586,-4737.318029,-8660.409521,-2451.505594
22277.953919,1258.350101,-2442.679609,1762.019645
22277.954252,-2368.659014,-7179.997637,3294.210641
22277.954585,1110.308913,-7550.100608,612.876398
22277.954918,-370.102971,-8882.471304,4826.401637
22277.955251,0.000000,-6587.832884,2451.505594
22277.955584,1036.288319,-6365.771101,-1072.533697
22277.955917,-1850.514855,-11843.295072,-4673.182538
22277.956250,1702.473667,-12583.501014,-3140.991542
22277.956583,-814.226536,-11473.192101,-689.485948
22277.956916,0.000000,-10140.821405,-2451.505594
22277.957249,0.000000,-8364.327145,3983.696590
22277.957582,4071.132681,-9474.636058,1762.019645
22277.957915,1998.556043,-7179.997637,2451.505594
22277.958248,4663.297435,-9474.636058,6665.030833
22277.958581,4515.256246,-5921.647536,4366.744339
22277.958914,7105.977043,-3330.926739,2757.943793
22277.959247,1554.432478,-9474.636058,4979.620737
22277.959580,-74.020594,-6809.894666,-4979.620737
22277.959913,-5921.647536,-13693.809927,-1225.752797
22277.960246,-1850.514855,-11843.295072,-3140.991542
22277.960579,-1258.350101,-10658.965565,-5592.497135
22277.960912,-4145.153275,-10140.821405,0.000000
22277.961245,-2146.597232,-5921.647536,-4443.353888
22277.961578,-3034.844362,-11177.109724,612.876398
22277.961911,4145.153275,-8142.265362,7277.907231
22277.962244,3552.988522,-5773.606348,6281.983084
22277.962577,3256.906145,-4219.173869,2757.943793
22277.962910,2368.659014,-10140.821405,7584.345430
22277.963243,3478.967927,-7105.977043,-1302.362347
22277.963576,2960.823768,-11917.315666,-2451.505594
22277.963909,1184.329507,-15840.407159,689.485948
22277.964242,-370.102971,-9622.677246,-4903.011187
22277.964575,-1480.411884,-11251.130318,-1302.362347
22277.964908,-1924.535449,-10362.883188,-995.924147
22277.965241,-6661.853478,-10140.821405,-3524.039291
22277.965574,-2146.597232,-7179.997637,0.000000
22277.965907,1406.391290,-5181.441594,2374.896044
22277.966240,-1776.494261,-10362.883188,7277.907231
22277.966573,-592.164754,-2886.803174,4060.306139
22277.966906,2294.638420,-7698.141797,4519.963438
22277.967239,1702.473667,-3923.091493,-4749.792088
22277.967572,296.082377,-15914.427753,-76.609550
22277.967905,-74.020594,-13915.871710,-76.609550
22277.968238,-4515.256246,-9844.739029,-8580.269578
22277.968571,-2146.597232,-14804.118840,-1532.190996
22277.968904,-1258.350101,-9622.677246,-2757.943793
22277.969237,-518.144159,-11473.192101,689.485948
22277.969570,3627.009116,-7772.162391,6052.154434
22277.969903,2886.803174,-4811.338623,4136.915689
22277.970236,6439.791695,-7179.997637,3600.648841
22277.970569,4737.318029,-4219.173869,11874.480219
22277.970902,4663.297435,-6513.812290,5669.106685
22277.971235,4071.132681,-9474.636058,-1302.362347
22277.971568,2886.803174,-9326.594869,-2221.676944
22277.971901,-7698.141797,-10732.986159,-7507.735880
22277.972234,1998.556043,-9474.636058,-4519.963438
22277.972567,-4441.235652,-12805.562797,-4136.915689
22277.972900,-3552.988522,-10732.986159,-5822.325785
22277.973233,-370.102971,-13027.624579,-383.047749
22277.973566,592.164754,-6883.915261,2374.896044
22277.973899,4663.297435,-8882.471304,5745.716235
22277.974232,5255.462188,-4737.318029,8350.440928
22277.974565,8290.306550,-3627.009116,7967.393179
22277.974899,888.247130,-9474.636058,3677.258390
22277.975232,3256.906145,-9918.759623,0.000000
22277.975565,-518.144159,-10510.924376,-2681.334243
22277.975898,4071.132681,-12435.459826,-1455.581446
22277.976231,666.185348,-9548.656652,-3677.258390
22277.976564,-666.185348,-11251.130318,-4979.620737
22277.976897,-1850.514855,-13027.624579,-8044.002729
22277.977230,-4737.318029,-14285.974681,1532.190996
22277.977563,2294.638420,-9474.636058,4826.401637
22277.977896,1480.411884,-7920.203579,8503.660028
22277.978229,1924.535449,-2664.741391,5745.716235
22277.978562,-2516.700203,-4811.338623,0.000000
22277.978895,1998.556043,-7920.203579,1991.848295
22277.979228,1184.329507,-7772.162391,5362.668486
22277.979561,-1258.350101,-10066.800811,-3064.381992
22277.979894,-1776.494261,-7476.080014,-4903.011187
22277.980227,-6809.894666,-14359.995275,-4366.744339
22277.980560,-1554.432478,-13027.624579,-3753.867940
22277.980893,-1628.453072,-12065.356855,229.828649
22277.981226,-814.226536,-7772.162391,-689.485948
22277.981559,666.185348,-10807.006753,3983.696590
22277.981892,3775.050304,-6439.791695,7201.297681
22277.982225,2368.659014,-9252.574275,7890.783629
22277.982558,1628.453072,-7328.038826,5515.887586
22277.982891,3034.844362,-6883.915261,5132.839837
22277.983224,-1332.370696,-4885.359217,1915.238745
22277.983557,1702.473667,-7105.977043,-8656.879127
22277.983890,-6513.812290,-15174.221811,-536.266849
22277.984223,-2442.679609,-9474.636058,-5592.497135
22277.984556,-1924.535449,-7476.080014,-4290.134789
22277.984889,-3256.906145,-14211.954086,766.095498
22277.985222,-1258.350101,-8290.306550,-1302.362347
22277.985555,666.185348,-6439.791695,3370.820191
22277.985888,3997.112087,-6513.812290,6052.154434
22277.986221,4589.276840,-7402.059420,4826.401637
22277.986554,148.041188,-7179.997637,3983.696590
22277.986887,2368.659014,-8956.491898,3294.210641
22277.987220,1110.308913,-9548.656652,-2451.505594
22277.987553,0.000000,-9548.656652,1532.190996
22277.987886,1110.308913,-10066.800811,-2834.553343
22277.988219,-1554.432478,-9548.656652,-7354.516781
22277.988552,370.102971,-11843.295072,-1455.581446
22277.988885,-888.247130,-9696.697840,-536.266849
22277.989218,1554.432478,-8734.430116,1762.019645
22277.989551,3849.070898,-10955.047942,2757.943793
22277.989884,1776.494261,-14434.015869,7890.783629
22277.990217,2886.803174,-3330.926739,3677.258390
22277.990550,2368.659014,-6809.894666,5669.106685
22277.990883,4663.297435,-9474.636058,1149.143247
22277.991216,0.000000,-8660.409521,1225.752797
22277.991549,2886.803174,-8068.244768,0.000000
22277.991882,-5255.462188,-13397.727550,-5745.716235
22277.992215,-518.144159,-11399.171507,-5898.935335
22277.992548,-5699.585753,-11547.212695,-5898.935335
22277.992881,-1406.391290,-12435.459826,-2528.115143
22277.993214,-1850.514855,-5551.544565,-2145.067394
22277.993547,592.164754,-9844.739029,5286.058936
22277.993880,7624.121203,-6809.894666,8503.660028
22277.994213,2886.803174,-7105.977043,5898.935335
22277.994546,2146.597232,-10510.924376,3677.258390
22277.994879,1406.391290,-5995.668130,3064.381992
22277.995212,4441.235652,-3775.050304,1302.362347
22277.995545,0.000000,-9548.656652,0.000000
22277.995878,-2442.679609,-9548.656652,-7354.516781
22277.996211,-6365.771101,-15544.324782,-9193.145976
22277.996544,-1332.370696,-13323.706956,-1915.238745
22277.996877,-2442.679609,-8512.368333,-536.266849
22277.997210,1702.473667,-8290.306550,3600.648841
22277.997544,-1184.329507,-8068.244768,3140.991542
22277.997877,-2368.659014,-10214.842000,3140.991542
22277.998210,4515.256246,-6661.853478,7124.688131
22277.998543,2368.659014,-3034.844362,5515.887586
22277.998876,3034.844362,-4811.338623,2451.505594
22277.999209,-74.020594,-9252.574275,0.000000
22277.999542,-2146.597232,-12953.603985,-3217.601092
22277.999875,-1850.514855,-10807.006753,-6971.469032
22278.000208,-2368.659014,-11325.150913,-4903.011187
22278.000541,-2442.679609,-10066.800811,-4673.182538
22278.000874,-2368.659014,-9548.656652,-612.876398
22278.001207,-666.185348,-9918.759623,1149.143247
22278.001540,-74.020594,-9474.636058,-76.609550
22278.001873,3552.988522,-6069.688724,4903.011187
22278.002206,4367.215058,-7476.080014,6435.202183
22278.002539,814.226536,-12657.521608,5975.544884
22278.002872,5551.544565,-4441.235652,3370.820191
22278.003205,-74.020594,-11843.295072,3600.648841
22278.003538,0.000000,-1258.350101,0.000000
22278.003871,-3552.988522,-14730.098246,-2834.553343
22278.004204,-666.185348,-13027.624579,-7277.907231
22278.004537,-6513.812290,-10732.986159,-4903.011187
22278.004870,-1850.514855,-11251.130318,-2834.553343
22278.005203,0.000000,-9548.656652,0.000000
22278.005536,-1850.514855,-8956.491898,-3294.210641
22278.005869,3701.029710,-10140.821405,5822.325785
22278.006202,2886.803174,-2442.679609,2834.553343
22278.006535,4737.318029,-9548.656652,9116.536426
22278.006868,4663.297435,-7698.141797,4826.401637
22278.007201,4663.297435,-5995.668130,306.438199
22278.007534,1110.308913,-12731.542202,2374.896044
22278.007867,2220.617826,-10140.821405,2374.896044
22278.008200,-2368.659014,-7476.080014,-4903.011187
22278.008533,-1554.432478,-10362.883188,-6588.421283
22278.008866,-1036.288319,-12361.439231,0.000000
22278.009199,-2738.761985,-10066.800811,-76.609550
22278.009532,2294.638420,-13027.624579,2374.896044
22278.009865,0.000000,-8364.327145,7354.516781
22278.010198,1110.308913,-7698.141797,2374.896044
22278.010531,4663.297435,-6809.894666,3600.648841
22278.010864,2368.659014,-5403.503377,1838.629195
22278.011197,1628.453072,-8364.327145,1225.752797
22278.011530,814.226536,-10955.047942,306.438199
22278.011863,-3552.988522,-7994.224174,-4979.620737
22278.012196,-1850.514855,-15396.283594,-3753.867940
22278.012529,1258.350101,-9918.759623,-76.609550
22278.012862,-370.102971,-4811.338623,-3217.601092
22278.013195,-2442.679609,-13619.789333,-2528.115143
22278.013528,0.000000,-7179.997637,-2145.067394
22278.013861,0.000000,-12509.480420,4136.915689
22278.014194,7031.956449,-7550.100608,9116.536426
22278.014527,4293.194464,-74.020594,2451.505594
22278.014860,592.164754,-11547.212695,4060.306139
22278.015193,-2368.659014,-7476.080014,-1838.629195
22278.015526,-666.185348,-9104.533087,-1915.238745
22278.015859,-1924.535449,-11103.089130,-1225.752797
22278.016192,-1184.329507,-10436.903782,-2987.772442
22278.016525,-3627.009116,-14211.954086,-1915.238745
22278.016858,-6957.935855,-8364.327145,-6052.154434
22278.017191,-3034.844362,-9770.718434,-4903.011187
22278.017524,0.000000,-7476.080014,2451.505594
22278.017857,3478.967927,-11843.295072,7890.783629
22278.018190,7031.956449,-4737.318029,7277.907231
22278.018523,3182.885551,-8882.471304,4826.401637
22278.018856,3478.967927,-8586.388927,3907.087040
22278.019189,4219.173869,-6291.750507,4060.306139
22278.019522,518.144159,-8660.409521,1149.143247
22278.019855,2294.638420,-10362.883188,-3753.867940
22278.020189,-4737.318029,-15766.386565,-7354.516781
22278.020522,-1850.514855,-14211.954086,-2528.115143
22278.020855,-1258.350101,-6587.832884,-4596.572988
22278.021188,-3552.988522,-10732.986159,612.876398
22278.021521,-74.020594,-11029.068536,2451.505594
22278.021854,0.000000,-4737.318029,2451.505594
22278.022187,2368.659014,-7179.997637,5669.106685
22278.022520,4589.276840,-5847.626942,3447.429741
22278.022853,2294.638420,-6809.894666,2681.334243
22278.023186,1776.494261,-10362.883188,6052.154434
22278.023519,2294.638420,-8290.306550,-1608.800546
22278.023852,-1184.329507,-8956.491898,-3677.258390
22278.024185,296.082377,-11843.295072,-2451.505594
22278.024518,-4071.132681,-11177.109724,-7048.078582
22278.024851,-1554.432478,-11991.336260,-3907.087040
22278.025184,148.041188,-12139.377449,-1608.800546
22278.025517,1850.514855,-8808.450710,5362.668486
22278.025850,3552.988522,-5107.421000,6128.763984
22278.026183,6439.791695,-9474.636058,4826.401637
22278.026516,0.000000,-6587.832884,4290.134789
22278.026849,1184.329507,-7179.997637,4826.401637
22278.027182,3478.967927,-6809.894666,2374.896044
22278.027515,0.000000,-7476.080014,459.657299
22278.027848,-2960.823768,-14211.954086,-689.485948
22278.028181,-4145.153275,-9474.636058,-7660.954980
22278.028514,-6957.935855,-13915.871710,-6818.249932
22278.028847,-4737.318029,-9548.656652,-5515.887586
22278.029180,-962.267725,-12213.398043,-1838.629195
22278.029513,1406.391290,-9326.594869,3370.820191
22278.029846,4589.276840,-7105.977043,5209.449386
22278.030179,4663.297435,-7105.977043,7277.907231
22278.030512,3552.988522,-4811.338623,4290.134789
22278.030845,3552.988522,-10066.800811,8503.660028
22278.031178,1110.308913,-8068.244768,0.000000
22278.031511,3108.864956,-7402.059420,1762.019645
22278.031844,-74.020594,-10436.903782,-536.266849
22278.032177,-3478.967927,-9400.615463,-3830.477490
22278.032510,-4737.318029,-7624.121203,-4060.306139
22278.032843,-2886.803174,-7772.162391,-8120.612279
22278.033176,-3849.070898,-14582.057057,-3524.039291
22278.033509,-2294.638420,-6291.750507,0.000000
22278.033842,4367.215058,-8882.471304,4826.401637
22278.034175,2738.761985,-7105.977043,3294.210641
22278.034508,1184.329507,-9548.656652,6281.983084
22278.034841,1702.473667,-7105.977043,3294.210641
22278.035174,4145.153275,-6365.771101,3983.696590
22278.035507,1628.453072,-7920.203579,229.828649
22278.035840,-3182.885551,-13027.624579,-3830.477490
22278.036173,-7105.977043,-14508.036463,-6435.202183
22278.036506,-3552.988522,-5995.668130,-4979.620737
22278.036839,-74.020594,-12435.459826,-3753.867940
22278.037172,1628.453072,-8660.409521,1838.629195
22278.037505,1184.329507,-5995.668130,2757.943793
22278.037838,-3256.906145,-12879.583391,0.000000
22278.038171,7550.100608,-3997.112087,2451.505594
22278.038504,0.000000,-12657.521608,4903.011187
22278.038837,7920.203579,-5255.462188,8350.440928
22278.039170,-74.020594,-9178.553681,3447.429741
22278.039503,0.000000,-6439.791695,1838.629195
22278.039836,-1702.473667,-7105.977043,-6511.811733
22278.040169,-4737.318029,-11325.150913,-919.314598
22278.040502,814.226536,-10066.800811,-2528.115143
22278.040835,-4219.173869,-12731.542202,-1915.238745
22278.041168,518.144159,-11103.089130,-1608.800546
22278.041501,-4737.318029,-11769.274478,76.609550
22278.041834,3478.967927,-7994.224174,2451.505594
22278.042167,0.000000,-5403.503377,4903.011187
22278.042501,5847.626942,-7105.977043,3600.648841
22278.042834,3552.988522,-6587.832884,6971.469032
22278.043167,5847.626942,-10658.965565,8197.221829
22278.043500,666.185348,-4811.338623,-2451.505594
22278.043833,-2146.597232,-13027.624579,-383.047749
22278.044166,-2664.741391,-8956.491898,-4979.620737
22278.044499,-4293.194464,-10881.027347,-6971.469032
22278.044832,-1702.473667,-12731.542202,-3600.648841
22278.045165,-1776.494261,-10436.903782,-3370.820191
22278.045498,-2590.720797,-11843.295072,-1532.190996
22278.045831,2368.659014,-9622.677246,4213.525239
22278.046164,1480.411884,-8438.347739,3524.039291
22278.046497,3775.050304,-8142.265362,6971.469032
22278.046830,5329.482782,-5107.421000,8580.269578
22278.047163,4071.132681,-5921.647536,1608.800546
22278.047496,1184.329507,-8660.409521,4596.572988
22278.047829,-666.185348,-7994.224174,-4060.306139
22278.048162,-3849.070898,-9474.636058,-4366.744339
22278.048495,-4145.153275,-12731.542202,-4366.744339
22278.048828,-4145.153275,-11325.150913,-4903.011187
22278.049161,-5921.647536,-11621.233289,-3217.601092
22278.049494,-1258.350101,-7846.182985,-3217.601092
22278.049827,-74.020594,-9474.636058,2987.772442
22278.050160,1184.329507,-4219.173869,5515.887586
22278.050493,4737.318029,-8882.471304,8503.660028
22278.050826,6439.791695,-8290.306550,3447.429741
22278.051159,2960.823768,-11325.150913,3064.381992
22278.051492,1110.308913,-12435.459826,4213.525239
22278.051825,3256.906145,-4811.338623,-842.705048
22278.052158,-3627.009116,-11843.295072,-3140.991542
22278.052491,2220.617826,-8882.471304,-3600.648841
22278.052824,-1554.432478,-9548.656652,-3677.258390
22278.053157,-8290.306550,-10140.821405,-3677.258390
22278.053490,-74.020594,-10658.965565,-2528.115143
22278.053823,-2738.761985,-11251.130318,-76.609550
22278.054156,1184.329507,-4811.338623,4903.011187
22278.054489,7031.956449,-4885.359217,6281.983084
22278.054822,74.020594,-9030.512492,2068.457845
22278.055155,1036.288319,-8956.491898,1072.533697
22278.055488,-2738.761985,-7550.100608,0.000000
22278.055821,4145.153275,-7550.100608,1225.752797
22278.056154,3478.967927,-8586.388927,-76.609550
22278.056487,-1258.350101,-9474.636058,-5898.935335
22278.056820,-1776.494261,-9844.739029,-4903.011187
22278.057153,-4145.153275,-14730.098246,-3140.991542
22278.057486,3478.967927,-7179.997637,-3677.258390
22278.057819,1850.514855,-13545.768739,2528.115143
22278.058152,3627.009116,-10140.821405,5669.106685
22278.058485,4737.318029,-4515.256246,6511.811733
22278.058818,3256.906145,-10362.883188,6281.983084
22278.059151,7402.059420,-5403.503377,7890.783629
22278.059484,-74.020594,-8290.306550,1762.019645
22278.059817,-4145.153275,-7772.162391,-1838.629195
22278.060150,-1850.514855,-9474.636058,-4979.620737
22278.060483,-3034.844362,-10288.862594,-4903.011187
22278.060816,-2442.679609,-10362.883188,-4443.353888
22278.061149,-2072.576638,-8068.244768,-2221.676944
22278.061482,-6439.791695,-9992.780217,-5132.839837
22278.061815,2220.617826,-11843.295072,3217.601092
22278.062148,1924.535449,-8290.306550,6128.763984
22278.062481,4145.153275,-7254.018232,5975.544884
22278.062814,888.247130,-8438.347739,5209.449386
22278.063147,3552.988522,-6291.750507,1991.848295
22278.063480,4737.318029,-9844.739029,4290.134789
22278.063813,0.000000,-9548.656652,4903.011187
22278.064146,3182.885551,-10658.965565,-3140.991542
22278.064479,-9178.553681,-11917.315666,-6741.640382
22278.064812,-3330.926739,-11843.295072,-5669.106685
22278.065146,-3775.050304,-9178.553681,-2987.772442
22278.065479,-962.267725,-6587.832884,0.000000
22278.065812,1110.308913,-8290.306550,2374.896044
22278.066145,-1036.288319,-10214.842000,7277.907231
22278.066478,3182.885551,-5921.647536,2987.772442
22278.066811,1184.329507,-9030.512492,5822.325785
22278.067144,4663.297435,-8882.471304,2374.896044
22278.067477,-2368.659014,-8364.327145,2911.162892
22278.067810,-1776.494261,-7179.997637,-2834.553343
22278.068143,-2146.597232,-9992.780217,-7354.516781
22278.068476,-3108.864956,-11843.295072,-7124.688131
22278.068809,-296.082377,-10510.924376,-2834.553343
22278.069142,-1998.556043,-10510.924376,-1302.362347
22278.069475,-1184.329507,-7772.162391,0.000000
22278.069808,3478.967927,-10658.965565,6052.154434
22278.070141,4367.215058,-4811.338623,3907.087040
22278.070474,4737.318029,-7179.997637,4826.401637
22278.070807,4663.297435,-11843.295072,7277.907231
22278.071140,2368.659014,-5107.421000,5745.716235
22278.071473,2442.679609,-7328.038826,1838.629195
22278.071806,0.000000,-8364.327145,0.000000
22278.072139,-5995.668130,-11251.130318,-7737.564530
22278.072472,-3552.988522,-8660.409521,-5362.668486
22278.072805,-3627.009116,-11843.295072,-6205.373534
22278.073138,-4737.318029,-9548.656652,-3064.381992
22278.073471,-4737.318029,-9548.656652,2451.505594
22278.073804,2294.638420,-8290.306550,-76.609550
22278.074137,592.164754,-9548.656652,4596.572988
22278.074470,5477.523971,-5403.503377,6818.249932
22278.074803,5847.626942,-7994.224174,6665.030833
22278.075136,4145.153275,-7624.121203,3064.381992
22278.075469,2960.823768,-11325.150913,2757.943793
22278.075802,2294.638420,-9178.553681,-612.876398
22278.076135,2294.638420,-9992.780217,-4213.525239
22278.076468,222.061783,-11843.295072,-2221.676944
22278.076801,-3034.844362,-9474.636058,-7277.907231
22278.077134,-3552.988522,-10881.027347,-2451.505594
22278.077467,-666.185348,-13027.624579,-76.609550
22278.077800,-74.020594,-6439.791695,153.219100
22278.078134,1184.329507,-7328.038826,7967.393179
22278.078467,2886.803174,-6809.894666,6358.592633
22278.078800,1554.432478,-6809.894666,4519.963438
22278.079133,0.000000,-7476.080014,1685.410096
22278.079466,1258.350101,-10214.842000,1225.752797
22278.079799,-5329.482782,-7772.162391,-4903.011187
22278.080132,-3552.988522,-5995.668130,-6741.640382
22278.080465,-1554.432478,-13027.624579,-2834.553343
22278.080798,-1184.329507,-5403.503377,-4749.792088
22278.081131,0.000000,-9548.656652,2374.896044
22278.081464,-1184.329507,-7772.162391,-3140.991542
22278.081797,1924.535449,-10436.903782,1685.410096
22278.082130,1554.432478,-11769.274478,4903.011187
22278.082463,6143.709319,-7624.121203,6741.640382
22278.082796,3997.112087,-10362.883188,5745.716235
22278.083129,4145.153275,-7772.162391,8503.660028
22278.083462,4663.297435,-7105.977043,1762.019645
22278.083795,-1776.494261,-8364.327145,0.000000
22278.084128,-2368.659014,-8068.244768,-1378.971896
22278.084461,-5921.647536,-10066.800811,-4903.011187
22278.084794,-3478.967927,-9030.512492,-4979.620737
22278.085127,-4737.318029,-10881.027347,-2298.286494
22278.085460,-3849.070898,-10288.862594,-1072.533697
22278.085793,222.061783,-5329.482782,995.924147
22278.086126,2368.659014,-10658.965565,4826.401637
22278.086459,592.164754,-3923.091493,612.876398
22278.086792,1184.329507,-10732.986159,3983.696590
22278.087125,5255.462188,-12287.418637,4213.525239
22278.087458,3182.885551,-8438.347739,-689.485948
22278.087791,4145.153275,-11325.150913,1072.533697
22278.088124,-2368.659014,-11399.171507,0.000000
22278.088457,-1850.514855,-6365.771101,-5898.935335
22278.088790,-2368.659014,-13101.645173,0.000000
22278.089123,2294.638420,-8290.306550,-3447.429741
22278.089457,0.000000,-8364.327145,2374.896044
22278.089790,-1850.514855,-14211.954086,2374.896044
22278.090123,3478.967927,-2442.679609,2451.505594
22278.090456,-3923.091493,-11325.150913,2681.334243
22278.090789,7920.203579,-4219.173869,4903.011187
22278.091122,-3923.091493,-11843.295072,2451.505594
22278.091455,1184.329507,-4515.256246,-2221.676944
22278.091788,1184.329507,-8364.327145,0.000000
22278.092121,-3627.009116,-11843.295072,-3294.210641
22278.092454,3775.050304,-3849.070898,-919.314598
22278.092787,-4959.379811,-11843.295072,-153.219100
22278.093120,3404.947333,-9474.636058,-5975.544884
22278.093453,-4145.153275,-11917.315666,0.000000
22278.093786,2294.638420,-10362.883188,-76.609550
22278.094119,3478.967927,-7179.997637,612.876398
22278.094452,4071.132681,-14211.954086,9729.412825
22278.094785,10584.944971,-5921.647536,7277.907231
22278.095118,444.123565,-8364.327145,6128.763984
22278.095451,4959.379811,-5625.565159,766.095498
22278.095784,-962.267725,-8586.388927,-1455.581446
22278.096117,-2664.741391,-9474.636058,-3447.429741
22278.096450,-1776.494261,-10362.883188,-2681.334243
22278.096783,-5995.668130,-13027.624579,-6358.592633
22278.097116,-3552.988522,-9548.656652,-6128.763984
22278.097449,-3552.988522,-9474.636058,-76.609550
22278.097782,-1850.514855,-9548.656652,-1838.629195
22278.098115,0.000000,-10140.821405,7124.688131
22278.098448,1332.370696,-8660.409521,5822.325785
22278.098781,5921.647536,-6143.709319,6128.763984
22278.099114,5033.400406,-11769.274478,5515.887586
22278.099447,8808.450710,-6809.894666,2374.896044
22278.099780,1702.473667,-9844.739029,0.000000
22278.100113,2368.659014,-7550.100608,-3140.991542
22278.100447,-1258.350101,-15396.283594,-689.485948
22278.100780,-5699.585753,-8956.491898,-7201.297681
22278.101113,-74.020594,-9178.553681,-5286.058936
22278.101446,-6957.935855,-13397.727550,-383.047749
22278.101779,2516.700203,-6365.771101,2451.505594
22278.102112,-3478.967927,-9622.677246,5209.449386
22278.102445,4737.318029,-3627.009116,4903.011187
22278.102778,-2368.659014,-10732.986159,0.000000
22278.103111,5107.421000,-11547.212695,4826.401637
22278.103444,370.102971,-5403.503377,612.876398
22278.103777,-2368.659014,-8068.244768,0.000000
22278.104110,3478.967927,-9474.636058,-2528.115143
22278.104443,-2812.782580,-10288.862594,-3064.381992
22278.104776,-1628.453072,-10658.965565,-5439.278036
22278.105109,0.000000,-10881.027347,1532.190996
22278.105442,-2960.823768,-7179.997637,0.000000
22278.105775,1480.411884,-7994.224174,536.266849
22278.106108,3330.926739,-12361.439231,4290.134789
22278.106441,4293.194464,-7476.080014,7048.078582
22278.106774,6439.791695,-8882.471304,8503.660028
22278.107107,4071.132681,-9474.636058,4826.401637
22278.107440,-3256.906145,-9548.656652,0.000000
22278.107773,-74.020594,-8882.471304,-1608.800546
22278.108106,-666.185348,-11547.212695,-4060.306139
22278.108439,-1332.370696,-7328.038826,-4979.620737
22278.108772,-2960.823768,-9992.780217,-1991.848295
22278.109105,-1924.535449,-8882.471304,-1302.362347
22278.109438,-2516.700203,-7698.141797,-2298.286494
22278.109771,814.226536,-9992.780217,1532.190996
22278.110104,5921.647536,-7179.997637,7277.907231
22278.110437,0.000000,-7179.997637,6741.640382
22278.110770,6735.874072,-10658.965565,1149.143247
22278.111103,1924.535449,-13397.727550,2451.505594
22278.111436,4737.318029,-5847.626942,4060.306139
22278.111770,4663.297435,-9474.636058,842.705048
22278.112103,222.061783,-11399.171507,-459.657299
22278.112436,-6069.688724,-10807.006753,-6971.469032
22278.112769,-2442.679609,-8512.368333,-4136.915689
22278.113102,-1258.350101,-10658.965565,-76.609550
22278.113435,-2664.741391,-10140.821405,2451.505594
22278.113768,-1628.453072,-9474.636058,6052.154434
22278.114101,-3923.091493,-6513.812290,-2757.943793
22278.114434,2368.659014,-7179.997637,4290.134789
22278.114767,2812.782580,-7846.182985,4903.011187
22278.115100,2664.741391,-8956.491898,1608.800546
22278.115433,1702.473667,-6217.729913,536.266849
22278.115766,-3775.050304,-15914.427753,-4596.572988
22278.116099,3552.988522,-4811.338623,-2987.772442
22278.116432,-1258.350101,-15988.448347,-383.047749
22278.116765,1258.350101,-7105.977043,-4060.306139
22278.117098,-7105.977043,-12509.480420,-919.314598
22278.117431,-74.020594,-10658.965565,-76.609550
22278.117764,3849.070898,-8364.327145,10955.165621
22278.118097,4145.153275,-3330.926739,7584.345430
22278.118430,7031.956449,-7550.100608,5209.449386
22278.118763,-1406.391290,-7105.977043,3294.210641
22278.119096,0.000000,-8364.327145,-2987.772442
22278.119429,-74.020594,-10658.965565,-1302.362347
22278.119762,-1184.329507,-10732.986159,-1838.629195
22278.120095,-9474.636058,-11917.315666,-6741.640382
22278.120428,-74.020594,-10658.965565,-3140.991542
22278.120761,-4145.153275,-9548.656652,-3830.477490
22278.121094,2960.823768,-3849.070898,1608.800546
22278.121427,222.061783,-9178.553681,2145.067394
22278.121760,1924.535449,-10510.924376,2298.286494
22278.122093,2664.741391,-9548.656652,4903.011187
22278.122426,7328.038826,-11251.130318,5132.839837
22278.122759,4959.379811,-10658.965565,8656.879127
22278.123093,6217.729913,-5625.565159,2757.943793
22278.123426,2294.638420,-9770.718434,-689.485948
22278.123759,-3997.112087,-8660.409521,-3064.381992
22278.124092,1998.556043,-9178.553681,-4979.620737
22278.124425,-3627.009116,-11843.295072,-5362.668486
22278.124758,-888.247130,-7550.100608,-4060.306139
22278.125091,-6291.750507,-14211.954086,2068.457845
22278.125424,-814.226536,-3330.926739,0.000000
22278.125757,-2294.638420,-10510.924376,-842.705048
22278.126090,3256.906145,-11325.150913,5745.716235
22278.126423,2368.659014,-8364.327145,3064.381992
22278.126756,-5921.647536,-9548.656652,1225.752797
22278.127089,4663.297435,-7105.977043,383.047749
22278.127422,-1110.308913,-8142.265362,689.485948
22278.127755,4737.318029,-4515.256246,3140.991542
22278.128088,1406.391290,-6439.791695,229.828649
22278.128421,-3256.906145,-11325.150913,-4826.401637
22278.128754,518.144159,-6809.894666,-1915.238745
22278.129087,-3627.009116,-10807.006753,-536.266849
22278.129420,1110.308913,-10955.047942,-76.609550
22278.129753,0.000000,-10732.986159,4519.963438
22278.130086,2886.803174,-11251.130318,1302.362347
22278.130419,592.164754,-7179.997637,2451.505594
22278.130752,592.164754,-10732.986159,3830.477490
22278.131085,5551.544565,-7105.977043,3064.381992
22278.131418,-2590.720797,-10214.842000,0.000000
22278.131751,0.000000,-7846.182985,-1225.752797
22278.132084,-2960.823768,-7476.080014,-995.924147
22278.132417,-2738.761985,-8290.306550,-3830.477490
22278.132750,888.247130,-8290.306550,2374.896044
22278.133083,-4737.318029,-7179.997637,-4136.915689
22278.133416,-2368.659014,-7772.162391,0.000000
22278.133749,-740.205942,-11843.295072,3294.210641
22278.134082,4071.132681,-8882.471304,2374.896044
22278.134416,1480.411884,-10732.986159,4979.620737
22278.134749,4219.173869,-8068.244768,2145.067394
22278.135082,2960.823768,-10584.944971,2451.505594
22278.135415,592.164754,-10140.821405,0.000000
22278.135748,7031.956449,-10066.800811,-2681.334243
22278.136081,-5921.647536,-13693.809927,-76.609550
22278.136414,2294.638420,-10584.944971,-383.047749
22278.136747,-5255.462188,-7179.997637,612.876398
22278.137080,-2146.597232,-5625.565159,-4749.792088
22278.137413,-592.164754,-8660.409521,-1225.752797
22278.137746,-2368.659014,-11029.068536,3140.991542
22278.138079,296.082377,-5625.565159,-1762.019645
22278.138412,0.000000,-10732.986159,4903.011187
22278.138745,3478.967927,-7698.141797,-1072.533697
22278.139078,2294.638420,-10214.842000,4060.306139
22278.139411,0.000000,-9696.697840,919.314598
22278.139744,3330.926739,-7105.977043,-689.485948
22278.140077,-3552.988522,-10732.986159,0.000000
22278.140410,5847.626942,-7105.977043,-76.609550
22278.140743,-1258.350101,-9178.553681,-2451.505594
22278.141076,-2220.617826,-9844.739029,-1072.533697
22278.141409,-74.020594,-11843.295072,1762.019645
22278.141742,-2960.823768,-8956.491898,612.876398
22278.142075,4219.173869,-7254.018232,3140.991542
22278.142408,2220.617826,-7920.203579,5209.449386
22278.142741,888.247130,-10288.862594,1762.019645
22278.143074,4293.194464,-7328.038826,4519.963438
22278.143407,-370.102971,-10510.924376,-1608.800546
22278.143740,0.000000,-7179.997637,-3677.258390
22278.144073,-4737.318029,-14211.954086,-1915.238745
22278.144406,-74.020594,-7698.141797,-4290.134789
22278.144739,-3552.988522,-11917.315666,-76.609550
22278.145072,0.000000,-9030.512492,-1915.238745
22278.145405,370.102971,-8956.491898,1225.752797
22278.145739,-1850.514855,-9622.677246,306.438199
22278.146072,5255.462188,-7105.977043,2374.896044
22278.146405,-74.020594,-8586.388927,1302.362347
22278.146738,5329.482782,-6661.853478,4213.525239
22278.147071,5847.626942,-12731.542202,6665.030833
22278.147404,3478.967927,-7920.203579,2451.505594
22278.147737,2886.803174,-5921.647536,-689.485948
22278.148070,-1776.494261,-11177.109724,-3600.648841
22278.148403,518.144159,-9474.636058,-8580.269578
22278.148736,-4589.276840,-16432.571912,-3294.210641
22278.149069,0.000000,-7772.162391,-1532.190996
22278.149402,-4737.318029,-10732.986159,0.000000
22278.149735,-370.102971,-10658.965565,2987.772442
22278.150068,0.000000,-4811.338623,0.000000
22278.150401,0.000000,-10881.027347,7660.954980
22278.150734,3478.967927,-7105.977043,536.266849
22278.151067,592.164754,-9696.697840,4136.915689
22278.151400,3182.885551,-6587.832884,2987.772442
22278.151733,2294.638420,-6957.935855,-995.924147
22278.152066,2368.659014,-9548.656652,306.438199
22278.152399,-3849.070898,-9770.718434,-4979.620737
22278.152732,-1184.329507,-10362.883188,-4519.963438
22278.153065,-3108.864956,-11473.192101,-2145.067394
22278.153398,1110.308913,-11251.130318,-76.609550
22278.153731,-666.185348,-13027.624579,3294.210641
22278.154064,1776.494261,-4959.379811,4903.011187
22278.154397,1554.432478,-9474.636058,7354.516781
22278.154730,5847.626942,-5921.647536,2987.772442
22278.155063,2294.638420,-12139.377449,4749.792088
22278.155396,1850.514855,-5329.482782,2604.724693
22278.155729,296.082377,-9992.780217,-383.047749
22278.156062,-1332.370696,-9770.718434,-3064.381992
22278.156395,-2590.720797,-9696.697840,-4826.401637
22278.156728,-4737.318029,-9844.739029,-2374.896044
22278.157062,-4737.318029,-6587.832884,-1225.752797
22278.157395,-1850.514855,-10362.883188,-3447.429741
22278.157728,2368.659014,-10658.965565,3294.210641
22278.158061,888.247130,-6365.771101,3294.210641
22278.158394,2886.803174,-10510.924376,3140.991542
22278.158727,4071.132681,-6883.915261,4060.306139
22278.159060,1776.494261,-8660.409521,2528.115143
22278.159393,2368.659014,-8808.450710,2604.724693
22278.159726,1110.308913,-11547.212695,-76.609550
22278.160059,-1332.370696,-11547.212695,-3140.991542
22278.160392,1998.556043,-9474.636058,-4060.306139
22278.160725,-2368.659014,-10140.821405,-3677.258390
22278.161058,0.000000,-7772.162391,766.095498
22278.161391,-1850.514855,-7550.100608,0.000000
22278.161724,-666.185348,-9622.677246,995.924147
22278.162057,-1702.473667,-9474.636058,-153.219100
22278.162390,2738.761985,-9178.553681,3064.381992
22278.162723,-1184.329507,-7179.997637,0.000000
22278.163056,4663.297435,-10658.965565,2987.772442
22278.163389,1110.308913,-10658.965565,1762.019645
22278.163722,-2368.659014,-7179.997637,-1838.629195
22278.164055,-74.020594,-9474.636058,-76.609550
22278.164388,-2960.823768,-6883.915261,-3677.258390
22278.164721,-1554.432478,-9918.759623,-1991.848295
22278.165054,-370.102971,-8808.450710,-766.095498
22278.165387,888.247130,-8290.306550,-383.047749
22278.165720,-2368.659014,-10881.027347,2604.724693
22278.166053,3478.967927,-8882.471304,2834.553343
22278.166386,3849.070898,-5699.585753,5515.887586
22278.166719,3478.967927,-14211.954086,3600.648841
22278.167052,7031.956449,-12435.459826,-1915.238745
22278.167385,0.000000,-12509.480420,5669.106685
22278.167718,1850.514855,-5995.668130,76.609550
22278.168052,2442.679609,-9178.553681,1072.533697
22278.168384,-3552.988522,-7476.080014,-1225.752797
22278.168717,-4145.153275,-4811.338623,-3830.477490
22278.169050,-3627.009116,-8068.244768,-1149.143247
22278.169383,-1110.308913,-8364.327145,-3064.381992
22278.169716,-4293.194464,-11843.295072,-536.266849
22278.170049,1258.350101,-7698.141797,2528.115143
22278.170382,0.000000,-9548.656652,1991.848295
22278.170715,3775.050304,-10362.883188,2374.896044
22278.171048,5847.626942,-7994.224174,766.095498
22278.171381,592.164754,-10436.903782,1915.238745
22278.171714,5551.544565,-9474.636058,-76.609550
22278.172047,1924.535449,-11029.068536,-306.438199
22278.172380,1702.473667,-12139.377449,-612.876398
22278.172713,2072.576638,-8216.285956,3294.210641
22278.173046,0.000000,-5995.668130,-3677.258390
22278.173379,-2442.679609,-8290.306550,-3294.210641
22278.173712,-2368.659014,-8438.347739,-1838.629195
22278.174045,-74.020594,-10584.944971,4826.401637
22278.174378,-5995.668130,-12065.356855,766.095498
22278.174711,1924.535449,-4219.173869,-766.095498
22278.175044,-3034.844362,-14804.118840,4213.525239
22278.175377,2812.782580,-2368.659014,-459.657299
22278.175710,74.020594,-11177.109724,1608.800546
22278.176043,888.247130,-9474.636058,-1991.848295
22278.176376,0.000000,-7179.997637,-689.485948
22278.176709,-2442.679609,-8882.471304,-4596.572988
22278.177042,2368.659014,-7476.080014,1149.143247
22278.177375,-2368.659014,-10066.800811,-76.609550
22278.177708,2960.823768,-9918.759623,1225.752797
22278.178041,-222.061783,-11177.109724,3907.087040
22278.178374,3997.112087,-7698.141797,3907.087040
22278.178707,4811.338623,-7994.224174,6741.640382
22278.179040,1110.308913,-10658.965565,6052.154434
22278.179373,3849.070898,-5625.565159,-76.609550
22278.179706,-2664.741391,-11843.295072,-383.047749
22278.180039,-4145.153275,-9548.656652,-4903.011187
22278.180372,-814.226536,-10658.965565,-3140.991542
22278.180705,-3627.009116,-13915.871710,-689.485948
22278.181038,-3552.988522,-4219.173869,-6128.763984
22278.181371,-2590.720797,-15470.304188,2528.115143
22278.181704,1184.329507,-1036.288319,1072.533697
22278.182037,0.000000,-5403.503377,1838.629195
22278.182370,5847.626942,-11843.295072,5745.716235
22278.182703,5329.482782,2294.638420,2987.772442
22278.183036,-1258.350101,-23390.507767,4519.963438
22278.183369,1702.473667,-20207.622217,612.876398
22278.183702,3478.967927,-4663.297435,-1302.362347
22278.184035,7031.956449,4145.153275,-4366.744339
22278.184368,888.247130,-8290.306550,-1302.362347
22278.184701,-9474.636058,-19023.292709,-2298.286494
22278.185034,-4145.153275,-9548.656652,-3677.258390
22278.185367,-2146.597232,-17320.819043,0.000000
22278.185700,2960.823768,-8068.244768,842.705048
22278.186033,2664.741391,-4737.318029,-229.828649
22278.186366,6883.915261,-3256.906145,5286.058936
22278.186699,1184.329507,-3034.844362,0.000000
22278.187032,5847.626942,-11843.295072,4519.963438
22278.187365,0.000000,-7772.162391,4903.011187
22278.187698,370.102971,-5033.400406,3294.210641
22278.188031,-74.020594,-9178.553681,2374.896044
22278.188364,-5773.606348,-7179.997637,-3677.258390
22278.188697,-1850.514855,-7920.203579,-2298.286494
22278.189030,-3552.988522,-6809.894666,-3983.696590
22278.189363,-1258.350101,-13619.789333,1455.581446
22278.189696,-3256.906145,-10732.986159,3064.381992
22278.190029,4071.132681,-11251.130318,2374.896044
22278.190362,0.000000,-13101.645173,4903.011187
22278.190695,3701.029710,-10288.862594,4826.401637
22278.191028,5255.462188,-6365.771101,919.314598
22278.191361,1184.329507,-11621.233289,1915.238745
22278.191694,0.000000,-8734.430116,-5822.325785
22278.192027,0.000000,-12361.439231,-4136.915689
22278.192360,-1258.350101,-9770.718434,-5515.887586
22278.192693,-74.020594,-11843.295072,-4979.620737
22278.193026,-74.020594,-7105.977043,-5515.887586
22278.193359,-2072.576638,-9178.553681,-2068.457845
22278.193692,-74.020594,-10807.006753,-76.609550
22278.194025,1998.556043,-8290.306550,2221.676944
22278.194358,2886.803174,-9474.636058,2987.772442
22278.194691,1554.432478,-8438.347739,4366.744339
22278.195024,-1258.350101,-9030.512492,842.705048
22278.195357,740.205942,-6883.915261,229.828649
22278.195690,148.041188,-3627.009116,612.876398
22278.196023,2368.659014,-6291.750507,0.000000
22278.196356,-2146.597232,-9474.636058,-1608.800546
22278.196689,-3330.926739,-7476.080014,-3983.696590
22278.197022,-4737.318029,-9548.656652,0.000000
22278.197355,-74.020594,-9474.636058,-76.609550
22278.197688,1628.453072,-9252.574275,3524.039291
22278.198021,2146.597232,-7105.977043,2528.115143
22278.198354,4885.359217,-12435.459826,2451.505594
22278.198687,4145.153275,-12509.480420,7967.393179
22278.199020,6069.688724,-6883.915261,6358.592633
22278.199353,2516.700203,-9400.615463,5898.935335
22278.199686,2146.597232,-4219.173869,2604.724693
22278.200019,-74.020594,-7994.224174,-383.047749
22278.200352,-370.102971,-8290.306550,-1915.238745
22278.200685,-2590.720797,-4811.338623,-4903.011187
22278.201018,-4145.153275,-9474.636058,-76.609550
22278.201351,-666.185348,-7698.141797,-2528.115143
22278.201684,-2960.823768,-12213.398043,1838.629195
22278.202017,-1258.350101,-12139.377449,842.705048
22278.202350,3627.009116,-12139.377449,4826.401637
22278.202683,2442.679609,-11251.130318,4979.620737
22278.203016,2886.803174,-7402.059420,2681.334243
22278.203349,1184.329507,-8956.491898,0.000000
22278.203682,888.247130,-9548.656652,0.000000
22278.204015,1332.370696,-9178.553681,-2528.115143
22278.204348,-74.020594,-11843.295072,-4979.620737
22278.204681,-1850.514855,-12065.356855,-4366.744339
22278.205014,-74.020594,-10066.800811,-5592.497135
22278.205347,0.000000,-10214.842000,2451.505594
22278.205680,1702.473667,-5329.482782,-1532.190996
22278.206013,-592.164754,-11695.253884,4596.572988
22278.206346,-74.020594,-11547.212695,4213.525239
22278.206679,296.082377,-8808.450710,1838.629195
22278.207012,-1184.329507,-10955.047942,3294.210641
22278.207345,3923.091493,-5403.503377,0.000000
22278.207678,-6513.812290,-8364.327145,1532.190996
22278.208011,-666.185348,-4293.194464,-4903.011187
22278.208344,-4589.276840,-9474.636058,-4443.353888
22278.208677,-3923.091493,-7772.162391,-3677.258390
22278.209010,-814.226536,-6957.935855,-153.219100
22278.209343,-3478.967927,-7179.997637,0.000000
22278.209676,3701.029710,-8290.306550,-689.485948
22278.210008,2886.803174,-14211.954086,6052.154434
22278.210341,3775.050304,-8364.327145,7967.393179
22278.210674,6957.935855,-9030.512492,8503.660028
22278.211007,3552.988522,-10732.986159,5515.887586
22278.211340,3330.926739,-9178.553681,1225.752797
22278.211673,888.247130,-10807.006753,2145.067394
22278.212006,-1184.329507,-8068.244768,-1838.629195
22278.212339,-3552.988522,-10140.821405,-2145.067394
22278.212672,-1850.514855,-9474.636058,-3753.867940
22278.213005,0.000000,-5995.668130,0.000000
22278.213338,-5921.647536,-9548.656652,919.314598
22278.213671,1702.473667,-7994.224174,-1302.362347
22278.214004,-2368.659014,-10436.903782,3064.381992
22278.214337,4071.132681,-9326.594869,4213.525239
22278.214670,4515.256246,-5403.503377,4136.915689
22278.215003,2146.597232,-9844.739029,536.266849
22278.215336,2368.659014,-11917.315666,919.314598
22278.215669,1036.288319,-12731.542202,-1378.971896
22278.216002,2812.782580,-10732.986159,-1532.190996
22278.216335,-1998.556043,-11325.150913,-3370.820191
22278.216668,1406.391290,-9474.636058,-3447.429741
22278.217001,-2664.741391,-7476.080014,-1838.629195
22278.217334,-370.102971,-9474.636058,-1915.238745
22278.217667,2294.638420,-10658.965565,-1302.362347
22278.218000,296.082377,-9252.574275,4903.011187
22278.218333,6143.709319,-6809.894666,5439.278036
22278.218666,1258.350101,-12065.356855,7124.688131
22278.218999,1924.535449,-7254.018232,1302.362347
22278.219332,592.164754,-8142.265362,0.000000
22278.219665,-1480.411884,-10732.986159,306.438199
22278.219998,-2368.659014,-5403.503377,-3677.258390
22278.220331,-5995.668130,-10066.800811,-6741.640382
22278.220664,-3775.050304,-7179.997637,-7048.078582
22278.220997,-4737.318029,-9770.718434,-2681.334243
22278.221330,-666.185348,-4811.338623,-689.485948
22278.221663,2368.659014,-6587.832884,2374.896044
22278.221996,0.000000,-11621.233289,4903.011187
22278.222329,2516.700203,-7772.162391,4596.572988
22278.222662,4663.297435,-13027.624579,8503.660028
22278.222995,5921.647536,-5403.503377,8886.707777
22278.223328,4663.297435,-14211.954086,2987.772442
22278.223661,2960.823768,-7179.997637,2757.943793
22278.223994,-7105.977043,-7772.162391,-4749.792088
22278.224327,-1036.288319,-9178.553681,-7354.516781
22278.224660,-4811.338623,-11843.295072,-3600.648841
22278.224993,-3923.091493,-7846.182985,-3753.867940
22278.225326,-2664.741391,-6883.915261,-766.095498
22278.225659,-5107.421000,-9474.636058,-689.485948
22278.225992,592.164754,-7550.100608,2987.772442
22278.226325,0.000000,-5995.668130,4903.011187
22278.226658,3552.988522,-9696.697840,9116.536426
22278.226991,5551.544565,-4737.318029,1455.581446
22278.227324,1702.473667,-12435.459826,2374.896044
22278.227657,3627.009116,-7179.997637,612.876398
22278.227990,592.164754,-10955.047942,-2145.067394
22278.228323,1110.308913,-11547.212695,-4366.744339
22278.228656,-2368.659014,-12213.398043,-3064.381992
22278.228989,-666.185348,-10658.965565,-4519.963438
22278.229322,296.082377,-7772.162391,1225.752797
22278.229655,-3552.988522,-9548.656652,1455.581446
22278.229988,5255.462188,-7994.224174,4596.572988
22278.230321,5847.626942,-4589.276840,8503.660028
22278.230654,1628.453072,-9104.533087,4903.011187
22278.230987,370.102971,-8216.285956,76.609550
22278.231320,-1110.308913,-11695.253884,-1072.533697
22278.231653,-5329.482782,-11917.315666,-3677.258390
22278.231986,2294.638420,-7105.977043,-2528.115143
22278.232319,-5107.421000,-11843.295072,-3677.258390
22278.232652,-592.164754,-3034.844362,-3677.258390
22278.232985,-3923.091493,-10214.842000,-2528.115143
22278.233318,0.000000,-4811.338623,-1838.629195
22278.233651,-1850.514855,-8882.471304,2374.896044
22278.233984,-74.020594,-6069.688724,-1685.410096
22278.234317,5033.400406,-11251.130318,3217.601092
22278.234650,5551.544565,-17764.942608,4826.401637
22278.234983,7772.162391,-9548.656652,7354.516781
22278.235316,3923.091493,-9474.636058,3294.210641
22278.235649,5921.647536,-11843.295072,2681.334243
22278.235982,-1554.432478,-10658.965565,-1302.362347
22278.236315,-888.247130,-6587.832884,-2374.896044
22278.236648,-3627.009116,-9474.636058,-4060.306139
22278.236981,-1776.494261,-6587.832884,0.000000
22278.237314,-2886.803174,-6661.853478,-383.047749
22278.237647,-4811.338623,-9252.574275,1378.971896
22278.237980,-2072.576638,-6291.750507,1685.410096
22278.238313,-1924.535449,-10881.027347,2451.505594
22278.238646,2516.700203,-10436.903782,4903.011187
22278.238979,814.226536,-10955.047942,842.705048
22278.239312,3182.885551,-10658.965565,2374.896044
22278.239645,2294.638420,-8290.306550,-689.485948
22278.239978,5033.400406,-6513.812290,1149.143247
22278.240311,-666.185348,-13619.789333,-3140.991542
22278.240644,-296.082377,-10288.862594,-4903.011187
22278.240977,-962.267725,-13619.789333,-4366.744339
22278.241310,-1406.391290,-11621.233289,1685.410096
22278.241643,5255.462188,-6365.771101,3370.820191
22278.241976,0.000000,-10955.047942,3907.087040
22278.242309,3849.070898,-5699.585753,4903.011187
22278.242642,-1776.494261,-7179.997637,0.000000
22278.242975,1184.329507,-11695.253884,3294.210641
22278.243308,1998.556043,-8290.306550,229.828649
22278.243641,-814.226536,-11029.068536,-2145.067394
22278.243974,-74.020594,-9474.636058,-689.485948
22278.244307,-3108.864956,-9622.677246,-4290.134789
22278.244640,222.061783,-7105.977043,-2834.553343
22278.244973,-3627.009116,-8142.265362,-1378.971896
22278.245306,-2368.659014,-5995.668130,-4903.011187
22278.245639,-2368.659014,-10140.821405,842.705048
22278.245972,296.082377,-10584.944971,-2145.067394
22278.246305,4811.338623,-10732.986159,7814.174080
22278.246638,5255.462188,-11103.089130,9729.412825
22278.246971,10584.944971,-8882.471304,4826.401637
22278.247304,3478.967927,-10140.821405,5515.887586
22278.247637,4885.359217,-9770.718434,3983.696590
22278.247970,2886.803174,-11843.295072,-1302.362347
22278.248303,-2886.803174,-8956.491898,-4596.572988
22278.248636,-1258.350101,-9104.533087,-6511.811733
22278.248969,-4959.379811,-10066.800811,-2451.505594
22278.249302,1258.350101,-8068.244768,-536.266849
22278.249635,-5847.626942,-8290.306550,-2834.553343
22278.249968,0.000000,-8956.491898,612.876398
22278.250301,-2294.638420,-7179.997637,4903.011187
22278.250634,3849.070898,-7920.203579,6971.469032
22278.250967,4071.132681,-8882.471304,3600.648841
22278.251300,1998.556043,-10510.924376,2374.896044
22278.251633,2442.679609,-7105.977043,995.924147
22278.251965,1850.514855,-9400.615463,4826.401637
22278.252298,1406.391290,-4811.338623,-3140.991542
22278.252631,-2590.720797,-12731.542202,-5132.839837
22278.252964,-1258.350101,-12435.459826,-4979.620737
22278.253297,-3552.988522,-13101.645173,0.000000
22278.253630,-592.164754,-9696.697840,1149.143247
22278.253963,1110.308913,-9400.615463,0.000000
22278.254296,592.164754,-7772.162391,6128.763984
22278.254629,1406.391290,-5181.441594,2451.505594
22278.254962,2812.782580,-7772.162391,4903.011187
22278.255295,1924.535449,-10288.862594,4366.744339
22278.255628,1406.391290,-7624.121203,1149.143247
22278.255961,-2738.761985,-9548.656652,76.609550
22278.256294,-2220.617826,-7994.224174,-3140.991542
22278.256627,-4219.173869,-9474.636058,-6205.373534
22278.256960,-3552.988522,-7179.997637,-2451.505594
22278.257293,-1480.411884,-9178.553681,-1302.362347
22278.257626,-4737.318029,-10732.986159,-2298.286494
22278.257959,222.061783,-10955.047942,1302.362347
22278.258292,0.000000,-10732.986159,5209.449386
22278.258625,7846.182985,-5329.482782,6052.154434
22278.258958,2960.823768,-11325.150913,4903.011187
22278.259291,6439.791695,-9474.636058,1762.019645
22278.259624,296.082377,-8068.244768,1838.629195
22278.259957,0.000000,-10140.821405,919.314598
22278.260290,2294.638420,-11843.295072,-1915.238745
22278.260623,-4145.153275,-10732.986159,-3370.820191
22278.260956,-3627.009116,-10881.027347,-3447.429741
22278.261289,-3701.029710,-5773.606348,-4290.134789
22278.261622,-2146.597232,-7920.203579,-2451.505594
22278.261955,0.000000,-6587.832884,2757.943793
22278.262288,222.061783,-9178.553681,3370.820191
22278.262621,4663.297435,-6439.791695,3447.429741
22278.262954,2072.576638,-11621.233289,2681.334243
22278.263287,4663.297435,-9474.636058,2374.896044
22278.263620,1184.329507,-10732.986159,2451.505594
22278.263953,3034.844362,-10658.965565,2374.896044
22278.264286,2294.638420,-8290.306550,-7354.516781
22278.264619,-1184.329507,-11473.192101,-2681.334243
22278.264952,2294.638420,-9474.636058,4213.525239
22278.265285,-1702.473667,-3849.070898,-3370.820191
22278.265618,-1184.329507,-9770.718434,229.828649
22278.265951,-1110.308913,-7402.059420,-306.438199
22278.266284,1184.329507,-8364.327145,0.000000
22278.266617,592.164754,-9548.656652,4903.011187
22278.266950,4071.132681,-9474.636058,-76.609550
22278.267283,0.000000,-9548.656652,0.000000
22278.267616,2368.659014,-9992.780217,3907.087040
22278.267949,370.102971,-8956.491898,-3140.991542
22278.268282,888.247130,-9178.553681,842.705048
22278.268615,-5403.503377,-10658.965565,-4060.306139
22278.268948,-1554.432478,-5995.668130,-2911.162892
22278.269281,1332.370696,-9178.553681,1225.752797
22278.269614,0.000000,-5403.503377,2757.943793
22278.269947,-74.020594,-7402.059420,2451.505594
22278.270280,-1628.453072,-8068.244768,2145.067394
22278.270613,2294.638420,-12435.459826,4826.401637
22278.270946,-3552.988522,-9548.656652,-2451.505594
22278.271279,6143.709319,-8882.471304,2681.334243
22278.271612,-666.185348,-13027.624579,1991.848295
22278.271945,4145.153275,-6661.853478,1302.362347
22278.272278,-3627.009116,-10362.883188,-2834.553343
22278.272611,0.000000,-8586.388927,-2068.457845
22278.272945,-5329.482782,-7772.162391,-6128.763984
22278.273278,-2368.659014,-9548.656652,-1532.190996
22278.273611,-2664.741391,-9548.656652,766.095498
22278.273944,-2442.679609,-7105.977043,-1915.238745
22278.274277,1184.329507,-7179.997637,5515.887586
22278.274610,1184.329507,-9326.594869,6971.469032
22278.274943,4367.215058,-8660.409521,2451.505594
22278.275276,592.164754,-9548.656652,3677.258390
22278.275609,2294.638420,-9178.553681,-1838.629195
22278.275942,1776.494261,-9030.512492,4519.963438
22278.276276,2294.638420,-11695.253884,2374.896044
22278.276609,-1850.514855,-5403.503377,-6741.640382
22278.276942,-2368.659014,-7402.059420,-6128.763984
22278.277275,-4589.276840,-11029.068536,-2834.553343
22278.277608,-1776.494261,-7031.956449,-2987.772442
22278.277941,-4441.235652,-14656.077652,229.828649
22278.278274,-2960.823768,-10288.862594,2451.505594
22278.278607,1332.370696,-6513.812290,1225.752797
22278.278940,2812.782580,-9474.636058,8810.098227
22278.279273,1406.391290,-6809.894666,5132.839837
22278.279607,-3478.967927,-9696.697840,2145.067394
22278.279940,-4145.153275,-10732.986159,1532.190996
22278.280273,-5403.503377,-8290.306550,-4979.620737
22278.280606,-5329.482782,-7772.162391,0.000000
22278.280939,-4367.215058,-7698.141797,-842.705048
22278.281272,-5699.585753,-9474.636058,-2528.115143
22278.281605,-8882.471304,-7476.080014,-3524.039291
22278.281938,-7105.977043,-12509.480420,-2987.772442
22278.282271,-6143.709319,-9548.656652,2145.067394
22278.282604,-3997.112087,-10584.944971,5822.325785
22278.282938,-1258.350101,-8882.471304,5745.716235
22278.283271,-7179.997637,-7328.038826,612.876398
22278.283604,-592.164754,-8290.306550,3907.087040
22278.283937,-2442.679609,-9474.636058,2068.457845
22278.284270,-3701.029710,-6735.874072,-383.047749
22278.284603,-8882.471304,-13027.624579,-1302.362347
22278.284936,-11177.109724,-9844.739029,-3753.867940
22278.285269,-8290.306550,-7402.059420,-4903.011187
22278.285602,-7772.162391,-7994.224174,-1225.752797
22278.285935,-3627.009116,-7402.059420,-383.047749
22278.286269,-5995.668130,-6587.832884,0.000000
22278.286602,-3849.070898,-10881.027347,4826.401637
22278.286935,-1258.350101,-11843.295072,6052.154434
22278.287268,-3923.091493,-8956.491898,2757.943793
22278.287601,-3627.009116,-10066.800811,1149.143247
22278.287934,-8438.347739,-11621.233289,459.657299
22278.288267,-10214.842000,-8660.409521,-3830.477490
22278.288600,-10214.842000,-11399.171507,383.047749
22278.288933,-10066.800811,-3034.844362,-2145.067394
22278.289266,-10066.800811,-5699.585753,-4903.011187
22278.289600,-10732.986159,-13027.624579,-2528.115143
22278.289933,-10732.986159,-7994.224174,-2451.505594
22278.290266,-6883.915261,-7179.997637,1225.752797
22278.290599,-5995.668130,-14211.954086,4826.401637
22278.290932,-3775.050304,-8660.409521,4136.915689
22278.291265,-6217.729913,-8364.327145,2834.553343
22278.291598,-5255.462188,-8956.491898,1762.019645
22278.291931,-8290.306550,-10732.986159,-1838.629195
22278.292264,-9474.636058,-12139.377449,-76.609550
22278.292597,-9548.656652,-10510.924376,-1149.143247
22278.292931,-12953.603985,-9326.594869,-3294.210641
22278.293264,-8956.491898,-7105.977043,-1302.362347
22278.293597,-9474.636058,-5921.647536,-1302.362347
22278.293930,-8290.306550,-5403.503377,1532.190996
22278.294263,-7476.080014,-10955.047942,4213.525239
22278.294596,-4219.173869,-9474.636058,2068.457845
22278.294929,-4811.338623,-9474.636058,2681.334243
22278.295262,-4959.379811,-14211.954086,4749.792088
22278.295595,-4737.318029,-8660.409521,1225.752797
22278.295928,-9030.512492,-11621.233289,-2374.896044
22278.296262,-7179.997637,-11843.295072,-2528.115143
22278.296595,-9622.677246,-14211.954086,842.705048
22278.296928,-15988.448347,-7772.162391,612.876398
22278.297261,-9844.739029,-7105.977043,-689.485948
22278.297594,-13693.809927,-5921.647536,-76.609550
22278.297927,-11251.130318,-3034.844362,0.000000
22278.298260,-8660.409521,-7698.141797,2834.553343
22278.298593,-8586.388927,-9622.677246,4060.306139
22278.298926,-7698.141797,-8956.491898,2604.724693
22278.299259,-8956.491898,-12361.439231,995.924147
22278.299592,-8068.244768,-10066.800811,-1302.362347
22278.299926,-9548.656652,-13619.789333,-76.609550
22278.300259,-9548.656652,-9178.553681,-4060.306139
22278.300592,-14211.954086,-11325.150913,-1532.190996
22278.300925,-14063.912898,-10066.800811,-1378.971896
22278.301258,-13989.892304,-7698.141797,-2145.067394
22278.301591,-13545.768739,-7105.977043,229.828649
22278.301924,-9030.512492,-4515.256246,2451.505594
22278.302257,-9178.553681,-5403.503377,4903.011187
22278.302590,-8290.306550,-7179.997637,3370.820191
22278.302923,-7179.997637,-11251.130318,1762.019645
22278.303257,-8290.306550,-10362.883188,-76.609550
22278.303590,-9474.636058,-10140.821405,1225.752797
22278.303923,-7179.997637,-11843.295072,-76.609550
22278.304256,-10732.986159,-11843.295072,-2528.115143
22278.304589,-13841.851115,-9326.594869,-3677.258390
22278.304922,-11991.336260,-9178.553681,-1915.238745
22278.305255,-10807.006753,-5699.585753,0.000000
22278.305588,-9030.512492,-8290.306550,3600.648841
22278.305921,-9548.656652,-5625.565159,-689.485948
22278.306254,-10658.965565,-8956.491898,3907.087040
22278.306588,-4959.379811,-11547.212695,4826.401637
22278.306921,-5995.668130,-10066.800811,2681.334243
22278.307254,-6809.894666,-11843.295072,1532.190996
22278.307587,-8290.306550,-10881.027347,-1225.752797
22278.307920,-7105.977043,-9770.718434,-842.705048
22278.308253,-5329.482782,-9770.718434,1455.581446
22278.308586,-9474.636058,-9548.656652,1455.581446
22278.308919,-11621.233289,-8660.409521,-1608.800546
22278.309252,-11843.295072,-6513.812290,-995.924147
22278.309585,-10140.821405,-7254.018232,-383.047749
22278.309919,-9252.574275,-5995.668130,1225.752797
22278.310252,-9474.636058,-8068.244768,3983.696590
22278.310585,-5699.585753,-8882.471304,842.705048
22278.310918,-7772.162391,-10510.924376,-2298.286494
22278.311251,-7846.182985,-11399.171507,-1838.629195
22278.311584,-7624.121203,-13027.624579,-689.485948
22278.311917,-7105.977043,-11917.315666,459.657299
22278.312250,-5551.544565,-7920.203579,1532.190996
22278.312583,-7179.997637,-6883.915261,919.314598
22278.312916,-5329.482782,-6143.709319,3217.601092
22278.313250,-9474.636058,-7179.997637,2987.772442
22278.313583,-11325.150913,-7772.162391,-3677.258390
22278.313916,-14804.118840,-11325.150913,-4596.572988
22278.314249,-13767.830521,-16284.530724,-76.609550
22278.314582,-12435.459826,-11029.068536,0.000000
22278.314915,-7920.203579,-8512.368333,4060.306139
22278.315248,-4219.173869,-5625.565159,4060.306139
22278.315581,-5329.482782,-5255.462188,4290.134789
22278.315914,-6587.832884,-7105.977043,536.266849
22278.316247,-8734.430116,-7772.162391,0.000000
22278.316581,-11325.150913,-9548.656652,-4903.011187
22278.316914,-12879.583391,-13027.624579,-3907.087040
22278.317247,-15692.365970,-10658.965565,-7354.516781
22278.317580,-16062.468941,-12435.459826,-6511.811733
22278.317913,-17764.942608,-11917.315666,-2451.505594
22278.318246,-14285.974681,-11695.253884,1149.143247
22278.318579,-9992.780217,-9326.594869,7967.393179
22278.318912,-7698.141797,-6291.750507,11031.775171
22278.319245,-3034.844362,-3552.988522,9576.193725
22278.319578,-1184.329507,-3923.091493,8580.269578
22278.319912,-74.020594,-6513.812290,4826.401637
22278.320245,-4441.235652,-5403.503377,-1838.629195
22278.320578,-9326.594869,-9548.656652,-8427.050478
22278.320911,-11547.212695,-14952.160028,-12180.918418
22278.321244,-11917.315666,-15248.242405,-12410.747068
22278.321577,-10288.862594,-14211.954086,-7890.783629
22278.321910,-6587.832884,-13027.624579,-1302.362347
22278.322243,-5921.647536,-7179.997637,3677.258390
22278.322576,2294.638420,-9178.553681,9729.412825
22278.322909,2368.659014,-3627.009116,10418.898773
22278.323243,4145.153275,-5995.668130,14019.547613
22278.323576,3552.988522,-6883.915261,9806.022374
22278.323909,1554.432478,-7550.100608,4826.401637
22278.324242,-74.020594,-9178.553681,-383.047749
22278.324575,-1924.535449,-9992.780217,-4673.182538
22278.324908,-4515.256246,-13027.624579,-6818.249932
22278.325241,-7994.224174,-11917.315666,-7660.954980
22278.325574,-7179.997637,-11251.130318,-6511.811733
22278.325907,-6291.750507,-11547.212695,-2068.457845
22278.326240,-3923.091493,-9918.759623,2987.772442
22278.326574,-666.185348,-9474.636058,9729.412825
22278.326907,-296.082377,-7179.997637,10725.336972
22278.327240,0.000000,-7179.997637,14325.985813
22278.327573,1110.308913,-7698.141797,8580.269578
22278.327906,0.000000,-9548.656652,8886.707777
22278.328239,148.041188,-10955.047942,7277.907231
22278.328572,-3552.988522,-9104.533087,2451.505594
22278.328905,-5329.482782,-9252.574275,-536.266849
22278.329238,-6513.812290,-9548.656652,-612.876398
22278.329571,-6291.750507,-10066.800811,1608.800546
22278.329905,-8290.306550,-9548.656652,4903.011187
22278.330238,-4811.338623,-11843.295072,9729.412825
22278.330571,-3330.926739,-10658.965565,12180.918418
22278.330904,-4145.153275,-8364.327145,17160.539155
22278.331237,1110.308913,-9474.636058,17696.806004
22278.331570,444.123565,-8586.388927,20071.702048
22278.331903,-222.061783,-8734.430116,18769.339701
22278.332236,-1110.308913,-8216.285956,17160.539155
22278.332569,-4145.153275,-6587.832884,12870.404366
22278.332902,-8290.306550,-7179.997637,15321.909960
22278.333236,-4811.338623,-7994.224174,11338.213370
22278.333569,-6513.812290,-5181.441594,12793.794817
22278.333902,-4737.318029,-5995.668130,19305.606550
22278.334235,-1554.432478,-3923.091493,19765.263848
22278.334568,1332.370696,-6217.729913,24591.665486
22278.334901,740.205942,-7031.956449,24515.055936
22278.335234,296.082377,-8956.491898,23289.303139
22278.335567,3478.967927,-10658.965565,24361.836836
22278.335900,1184.329507,-10807.006753,28115.704777
22278.336233,2294.638420,-8586.388927,21220.845295
22278.336567,-1776.494261,-6143.709319,21910.331243
22278.336900,-74.020594,-5921.647536,20761.187996
22278.337233,0.000000,-3034.844362,22140.159892
22278.337566,2442.679609,-2812.782580,19612.044749
22278.337899,2368.659014,-3552.988522,21144.235745
22278.338232,3997.112087,-3404.947333,20148.311597
22278.338565,1998.556043,-5551.544565,18309.682402
22278.338898,3478.967927,-8882.471304,17390.367805
22278.339231,592.164754,-10732.986159,14709.033562
22278.339564,1332.370696,-13915.871710,19535.435199
22278.339898,-1258.350101,-7698.141797,15321.909960
22278.340231,-666.185348,-7254.018232,15551.738609
22278.340564,74.020594,-7031.956449,14862.252661
22278.340897,592.164754,-6069.688724,15092.081311
22278.341230,0.000000,-4367.215058,14096.157163
22278.341563,-2368.659014,-3627.009116,8197.221829
22278.341896,-3330.926739,-9918.759623,6971.469032
22278.342229,-2368.659014,-13323.706956,8503.660028
22278.342562,-1924.535449,-12213.398043,10112.460574
22278.342895,962.267725,-8882.471304,9039.926876
22278.343229,2368.659014,-5699.585753,7048.078582
22278.343562,6439.791695,-11843.295072,11568.042020
22278.343895,1702.473667,-8660.409521,8733.488677
22278.344228,-3552.988522,-7179.997637,4903.011187
22278.344561,-1258.350101,-11843.295072,6052.154434
22278.344894,-2960.823768,-7772.162391,5209.449386
22278.345227,-1554.432478,-7624.121203,7277.907231
22278.345560,-370.102971,-7402.059420,4443.353888
22278.345893,-3849.070898,-10584.944971,2451.505594
22278.346226,-3256.906145,-11399.171507,3524.039291
22278.346560,-1554.432478,-7476.080014,1225.752797
22278.346893,3478.967927,-9104.533087,3677.258390
22278.347226,4441.235652,-11843.295072,7890.783629
22278.347559,962.267725,-11029.068536,3677.258390
22278.347892,2886.803174,-11103.089130,4596.572988
22278.348225,2072.576638,-5255.462188,3600.648841
22278.348558,2516.700203,-5033.400406,842.705048
22278.348891,1406.391290,-6513.812290,229.828649
22278.349224,-2146.597232,-9770.718434,-842.705048
22278.349557,-2368.659014,-9548.656652,3524.039291
22278.349891,-2442.679609,-8290.306550,-76.609550
22278.350224,-74.020594,-9474.636058,-919.314598
22278.350557,1184.329507,-11325.150913,6741.640382
22278.350890,1702.473667,-10881.027347,5209.449386
22278.351223,2368.659014,-9918.759623,3907.087040
22278.351556,1702.473667,-8142.265362,2451.505594
22278.351889,4219.173869,-6735.874072,2068.457845
22278.352222,1776.494261,-8364.327145,2451.505594
22278.352555,4441.235652,-12953.603985,6665.030833
22278.352888,-2146.597232,-12805.562797,1378.971896
22278.353222,-2072.576638,-10807.006753,2451.505594
22278.353555,-74.020594,-13027.624579,4826.401637
