#time,accel_x,accel_y,accel_z
20989.793257,6513.812290,-7179.997637,1915.238745
20989.793590,7698.141797,-8364.327145,4903.011187
20989.793924,10436.903782,-9474.636058,2681.334243
20989.794257,8882.471304,-8956.491898,2145.067394
20989.794591,7254.018232,-10140.821405,-1072.533697
20989.794925,5773.606348,-10510.924376,-3140.991542
20989.795258,5329.482782,-10288.862594,-2374.896044
20989.795592,7476.080014,-10658.965565,-2528.115143
20989.795925,9400.615463,-8882.471304,-3217.601092
20989.796259,9474.636058,-8956.491898,2068.457845
20989.796592,13841.851115,-11251.130318,6052.154434
20989.796926,12065.356855,-7179.997637,3677.258390
20989.797260,14137.933492,-9474.636058,4213.525239
20989.797593,10807.006753,-10066.800811,3524.039291
20989.797927,7254.018232,-10732.986159,919.314598
20989.798260,4663.297435,-10658.965565,-2604.724693
20989.798594,0.000000,-11325.150913,-3064.381992
20989.798927,0.000000,-10140.821405,-3677.258390
20989.799261,2368.659014,-9474.636058,-76.609550
20989.799595,4663.297435,-6217.729913,76.609550
20989.799928,5699.585753,-5107.421000,2451.505594
20989.800262,10584.944971,-5921.647536,3447.429741
20989.800595,11695.253884,-7105.977043,6052.154434
20989.800929,12213.398043,-6661.853478,3830.477490
20989.801262,11473.192101,-9622.677246,383.047749
20989.801596,9474.636058,-8438.347739,-2451.505594
20989.801930,8882.471304,-11621.233289,-3370.820191
20989.802263,9104.533087,-11399.171507,-4443.353888
20989.802597,5477.523971,-13249.686362,-4749.792088
20989.802930,6439.791695,-14211.954086,-2528.115143
20989.803264,6365.771101,-11325.150913,2068.457845
20989.803597,8512.368333,-6735.874072,0.000000
20989.803931,10362.883188,-6735.874072,4903.011187
20989.804265,14137.933492,-7105.977043,7277.907231
20989.804598,14730.098246,-7105.977043,9422.974625
20989.804932,11843.295072,-7328.038826,6971.469032
20989.805265,9918.759623,-8882.471304,2068.457845
20989.805599,5847.626942,-10214.842000,-1378.971896
20989.805932,3404.947333,-10288.862594,-3983.696590
20989.806266,4663.297435,-10066.800811,-4060.306139
20989.806600,1480.411884,-7772.162391,-4903.011187
20989.806933,5329.482782,-9252.574275,-1762.019645
20989.807267,9030.512492,-10658.965565,2374.896044
20989.807600,7550.100608,-5995.668130,0.000000
20989.807934,8216.285956,-8808.450710,-919.314598
20989.808267,7698.141797,-8956.491898,2145.067394
20989.808601,9548.656652,-8882.471304,2068.457845
20989.808935,9622.677246,-9548.656652,3524.039291
20989.809268,6439.791695,-11843.295072,2374.896044
20989.809602,5625.565159,-12657.521608,3677.258390
20989.809935,8216.285956,-11251.130318,3600.648841
20989.810269,7624.121203,-5995.668130,2604.724693
20989.810602,7105.977043,-4811.338623,2451.505594
20989.810936,7031.956449,-5403.503377,0.000000
20989.811270,3849.070898,-7624.121203,-2911.162892
20989.811603,4663.297435,-8586.388927,-4979.620737
20989.811937,3478.967927,-12361.439231,-4519.963438
20989.812270,296.082377,-11917.315666,-7354.516781
20989.812604,814.226536,-15692.365970,-2834.553343
20989.812937,518.144159,-13619.789333,-2528.115143
20989.813271,4145.153275,-8068.244768,3677.258390
20989.813605,11177.109724,-8290.306550,9729.412825
20989.813938,11251.130318,-4811.338623,11568.042020
20989.814272,10140.821405,-4737.318029,8656.879127
20989.814605,7105.977043,-7179.997637,2911.162892
20989.814939,5847.626942,-8734.430116,-536.266849
20989.815272,2664.741391,-9548.656652,-2221.676944
20989.815606,4663.297435,-10658.965565,-7431.126331
20989.815940,0.000000,-11325.150913,-7048.078582
20989.816273,592.164754,-11325.150913,-4290.134789
20989.816607,6439.791695,-14211.954086,-76.609550
20989.816940,4145.153275,-11325.150913,2681.334243
20989.817274,3701.029710,-11177.109724,3064.381992
20989.817607,2738.761985,-11991.336260,6052.154434
20989.817941,3701.029710,-6069.688724,6588.421283
20989.818275,3552.988522,-3034.844362,8580.269578
20989.818608,6735.874072,-4071.132681,6205.373534
20989.818942,2664.741391,-7328.038826,2145.067394
20989.819275,222.061783,-7402.059420,-2374.896044
20989.819609,-2146.597232,-9474.636058,-6818.249932
20989.819942,-3849.070898,-8956.491898,-6741.640382
20989.820276,-814.226536,-11251.130318,-4979.620737
20989.820610,2294.638420,-11251.130318,-4060.306139
20989.820943,1924.535449,-9548.656652,-1072.533697
20989.821277,4663.297435,-13323.706956,2374.896044
20989.821610,5255.462188,-12139.377449,5056.230287
20989.821944,2516.700203,-12805.562797,6128.763984
20989.822277,0.000000,-8882.471304,2681.334243
20989.822611,-2960.823768,-5995.668130,0.000000
20989.822945,148.041188,-3627.009116,1225.752797
20989.823278,5255.462188,-4737.318029,2681.334243
20989.823612,2146.597232,-6513.812290,-76.609550
20989.823945,-1776.494261,-7179.997637,-1838.629195
20989.824279,-2220.617826,-12139.377449,-2528.115143
20989.824612,444.123565,-10658.965565,-1455.581446
20989.824946,2072.576638,-8290.306550,-1991.848295
20989.825280,814.226536,-10214.842000,-1991.848295
20989.825613,4219.173869,-11843.295072,919.314598
20989.825947,0.000000,-10436.903782,2451.505594
20989.826280,2294.638420,-14211.954086,1149.143247
20989.826614,-4145.153275,-12213.398043,1532.190996
20989.826947,-4145.153275,-9548.656652,2374.896044
20989.827281,-1924.535449,-4441.235652,306.438199
20989.827615,1702.473667,-3552.988522,2451.505594
20989.827948,1850.514855,-2812.782580,2528.115143
20989.828282,2368.659014,-4515.256246,2145.067394
20989.828615,2886.803174,-10658.965565,1149.143247
20989.828949,0.000000,-13249.686362,2681.334243
20989.829282,-962.267725,-11251.130318,-3140.991542
20989.829616,0.000000,-8512.368333,-4903.011187
20989.829950,1702.473667,-11843.295072,-76.609550
20989.830283,2294.638420,-10955.047942,-1302.362347
20989.830617,-592.164754,-11843.295072,-1225.752797
20989.830950,-3182.885551,-15100.201217,383.047749
20989.831284,-4367.215058,-10584.944971,0.000000
20989.831617,-4145.153275,-8956.491898,1225.752797
20989.831951,4071.132681,-5921.647536,4826.401637
20989.832285,4885.359217,-74.020594,5515.887586
20989.832618,3552.988522,-1554.432478,7354.516781
20989.832952,7031.956449,-7105.977043,4213.525239
20989.833285,3478.967927,-11547.212695,-76.609550
20989.833619,518.144159,-12361.439231,-2911.162892
20989.833952,-962.267725,-13027.624579,-6358.592633
20989.834286,-2220.617826,-12953.603985,-7354.516781
20989.834619,-4441.235652,-11917.315666,-6741.640382
20989.834953,-2220.617826,-10807.006753,-3753.867940
20989.835287,-4737.318029,-12361.439231,306.438199
20989.835620,-3627.009116,-10732.986159,2145.067394
20989.835954,-3478.967927,-7994.224174,2451.505594
20989.836287,0.000000,-2442.679609,5515.887586
20989.836621,6143.709319,-4145.153275,9729.412825
20989.836954,7031.956449,-1184.329507,6588.421283
20989.837288,5033.400406,-6513.812290,5286.058936
20989.837622,4071.132681,-11843.295072,2068.457845
20989.837955,-2220.617826,-11473.192101,-4290.134789
20989.838289,-2368.659014,-13915.871710,-6205.373534
20989.838622,-5033.400406,-14063.912898,-8197.221829
20989.838956,-5699.585753,-12805.562797,-7737.564530
20989.839289,-2664.741391,-11695.253884,-2145.067394
20989.839623,-74.020594,-12731.542202,1149.143247
20989.839957,-1924.535449,-9178.553681,3600.648841
20989.840290,-3552.988522,-7772.162391,6741.640382
20989.840624,2886.803174,-5181.441594,6358.592633
20989.840957,6513.812290,-1554.432478,11644.651570
20989.841291,8808.450710,-2442.679609,8197.221829
20989.841624,6365.771101,-5329.482782,4979.620737
20989.841958,2812.782580,-8734.430116,-689.485948
20989.842292,-2738.761985,-13619.789333,-6205.373534
20989.842625,-74.020594,-13027.624579,-9882.631924
20989.842959,-4737.318029,-13397.727550,-7354.516781
20989.843292,-2368.659014,-12657.521608,-4903.011187
20989.843626,-74.020594,-12435.459826,-3447.429741
20989.843959,-74.020594,-13027.624579,-229.828649
20989.844293,1110.308913,-11843.295072,4826.401637
20989.844627,1776.494261,-7624.121203,6894.859482
20989.844960,5847.626942,-5773.606348,8273.831378
20989.845294,4737.318029,-2738.761985,7660.954980
20989.845627,7105.977043,-2442.679609,4903.011187
20989.845961,5921.647536,-5921.647536,6665.030833
20989.846294,4367.215058,-8290.306550,-76.609550
20989.846628,-2738.761985,-11325.150913,-7354.516781
20989.846962,-6587.832884,-14211.954086,-9882.631924
20989.847295,-6513.812290,-12731.542202,-10495.508323
20989.847629,-5995.668130,-14656.077652,-6511.811733
20989.847962,-2368.659014,-10807.006753,-2145.067394
20989.848296,-2738.761985,-10362.883188,1762.019645
20989.848629,444.123565,-10140.821405,6511.811733
20989.848963,370.102971,-7105.977043,7431.126331
20989.849297,1184.329507,-3701.029710,6281.983084
20989.849630,4441.235652,-5033.400406,7660.954980
20989.849964,4737.318029,-4811.338623,7737.564530
20989.850297,6439.791695,-3404.947333,2068.457845
20989.850631,1480.411884,-8660.409521,0.000000
20989.850964,-1850.514855,-13619.789333,-3753.867940
20989.851298,-5329.482782,-13397.727550,-8580.269578
20989.851631,-3849.070898,-13249.686362,-8427.050478
20989.851964,-4145.153275,-14137.933492,-6128.763984
20989.852297,-1110.308913,-11843.295072,-2604.724693
20989.852630,1554.432478,-11843.295072,2374.896044
20989.852963,592.164754,-9548.656652,8197.221829
20989.853296,3478.967927,-7698.141797,5822.325785
20989.853629,296.082377,-4959.379811,6741.640382
20989.853962,5921.647536,-4885.359217,8503.660028
20989.854295,6439.791695,-3997.112087,5898.935335
20989.854628,4367.215058,-4737.318029,1762.019645
20989.854961,2146.597232,-8660.409521,-76.609550
20989.855294,-3775.050304,-12657.521608,-5822.325785
20989.855627,-4071.132681,-13323.706956,-7124.688131
20989.855961,-4885.359217,-14359.995275,-6205.373534
20989.856294,-4441.235652,-10732.986159,-8580.269578
20989.856627,0.000000,-12657.521608,2374.896044
20989.856960,3330.926739,-8142.265362,2911.162892
20989.857293,2590.720797,-7179.997637,4903.011187
20989.857626,1998.556043,-9326.594869,7890.783629
20989.857959,1850.514855,-5329.482782,4826.401637
20989.858292,1554.432478,-5403.503377,2987.772442
20989.858625,2368.659014,-4811.338623,1378.971896
20989.858958,3478.967927,-7698.141797,-689.485948
20989.859291,296.082377,-8956.491898,-153.219100
20989.859624,-2368.659014,-11917.315666,-2757.943793
20989.859957,-3627.009116,-15988.448347,-4366.744339
20989.860291,-4737.318029,-13101.645173,-4290.134789
20989.860624,-3330.926739,-11325.150913,-3677.258390
20989.860957,1702.473667,-9474.636058,-689.485948
20989.861290,3034.844362,-7624.121203,3753.867940
20989.861623,3552.988522,-8290.306550,6281.983084
20989.861956,444.123565,-6587.832884,3064.381992
20989.862289,-1184.329507,-9992.780217,5439.278036
20989.862622,-1850.514855,-5995.668130,-1225.752797
20989.862955,-2368.659014,-3627.009116,0.000000
20989.863288,0.000000,-7772.162391,919.314598
20989.863621,1702.473667,-5403.503377,-1532.190996
20989.863954,-888.247130,-10881.027347,-2068.457845
20989.864287,-1480.411884,-13989.892304,-2145.067394
20989.864620,-962.267725,-13545.768739,-1149.143247
20989.864954,-74.020594,-11029.068536,-1838.629195
20989.865287,814.226536,-11547.212695,-383.047749
20989.865620,2886.803174,-7254.018232,1838.629195
20989.865953,3404.947333,-9178.553681,4826.401637
20989.866286,3478.967927,-9474.636058,6665.030833
20989.866619,-1258.350101,-8438.347739,1838.629195
20989.866952,-4145.153275,-7402.059420,2298.286494
20989.867285,-370.102971,-6513.812290,-1608.800546
20989.867618,0.000000,-4219.173869,-1685.410096
20989.867951,0.000000,-5995.668130,689.485948
20989.868284,-962.267725,-9992.780217,-536.266849
20989.868617,-2442.679609,-12731.542202,-995.924147
20989.868950,-3627.009116,-13471.748144,-1608.800546
20989.869284,-1258.350101,-11251.130318,-2528.115143
20989.869617,3478.967927,-8290.306550,-2298.286494
20989.869950,1776.494261,-10140.821405,2604.724693
20989.870283,4663.297435,-11843.295072,3600.648841
20989.870616,-74.020594,-10288.862594,1225.752797
20989.870949,-666.185348,-11251.130318,2374.896044
20989.871282,-3108.864956,-8216.285956,0.000000
20989.871615,666.185348,-7624.121203,0.000000
20989.871948,1258.350101,-5477.523971,383.047749
20989.872281,2960.823768,-4811.338623,1532.190996
20989.872614,4663.297435,-7179.997637,0.000000
20989.872947,3997.112087,-13027.624579,3907.087040
20989.873280,1110.308913,-13619.789333,-689.485948
20989.873614,-666.185348,-11399.171507,-3830.477490
20989.873947,-2368.659014,-10658.965565,-4213.525239
20989.874280,-2812.782580,-11103.089130,-2757.943793
20989.874613,518.144159,-6661.853478,-1302.362347
20989.874946,-74.020594,-10510.924376,1302.362347
20989.875279,1332.370696,-7698.141797,4290.134789
20989.875612,-3552.988522,-6587.832884,1532.190996
20989.875945,-74.020594,-8290.306550,-76.609550
20989.876278,2738.761985,-3627.009116,1225.752797
20989.876611,5551.544565,-7105.977043,4826.401637
20989.876944,7105.977043,-7179.997637,2451.505594
20989.877277,4663.297435,-12731.542202,1455.581446
20989.877610,962.267725,-13175.665768,-306.438199
20989.877943,-592.164754,-11843.295072,-3140.991542
20989.878277,-1850.514855,-13027.624579,-4979.620737
20989.878610,-1184.329507,-13397.727550,-2528.115143
20989.878943,-3182.885551,-8364.327145,-3677.258390
20989.879276,-2886.803174,-6291.750507,0.000000
20989.879609,-666.185348,-11251.130318,1762.019645
20989.879942,-2664.741391,-8142.265362,1225.752797
20989.880275,1998.556043,-4737.318029,4366.744339
20989.880608,4219.173869,-4959.379811,7048.078582
20989.880941,5995.668130,-4367.215058,6205.373534
20989.881274,4367.215058,-6809.894666,2374.896044
20989.881607,2072.576638,-12287.418637,995.924147
20989.881940,-2516.700203,-13767.830521,-3064.381992
20989.882273,-5033.400406,-13323.706956,-5898.935335
20989.882607,-5403.503377,-13397.727550,-7124.688131
20989.882940,-4219.173869,-11843.295072,-4979.620737
20989.883273,-2960.823768,-8660.409521,-1225.752797
20989.883606,1110.308913,-8882.471304,2374.896044
20989.883939,-370.102971,-6735.874072,3677.258390
20989.884272,-2368.659014,-4811.338623,4903.011187
20989.884605,2294.638420,-7105.977043,4826.401637
20989.884938,4737.318029,-5551.544565,5669.106685
20989.885271,6143.709319,-6513.812290,3907.087040
20989.885604,5329.482782,-7920.203579,2911.162892
20989.885937,2886.803174,-8068.244768,-2145.067394
20989.886270,0.000000,-15174.221811,-383.047749
20989.886603,-2442.679609,-16580.613101,-4979.620737
20989.886936,-5107.421000,-11325.150913,-9193.145976
20989.887270,-3552.988522,-14211.954086,-2528.115143
20989.887603,-1628.453072,-6883.915261,-3064.381992
20989.887936,0.000000,-7846.182985,1455.581446
20989.888269,1480.411884,-8586.388927,5056.230287
20989.888602,0.000000,-7846.182985,6435.202183
20989.888935,296.082377,-4219.173869,5515.887586
20989.889268,5847.626942,-8290.306550,6665.030833
20989.889601,2812.782580,-4219.173869,3677.258390
20989.889934,3552.988522,-4811.338623,2757.943793
20989.890267,3775.050304,-9474.636058,-1608.800546
20989.890600,-1776.494261,-13841.851115,-3600.648841
20989.890933,-4515.256246,-14730.098246,-6511.811733
20989.891266,-4663.297435,-14063.912898,-7967.393179
20989.891600,-3182.885551,-13989.892304,-7354.516781
20989.891933,1110.308913,-12287.418637,-383.047749
20989.892266,2294.638420,-9474.636058,1149.143247
20989.892599,3552.988522,-6587.832884,10265.679673
20989.892932,3478.967927,-7105.977043,9116.536426
20989.893265,1110.308913,-3108.864956,4903.011187
20989.893598,1480.411884,-4811.338623,6818.249932
20989.893931,3627.009116,-4071.132681,1991.848295
20989.894264,4071.132681,-4885.359217,689.485948
20989.894597,1110.308913,-7624.121203,-2757.943793
20989.894930,-1850.514855,-13619.789333,-4366.744339
20989.895263,-7031.956449,-14730.098246,-7584.345430
20989.895596,-6439.791695,-14508.036463,-8886.707777
20989.895929,-4737.318029,-13323.706956,-6588.421283
20989.896263,-2368.659014,-8364.327145,-3677.258390
20989.896596,148.041188,-7772.162391,3064.381992
20989.896929,5107.421000,-8290.306550,9729.412825
20989.897262,5255.462188,-5921.647536,8503.660028
20989.897595,2368.659014,-6883.915261,11031.775171
20989.897928,4367.215058,-3552.988522,6665.030833
20989.898261,2368.659014,-5403.503377,3217.601092
20989.898594,1406.391290,-5181.441594,-1685.410096
20989.898927,-444.123565,-8956.491898,-3983.696590
20989.899260,-3552.988522,-12361.439231,-4596.572988
20989.899593,-4811.338623,-14211.954086,-7354.516781
20989.899926,-5403.503377,-16580.613101,-6205.373534
20989.900259,-5995.668130,-12583.501014,-8350.440928
20989.900593,-3330.926739,-10732.986159,-1838.629195
20989.900926,3552.988522,-5107.421000,3983.696590
20989.901259,4145.153275,-8438.347739,6971.469032
20989.901592,6069.688724,-7105.977043,9882.631924
20989.901925,1628.453072,-7254.018232,6971.469032
20989.902258,2590.720797,-7698.141797,3600.648841
20989.902591,0.000000,-5403.503377,0.000000
20989.902924,1998.556043,-8290.306550,-3140.991542
20989.903257,592.164754,-6587.832884,-1685.410096
20989.903590,518.144159,-11843.295072,-3140.991542
20989.903923,-2442.679609,-15988.448347,-4979.620737
20989.904256,-3627.009116,-15396.283594,-4979.620737
20989.904589,-1184.329507,-13471.748144,-2451.505594
20989.904922,296.082377,-10140.821405,0.000000
20989.905256,2516.700203,-9178.553681,2911.162892
20989.905589,5625.565159,-6883.915261,7890.783629
20989.905922,888.247130,-5995.668130,6128.763984
20989.906255,1480.411884,-5995.668130,7660.954980
20989.906588,-1258.350101,-7698.141797,383.047749
20989.906921,0.000000,-4219.173869,-1532.190996
20989.907254,1110.308913,-7105.977043,-689.485948
20989.907587,2664.741391,-5255.462188,-1608.800546
20989.907920,1258.350101,-8956.491898,-2451.505594
20989.908253,296.082377,-13915.871710,-2834.553343
20989.908586,-74.020594,-16580.613101,-2528.115143
20989.908919,-4737.318029,-13101.645173,-1149.143247
20989.909252,-74.020594,-11547.212695,-2911.162892
20989.909586,1110.308913,-7179.997637,0.000000
20989.909919,1480.411884,-4811.338623,3983.696590
20989.910252,4071.132681,-6809.894666,5132.839837
20989.910585,148.041188,-6809.894666,5362.668486
20989.910918,-2146.597232,-6291.750507,766.095498
20989.911251,-2368.659014,-7772.162391,459.657299
20989.911584,3478.967927,-5625.565159,-1302.362347
20989.911917,2072.576638,-8586.388927,-76.609550
20989.912250,3256.906145,-8216.285956,-919.314598
20989.912583,1184.329507,-12657.521608,-536.266849
20989.912916,-2072.576638,-14878.139434,-2145.067394
20989.913249,-74.020594,-15100.201217,-3140.991542
20989.913582,-2738.761985,-10807.006753,-4673.182538
20989.913915,0.000000,-9548.656652,766.095498
20989.914249,962.267725,-8290.306550,536.266849
20989.914582,518.144159,-4811.338623,1225.752797
20989.914915,-1258.350101,-8882.471304,4366.744339
20989.915248,-3256.906145,-6661.853478,2757.943793
20989.915581,-2960.823768,-6069.688724,1072.533697
20989.915914,-74.020594,-7105.977043,1762.019645
20989.916247,4071.132681,-5921.647536,536.266849
20989.916580,1776.494261,-6291.750507,3064.381992
20989.916913,2368.659014,-9548.656652,2298.286494
20989.917246,1110.308913,-14211.954086,-1915.238745
20989.917579,0.000000,-12509.480420,-2145.067394
20989.917912,-1850.514855,-12657.521608,-5056.230287
20989.918245,-370.102971,-13027.624579,-4213.525239
20989.918579,-592.164754,-11029.068536,-2145.067394
20989.918912,518.144159,-9030.512492,2068.457845
20989.919245,2886.803174,-7105.977043,2987.772442
20989.919578,-3552.988522,-9252.574275,6665.030833
20989.919911,-1258.350101,-3552.988522,1149.143247
20989.920244,-74.020594,-5329.482782,1378.971896
20989.920577,7031.956449,-3849.070898,6052.154434
20989.920910,5329.482782,-5551.544565,4290.134789
20989.921243,3997.112087,-8438.347739,459.657299
20989.921576,2294.638420,-12213.398043,-1608.800546
20989.921909,-4589.276840,-14285.974681,-6741.640382
20989.922242,-1258.350101,-12583.501014,-8120.612279
20989.922575,-4737.318029,-16062.468941,-4979.620737
20989.922908,-1258.350101,-11843.295072,-5592.497135
20989.923242,-2368.659014,-7772.162391,-2298.286494
20989.923575,1184.329507,-7772.162391,3907.087040
20989.923908,592.164754,-6365.771101,6435.202183
20989.924241,-444.123565,-5773.606348,6665.030833
20989.924574,2072.576638,-3627.009116,5515.887586
20989.924907,5255.462188,-5773.606348,7814.174080
20989.925240,4737.318029,-3034.844362,4903.011187
20989.925573,5551.544565,-8882.471304,2374.896044
20989.925906,3182.885551,-10658.965565,-1762.019645
20989.926239,-4737.318029,-14582.057057,-3217.601092
20989.926572,-7105.977043,-13693.809927,-10189.070123
20989.926905,-7105.977043,-14804.118840,-10189.070123
20989.927238,-6809.894666,-12583.501014,-7354.516781
20989.927572,-1554.432478,-8438.347739,-1378.971896
20989.927905,1406.391290,-7402.059420,4826.401637
20989.928238,296.082377,-7476.080014,8044.002729
20989.928571,1776.494261,-4885.359217,8044.002729
20989.928904,4589.276840,-4737.318029,9116.536426
20989.929237,6069.688724,-4589.276840,7737.564530
20989.929570,6365.771101,-6587.832884,4903.011187
20989.929903,4737.318029,-4811.338623,0.000000
20989.930236,2368.659014,-13323.706956,-383.047749
20989.930569,-3330.926739,-14285.974681,-7967.393179
20989.930902,-6587.832884,-15322.262999,-10955.165621
20989.931235,-7105.977043,-17172.777854,-8963.317327
20989.931568,-4959.379811,-11251.130318,-6511.811733
20989.931901,-4145.153275,-9622.677246,-2757.943793
20989.932235,518.144159,-6809.894666,3753.867940
20989.932568,3478.967927,-8882.471304,8503.660028
20989.932901,1184.329507,-2442.679609,11644.651570
20989.933234,3478.967927,-5921.647536,8503.660028
20989.933567,2960.823768,-3627.009116,6435.202183
20989.933900,5625.565159,-5699.585753,3370.820191
20989.934233,4367.215058,-6809.894666,-766.095498
20989.934566,1924.535449,-11177.109724,-4290.134789
20989.934899,-2220.617826,-14656.077652,-7048.078582
20989.935232,-3849.070898,-15470.304188,-7660.954980
20989.935565,-6587.832884,-12213.398043,-10801.946522
20989.935898,-4737.318029,-13693.809927,-4596.572988
20989.936231,-2442.679609,-11547.212695,-4213.525239
20989.936565,1702.473667,-7624.121203,1225.752797
20989.936898,5625.565159,-7105.977043,12793.794817
20989.937231,2886.803174,-3627.009116,9806.022374
20989.937564,3849.070898,-3330.926739,8580.269578
20989.937897,5847.626942,-4219.173869,7890.783629
20989.938230,6365.771101,-4515.256246,3983.696590
20989.938563,4737.318029,-7179.997637,0.000000
20989.938896,4441.235652,-10584.944971,-1608.800546
20989.939229,-370.102971,-15248.242405,-7277.907231
20989.939562,-3849.070898,-13175.665768,-9882.631924
20989.939895,-3478.967927,-15988.448347,-6588.421283
20989.940228,-4663.297435,-15174.221811,-7201.297681
20989.940561,1110.308913,-11547.212695,-1302.362347
20989.940894,2590.720797,-9400.615463,3753.867940
20989.941228,4589.276840,-5699.585753,7814.174080
20989.941561,2960.823768,-6587.832884,9806.022374
20989.941894,3775.050304,-2590.720797,9422.974625
20989.942227,3256.906145,-4293.194464,8044.002729
20989.942560,2812.782580,-4589.276840,3677.258390
20989.942893,2294.638420,-5921.647536,-383.047749
20989.943226,-2146.597232,-9178.553681,-6741.640382
20989.943559,-2960.823768,-11473.192101,-6511.811733
20989.943892,-5107.421000,-18357.107362,-5592.497135
20989.944225,-5107.421000,-15988.448347,-8273.831378
20989.944558,-4515.256246,-14508.036463,-4979.620737
20989.944891,-3034.844362,-12805.562797,-2451.505594
20989.945224,2368.659014,-6809.894666,2604.724693
20989.945558,4219.173869,-7550.100608,8120.612279
20989.945891,2368.659014,-3923.091493,9959.241474
20989.946224,-74.020594,-7179.997637,5515.887586
20989.946557,592.164754,-5921.647536,4826.401637
20989.946890,-74.020594,-4811.338623,0.000000
20989.947223,-1628.453072,-5107.421000,0.000000
20989.947556,-370.102971,-6217.729913,-2987.772442
20989.947889,-3256.906145,-10732.986159,-4290.134789
20989.948222,-3627.009116,-15322.262999,-5898.935335
20989.948555,-3775.050304,-15174.221811,-3830.477490
20989.948888,-592.164754,-13249.686362,-2298.286494
20989.949221,-666.185348,-11177.109724,-3677.258390
20989.949554,4515.256246,-11251.130318,4826.401637
20989.949887,2294.638420,-6513.812290,3907.087040
20989.950221,1480.411884,-7920.203579,7967.393179
20989.950554,-148.041188,-4663.297435,4596.572988
20989.950887,-1480.411884,-5403.503377,3447.429741
20989.951220,0.000000,-4293.194464,1149.143247
20989.951553,1628.453072,-4293.194464,-842.705048
20989.951886,1110.308913,-7105.977043,-1915.238745
20989.952219,0.000000,-10140.821405,-1225.752797
20989.952552,2294.638420,-13027.624579,-1302.362347
20989.952885,-74.020594,-15988.448347,-2528.115143
20989.953218,-2368.659014,-13397.727550,-3983.696590
20989.953551,1258.350101,-14211.954086,-842.705048
20989.953884,2590.720797,-10658.965565,536.266849
20989.954217,2960.823768,-7476.080014,3370.820191
20989.954550,2516.700203,-7624.121203,4749.792088
20989.954883,814.226536,-7031.956449,3753.867940
20989.955216,-888.247130,-9326.594869,4826.401637
20989.955549,-518.144159,-3034.844362,0.000000
20989.955882,3182.885551,-3034.844362,-2068.457845
20989.956215,2368.659014,-6587.832884,1762.019645
20989.956548,7031.956449,-9474.636058,1149.143247
20989.956881,1998.556043,-10881.027347,-2451.505594
20989.957214,-592.164754,-15248.242405,-1608.800546
20989.957547,-666.185348,-14063.912898,-3140.991542
20989.957880,-1554.432478,-13027.624579,-4213.525239
20989.958213,1702.473667,-11843.295072,-1915.238745
20989.958546,-1480.411884,-8956.491898,-536.266849
20989.958879,-222.061783,-8512.368333,1149.143247
20989.959212,-3330.926739,-8438.347739,3217.601092
20989.959545,-5625.565159,-5403.503377,1225.752797
20989.959878,-1258.350101,-5329.482782,1762.019645
20989.960211,0.000000,-2442.679609,1225.752797
20989.960544,1776.494261,-5403.503377,5362.668486
20989.960877,2442.679609,-8142.265362,3830.477490
20989.961210,2886.803174,-7772.162391,0.000000
20989.961543,1924.535449,-13915.871710,1455.581446
20989.961876,-666.185348,-12065.356855,-3753.867940
20989.962209,-888.247130,-13767.830521,-4826.401637
20989.962542,-4737.318029,-14582.057057,-6894.859482
20989.962875,-74.020594,-11547.212695,-3753.867940
20989.963208,-4145.153275,-9548.656652,0.000000
20989.963541,0.000000,-7179.997637,5515.887586
20989.963874,-1036.288319,-7105.977043,4826.401637
20989.964207,-1776.494261,-3627.009116,3677.258390
20989.964540,5995.668130,-2738.761985,4903.011187
20989.964873,7772.162391,-3775.050304,6665.030833
20989.965206,9474.636058,-5995.668130,5056.230287
20989.965539,6883.915261,-13027.624579,3600.648841
20989.965872,6735.874072,-13027.624579,-1302.362347
20989.966205,-2960.823768,-15470.304188,-2604.724693
20989.966538,296.082377,-13915.871710,-5592.497135
20989.966870,-666.185348,-15100.201217,-8197.221829
20989.967203,-2442.679609,-12657.521608,-2834.553343
20989.967536,1184.329507,-6217.729913,-1072.533697
20989.967869,-1036.288319,-10362.883188,3447.429741
20989.968202,0.000000,-5847.626942,4979.620737
20989.968535,-1776.494261,-2442.679609,4903.011187
20989.968868,5551.544565,-1776.494261,4596.572988
20989.969201,2368.659014,-4811.338623,7354.516781
20989.969534,5551.544565,-8290.306550,3600.648841
20989.969867,2294.638420,-9474.636058,-689.485948
20989.970200,-2812.782580,-12435.459826,-3753.867940
20989.970533,-4293.194464,-14878.139434,-5822.325785
20989.970866,-5699.585753,-14063.912898,-7201.297681
20989.971199,-5107.421000,-13915.871710,-7277.907231
20989.971532,-5329.482782,-12361.439231,-4596.572988
20989.971865,-4589.276840,-7772.162391,-1532.190996
20989.972198,-74.020594,-9178.553681,4826.401637
20989.972531,1702.473667,-5181.441594,6588.421283
20989.972864,1184.329507,-6217.729913,9729.412825
20989.973197,2294.638420,-2960.823768,5745.716235
20989.973530,1924.535449,-6957.935855,4826.401637
20989.973863,3923.091493,-2886.803174,1915.238745
20989.974196,1702.473667,-9474.636058,536.266849
20989.974529,-1184.329507,-12657.521608,-3677.258390
20989.974862,-5107.421000,-14211.954086,-6818.249932
20989.975195,-7624.121203,-15840.407159,-8963.317327
20989.975528,-3775.050304,-11843.295072,-6665.030833
20989.975861,-3034.844362,-11177.109724,-3753.867940
20989.976194,592.164754,-8364.327145,306.438199
20989.976527,2294.638420,-6513.812290,3600.648841
20989.976860,1776.494261,-5551.544565,8886.707777
20989.977193,4071.132681,-5329.482782,8503.660028
20989.977526,4367.215058,-5625.565159,5745.716235
20989.977859,6513.812290,-5921.647536,6358.592633
20989.978192,4293.194464,-5995.668130,2298.286494
20989.978525,2812.782580,-8438.347739,-1532.190996
20989.978858,-1480.411884,-12139.377449,-4979.620737
20989.979191,-370.102971,-16580.613101,-4979.620737
20989.979524,-6217.729913,-12509.480420,-7354.516781
20989.979857,-4737.318029,-14285.974681,-4673.182538
20989.980190,-1332.370696,-12879.583391,-4060.306139
20989.980522,0.000000,-7772.162391,2451.505594
20989.980855,4663.297435,-6513.812290,6665.030833
20989.981188,3997.112087,-4589.276840,8503.660028
20989.981521,2368.659014,-6217.729913,8120.612279
20989.981854,3108.864956,-3627.009116,5362.668486
20989.982187,3923.091493,-5921.647536,2681.334243
20989.982520,0.000000,-5995.668130,612.876398
20989.982853,1702.473667,-9474.636058,-4979.620737
20989.983186,-1850.514855,-12435.459826,-9193.145976
20989.983519,-2368.659014,-15470.304188,-4903.011187
20989.983852,-5107.421000,-14359.995275,-7660.954980
20989.984185,-3256.906145,-13767.830521,-4443.353888
20989.984518,0.000000,-10510.924376,-612.876398
20989.984851,3256.906145,-7846.182985,3983.696590
20989.985184,5921.647536,-3627.009116,5515.887586
20989.985517,3552.988522,-8660.409521,11874.480219
20989.985850,2886.803174,-6365.771101,5209.449386
20989.986183,-2072.576638,-6587.832884,3677.258390
20989.986516,1036.288319,-8290.306550,2987.772442
20989.986849,1406.391290,-4811.338623,-3370.820191
20989.987182,-2294.638420,-10510.924376,-2987.772442
20989.987515,0.000000,-8290.306550,-4673.182538
20989.987848,-6217.729913,-16802.674883,-4596.572988
20989.988181,-4737.318029,-11029.068536,-6128.763984
20989.988514,-3256.906145,-13249.686362,-1762.019645
20989.988847,-1184.329507,-9474.636058,306.438199
20989.989180,3775.050304,-6217.729913,2528.115143
20989.989513,4663.297435,-7994.224174,6052.154434
20989.989846,7031.956449,-4071.132681,5515.887586
20989.990179,0.000000,-6883.915261,7277.907231
20989.990512,2294.638420,-8290.306550,2374.896044
20989.990845,-2738.761985,-7031.956449,-3983.696590
20989.991178,1110.308913,-8586.388927,-1838.629195
20989.991511,1998.556043,-8586.388927,-4213.525239
20989.991844,1850.514855,-10658.965565,-2987.772442
20989.992177,2442.679609,-13545.768739,-1225.752797
20989.992510,-1110.308913,-13101.645173,0.000000
20989.992843,2294.638420,-11029.068536,-3753.867940
20989.993176,0.000000,-12657.521608,2068.457845
20989.993509,4071.132681,-8290.306550,229.828649
20989.993842,3330.926739,-6809.894666,1991.848295
20989.994174,4515.256246,-6513.812290,4826.401637
20989.994507,592.164754,-7179.997637,3677.258390
20989.994840,-2738.761985,-8956.491898,1915.238745
20989.995173,-2664.741391,-6291.750507,-1378.971896
20989.995506,-1184.329507,-8364.327145,-2451.505594
20989.995839,1702.473667,-7105.977043,-3370.820191
20989.996172,1776.494261,-9844.739029,2374.896044
20989.996505,2886.803174,-11843.295072,536.266849
20989.996838,-1184.329507,-11917.315666,-612.876398
20989.997171,-2960.823768,-12509.480420,-1532.190996
20989.997504,-888.247130,-10881.027347,-689.485948
20989.997837,-74.020594,-9030.512492,-383.047749
20989.998170,222.061783,-8142.265362,306.438199
20989.998503,2294.638420,-7105.977043,2374.896044
20989.998836,-3256.906145,-6587.832884,2451.505594
20989.999169,-666.185348,-7698.141797,1149.143247
20989.999502,-5107.421000,-7179.997637,0.000000
20989.999835,-1036.288319,-6809.894666,-689.485948
20990.000168,2294.638420,-9474.636058,1455.581446
20990.000501,2072.576638,-7105.977043,1762.019645
20990.000834,4293.194464,-7920.203579,2451.505594
20990.001167,-592.164754,-12509.480420,153.219100
20990.001500,1776.494261,-10881.027347,-76.609550
20990.001833,-3256.906145,-13397.727550,-76.609550
20990.002166,-370.102971,-9548.656652,-4903.011187
20990.002499,0.000000,-10066.800811,-153.219100
20990.002832,-74.020594,-9474.636058,-689.485948
20990.003165,1110.308913,-7698.141797,2987.772442
20990.003498,-2368.659014,-9178.553681,3447.429741
20990.003831,-2368.659014,-6735.874072,1532.190996
20990.004164,-592.164754,-5403.503377,1149.143247
20990.004497,4219.173869,-5921.647536,3294.210641
20990.004830,4145.153275,-7624.121203,4060.306139
20990.005163,3849.070898,-8068.244768,1991.848295
20990.005496,2072.576638,-11473.192101,459.657299
20990.005829,-962.267725,-13175.665768,-2145.067394
20990.006162,-2442.679609,-11547.212695,-5898.935335
20990.006495,-4145.153275,-13471.748144,-4979.620737
20990.006828,-148.041188,-11029.068536,-1302.362347
20990.007161,-1258.350101,-7624.121203,-1838.629195
20990.007494,592.164754,-7772.162391,3294.210641
20990.007826,-74.020594,-8882.471304,3600.648841
20990.008159,-888.247130,-5995.668130,3830.477490
20990.008492,2886.803174,-5773.606348,4519.963438
20990.008825,6069.688724,-7105.977043,6511.811733
20990.009158,3849.070898,-4811.338623,3064.381992
20990.009491,2368.659014,-8364.327145,2834.553343
20990.009824,1110.308913,-10955.047942,-3983.696590
20990.010157,-2294.638420,-10732.986159,-4290.134789
20990.010490,-4145.153275,-14285.974681,-5898.935335
20990.010823,-4219.173869,-11547.212695,-8886.707777
20990.011156,-4811.338623,-13175.665768,-5286.058936
20990.011489,-1184.329507,-8364.327145,-1378.971896
20990.011822,0.000000,-7179.997637,3294.210641
20990.012155,-74.020594,-8068.244768,5822.325785
20990.012488,296.082377,-9252.574275,11568.042020
20990.012821,1998.556043,-1554.432478,5515.887586
20990.013154,4737.318029,-5403.503377,6128.763984
20990.013487,5921.647536,-7105.977043,6358.592633
20990.013820,4737.318029,-5995.668130,2757.943793
20990.014153,2146.597232,-10288.862594,-2145.067394
20990.014486,-962.267725,-15396.283594,-5056.230287
20990.014819,-6217.729913,-14434.015869,-10035.851024
20990.015152,-4811.338623,-14211.954086,-9269.755526
20990.015485,-3034.844362,-13027.624579,-6205.373534
20990.015818,-74.020594,-8660.409521,-2757.943793
20990.016151,1184.329507,-8068.244768,5745.716235
20990.016484,4071.132681,-8882.471304,9729.412825
20990.016817,4663.297435,-3552.988522,11568.042020
20990.017150,2294.638420,-4145.153275,7737.564530
20990.017483,6513.812290,-3478.967927,4826.401637
20990.017816,4145.153275,-7624.121203,3830.477490
20990.018149,4145.153275,-5403.503377,-1532.190996
20990.018482,4663.297435,-10807.006753,-4903.011187
20990.018815,0.000000,-14285.974681,-7354.516781
20990.019148,-1332.370696,-17764.942608,-6818.249932
20990.019481,-5181.441594,-13693.809927,-10725.336972
20990.019814,-2146.597232,-15248.242405,-6511.811733
20990.020147,-2590.720797,-11917.315666,-2221.676944
20990.020480,3552.988522,-6661.853478,4903.011187
20990.020813,4885.359217,-5107.421000,11031.775171
20990.021145,2368.659014,-4219.173869,10112.460574
20990.021478,2886.803174,-2886.803174,7507.735880
20990.021811,4441.235652,-4515.256246,7660.954980
20990.022144,3775.050304,-4737.318029,2834.553343
20990.022477,888.247130,-7624.121203,-1991.848295
20990.022810,-4589.276840,-9548.656652,-8197.221829
20990.023143,-3034.844362,-17764.942608,-8044.002729
20990.023476,-8882.471304,-14878.139434,-9499.584175
20990.023809,-4219.173869,-15100.201217,-7354.516781
20990.024142,-4811.338623,-15840.407159,-4060.306139
20990.024475,-3182.885551,-9992.780217,306.438199
20990.024808,888.247130,-5847.626942,5515.887586
20990.025141,2664.741391,-5773.606348,9729.412825
20990.025474,2812.782580,-3108.864956,11031.775171
20990.025807,0.000000,-6291.750507,7354.516781
20990.026140,1110.308913,-2738.761985,3370.820191
20990.026473,-3256.906145,-4811.338623,0.000000
20990.026806,2146.597232,-7994.224174,-1915.238745
20990.027139,-666.185348,-10658.965565,-6511.811733
20990.027472,-1776.494261,-13767.830521,-5592.497135
20990.027805,-5995.668130,-15174.221811,-7354.516781
20990.028138,-5551.544565,-15248.242405,-7431.126331
20990.028471,-2516.700203,-12731.542202,-3217.601092
20990.028804,962.267725,-12435.459826,1762.019645
20990.029137,5847.626942,-4811.338623,2757.943793
20990.029470,3849.070898,-6587.832884,7354.516781
20990.029803,6439.791695,-7105.977043,8810.098227
20990.030136,0.000000,-2442.679609,7354.516781
20990.030469,3330.926739,-5921.647536,3600.648841
20990.030802,2886.803174,-5847.626942,1685.410096
20990.031135,1702.473667,-7328.038826,-1072.533697
20990.031468,1924.535449,-8216.285956,-5286.058936
20990.031801,-1850.514855,-13619.789333,-6205.373534
20990.032134,-3108.864956,-12509.480420,-7048.078582
20990.032467,-962.267725,-16580.613101,-3753.867940
20990.032800,-74.020594,-14211.954086,-3753.867940
20990.033133,-2072.576638,-9548.656652,-2451.505594
20990.033466,4663.297435,-7698.141797,2374.896044
20990.033799,4367.215058,-6217.729913,7124.688131
20990.034132,4515.256246,-5033.400406,7814.174080
20990.034465,1110.308913,-6365.771101,5209.449386
20990.034797,-222.061783,-7105.977043,3294.210641
20990.035130,296.082377,-6587.832884,-383.047749
20990.035463,740.205942,-8216.285956,-2068.457845
20990.035796,444.123565,-7920.203579,-3907.087040
20990.036129,1184.329507,-12509.480420,-2528.115143
20990.036462,814.226536,-15396.283594,-2528.115143
20990.036795,-1406.391290,-13175.665768,-3677.258390
20990.037128,-2886.803174,-11325.150913,-4903.011187
20990.037461,1776.494261,-12435.459826,-76.609550
20990.037794,1332.370696,-8364.327145,919.314598
20990.038127,3404.947333,-6217.729913,4519.963438
20990.038460,518.144159,-6365.771101,4749.792088
20990.038793,-3775.050304,-7550.100608,2528.115143
20990.039126,-3627.009116,-7698.141797,2374.896044
20990.039459,-3627.009116,-7105.977043,-76.609550
20990.039792,-2960.823768,-4811.338623,0.000000
20990.040125,888.247130,-6365.771101,0.000000
20990.040458,2664.741391,-9474.636058,1149.143247
20990.040791,2294.638420,-10881.027347,1149.143247
20990.041124,-74.020594,-13915.871710,-1532.190996
20990.041457,296.082377,-13101.645173,-2528.115143
20990.041790,-814.226536,-13915.871710,-2221.676944
20990.042123,-666.185348,-9104.533087,-3217.601092
20990.042456,3478.967927,-9474.636058,1149.143247
20990.042789,0.000000,-5995.668130,3064.381992
20990.043122,-148.041188,-9474.636058,4826.401637
20990.043455,-2738.761985,-4145.153275,1608.800546
20990.043788,-1110.308913,-5033.400406,2374.896044
20990.044121,2368.659014,-4959.379811,2911.162892
20990.044454,4737.318029,-4515.256246,4060.306139
20990.044787,4367.215058,-7105.977043,1302.362347
20990.045120,3849.070898,-8660.409521,0.000000
20990.045453,3478.967927,-14804.118840,-2987.772442
20990.045786,888.247130,-14211.954086,-1838.629195
20990.046119,-74.020594,-15396.283594,-4979.620737
20990.046452,-3552.988522,-13101.645173,-7967.393179
20990.046785,0.000000,-11325.150913,-3064.381992
20990.047118,962.267725,-10362.883188,1915.238745
20990.047451,666.185348,-8586.388927,4596.572988
20990.047784,-2368.659014,-5551.544565,3907.087040
20990.048117,-74.020594,-5625.565159,4826.401637
20990.048449,2368.659014,-2442.679609,6741.640382
20990.048782,8808.450710,-6513.812290,7277.907231
20990.049115,4811.338623,-2738.761985,1608.800546
20990.049448,1184.329507,-10732.986159,2451.505594
20990.049781,1184.329507,-11621.233289,-2451.505594
20990.050114,-3552.988522,-14656.077652,-6205.373534
20990.050447,-3997.112087,-15322.262999,-8810.098227
20990.050780,-5995.668130,-15618.345376,-10955.165621
20990.051113,-3627.009116,-15692.365970,-4979.620737
20990.051446,-2368.659014,-8364.327145,1225.752797
20990.051779,-370.102971,-8216.285956,5515.887586
20990.052112,-1184.329507,-3923.091493,7431.126331
20990.052445,-370.102971,-4293.194464,7507.735880
20990.052778,5847.626942,-2960.823768,10955.165621
20990.053111,3701.029710,-2442.679609,7967.393179
20990.053444,3552.988522,-6291.750507,7277.907231
20990.053777,2886.803174,-6735.874072,-2451.505594
20990.054110,-2072.576638,-12657.521608,-4136.915689
20990.054445,-4441.235652,-16136.489536,-7431.126331
20990.054778,-7476.080014,-14582.057057,-11797.870669
20990.055111,-6957.935855,-16136.489536,-9959.241474
20990.055444,-4959.379811,-13693.809927,-5669.106685
20990.055777,-74.020594,-9474.636058,536.266849
20990.056110,0.000000,-6291.750507,6128.763984
20990.056443,2812.782580,-4219.173869,9806.022374
20990.056776,5255.462188,-3552.988522,10955.165621
20990.057110,3701.029710,-2442.679609,7660.954980
20990.057443,3552.988522,-3627.009116,6741.640382
20990.057776,5847.626942,-6513.812290,4060.306139
20990.058109,3478.967927,-8734.430116,-1455.581446
20990.058442,74.020594,-12731.542202,-4903.011187
20990.058775,-6661.853478,-14730.098246,-9806.022374
20990.059108,-7772.162391,-11917.315666,-12257.527968
20990.059441,-4589.276840,-15396.283594,-9269.755526
20990.059774,-2442.679609,-15396.283594,-4979.620737
20990.060107,-2960.823768,-8364.327145,0.000000
20990.060440,3478.967927,-7105.977043,5439.278036
20990.060773,3552.988522,-5329.482782,11108.384721
20990.061106,3997.112087,-1776.494261,9346.365076
20990.061439,4737.318029,-3923.091493,9729.412825
20990.061772,6661.853478,-2590.720797,5669.106685
20990.062105,5921.647536,-8512.368333,4826.401637
20990.062438,5847.626942,-9474.636058,-3140.991542
20990.062771,-1036.288319,-12213.398043,-6741.640382
20990.063104,-5921.647536,-16654.633695,-6818.249932
20990.063437,-3034.844362,-14804.118840,-10725.336972
20990.063770,-4441.235652,-15100.201217,-8656.879127
20990.064103,-1628.453072,-14434.015869,-3753.867940
20990.064436,2368.659014,-9992.780217,2145.067394
20990.064769,4737.318029,-7179.997637,8580.269578
20990.065102,4145.153275,-4737.318029,11108.384721
20990.065435,1110.308913,-3478.967927,8963.317327
20990.065769,1702.473667,-2368.659014,6358.592633
20990.066102,2886.803174,-4737.318029,3600.648841
20990.066435,2368.659014,-5921.647536,229.828649
20990.066768,0.000000,-5995.668130,-2145.067394
20990.067101,-666.185348,-13027.624579,-6511.811733
20990.067434,-2738.761985,-14211.954086,-8273.831378
20990.067767,-4811.338623,-17024.736666,-8197.221829
20990.068100,-3627.009116,-15692.365970,-7431.126331
20990.068433,-2664.741391,-12065.356855,-3217.601092
20990.068766,1924.535449,-10510.924376,1302.362347
20990.069099,5773.606348,-7254.018232,8427.050478
20990.069432,7624.121203,-7105.977043,13100.233016
20990.069765,1184.329507,-3034.844362,12410.747068
20990.070098,1998.556043,-5921.647536,6665.030833
20990.070431,0.000000,-2442.679609,612.876398
20990.070764,-888.247130,-5403.503377,-229.828649
20990.071097,-74.020594,-6513.812290,-3064.381992
20990.071430,-370.102971,-8586.388927,-4979.620737
20990.071763,-3034.844362,-14211.954086,-5592.497135
20990.072096,-4737.318029,-14804.118840,-6511.811733
20990.072429,-4811.338623,-13027.624579,-6205.373534
20990.072762,-74.020594,-14804.118840,-1302.362347
20990.073095,3478.967927,-11843.295072,-76.609550
20990.073428,3997.112087,-6587.832884,4290.134789
20990.073761,4737.318029,-7476.080014,8580.269578
20990.074094,3775.050304,-4811.338623,7354.516781
20990.074428,740.205942,-6883.915261,4213.525239
20990.074761,1184.329507,-6957.935855,2987.772442
20990.075094,0.000000,-7772.162391,-459.657299
20990.075427,0.000000,-6587.832884,-3677.258390
20990.075760,-74.020594,-9474.636058,-4060.306139
20990.076093,-2368.659014,-11177.109724,-3907.087040
20990.076426,-2368.659014,-11917.315666,-612.876398
20990.076759,-1258.350101,-15100.201217,-1302.362347
20990.077092,0.000000,-11029.068536,-1608.800546
20990.077425,1184.329507,-10807.006753,536.266849
20990.077758,3034.844362,-7031.956449,1991.848295
20990.078091,3552.988522,-7179.997637,4596.572988
20990.078424,1184.329507,-8734.430116,5745.716235
20990.078757,-2442.679609,-7105.977043,-1225.752797
20990.079090,-4737.318029,-7179.997637,-1225.752797
20990.079423,2294.638420,-9400.615463,-76.609550
20990.079756,-74.020594,-8882.471304,-2528.115143
20990.080089,2368.659014,-6883.915261,689.485948
20990.080422,-370.102971,-11621.233289,1685.410096
20990.080755,2294.638420,-9918.759623,2221.676944
20990.081088,-518.144159,-11843.295072,689.485948
20990.081421,0.000000,-10732.986159,612.876398
20990.081754,518.144159,-11843.295072,153.219100
20990.082087,0.000000,-8364.327145,-689.485948
20990.082420,2960.823768,-7772.162391,1991.848295
20990.082753,-1850.514855,-7994.224174,536.266849
20990.083087,-3552.988522,-7772.162391,1225.752797
20990.083420,-3034.844362,-8290.306550,-383.047749
20990.083753,-962.267725,-4811.338623,-3677.258390
20990.084086,1332.370696,-7994.224174,2374.896044
20990.084419,4663.297435,-7994.224174,2987.772442
20990.084752,5181.441594,-6883.915261,3370.820191
20990.085085,1702.473667,-11547.212695,2145.067394
20990.085418,1554.432478,-10955.047942,-995.924147
20990.085751,-2368.659014,-11917.315666,-3524.039291
20990.086084,0.000000,-9844.739029,-2451.505594
20990.086417,1702.473667,-11547.212695,-2834.553343
20990.086750,-2072.576638,-8364.327145,-3677.258390
20990.087083,-1480.411884,-9844.739029,2374.896044
20990.087416,-3404.947333,-7476.080014,383.047749
20990.087749,-3478.967927,-6957.935855,1838.629195
20990.088082,-1110.308913,-4737.318029,2451.505594
20990.088415,2294.638420,-5995.668130,4290.134789
20990.088748,7031.956449,-6513.812290,6665.030833
20990.089081,3552.988522,-7476.080014,6665.030833
20990.089414,3182.885551,-9474.636058,-1455.581446
20990.089747,0.000000,-11325.150913,-919.314598
20990.090080,-3552.988522,-12805.562797,-3677.258390
20990.090413,-1480.411884,-13767.830521,-7354.516781
20990.090746,-3849.070898,-12879.583391,-6281.983084
20990.091079,-2442.679609,-10436.903782,-4596.572988
20990.091412,296.082377,-9622.677246,2068.457845
20990.091746,-962.267725,-8586.388927,3294.210641
20990.092079,-148.041188,-7105.977043,5439.278036
20990.092412,0.000000,-2442.679609,3064.381992
20990.092745,3552.988522,-4811.338623,7890.783629
20990.093078,6143.709319,-4737.318029,5439.278036
20990.093411,2590.720797,-6365.771101,995.924147
20990.093744,1184.329507,-9992.780217,-766.095498
20990.094077,-1258.350101,-13323.706956,-5132.839837
20990.094410,-4589.276840,-14434.015869,-6818.249932
20990.094743,-5329.482782,-13841.851115,-7277.907231
20990.095076,-2442.679609,-10140.821405,-8273.831378
20990.095409,-1184.329507,-12657.521608,842.705048
20990.095742,4663.297435,-9178.553681,4826.401637
20990.096075,-1776.494261,-7179.997637,7354.516781
20990.096408,1184.329507,-3552.988522,6052.154434
20990.096741,3923.091493,-3923.091493,6894.859482
20990.097074,6513.812290,-5921.647536,7277.907231
20990.097407,6735.874072,-7105.977043,4826.401637
20990.097740,3552.988522,-6587.832884,1838.629195
20990.098073,2294.638420,-9474.636058,-2834.553343
20990.098406,-2072.576638,-13101.645173,-5515.887586
20990.098739,-5403.503377,-15470.304188,-7814.174080
20990.099072,-4663.297435,-12361.439231,-8427.050478
20990.099405,-2960.823768,-13101.645173,-4596.572988
20990.099738,3478.967927,-8882.471304,-689.485948
20990.100071,3478.967927,-8956.491898,3064.381992
20990.100405,5329.482782,-5921.647536,8503.660028
20990.100738,3478.967927,-7105.977043,7277.907231
20990.101071,1184.329507,-4811.338623,5362.668486
20990.101404,4515.256246,-6069.688724,4596.572988
20990.101737,4885.359217,-6957.935855,2834.553343
20990.102070,2960.823768,-7179.997637,1225.752797
20990.102403,2886.803174,-11843.295072,-1302.362347
20990.102736,-1406.391290,-11991.336260,-6128.763984
20990.103069,-4071.132681,-14804.118840,-7354.516781
20990.103402,-5551.544565,-16580.613101,-4979.620737
20990.103735,-5107.421000,-11843.295072,-6358.592633
20990.104068,-3330.926739,-11843.295072,-1915.238745
20990.104401,0.000000,-5477.523971,2987.772442
20990.104734,3404.947333,-6513.812290,8580.269578
20990.105067,2294.638420,-3034.844362,8580.269578
20990.105400,1110.308913,-4441.235652,6358.592633
20990.105733,1110.308913,-2442.679609,2451.505594
20990.106066,2886.803174,-9474.636058,2374.896044
20990.106399,1702.473667,-7105.977043,-3447.429741
20990.106732,-1184.329507,-9622.677246,-3983.696590
20990.107065,-2442.679609,-16580.613101,-4979.620737
20990.107398,-5477.523971,-13693.809927,-6205.373534
20990.107731,-6809.894666,-13767.830521,-6588.421283
20990.108064,-4663.297435,-11325.150913,-4213.525239
20990.108397,-2368.659014,-9548.656652,0.000000
20990.108730,3552.988522,-7105.977043,8503.660028
20990.109064,5847.626942,-6513.812290,9729.412825
20990.109397,1998.556043,-3627.009116,8580.269578
20990.109730,2886.803174,-5329.482782,9729.412825
20990.110063,1998.556043,-5329.482782,1838.629195
20990.110396,1924.535449,-7254.018232,-1072.533697
20990.110729,-74.020594,-9696.697840,-4443.353888
20990.111062,-1776.494261,-10732.986159,-5515.887586
20990.111395,-2072.576638,-11917.315666,-6741.640382
20990.111728,-4145.153275,-15988.448347,-5286.058936
20990.112061,-3849.070898,-12509.480420,-4596.572988
20990.112394,-2442.679609,-12287.418637,-1685.410096
20990.112727,1998.556043,-8882.471304,2374.896044
20990.113060,2368.659014,-7105.977043,5745.716235
20990.113393,4959.379811,-3627.009116,7967.393179
20990.113726,5551.544565,-7105.977043,12180.918418
20990.114059,2294.638420,-4737.318029,4519.963438
20990.114392,1110.308913,-8290.306550,1149.143247
20990.114725,-1184.329507,-9104.533087,-2528.115143
20990.115058,-518.144159,-9178.553681,-4060.306139
20990.115391,296.082377,-9770.718434,-4903.011187
20990.115724,888.247130,-11695.253884,-3830.477490
20990.116057,-74.020594,-15100.201217,-2528.115143
20990.116390,-3404.947333,-11325.150913,-1838.629195
20990.116723,1036.288319,-12879.583391,-76.609550
20990.117056,1702.473667,-9474.636058,-995.924147
20990.117389,4737.318029,-7179.997637,4290.134789
20990.117723,6291.750507,-5847.626942,5286.058936
20990.118056,6661.853478,-7328.038826,7507.735880
20990.118389,1850.514855,-8142.265362,5286.058936
20990.118722,-1702.473667,-7846.182985,1225.752797
20990.119055,-1554.432478,-7105.977043,-1608.800546
20990.119388,666.185348,-9474.636058,-76.609550
20990.119721,-74.020594,-8290.306550,-4673.182538
20990.120054,-3404.947333,-7772.162391,-4290.134789
20990.120387,-2368.659014,-12213.398043,-1838.629195
20990.120720,-3108.864956,-11325.150913,-1838.629195
20990.121053,-1628.453072,-10066.800811,-1762.019645
20990.121386,-1036.288319,-10658.965565,306.438199
20990.121719,814.226536,-8068.244768,1225.752797
20990.122052,592.164754,-7179.997637,2451.505594
20990.122385,5255.462188,-7994.224174,4826.401637
20990.122718,-814.226536,-7105.977043,2987.772442
20990.123051,-4737.318029,-7476.080014,1838.629195
20990.123384,-74.020594,-8290.306550,-76.609550
20990.123717,-1776.494261,-9548.656652,459.657299
20990.124050,3256.906145,-6809.894666,229.828649
20990.124383,1036.288319,-8882.471304,842.705048
20990.124716,-666.185348,-10066.800811,-1378.971896
20990.125049,-1184.329507,-11917.315666,-1685.410096
20990.125382,-1258.350101,-12435.459826,-3907.087040
20990.125715,0.000000,-9548.656652,-1838.629195
20990.126048,1776.494261,-12065.356855,3600.648841
20990.126382,3478.967927,-8290.306550,1762.019645
20990.126715,592.164754,-9252.574275,4519.963438
20990.127048,-1184.329507,-8142.265362,2145.067394
20990.127381,-740.205942,-7994.224174,1915.238745
20990.127714,-1776.494261,-7772.162391,919.314598
20990.128047,2368.659014,-6291.750507,3677.258390
20990.128380,3478.967927,-6809.894666,3064.381992
20990.128713,4737.318029,-7254.018232,1302.362347
20990.129046,3552.988522,-10881.027347,1072.533697
20990.129379,1406.391290,-11621.233289,-1302.362347
20990.129712,0.000000,-11325.150913,-1838.629195
20990.130045,-814.226536,-14211.954086,-2528.115143
20990.130378,-74.020594,-11547.212695,-4826.401637
20990.130711,-3849.070898,-9548.656652,-2451.505594
20990.131044,814.226536,-7994.224174,1149.143247
20990.131377,-666.185348,-9104.533087,3064.381992
20990.131710,-2812.782580,-5995.668130,2528.115143
20990.132043,-2072.576638,-6217.729913,3600.648841
20990.132376,592.164754,-5995.668130,4290.134789
20990.132709,7105.977043,-5699.585753,8197.221829
20990.133042,5847.626942,-4293.194464,0.000000
20990.133375,6217.729913,-11029.068536,2451.505594
20990.133708,2738.761985,-13915.871710,-689.485948
20990.134041,-1480.411884,-12509.480420,-6128.763984
20990.134374,-3775.050304,-15248.242405,-8044.002729
20990.134707,-5329.482782,-14211.954086,-8350.440928
20990.135041,-5329.482782,-12509.480420,-3677.258390
20990.135374,-1258.350101,-9474.636058,-383.047749
20990.135707,0.000000,-7476.080014,6052.154434
20990.136040,-2368.659014,-3627.009116,6128.763984
20990.136373,1184.329507,-3701.029710,8963.317327
20990.136706,5847.626942,-4441.235652,9116.536426
20990.137039,6439.791695,-4737.318029,6052.154434
20990.137372,4071.132681,-7179.997637,2681.334243
20990.137705,3775.050304,-8734.430116,-1378.971896
20990.138038,148.041188,-12509.480420,-3753.867940
20990.138371,-4145.153275,-15470.304188,-6741.640382
20990.138704,-4811.338623,-15396.283594,-11108.384721
20990.139037,-6217.729913,-15618.345376,-9806.022374
20990.139370,-3404.947333,-15248.242405,-2528.115143
20990.139703,-666.185348,-7179.997637,0.000000
20990.140036,0.000000,-5107.421000,7354.516781
20990.140369,2146.597232,-3775.050304,10725.336972
20990.140702,2368.659014,-1554.432478,11261.603821
20990.141035,2960.823768,-1850.514855,9193.145976
20990.141368,7920.203579,-5921.647536,7890.783629
20990.141701,2220.617826,-4811.338623,1225.752797
20990.142034,4367.215058,-9178.553681,-1915.238745
20990.142367,-1258.350101,-15988.448347,-7431.126331
20990.142700,-5699.585753,-14878.139434,-10725.336972
20990.143033,-7105.977043,-16062.468941,-9806.022374
20990.143366,-6217.729913,-16062.468941,-7967.393179
20990.143700,-2368.659014,-12731.542202,-3983.696590
20990.144033,-518.144159,-9400.615463,1991.848295
20990.144366,7031.956449,-7105.977043,9116.536426
20990.144699,5329.482782,-3034.844362,11644.651570
20990.145032,4589.276840,-2886.803174,11031.775171
20990.145365,3701.029710,-3923.091493,8580.269578
20990.145698,5107.421000,-4811.338623,5975.544884
20990.146031,3701.029710,-7402.059420,2374.896044
20990.146364,888.247130,-8364.327145,-4903.011187
20990.146697,-7105.977043,-12509.480420,-7354.516781
20990.147030,-4811.338623,-16580.613101,-11261.603821
20990.147363,-7624.121203,-14582.057057,-10418.898773
20990.147696,-5329.482782,-14211.954086,-6205.373534
20990.148029,-3256.906145,-11917.315666,-2757.943793
20990.148362,962.267725,-8068.244768,2911.162892
20990.148695,4737.318029,-6217.729913,9039.926876
20990.149028,6143.709319,-3552.988522,12180.918418
20990.149361,2886.803174,-1850.514855,7967.393179
20990.149694,3701.029710,-4737.318029,8503.660028
20990.150027,5551.544565,-6513.812290,2987.772442
20990.150360,2812.782580,-7179.997637,612.876398
20990.150693,3478.967927,-11251.130318,-2528.115143
20990.151026,-1184.329507,-12139.377449,-6281.983084
20990.151359,-2072.576638,-13989.892304,-7124.688131
20990.151692,-4737.318029,-14952.160028,-6894.859482
20990.152025,-4293.194464,-11917.315666,-7354.516781
20990.152359,-4737.318029,-10140.821405,-3677.258390
20990.152692,3478.967927,-10066.800811,2987.772442
20990.153025,5255.462188,-8290.306550,6052.154434
20990.153358,5033.400406,-3034.844362,9806.022374
20990.153691,4071.132681,-3404.947333,7354.516781
20990.154024,2072.576638,-4885.359217,6128.763984
20990.154357,3034.844362,-6439.791695,3753.867940
20990.154690,1776.494261,-7772.162391,459.657299
20990.155023,592.164754,-9104.533087,-3064.381992
20990.155356,-518.144159,-12139.377449,-3140.991542
20990.155689,-370.102971,-15396.283594,-6511.811733
20990.156022,-5033.400406,-13397.727550,-5515.887586
20990.156355,-5329.482782,-12065.356855,-3753.867940
20990.156688,-2442.679609,-11177.109724,-4903.011187
20990.157021,-74.020594,-10066.800811,76.609550
20990.157354,4663.297435,-8290.306550,5439.278036
20990.157687,2664.741391,-6365.771101,9269.755526
20990.158020,1184.329507,-5181.441594,8120.612279
20990.158354,-2072.576638,-5995.668130,4826.401637
20990.158687,-666.185348,-5921.647536,1915.238745
20990.159020,-74.020594,-7105.977043,229.828649
20990.159353,962.267725,-7698.141797,-3140.991542
20990.159686,-2960.823768,-10362.883188,-4060.306139
20990.160019,-3552.988522,-12509.480420,-2604.724693
20990.160352,-1850.514855,-14211.954086,-3753.867940
20990.160685,-962.267725,-12879.583391,-4366.744339
20990.161018,-1258.350101,-13619.789333,-3140.991542
20990.161351,2294.638420,-11547.212695,-76.609550
20990.161684,2590.720797,-8512.368333,3064.381992
20990.162017,3923.091493,-6291.750507,6281.983084
20990.162350,1480.411884,-5329.482782,6511.811733
20990.162683,-74.020594,-7105.977043,4213.525239
20990.163016,-4737.318029,-7179.997637,4290.134789
20990.163349,1702.473667,-6809.894666,-689.485948
20990.163682,0.000000,-7105.977043,-1149.143247
20990.164016,0.000000,-5995.668130,-2145.067394
20990.164349,2294.638420,-9918.759623,-2451.505594
20990.164682,0.000000,-12213.398043,-1302.362347
20990.165015,0.000000,-12065.356855,-2834.553343
20990.165348,444.123565,-12139.377449,-2451.505594
20990.165681,518.144159,-11843.295072,-1608.800546
20990.166014,4367.215058,-10658.965565,2374.896044
20990.166347,4071.132681,-9474.636058,1762.019645
20990.166680,0.000000,-7476.080014,3830.477490
20990.167013,-1776.494261,-8290.306550,3370.820191
20990.167346,-3182.885551,-5403.503377,919.314598
20990.167679,-592.164754,-5329.482782,1225.752797
20990.168012,2960.823768,-5477.523971,2604.724693
20990.168345,4959.379811,-6217.729913,3600.648841
20990.168678,2960.823768,-7179.997637,0.000000
20990.169011,3478.967927,-12731.542202,-1915.238745
20990.169345,-1406.391290,-12731.542202,-4366.744339
20990.169678,-4145.153275,-13101.645173,-4136.915689
20990.170011,-74.020594,-15396.283594,-4979.620737
20990.170344,0.000000,-12213.398043,-2145.067394
20990.170677,148.041188,-8808.450710,-306.438199
20990.171010,0.000000,-9252.574275,2451.505594
20990.171343,-1110.308913,-7031.956449,3524.039291
20990.171676,-1480.411884,-7698.141797,5286.058936
20990.172009,1702.473667,-2664.741391,1302.362347
20990.172342,2368.659014,-5551.544565,7584.345430
20990.172675,7624.121203,-5773.606348,7890.783629
20990.173008,5847.626942,-7105.977043,3600.648841
20990.173341,592.164754,-12361.439231,-76.609550
20990.173674,-1110.308913,-13767.830521,-4060.306139
20990.174007,-4367.215058,-13989.892304,-6741.640382
20990.174340,-4145.153275,-16284.530724,-7048.078582
20990.174674,-5625.565159,-13101.645173,-4519.963438
20990.175007,-3256.906145,-9548.656652,-2451.505594
20990.175340,-444.123565,-8660.409521,4213.525239
20990.175673,-74.020594,-3775.050304,5209.449386
20990.176006,-3552.988522,-3330.926739,4903.011187
20990.176339,-1776.494261,-2590.720797,6205.373534
20990.176672,6735.874072,-2960.823768,6665.030833
20990.177005,4663.297435,-4811.338623,3677.258390
20990.177338,5329.482782,-7179.997637,2911.162892
20990.177671,2294.638420,-12435.459826,-2528.115143
20990.178004,-1628.453072,-15544.324782,-5362.668486
20990.178337,-2442.679609,-15396.283594,-8886.707777
20990.178670,-5329.482782,-16580.613101,-9269.755526
20990.179003,-4737.318029,-14285.974681,-7354.516781
20990.179336,-2368.659014,-11917.315666,459.657299
20990.179669,4071.132681,-7698.141797,4213.525239
20990.180002,1776.494261,-2442.679609,7354.516781
20990.180336,2664.741391,-1850.514855,11414.822920
20990.180669,3330.926739,-962.267725,7431.126331
20990.181002,4145.153275,-3997.112087,6511.811733
20990.181335,3256.906145,-5995.668130,2757.943793
20990.181668,2220.617826,-7846.182985,-1302.362347
20990.182001,2294.638420,-12435.459826,-3447.429741
20990.182334,-2960.823768,-14878.139434,-5132.839837
20990.182667,-4811.338623,-13989.892304,-11644.651570
20990.183000,-4145.153275,-15618.345376,-7431.126331
20990.183333,-2442.679609,-15100.201217,-6205.373534
20990.183666,1628.453072,-10881.027347,612.876398
20990.183999,3182.885551,-6513.812290,5439.278036
20990.184332,4441.235652,-4663.297435,9729.412825
20990.184665,3627.009116,-2960.823768,9039.926876
20990.184998,2294.638420,-2294.638420,4213.525239
20990.185331,5033.400406,-7994.224174,6665.030833
20990.185665,2664.741391,-4811.338623,1532.190996
20990.185998,0.000000,-8364.327145,919.314598
20990.186331,1110.308913,-11843.295072,-2528.115143
20990.186664,-1850.514855,-14211.954086,-6818.249932
20990.186997,-4811.338623,-14582.057057,-6741.640382
20990.187330,-5551.544565,-14285.974681,-7660.954980
20990.187663,-5699.585753,-13767.830521,-5669.106685
20990.187996,-4737.318029,-9548.656652,-2145.067394
20990.188329,2294.638420,-6513.812290,2221.676944
20990.188662,3552.988522,-3923.091493,10572.117872
20990.188995,4663.297435,-5921.647536,9729.412825
20990.189328,1110.308913,-2738.761985,6128.763984
20990.189661,1628.453072,-4885.359217,5132.839837
20990.189994,2294.638420,-7846.182985,2451.505594
20990.190327,2590.720797,-8660.409521,-689.485948
20990.190660,-1332.370696,-11399.171507,-5515.887586
20990.190993,-4441.235652,-14878.139434,-6741.640382
20990.191327,-4219.173869,-14508.036463,-7584.345430
20990.191660,-5403.503377,-13693.809927,-6128.763984
20990.191993,-3775.050304,-11177.109724,-3217.601092
20990.192326,-74.020594,-10066.800811,1455.581446
20990.192659,1184.329507,-3627.009116,4903.011187
20990.192992,4663.297435,-4737.318029,8503.660028
20990.193325,2294.638420,-1554.432478,4903.011187
20990.193658,1554.432478,-5033.400406,4826.401637
20990.193991,2294.638420,-8882.471304,2374.896044
20990.194324,1184.329507,-7179.997637,0.000000
20990.194657,1702.473667,-9622.677246,-3217.601092
20990.194990,444.123565,-11769.274478,-3983.696590
20990.195323,-592.164754,-14656.077652,-5209.449386
20990.195656,-1776.494261,-15100.201217,-2604.724693
20990.195989,-1850.514855,-14211.954086,-4979.620737
20990.196322,-1776.494261,-9548.656652,-3677.258390
20990.196656,592.164754,-9252.574275,3524.039291
20990.196989,4663.297435,-5033.400406,4519.963438
20990.197322,5329.482782,-5403.503377,9729.412825
20990.197655,4811.338623,-5033.400406,8656.879127
20990.197988,1184.329507,-5403.503377,4443.353888
20990.198321,-1776.494261,-7846.182985,-383.047749
20990.198654,-74.020594,-10658.965565,-1915.238745
20990.198987,-74.020594,-9770.718434,-5515.887586
20990.199320,2738.761985,-9474.636058,-1915.238745
20990.199653,-74.020594,-14211.954086,-1302.362347
20990.199986,-1258.350101,-11621.233289,-4903.011187
20990.200319,-370.102971,-12435.459826,-2528.115143
20990.200652,-2368.659014,-11029.068536,-1532.190996
20990.200985,888.247130,-9400.615463,-459.657299
20990.201318,1036.288319,-8808.450710,2451.505594
20990.201651,4145.153275,-3627.009116,5056.230287
20990.201985,2368.659014,-6587.832884,4903.011187
20990.202318,2812.782580,-7698.141797,5745.716235
20990.202651,-2812.782580,-5995.668130,0.000000
20990.202984,-2886.803174,-6291.750507,-1838.629195
20990.203317,1702.473667,-10362.883188,-1915.238745
20990.203650,-2368.659014,-10288.862594,-3447.429741
20990.203983,592.164754,-8142.265362,-2987.772442
20990.204316,-1850.514855,-13249.686362,-1302.362347
20990.204649,-2960.823768,-9844.739029,-1838.629195
20990.204982,-3997.112087,-9992.780217,-1685.410096
20990.205315,-2220.617826,-9992.780217,-536.266849
20990.205648,74.020594,-7698.141797,2374.896044
20990.205981,3552.988522,-7105.977043,6741.640382
20990.206314,5255.462188,-7105.977043,7277.907231
20990.206647,-74.020594,-5995.668130,1838.629195
20990.206980,-2368.659014,-8660.409521,1532.190996
20990.207313,-1628.453072,-10214.842000,-842.705048
20990.207647,1332.370696,-9104.533087,-1532.190996
20990.207980,2368.659014,-10732.986159,-76.609550
20990.208313,2368.659014,-8734.430116,-76.609550
20990.208646,962.267725,-10584.944971,0.000000
20990.208979,-222.061783,-10510.924376,-1915.238745
20990.209312,0.000000,-10140.821405,229.828649
20990.209645,-1258.350101,-10288.862594,-2451.505594
20990.209978,0.000000,-8364.327145,0.000000
20990.210311,1702.473667,-9474.636058,-76.609550
20990.210644,1702.473667,-6661.853478,2221.676944
20990.210977,-74.020594,-8290.306550,2374.896044
20990.211310,-2368.659014,-7698.141797,76.609550
20990.211643,-2886.803174,-7698.141797,-1685.410096
20990.211976,0.000000,-9252.574275,0.000000
20990.212309,5255.462188,-9474.636058,4213.525239
20990.212642,2664.741391,-7920.203579,2451.505594
20990.212976,5403.503377,-11251.130318,2068.457845
20990.213309,0.000000,-12213.398043,612.876398
20990.213642,0.000000,-8956.491898,-1225.752797
20990.213975,814.226536,-11547.212695,-1915.238745
20990.214308,-666.185348,-10584.944971,-3677.258390
20990.214641,-74.020594,-9474.636058,-1838.629195
20990.214974,-1998.556043,-9030.512492,-229.828649
20990.215307,1702.473667,-5329.482782,1762.019645
20990.215640,-4145.153275,-9178.553681,3294.210641
20990.215973,-2294.638420,-5625.565159,-689.485948
20990.216306,0.000000,-6883.915261,4673.182538
20990.216639,6365.771101,-9178.553681,6128.763984
20990.216972,5329.482782,-4811.338623,4443.353888
20990.217305,2738.761985,-10436.903782,1455.581446
20990.217638,1776.494261,-10807.006753,-1915.238745
20990.217971,-2812.782580,-14656.077652,-4366.744339
20990.218304,-4737.318029,-13101.645173,-8580.269578
20990.218638,-1850.514855,-14211.954086,-5592.497135
20990.218971,-2146.597232,-9548.656652,-2451.505594
20990.219304,0.000000,-6291.750507,4903.011187
20990.219637,1776.494261,-6291.750507,7737.564530
20990.219970,-1776.494261,-3034.844362,4903.011187
20990.220303,-2146.597232,-5477.523971,2451.505594
20990.220636,1998.556043,-6217.729913,2911.162892
20990.220969,2960.823768,-8956.491898,3677.258390
20990.221302,2442.679609,-7179.997637,1378.971896
20990.221635,2664.741391,-9548.656652,-766.095498
20990.221968,592.164754,-12435.459826,-2374.896044
20990.222301,-1850.514855,-14285.974681,-4366.744339
20990.222634,-3627.009116,-14211.954086,-6205.373534
20990.222967,-6513.812290,-12657.521608,-5822.325785
20990.223300,-3552.988522,-11695.253884,-612.876398
20990.223633,-74.020594,-8882.471304,1762.019645
20990.223967,222.061783,-5107.421000,5209.449386
20990.224300,592.164754,-5255.462188,9729.412825
20990.224633,-518.144159,-2738.761985,5592.497135
20990.224966,1702.473667,-5329.482782,5592.497135
20990.225299,3034.844362,-7031.956449,4136.915689
20990.225632,3182.885551,-6661.853478,536.266849
20990.225965,1702.473667,-7179.997637,-3064.381992
20990.226298,1998.556043,-14211.954086,-4979.620737
20990.226631,-3775.050304,-15396.283594,-8350.440928
20990.226964,-5329.482782,-13101.645173,-9193.145976
20990.227297,-4219.173869,-15988.448347,-6205.373534
20990.227630,-1554.432478,-11325.150913,-3600.648841
20990.227963,888.247130,-8586.388927,1991.848295
20990.228296,5181.441594,-4885.359217,7814.174080
20990.228629,4737.318029,-2738.761985,11031.775171
20990.228962,2516.700203,-3034.844362,7354.516781
20990.229296,5255.462188,-7105.977043,6052.154434
20990.229629,4959.379811,-6291.750507,2604.724693
20990.229962,1776.494261,-8068.244768,1838.629195
20990.230295,1184.329507,-8956.491898,-4596.572988
20990.230628,-1258.350101,-12139.377449,-7660.954980
20990.230961,-2294.638420,-15248.242405,-8044.002729
20990.231294,-3552.988522,-15174.221811,-7584.345430
20990.231627,-2442.679609,-15396.283594,-6358.592633
20990.231960,-4737.318029,-12509.480420,-919.314598
20990.232293,2294.638420,-9474.636058,2987.772442
20990.232626,370.102971,-4811.338623,8580.269578
20990.232959,5255.462188,-888.247130,11031.775171
20990.233292,2294.638420,-5921.647536,10265.679673
20990.233625,2886.803174,296.082377,4979.620737
20990.233958,2072.576638,-7698.141797,4596.572988
20990.234291,3108.864956,-7179.997637,-383.047749
20990.234624,1110.308913,-9178.553681,-5286.058936
20990.234958,-1628.453072,-17172.777854,-8963.317327
20990.235291,-2590.720797,-13841.851115,-9193.145976
20990.235624,-9474.636058,-14878.139434,-7354.516781
20990.235957,-1850.514855,-14804.118840,-7431.126331
20990.236290,-444.123565,-11991.336260,0.000000
20990.236623,3478.967927,-9474.636058,4826.401637
20990.236956,6365.771101,-3923.091493,11108.384721
20990.237289,5551.544565,-3775.050304,11874.480219
20990.237622,2886.803174,-2220.617826,8810.098227
20990.237955,518.144159,-4737.318029,4826.401637
20990.238288,592.164754,-6069.688724,612.876398
20990.238621,-592.164754,-8882.471304,-1608.800546
20990.238954,-2220.617826,-10362.883188,-5362.668486
20990.239287,-2146.597232,-11103.089130,-8350.440928
20990.239620,-4367.215058,-16284.530724,-5286.058936
20990.239953,-814.226536,-15100.201217,-5898.935335
20990.240287,-4145.153275,-12805.562797,-1225.752797
20990.240620,0.000000,-10732.986159,0.000000
20990.240953,3478.967927,-7846.182985,1838.629195
20990.241286,4737.318029,-6587.832884,8503.660028
20990.241619,6217.729913,-3923.091493,9652.803275
20990.241952,2220.617826,-4811.338623,7277.907231
20990.242285,-2072.576638,-5403.503377,0.000000
20990.242618,-74.020594,-9474.636058,-76.609550
20990.242951,-1184.329507,-6291.750507,-4903.011187
20990.243284,1184.329507,-8956.491898,-383.047749
20990.243617,-74.020594,-11843.295072,-2834.553343
20990.243950,-1628.453072,-11325.150913,-4903.011187
20990.244283,-2368.659014,-13767.830521,-2757.943793
20990.244616,-1110.308913,-10955.047942,-3064.381992
20990.244949,-74.020594,-11399.171507,-2681.334243
20990.245282,1776.494261,-10288.862594,2451.505594
20990.245615,4071.132681,-11843.295072,2987.772442
20990.245949,444.123565,-5995.668130,4290.134789
20990.246282,2368.659014,-8734.430116,7277.907231
20990.246615,-1258.350101,-5329.482782,2757.943793
20990.246948,-1776.494261,-6587.832884,4366.744339
20990.247281,814.226536,-6217.729913,1455.581446
20990.247614,1406.391290,-7402.059420,612.876398
20990.247947,1998.556043,-9030.512492,-306.438199
20990.248280,4071.132681,-10066.800811,-76.609550
20990.248613,-962.267725,-10807.006753,-5132.839837
20990.248946,-4145.153275,-12509.480420,-4596.572988
20990.249279,-1702.473667,-13619.789333,-2834.553343
20990.249612,-1258.350101,-11991.336260,-5286.058936
20990.249945,1776.494261,-8660.409521,2528.115143
20990.250278,1998.556043,-8290.306550,4596.572988
20990.250611,1480.411884,-5995.668130,4596.572988
20990.250944,-1702.473667,-6217.729913,5362.668486
20990.251278,-666.185348,-4737.318029,1762.019645
20990.251611,0.000000,-6365.771101,1915.238745
20990.251944,2812.782580,-7624.121203,2374.896044
20990.252277,5477.523971,-6957.935855,2068.457845
20990.252610,0.000000,-9548.656652,0.000000
20990.252943,0.000000,-11917.315666,-3524.039291
20990.253276,-74.020594,-13619.789333,-6052.154434
20990.253609,-2368.659014,-12805.562797,-5592.497135
20990.253942,-2072.576638,-11621.233289,-3677.258390
20990.254275,-2960.823768,-11917.315666,-1608.800546
20990.254608,518.144159,-7624.121203,1455.581446
20990.254941,-74.020594,-7550.100608,5439.278036
20990.255275,666.185348,-4367.215058,5286.058936
20990.255608,-1628.453072,-5921.647536,6052.154434
20990.255941,-666.185348,-2812.782580,3294.210641
20990.256274,4367.215058,-5921.647536,2221.676944
20990.256607,1184.329507,-7179.997637,3370.820191
20990.256940,5847.626942,-10658.965565,-76.609550
20990.257273,592.164754,-11621.233289,-1225.752797
20990.257607,444.123565,-14063.912898,-4519.963438
20990.257940,-3552.988522,-14878.139434,-4673.182538
20990.258273,-2368.659014,-15174.221811,-7048.078582
20990.258606,-2294.638420,-14211.954086,-4979.620737
20990.258939,-2960.823768,-9548.656652,2298.286494
20990.259272,74.020594,-4737.318029,2834.553343
20990.259605,0.000000,-2738.761985,7354.516781
20990.259939,-74.020594,-4589.276840,7277.907231
20990.260272,2294.638420,-2368.659014,6052.154434
20990.260605,4663.297435,-4737.318029,6665.030833
20990.260938,3701.029710,-6291.750507,4290.134789
20990.261271,4219.173869,-8290.306550,1762.019645
20990.261604,1480.411884,-10732.986159,-4213.525239
20990.261937,-74.020594,-17172.777854,-4979.620737
20990.262271,-5921.647536,-14878.139434,-8273.831378
20990.262604,-5921.647536,-15470.304188,-7967.393179
20990.262937,-2442.679609,-14211.954086,-6818.249932
20990.263270,-2368.659014,-9548.656652,-1838.629195
20990.263603,2294.638420,-7105.977043,3677.258390
20990.263936,962.267725,-5699.585753,7354.516781
20990.264270,2072.576638,-4441.235652,8503.660028
20990.264603,2812.782580,-2368.659014,9729.412825
20990.264936,5699.585753,-3182.885551,7277.907231
20990.265269,2960.823768,-7179.997637,8197.221829
20990.265602,4071.132681,-6957.935855,-76.609550
20990.265935,1702.473667,-9030.512492,-5822.325785
20990.266268,-4737.318029,-13101.645173,-8580.269578
20990.266602,-4811.338623,-14656.077652,-11338.213370
20990.266935,-7105.977043,-16210.510130,-10801.946522
20990.267268,-4145.153275,-16136.489536,-6971.469032
20990.267601,-2072.576638,-11325.150913,-2068.457845
20990.267934,-74.020594,-8586.388927,995.924147
20990.268267,4959.379811,-4441.235652,9193.145976
20990.268600,3478.967927,-2960.823768,10955.165621
20990.268934,4219.173869,-2886.803174,10648.727422
20990.269267,4737.318029,-4293.194464,9959.241474
20990.269600,6439.791695,-7698.141797,4826.401637
20990.269933,2368.659014,-7476.080014,0.000000
20990.270266,1924.535449,-12435.459826,-2834.553343
20990.270599,-2442.679609,-12509.480420,-9806.022374
20990.270932,-7698.141797,-14285.974681,-11031.775171
20990.271266,-5551.544565,-14878.139434,-11184.994271
20990.271599,-5181.441594,-14878.139434,-7201.297681
20990.271932,-3034.844362,-12287.418637,-1838.629195
20990.272265,4071.132681,-8882.471304,6665.030833
20990.272598,6439.791695,-4737.318029,10035.851024
20990.272931,3552.988522,-1258.350101,13023.623466
20990.273264,5847.626942,-4441.235652,10955.165621
20990.273598,4663.297435,-4219.173869,4903.011187
20990.273931,4145.153275,-7179.997637,5822.325785
20990.274264,2516.700203,-8512.368333,0.000000
20990.274597,444.123565,-9548.656652,-7048.078582
20990.274930,-2146.597232,-14508.036463,-8503.660028
20990.275263,-4959.379811,-15322.262999,-10035.851024
20990.275596,-4811.338623,-13471.748144,-12257.527968
20990.275930,-4145.153275,-14508.036463,-4366.744339
20990.276263,-1258.350101,-13027.624579,-689.485948
20990.276596,2294.638420,-6365.771101,4213.525239
20990.276929,4663.297435,-5921.647536,9729.412825
20990.277262,4145.153275,-2738.761985,9959.241474
20990.277595,1998.556043,-3108.864956,8963.317327
20990.277928,296.082377,-4737.318029,3983.696590
20990.278262,592.164754,-6291.750507,612.876398
20990.278595,-962.267725,-9844.739029,-3677.258390
20990.278928,2516.700203,-12361.439231,-2528.115143
20990.279261,-74.020594,-13915.871710,-6971.469032
20990.279594,-4737.318029,-13397.727550,-7354.516781
20990.279927,-3849.070898,-13693.809927,-6128.763984
20990.280260,-814.226536,-13619.789333,-1762.019645
20990.280594,962.267725,-10214.842000,919.314598
20990.280927,1628.453072,-8364.327145,4826.401637
20990.281260,5255.462188,-5773.606348,9116.536426
20990.281593,1184.329507,-4811.338623,12027.699319
20990.281926,1702.473667,-2960.823768,4136.915689
20990.282259,-3775.050304,-3627.009116,0.000000
20990.282592,-296.082377,-8290.306550,-76.609550
20990.282926,-1184.329507,-8364.327145,-3217.601092
20990.283259,-74.020594,-9474.636058,-3753.867940
20990.283592,-1184.329507,-11029.068536,-4443.353888
20990.283925,-2442.679609,-14063.912898,-4826.401637
20990.284258,-74.020594,-13027.624579,-2528.115143
20990.284591,148.041188,-13249.686362,-76.609550
20990.284924,1480.411884,-11917.315666,612.876398
20990.285258,3701.029710,-8586.388927,3600.648841
20990.285591,3182.885551,-8660.409521,4903.011187
20990.285924,6883.915261,-7105.977043,7890.783629
20990.286257,0.000000,-7179.997637,3064.381992
20990.286590,444.123565,-7550.100608,4673.182538
20990.286923,-1258.350101,-5995.668130,0.000000
20990.287256,0.000000,-5403.503377,-1685.410096
20990.287590,1110.308913,-9474.636058,-689.485948
20990.287923,0.000000,-9252.574275,-2145.067394
20990.288256,518.144159,-11029.068536,-1608.800546
20990.288589,-3034.844362,-11917.315666,-3294.210641
20990.288922,-370.102971,-11843.295072,-4979.620737
20990.289255,0.000000,-12213.398043,229.828649
20990.289589,1702.473667,-11843.295072,-76.609550
20990.289922,1184.329507,-6587.832884,3677.258390
20990.290255,2664.741391,-10140.821405,5209.449386
20990.290588,-370.102971,-6957.935855,919.314598
20990.290921,-2590.720797,-8142.265362,1149.143247
20990.291254,-888.247130,-5625.565159,306.438199
20990.291587,666.185348,-8586.388927,1762.019645
20990.291921,1184.329507,-6587.832884,1532.190996
20990.292254,1184.329507,-9400.615463,4213.525239
20990.292587,-74.020594,-8882.471304,-2528.115143
20990.292920,-1258.350101,-9622.677246,-4596.572988
20990.293253,-74.020594,-13915.871710,-76.609550
20990.293586,-1184.329507,-11029.068536,-2451.505594
20990.293919,0.000000,-11547.212695,-1991.848295
20990.294253,-148.041188,-11399.171507,-995.924147
20990.294586,1332.370696,-8216.285956,1915.238745
20990.294919,-888.247130,-9104.533087,4903.011187
20990.295252,-74.020594,-9474.636058,3600.648841
20990.295585,-4219.173869,-4811.338623,0.000000
20990.295918,1702.473667,-7105.977043,4826.401637
20990.296251,5847.626942,-7105.977043,4826.401637
20990.296585,3552.988522,-5403.503377,4903.011187
20990.296918,3478.967927,-8438.347739,229.828649
20990.297251,148.041188,-11399.171507,-1685.410096
20990.297584,-1850.514855,-12361.439231,-4673.182538
20990.297917,-2368.659014,-13101.645173,-4903.011187
20990.298250,-2812.782580,-13693.809927,-4903.011187
20990.298583,-296.082377,-9104.533087,-2681.334243
20990.298917,-296.082377,-10288.862594,1302.362347
20990.299250,2886.803174,-5329.482782,3294.210641
20990.299583,-2738.761985,-5403.503377,2604.724693
20990.299916,0.000000,-4811.338623,3294.210641
20990.300249,3478.967927,-7698.141797,4519.963438
20990.300582,2368.659014,-6587.832884,5515.887586
20990.300915,7031.956449,-6513.812290,4213.525239
20990.301249,1628.453072,-9696.697840,0.000000
20990.301582,2886.803174,-12139.377449,-2911.162892
20990.301915,-2368.659014,-13175.665768,-3983.696590
20990.302248,-4145.153275,-13693.809927,-7048.078582
20990.302581,-2442.679609,-13841.851115,-8273.831378
20990.302914,-1628.453072,-14211.954086,-1302.362347
20990.303247,1110.308913,-6957.935855,0.000000
20990.303581,1110.308913,-5847.626942,3064.381992
20990.303914,0.000000,-4811.338623,4979.620737
20990.304247,0.000000,-4219.173869,6971.469032
20990.304580,3701.029710,-2886.803174,5975.544884
20990.304913,4145.153275,-7402.059420,3983.696590
20990.305246,4589.276840,-10881.027347,4826.401637
20990.305579,1998.556043,-7476.080014,-2451.505594
20990.305913,-74.020594,-16580.613101,-3753.867940
20990.306246,-3701.029710,-13249.686362,-7354.516781
20990.306579,-4737.318029,-13693.809927,-8580.269578
20990.306912,-3849.070898,-15988.448347,-3983.696590
20990.307245,-1332.370696,-11103.089130,-2528.115143
20990.307578,-1110.308913,-7920.203579,1225.752797
20990.307911,3330.926739,-6143.709319,6894.859482
20990.308245,2220.617826,-3552.988522,7890.783629
20990.308578,0.000000,-3627.009116,7967.393179
20990.308911,2294.638420,-3034.844362,3677.258390
20990.309244,148.041188,-5995.668130,2451.505594
20990.309577,5255.462188,-9474.636058,1762.019645
20990.309910,1702.473667,-10066.800811,-1915.238745
20990.310243,-666.185348,-13323.706956,-6205.373534
20990.310577,-4885.359217,-14285.974681,-7431.126331
20990.310910,-5921.647536,-15248.242405,-7277.907231
20990.311243,-3256.906145,-12361.439231,-4826.401637
20990.311576,-1258.350101,-13619.789333,-76.609550
20990.311909,-2368.659014,-6587.832884,2451.505594
20990.312242,3923.091493,-5921.647536,9729.412825
20990.312575,4663.297435,-3256.906145,7890.783629
20990.312909,2590.720797,-1332.370696,7890.783629
20990.313242,2294.638420,-7105.977043,4826.401637
20990.313575,2960.823768,-5403.503377,2451.505594
20990.313908,1998.556043,-10140.821405,0.000000
20990.314241,1036.288319,-10584.944971,-4596.572988
20990.314574,518.144159,-14211.954086,-6205.373534
20990.314908,-4737.318029,-16136.489536,-7431.126331
20990.315241,-3552.988522,-13619.789333,-6511.811733
20990.315574,-4219.173869,-13027.624579,-4903.011187
20990.315907,0.000000,-8956.491898,0.000000
20990.316240,2812.782580,-7328.038826,5439.278036
20990.316573,7031.956449,-7105.977043,9729.412825
20990.316906,5033.400406,-2738.761985,8580.269578
20990.317240,4145.153275,-5921.647536,7890.783629
20990.317573,4071.132681,-6217.729913,2451.505594
20990.317906,2812.782580,-7920.203579,2068.457845
20990.318239,1406.391290,-10658.965565,-2374.896044
20990.318572,-1406.391290,-11473.192101,-4903.011187
20990.318905,-4145.153275,-12657.521608,-5822.325785
20990.319238,-1850.514855,-13915.871710,-6205.373534
20990.319572,-5921.647536,-11917.315666,-4903.011187
20990.319905,-4737.318029,-10732.986159,-1225.752797
20990.320238,-74.020594,-9178.553681,536.266849
20990.320571,0.000000,-5995.668130,4903.011187
20990.320904,4959.379811,-5625.565159,6894.859482
20990.321237,4515.256246,-6291.750507,8810.098227
20990.321570,2812.782580,-5773.606348,6588.421283
20990.321904,-74.020594,-6809.894666,1762.019645
20990.322237,-74.020594,-13619.789333,-76.609550
20990.322570,0.000000,-9548.656652,-3370.820191
20990.322903,-1036.288319,-11621.233289,-1225.752797
20990.323236,-74.020594,-11843.295072,-3753.867940
20990.323569,-2516.700203,-13545.768739,-2528.115143
20990.323902,-3849.070898,-12065.356855,-3294.210641
20990.324236,-2146.597232,-10807.006753,-689.485948
20990.324569,-666.185348,-8956.491898,919.314598
20990.324902,148.041188,-6809.894666,2987.772442
20990.325235,3478.967927,-6365.771101,4979.620737
20990.325568,2072.576638,-3034.844362,7354.516781
20990.325901,2220.617826,-8290.306550,6052.154434
20990.326234,-2294.638420,-8882.471304,-383.047749
20990.326568,-1480.411884,-9178.553681,-1608.800546
20990.326901,740.205942,-10214.842000,-1915.238745
20990.327234,1480.411884,-10881.027347,-1915.238745
20990.327567,-518.144159,-11103.089130,-3447.429741
20990.327900,0.000000,-11621.233289,-3064.381992
20990.328233,-1554.432478,-10140.821405,-2451.505594
20990.328566,-74.020594,-13027.624579,-76.609550
20990.328900,3478.967927,-10658.965565,842.705048
20990.329233,2368.659014,-9548.656652,4903.011187
20990.329566,6143.709319,-5921.647536,6665.030833
20990.329899,3330.926739,-7846.182985,6818.249932
20990.330232,1480.411884,-5255.462188,2834.553343
20990.330565,-3330.926739,-9992.780217,-536.266849
20990.330898,-3849.070898,-7179.997637,-3677.258390
20990.331232,-1702.473667,-8512.368333,-3677.258390
20990.331565,-518.144159,-12731.542202,-1455.581446
20990.331898,3108.864956,-8956.491898,-459.657299
20990.332231,1850.514855,-10288.862594,153.219100
20990.332564,1184.329507,-8660.409521,0.000000
20990.332897,1110.308913,-13027.624579,-1302.362347
20990.333230,1332.370696,-9548.656652,0.000000
20990.333564,2368.659014,-11695.253884,3677.258390
20990.333897,4663.297435,-9474.636058,3600.648841
20990.334230,888.247130,-7476.080014,2145.067394
20990.334563,-1406.391290,-9400.615463,1838.629195
20990.334896,-2442.679609,-9400.615463,383.047749
20990.335229,-4293.194464,-7179.997637,-1149.143247
20990.335562,-444.123565,-8142.265362,2374.896044
20990.335896,74.020594,-5403.503377,1225.752797
20990.336229,2368.659014,-7179.997637,6435.202183
20990.336562,4071.132681,-7994.224174,2374.896044
20990.336895,0.000000,-7179.997637,-2451.505594
20990.337228,-370.102971,-13027.624579,-3140.991542
20990.337561,-2664.741391,-13471.748144,-3907.087040
20990.337894,-1850.514855,-11917.315666,-3830.477490
20990.338228,-1924.535449,-11473.192101,-2221.676944
20990.338561,-74.020594,-10658.965565,-76.609550
20990.338894,-2368.659014,-7179.997637,3983.696590
20990.339227,1110.308913,-7698.141797,4826.401637
20990.339560,-74.020594,-5329.482782,1225.752797
20990.339893,1184.329507,-5403.503377,5515.887586
20990.340227,5255.462188,-5773.606348,4903.011187
20990.340560,4959.379811,-6809.894666,4826.401637
20990.340893,4071.132681,-7772.162391,306.438199
20990.341226,1406.391290,-11547.212695,-2757.943793
20990.341559,-1850.514855,-12065.356855,-6128.763984
20990.341892,-6513.812290,-13693.809927,-4903.011187
20990.342225,-3627.009116,-15100.201217,-7431.126331
20990.342559,-4219.173869,-10140.821405,-6205.373534
20990.342892,0.000000,-8956.491898,3064.381992
20990.343225,2886.803174,-5033.400406,3677.258390
20990.343558,0.000000,-6291.750507,5745.716235
20990.343891,0.000000,-4589.276840,4903.011187
20990.344224,1184.329507,-5033.400406,6052.154434
20990.344557,4737.318029,-4811.338623,5132.839837
20990.344891,5699.585753,-7698.141797,3140.991542
20990.345224,4959.379811,-9030.512492,-76.609550
20990.345557,1702.473667,-11917.315666,-3830.477490
20990.345890,-666.185348,-15322.262999,-4979.620737
20990.346223,-4811.338623,-14804.118840,-10035.851024
20990.346556,-7105.977043,-14878.139434,-7354.516781
20990.346889,-4737.318029,-12509.480420,-1302.362347
20990.347223,-74.020594,-8882.471304,-76.609550
20990.347556,2368.659014,-6143.709319,6128.763984
20990.347889,5329.482782,-2442.679609,9806.022374
20990.348222,2886.803174,-5181.441594,10878.556072
20990.348555,3775.050304,-1776.494261,6971.469032
20990.348888,2886.803174,-6365.771101,2068.457845
20990.349221,3701.029710,-9178.553681,-76.609550
20990.349555,1184.329507,-9548.656652,-76.609550
20990.349888,2146.597232,-12139.377449,-5286.058936
20990.350221,-2442.679609,-15396.283594,-9499.584175
20990.350554,-5699.585753,-15396.283594,-9269.755526
20990.350887,-4663.297435,-13841.851115,-7048.078582
20990.351220,-3108.864956,-14063.912898,-2068.457845
20990.351553,-370.102971,-7624.121203,2451.505594
20990.351887,0.000000,-4811.338623,6741.640382
20990.352220,6439.791695,-2368.659014,10648.727422
20990.352553,5033.400406,-3330.926739,13406.671215
20990.352886,3478.967927,-3849.070898,6052.154434
20990.353219,1776.494261,-4811.338623,2451.505594
20990.353552,1184.329507,-9548.656652,0.000000
20990.353885,1850.514855,-9844.739029,-3064.381992
20990.354219,-1480.411884,-14285.974681,-6665.030833
20990.354552,-3034.844362,-13249.686362,-9499.584175
20990.354885,-3627.009116,-16580.613101,-6818.249932
20990.355218,-4811.338623,-13101.645173,-8580.269578
20990.355551,-2738.761985,-13027.624579,-2528.115143
20990.355884,-74.020594,-9474.636058,-76.609550
20990.356217,2368.659014,-4219.173869,9193.145976
20990.356551,5921.647536,-3330.926739,14709.033562
20990.356884,5847.626942,-1184.329507,10878.556072
20990.357217,2146.597232,-3404.947333,7277.907231
20990.357550,2220.617826,-4737.318029,2834.553343
20990.357883,2886.803174,-10658.965565,-995.924147
20990.358216,0.000000,-11177.109724,-4903.011187
20990.358549,-74.020594,-16580.613101,-7431.126331
20990.358882,-3108.864956,-13101.645173,-9806.022374
20990.359215,-6513.812290,-15470.304188,-6741.640382
20990.359548,-1924.535449,-14211.954086,-4366.744339
20990.359881,-2072.576638,-10436.903782,-4213.525239
20990.360215,0.000000,-11029.068536,5362.668486
20990.360548,5847.626942,-3256.906145,9039.926876
20990.360881,5625.565159,-2368.659014,11261.603821
20990.361214,5033.400406,-2664.741391,12793.794817
20990.361547,1184.329507,-3923.091493,5822.325785
20990.361880,1110.308913,-6809.894666,1608.800546
20990.362213,0.000000,-9104.533087,-2145.067394
20990.362546,-74.020594,-11843.295072,-4979.620737
20990.362879,-2368.659014,-10881.027347,-5515.887586
20990.363212,-1184.329507,-14878.139434,-4366.744339
20990.363545,-2738.761985,-13397.727550,-7660.954980
20990.363878,-4737.318029,-13101.645173,-3370.820191
20990.364211,1110.308913,-11251.130318,-383.047749
20990.364544,296.082377,-9104.533087,3064.381992
20990.364877,3701.029710,-6735.874072,6052.154434
20990.365211,3849.070898,-4589.276840,7890.783629
20990.365544,1924.535449,-3627.009116,6281.983084
20990.365877,1184.329507,-4219.173869,6435.202183
20990.366210,-74.020594,-7105.977043,1762.019645
20990.366543,-74.020594,-5551.544565,-3677.258390
20990.366876,-74.020594,-11547.212695,-1915.238745
20990.367209,-1258.350101,-11843.295072,-6205.373534
20990.367542,-296.082377,-11251.130318,-5286.058936
20990.367875,-2146.597232,-13915.871710,-3907.087040
20990.368208,-1850.514855,-11325.150913,-3677.258390
20990.368541,-2368.659014,-11029.068536,-3677.258390
20990.368874,592.164754,-10436.903782,4826.401637
20990.369207,3182.885551,-7994.224174,2604.724693
20990.369540,3108.864956,-3627.009116,3677.258390
20990.369874,2072.576638,-7698.141797,7890.783629
20990.370207,-2368.659014,-5995.668130,2451.505594
20990.370540,-1924.535449,-6809.894666,689.485948
20990.370873,0.000000,-7772.162391,459.657299
20990.371206,1554.432478,-8068.244768,153.219100
20990.371539,2294.638420,-9474.636058,-76.609550
20990.371872,1850.514855,-10658.965565,-76.609550
20990.372205,-74.020594,-10140.821405,-4290.134789
20990.372538,0.000000,-12065.356855,-1915.238745
20990.372871,-74.020594,-14137.933492,-689.485948
20990.373204,-148.041188,-12287.418637,-229.828649
20990.373537,-518.144159,-8956.491898,229.828649
20990.373870,444.123565,-7624.121203,1225.752797
20990.374203,2072.576638,-7402.059420,4366.744339
20990.374537,-2738.761985,-4811.338623,3677.258390
20990.374870,-222.061783,-4737.318029,0.000000
20990.375203,-1184.329507,-8142.265362,3677.258390
20990.375536,4663.297435,-8882.471304,842.705048
20990.375869,2368.659014,-7179.997637,3983.696590
20990.376202,5255.462188,-9474.636058,4826.401637
20990.376535,2220.617826,-8364.327145,-2298.286494
20990.376868,370.102971,-13619.789333,-2681.334243
20990.377201,-888.247130,-11695.253884,-5515.887586
20990.377534,-2960.823768,-11917.315666,-5515.887586
20990.377867,-1998.556043,-12805.562797,-4903.011187
20990.378200,-1850.514855,-9992.780217,-919.314598
20990.378533,-1480.411884,-8512.368333,2068.457845
20990.378866,-444.123565,-4737.318029,4213.525239
20990.379199,-4293.194464,-4441.235652,2374.896044
20990.379533,-74.020594,-7105.977043,2374.896044
20990.379866,0.000000,-4811.338623,4903.011187
20990.380199,5847.626942,-7105.977043,6665.030833
20990.380532,6513.812290,-6069.688724,3983.696590
20990.380865,2368.659014,-10140.821405,306.438199
20990.381198,1628.453072,-12731.542202,-4060.306139
20990.381531,-1998.556043,-15026.180623,-6894.859482
20990.381864,-1850.514855,-14878.139434,-8656.879127
20990.382197,-4145.153275,-14285.974681,-7354.516781
20990.382530,-1258.350101,-11843.295072,-4366.744339
20990.382863,1702.473667,-5255.462188,612.876398
20990.383196,888.247130,-7994.224174,7890.783629
20990.383529,2294.638420,-3256.906145,6052.154434
20990.383862,1184.329507,-4071.132681,9729.412825
20990.384196,5699.585753,-1258.350101,9269.755526
20990.384529,7550.100608,-3849.070898,6971.469032
20990.384862,4737.318029,-7550.100608,2451.505594
20990.385195,5403.503377,-9474.636058,-1915.238745
20990.385528,-1258.350101,-14285.974681,-8580.269578
20990.385861,-3256.906145,-17542.880825,-11031.775171
20990.386194,-4293.194464,-17764.942608,-9882.631924
20990.386527,-5847.626942,-16210.510130,-8733.488677
20990.386860,-74.020594,-11843.295072,-1608.800546
20990.387193,1924.535449,-8512.368333,4979.620737
20990.387526,3330.926739,-4145.153275,9346.365076
20990.387859,3034.844362,-1702.473667,11261.603821
20990.388192,1998.556043,0.000000,8810.098227
20990.388525,296.082377,-74.020594,7354.516781
20990.388859,3552.988522,-7920.203579,4519.963438
20990.389192,2146.597232,-9474.636058,-1302.362347
20990.389525,-3552.988522,-9548.656652,-4903.011187
20990.389858,-1850.514855,-14804.118840,-7737.564530
20990.390191,-6587.832884,-16654.633695,-10725.336972
20990.390524,-7105.977043,-16654.633695,-10572.117872
20990.390857,-5847.626942,-14878.139434,-7814.174080
20990.391190,-3034.844362,-13027.624579,-689.485948
20990.391523,-1406.391290,-7254.018232,4060.306139
20990.391856,3108.864956,-4293.194464,10955.165621
20990.392189,3108.864956,-666.185348,12870.404366
20990.392522,2368.659014,-666.185348,11644.651570
20990.392855,4071.132681,-4737.318029,6052.154434
20990.393188,3478.967927,-5181.441594,2757.943793
20990.393521,0.000000,-9548.656652,1225.752797
20990.393855,1554.432478,-11251.130318,-5745.716235
20990.394188,-5181.441594,-14878.139434,-10189.070123
20990.394521,-6365.771101,-16876.695478,-11874.480219
20990.394854,-5625.565159,-16432.571912,-9499.584175
20990.395187,-5107.421000,-14285.974681,-5669.106685
20990.395520,1110.308913,-11251.130318,1762.019645
20990.395853,1850.514855,-8882.471304,7277.907231
20990.396186,5551.544565,-2442.679609,11031.775171
20990.396519,7105.977043,-1258.350101,12870.404366
20990.396852,4145.153275,-2960.823768,9729.412825
20990.397185,5847.626942,-4145.153275,5056.230287
20990.397518,2590.720797,-8808.450710,995.924147
20990.397851,2220.617826,-9844.739029,-2451.505594
20990.398184,-74.020594,-11843.295072,-5898.935335
20990.398518,-2886.803174,-11991.336260,-8810.098227
20990.398851,-2442.679609,-16580.613101,-7431.126331
20990.399184,-5921.647536,-12509.480420,-6128.763984
20990.399517,-1110.308913,-13471.748144,-3140.991542
20990.399850,-74.020594,-11843.295072,842.705048
20990.400183,3404.947333,-5181.441594,5362.668486
20990.400516,5403.503377,-3775.050304,7814.174080
20990.400849,5551.544565,-3701.029710,8580.269578
20990.401182,2072.576638,-4293.194464,5898.935335
20990.401515,-1184.329507,-7179.997637,1225.752797
20990.401848,2294.638420,-8290.306550,-2834.553343
20990.402181,1480.411884,-12435.459826,-76.609550
20990.402514,3478.967927,-12435.459826,-3447.429741
20990.402847,0.000000,-12509.480420,-3064.381992
20990.403180,-3552.988522,-14878.139434,-5439.278036
20990.403514,-3775.050304,-14508.036463,-3830.477490
20990.403847,-1776.494261,-10362.883188,-2528.115143
20990.404180,1036.288319,-9326.594869,536.266849
20990.404513,1110.308913,-8882.471304,4213.525239
20990.404846,1480.411884,-1258.350101,5515.887586
20990.405179,2294.638420,-7698.141797,7277.907231
20990.405512,296.082377,-2590.720797,2528.115143
20990.405845,-3552.988522,-6587.832884,2757.943793
20990.406178,-4441.235652,-9548.656652,-1225.752797
20990.406511,0.000000,-8216.285956,-2298.286494
20990.406844,-1702.473667,-12435.459826,-2987.772442
20990.407177,1110.308913,-8438.347739,-3600.648841
20990.407510,-1258.350101,-13915.871710,-2528.115143
20990.407843,-2368.659014,-11325.150913,-2145.067394
20990.408177,-74.020594,-10066.800811,-2528.115143
20990.408510,-1924.535449,-11991.336260,-383.047749
20990.408843,4145.153275,-6883.915261,3447.429741
20990.409176,3330.926739,-9474.636058,7890.783629
20990.409509,3849.070898,-3627.009116,6128.763984
20990.409842,2072.576638,-8142.265362,6665.030833
20990.410175,-3034.844362,-7179.997637,-3370.820191
20990.410508,-1184.329507,-8216.285956,-229.828649
20990.410841,0.000000,-10955.047942,-76.609550
20990.411174,2146.597232,-8068.244768,-229.828649
20990.411507,-592.164754,-8734.430116,-1225.752797
20990.411840,1036.288319,-9030.512492,-2145.067394
20990.412173,-1554.432478,-13027.624579,-2528.115143
20990.412506,-888.247130,-10140.821405,-3677.258390
20990.412840,2590.720797,-14211.954086,2374.896044
20990.413173,4663.297435,-9474.636058,229.828649
20990.413506,5033.400406,-7476.080014,3677.258390
20990.413839,5255.462188,-9178.553681,3600.648841
20990.414172,4811.338623,-8068.244768,4443.353888
20990.414505,-2886.803174,-10066.800811,842.705048
20990.414838,0.000000,-8882.471304,-1302.362347
20990.415171,-2590.720797,-7179.997637,-1838.629195
20990.415504,0.000000,-7179.997637,1838.629195
20990.415837,5551.544565,-6217.729913,2068.457845
20990.416170,1184.329507,-7179.997637,0.000000
20990.416503,1184.329507,-9696.697840,0.000000
20990.416836,-1850.514855,-10955.047942,-3677.258390
20990.417169,-740.205942,-11251.130318,-3753.867940
20990.417502,-370.102971,-12361.439231,-1072.533697
20990.417836,814.226536,-9548.656652,-766.095498
20990.418169,1628.453072,-7920.203579,612.876398
20990.418502,-888.247130,-10066.800811,2374.896044
20990.418835,-1998.556043,-6587.832884,-2145.067394
20990.419168,-5921.647536,-10140.821405,306.438199
20990.419501,-74.020594,-9474.636058,2374.896044
20990.419834,1110.308913,-4811.338623,3064.381992
20990.420167,5255.462188,-5625.565159,6818.249932
20990.420500,4737.318029,-6217.729913,4519.963438
20990.420833,1406.391290,-9622.677246,-76.609550
20990.421166,-2664.741391,-12213.398043,-3370.820191
20990.421499,-5699.585753,-12805.562797,-7431.126331
20990.421832,-5921.647536,-15544.324782,-6665.030833
20990.422165,-6513.812290,-13693.809927,-5286.058936
20990.422499,-1850.514855,-8290.306550,-1302.362347
20990.422832,-1776.494261,-5403.503377,1838.629195
20990.423165,-2368.659014,-5107.421000,5515.887586
20990.423498,-74.020594,-5921.647536,4826.401637
20990.423831,2294.638420,-4071.132681,4903.011187
20990.424164,6439.791695,-6217.729913,7890.783629
20990.424497,5255.462188,-8142.265362,4826.401637
20990.424830,4959.379811,-8586.388927,2221.676944
20990.425163,1332.370696,-9622.677246,-1991.848295
20990.425496,-74.020594,-12879.583391,-4979.620737
20990.425829,-1850.514855,-15988.448347,-7431.126331
20990.426162,-5921.647536,-15470.304188,-6435.202183
20990.426495,-3034.844362,-14804.118840,-5592.497135
20990.426828,-1776.494261,-8882.471304,-229.828649
20990.427162,592.164754,-5995.668130,4903.011187
20990.427495,2590.720797,-3701.029710,6435.202183
20990.427828,2294.638420,-3404.947333,7584.345430
20990.428161,3552.988522,-1924.535449,7048.078582
20990.428494,5551.544565,-6365.771101,4519.963438
20990.428827,3775.050304,-6069.688724,2528.115143
20990.429160,4663.297435,-9178.553681,-76.609550
20990.429493,2294.638420,-11843.295072,-5898.935335
20990.429826,-3552.988522,-16062.468941,-6435.202183
20990.430159,-2664.741391,-15988.448347,-7354.516781
20990.430492,-3849.070898,-14285.974681,-6588.421283
20990.430825,-1554.432478,-12805.562797,-3907.087040
20990.431158,814.226536,-9918.759623,842.705048
20990.431491,2294.638420,-7698.141797,6665.030833
20990.431824,3849.070898,-3627.009116,11031.775171
20990.432158,5847.626942,-1776.494261,8503.660028
20990.432491,1924.535449,-2442.679609,4290.134789
20990.432824,1184.329507,-7179.997637,4826.401637
20990.433157,3478.967927,-9474.636058,-76.609550
20990.433490,0.000000,-8660.409521,-2757.943793
20990.433823,-2442.679609,-13989.892304,-6818.249932
20990.434156,-7105.977043,-14434.015869,-9959.241474
20990.434489,-6587.832884,-14137.933492,-9346.365076
20990.434822,-3849.070898,-14211.954086,-4979.620737
20990.435155,-74.020594,-11843.295072,-2528.115143
20990.435488,-2368.659014,-8660.409521,4903.011187
20990.435821,2368.659014,-4811.338623,11414.822920
20990.436154,5847.626942,-2368.659014,8503.660028
20990.436487,2960.823768,-3923.091493,10955.165621
20990.436821,2146.597232,-3775.050304,4903.011187
20990.437154,1184.329507,-7476.080014,2451.505594
20990.437487,2590.720797,-8586.388927,689.485948
20990.437820,592.164754,-9844.739029,-1991.848295
20990.438153,-3552.988522,-11917.315666,-6128.763984
20990.438486,-4811.338623,-13323.706956,-9269.755526
20990.438819,-5477.523971,-13989.892304,-9346.365076
20990.439152,-4589.276840,-11621.233289,-7354.516781
20990.439485,-1776.494261,-14582.057057,1455.581446
20990.439818,3478.967927,-6365.771101,4213.525239
20990.440151,3997.112087,-2442.679609,9806.022374
20990.440484,7698.141797,-3404.947333,11414.822920
20990.440817,7031.956449,-4737.318029,9422.974625
20990.441150,2368.659014,-6291.750507,3524.039291
20990.441484,2590.720797,-8808.450710,229.828649
20990.441817,370.102971,-12361.439231,-3217.601092
20990.442150,0.000000,-12213.398043,-4290.134789
20990.442483,592.164754,-11621.233289,-2834.553343
20990.442816,-1258.350101,-13027.624579,-7354.516781
20990.443149,-3552.988522,-12509.480420,-6741.640382
20990.443482,-2960.823768,-13323.706956,-2221.676944
20990.443815,0.000000,-8068.244768,-1225.752797
20990.444148,1480.411884,-9252.574275,6205.373534
20990.444481,4071.132681,-3775.050304,6435.202183
20990.444814,4737.318029,-5255.462188,8886.707777
20990.445147,3478.967927,-5921.647536,5286.058936
20990.445480,-1776.494261,-7179.997637,1608.800546
20990.445813,-2738.761985,-8364.327145,-4290.134789
20990.446146,-1184.329507,-12731.542202,-689.485948
20990.446480,-74.020594,-12139.377449,-76.609550
20990.446813,1406.391290,-9474.636058,-919.314598
20990.447146,-666.185348,-9696.697840,-2528.115143
20990.447479,-962.267725,-11695.253884,-2528.115143
20990.447812,-2960.823768,-10436.903782,-1762.019645
20990.448145,-3256.906145,-7920.203579,-3217.601092
20990.448478,-74.020594,-13027.624579,1149.143247
20990.448811,0.000000,-7476.080014,1532.190996
20990.449144,4663.297435,-9178.553681,7277.907231
20990.449477,1628.453072,-3627.009116,3677.258390
20990.449810,-518.144159,-7920.203579,1762.019645
20990.450143,-2590.720797,-9992.780217,0.000000
20990.450476,0.000000,-9622.677246,-76.609550
20990.450809,518.144159,-9770.718434,-76.609550
20990.451143,592.164754,-8956.491898,0.000000
20990.451476,2294.638420,-8882.471304,-3217.601092
20990.451809,1776.494261,-11177.109724,1149.143247
20990.452142,-74.020594,-12657.521608,-76.609550
20990.452475,-1554.432478,-10732.986159,-3677.258390
20990.452808,-592.164754,-10955.047942,-536.266849
20990.453141,0.000000,-10436.903782,1149.143247
20990.453474,1924.535449,-7105.977043,3064.381992
20990.453807,740.205942,-6957.935855,3294.210641
20990.454140,0.000000,-7772.162391,3064.381992
20990.454473,-2442.679609,-7031.956449,306.438199
20990.454806,-2812.782580,-7550.100608,-383.047749
20990.455139,148.041188,-6883.915261,1149.143247
20990.455472,1110.308913,-9178.553681,2681.334243
20990.455805,2368.659014,-4811.338623,0.000000
20990.456139,2590.720797,-10658.965565,-383.047749
20990.456472,0.000000,-10732.986159,-3064.381992
20990.456805,3182.885551,-13619.789333,-1302.362347
20990.457138,-74.020594,-15988.448347,-1608.800546
20990.457471,592.164754,-10140.821405,-2145.067394
20990.457804,-74.020594,-10658.965565,-1072.533697
20990.458137,1776.494261,-10288.862594,3983.696590
20990.458470,1258.350101,-6513.812290,4826.401637
20990.458803,-1924.535449,-7698.141797,4596.572988
20990.459136,-666.185348,-4737.318029,306.438199
20990.459469,1998.556043,-5403.503377,306.438199
20990.459802,4737.318029,-6587.832884,6358.592633
20990.460135,4663.297435,-4589.276840,1225.752797
20990.460468,0.000000,-10732.986159,-3677.258390
20990.460801,1480.411884,-12879.583391,-2834.553343
20990.461134,-2442.679609,-14137.933492,-6818.249932
20990.461467,-518.144159,-13693.809927,-7048.078582
20990.461800,-3256.906145,-13471.748144,-5286.058936
20990.462133,-3627.009116,-9548.656652,-3677.258390
20990.462466,2368.659014,-8586.388927,5439.278036
20990.462799,1702.473667,-9474.636058,7277.907231
20990.463132,814.226536,-2738.761985,6128.763984
20990.463465,1110.308913,-2664.741391,5362.668486
20990.463798,4441.235652,-5033.400406,6128.763984
20990.464131,5255.462188,-5551.544565,5669.106685
20990.464464,3775.050304,-7698.141797,1838.629195
20990.464797,888.247130,-9844.739029,-2145.067394
20990.465131,-3849.070898,-14063.912898,-4060.306139
20990.465464,-2442.679609,-13619.789333,-9882.631924
20990.465797,-4219.173869,-13249.686362,-9806.022374
20990.466130,-5329.482782,-14285.974681,-4136.915689
20990.466463,-666.185348,-12435.459826,-3140.991542
20990.466796,1184.329507,-6735.874072,3830.477490
20990.467129,2368.659014,-5181.441594,7890.783629
20990.467462,4515.256246,-3108.864956,8886.707777
20990.467795,2960.823768,-3034.844362,7507.735880
20990.468128,5625.565159,-6957.935855,6511.811733
20990.468461,5551.544565,-7920.203579,4749.792088
20990.468794,4663.297435,-8882.471304,1838.629195
20990.469127,4663.297435,-9474.636058,-2528.115143
20990.469460,-1184.329507,-15396.283594,-6205.373534
20990.469793,-5329.482782,-14285.974681,-9806.022374
20990.470126,-4885.359217,-17764.942608,-7431.126331
20990.470459,-2442.679609,-14211.954086,-6818.249932
20990.470792,-1850.514855,-12435.459826,-76.609550
20990.471125,148.041188,-6809.894666,4213.525239
20990.471458,2516.700203,-4367.215058,9499.584175
20990.471791,3849.070898,-2664.741391,9576.193725
20990.472124,2664.741391,-3775.050304,9729.412825
20990.472457,2664.741391,-5403.503377,8427.050478
20990.472790,1184.329507,-7179.997637,6128.763984
20990.473123,1924.535449,-8882.471304,2374.896044
20990.473456,0.000000,-6365.771101,-4443.353888
20990.473789,-2738.761985,-12435.459826,-7890.783629
20990.474122,-4959.379811,-14804.118840,-11797.870669
20990.474455,-7846.182985,-15396.283594,-9959.241474
20990.474788,-8068.244768,-14285.974681,-6818.249932
20990.475121,-5477.523971,-11621.233289,-2451.505594
20990.475454,-666.185348,-9178.553681,3294.210641
20990.475787,5181.441594,-5033.400406,13406.671215
20990.476120,7031.956449,0.000000,10955.165621
20990.476454,2368.659014,-1258.350101,10035.851024
20990.476787,3849.070898,-6735.874072,8350.440928
20990.477120,2886.803174,-7772.162391,3677.258390
20990.477453,3923.091493,-9770.718434,229.828649
20990.477786,-518.144159,-12213.398043,-4673.182538
20990.478119,-2368.659014,-13767.830521,-8733.488677
20990.478452,-5329.482782,-13693.809927,-10725.336972
20990.478785,-2442.679609,-15396.283594,-8044.002729
20990.479118,-2442.679609,-14211.954086,-4979.620737
20990.479451,-2738.761985,-9548.656652,0.000000
20990.479784,2442.679609,-8586.388927,6971.469032
20990.480117,2960.823768,-4293.194464,10035.851024
20990.480450,4663.297435,-2590.720797,10189.070123
20990.480783,2368.659014,-3701.029710,7737.564530
20990.481116,1554.432478,-6069.688724,4290.134789
20990.481449,592.164754,-8956.491898,2145.067394
20990.481782,2886.803174,-9474.636058,-3753.867940
20990.482115,-1776.494261,-11029.068536,-3677.258390
20990.482448,0.000000,-10140.821405,-4290.134789
20990.482781,-666.185348,-15396.283594,-7431.126331
20990.483114,-3256.906145,-12805.562797,-4826.401637
20990.483447,-1406.391290,-13175.665768,-2451.505594
20990.483780,1702.473667,-11695.253884,1608.800546
20990.484113,4441.235652,-6291.750507,4903.011187
20990.484446,4145.153275,-5699.585753,7967.393179
20990.484779,7105.977043,-6069.688724,9346.365076
20990.485112,1554.432478,-6587.832884,7660.954980
20990.485445,-592.164754,-6217.729913,2528.115143
20990.485778,-1850.514855,-6365.771101,-1378.971896
20990.486111,-1776.494261,-9548.656652,-306.438199
20990.486444,1110.308913,-9474.636058,-2528.115143
20990.486777,-1554.432478,-8438.347739,-5515.887586
20990.487110,-4441.235652,-12065.356855,-5975.544884
20990.487444,-2442.679609,-13027.624579,-3753.867940
20990.487777,-2960.823768,-11769.274478,-2298.286494
20990.488110,222.061783,-10732.986159,-1532.190996
20990.488443,444.123565,-9548.656652,2911.162892
20990.488776,1480.411884,-5995.668130,3677.258390
20990.489109,2368.659014,-4811.338623,7967.393179
20990.489442,3478.967927,-5921.647536,4443.353888
20990.489775,-1776.494261,-4811.338623,0.000000
20990.490108,-2368.659014,-9622.677246,1455.581446
20990.490441,0.000000,-7920.203579,-1302.362347
20990.490774,-592.164754,-9696.697840,306.438199
20990.491107,1406.391290,-7772.162391,-229.828649
20990.491440,1480.411884,-8586.388927,0.000000
20990.491773,-74.020594,-11695.253884,-766.095498
20990.492106,0.000000,-8068.244768,-1762.019645
20990.492439,-74.020594,-13027.624579,-3447.429741
20990.492772,0.000000,-10140.821405,0.000000
20990.493105,1480.411884,-9844.739029,3217.601092
20990.493438,1480.411884,-9548.656652,1225.752797
20990.493771,1554.432478,-7698.141797,2834.553343
20990.494104,-1480.411884,-9252.574275,2374.896044
20990.494437,1702.473667,-5921.647536,2221.676944
20990.494770,1702.473667,-8290.306550,2374.896044
20990.495103,4737.318029,-7105.977043,5439.278036
20990.495436,2664.741391,-3627.009116,1225.752797
20990.495769,2368.659014,-10732.986159,2374.896044
20990.496102,2294.638420,-10066.800811,-3524.039291
20990.496435,-2220.617826,-13249.686362,-4060.306139
20990.496768,370.102971,-11991.336260,-5592.497135
20990.497101,-1702.473667,-13545.768739,-2604.724693
20990.497434,-296.082377,-10955.047942,-612.876398
20990.497767,-1924.535449,-7179.997637,306.438199
20990.498100,-74.020594,-9474.636058,2374.896044
20990.498434,-2368.659014,-4811.338623,4826.401637
20990.498767,-74.020594,-9474.636058,4826.401637
20990.499100,-962.267725,-3923.091493,2451.505594
20990.499433,1110.308913,-6513.812290,4519.963438
20990.499766,3034.844362,-6587.832884,3064.381992
20990.500099,2442.679609,-8882.471304,306.438199
20990.500432,-1184.329507,-13397.727550,-4290.134789
20990.500765,-4145.153275,-14285.974681,-4903.011187
20990.501098,-2442.679609,-14211.954086,-5209.449386
20990.501431,-666.185348,-13767.830521,-2068.457845
20990.501764,-1258.350101,-10510.924376,-536.266849
20990.502097,-518.144159,-7550.100608,1149.143247
20990.502430,-1776.494261,-3627.009116,2451.505594
20990.502763,-962.267725,-6957.935855,4826.401637
20990.503096,-5255.462188,-2442.679609,2451.505594
20990.503429,-74.020594,-6513.812290,4213.525239
20990.503762,4071.132681,-6809.894666,5439.278036
20990.504095,2368.659014,-6587.832884,3064.381992
20990.504428,2368.659014,-7994.224174,0.000000
20990.504761,1110.308913,-11843.295072,-2834.553343
20990.505094,-814.226536,-13027.624579,-5362.668486
20990.505427,-1184.329507,-14434.015869,-4596.572988
20990.505760,-74.020594,-14804.118840,-6205.373534
20990.506093,-1184.329507,-12213.398043,-4136.915689
20990.506426,1184.329507,-10658.965565,3600.648841
20990.506759,3478.967927,-4737.318029,3600.648841
20990.507092,0.000000,-4811.338623,7048.078582
20990.507425,0.000000,-4145.153275,4366.744339
20990.507758,962.267725,-5107.421000,4903.011187
20990.508091,4071.132681,-6809.894666,4213.525239
20990.508424,3478.967927,-9474.636058,4060.306139
20990.508757,5847.626942,-7105.977043,-1915.238745
20990.509090,2664.741391,-12435.459826,-76.609550
20990.509424,1702.473667,-15396.283594,-3753.867940
20990.509757,-2146.597232,-12657.521608,-9116.536426
20990.510090,-4293.194464,-17024.736666,-7431.126331
20990.510423,-888.247130,-12953.603985,-3140.991542
20990.510756,-1480.411884,-10362.883188,1072.533697
20990.511089,2220.617826,-5403.503377,3907.087040
20990.511422,1924.535449,-3478.967927,5439.278036
20990.511755,1480.411884,-3034.844362,4903.011187
20990.512088,5921.647536,-4737.318029,8197.221829
20990.512421,4367.215058,-6587.832884,4366.744339
20990.512754,5699.585753,-6735.874072,2451.505594
20990.513087,3478.967927,-12953.603985,2374.896044
20990.513420,2294.638420,-10955.047942,-2681.334243
20990.513753,-3552.988522,-12361.439231,-7354.516781
20990.514086,-4811.338623,-12879.583391,-8810.098227
20990.514419,-5551.544565,-11843.295072,-8427.050478
20990.514752,-5921.647536,-13175.665768,-3447.429741
20990.515085,-3034.844362,-8512.368333,-1149.143247
20990.515418,-1998.556043,-7550.100608,4979.620737
20990.515751,1184.329507,-2738.761985,8886.707777
20990.516084,3478.967927,-4737.318029,9729.412825
20990.516417,2886.803174,-3404.947333,4979.620737
20990.516750,2368.659014,-4811.338623,4903.011187
20990.517083,2368.659014,-9104.533087,2374.896044
20990.517416,2368.659014,-9548.656652,-1838.629195
20990.517749,-444.123565,-13545.768739,-4979.620737
20990.518082,-3627.009116,-15544.324782,-8197.221829
20990.518415,-5477.523971,-14582.057057,-8733.488677
20990.518748,-4811.338623,-16580.613101,-6511.811733
20990.519081,-4145.153275,-10732.986159,-1532.190996
20990.519414,1110.308913,-6291.750507,1225.752797
20990.519747,2664.741391,-5107.421000,10189.070123
20990.520080,5847.626942,-4145.153275,11568.042020
20990.520414,2886.803174,-3552.988522,7890.783629
20990.520747,1258.350101,-5181.441594,5286.058936
20990.521080,1258.350101,-7920.203579,3294.210641
20990.521413,1332.370696,-7624.121203,-766.095498
20990.521746,-1184.329507,-11621.233289,-3294.210641
20990.522079,-1480.411884,-12361.439231,-4060.306139
20990.522412,-5329.482782,-13397.727550,-9193.145976
20990.522745,-4737.318029,-15026.180623,-6205.373534
20990.523078,-2738.761985,-11695.253884,-4903.011187
20990.523411,0.000000,-9844.739029,0.000000
20990.523744,5551.544565,-6513.812290,5592.497135
20990.524077,6217.729913,-5181.441594,8120.612279
20990.524410,7920.203579,-3404.947333,9193.145976
20990.524743,4737.318029,-6217.729913,7277.907231
20990.525076,3478.967927,-8290.306550,1762.019645
20990.525409,296.082377,-9844.739029,842.705048
20990.525742,2294.638420,-13619.789333,-1302.362347
20990.526075,1110.308913,-10362.883188,-4596.572988
20990.526408,0.000000,-9548.656652,-3064.381992
20990.526741,-888.247130,-10584.944971,-3983.696590
20990.527074,-2442.679609,-11325.150913,-5056.230287
20990.527407,-814.226536,-11843.295072,-3064.381992
20990.527740,592.164754,-9770.718434,1685.410096
20990.528073,2664.741391,-6883.915261,2451.505594
20990.528406,6957.935855,-9474.636058,8503.660028
20990.528739,3923.091493,-5477.523971,6128.763984
20990.529072,0.000000,-5107.421000,5056.230287
20990.529405,-1776.494261,-9474.636058,1991.848295
20990.529738,-3404.947333,-9548.656652,-3983.696590
20990.530071,-2220.617826,-10732.986159,-2298.286494
20990.530404,-296.082377,-9474.636058,-1302.362347
20990.530737,0.000000,-8512.368333,-842.705048
20990.531070,-1110.308913,-8364.327145,-2451.505594
20990.531403,-2146.597232,-10807.006753,-1378.971896
20990.531737,-2368.659014,-9474.636058,-2298.286494
20990.532070,-444.123565,-10288.862594,-766.095498
20990.532403,1998.556043,-13027.624579,4826.401637
20990.532736,1702.473667,-6661.853478,2451.505594
20990.533069,2368.659014,-6217.729913,6741.640382
20990.533402,2886.803174,-9474.636058,2374.896044
20990.533735,-3182.885551,-8068.244768,0.000000
20990.534068,-6513.812290,-8660.409521,-766.095498
20990.534401,-2220.617826,-7698.141797,-2374.896044
20990.534734,-1258.350101,-9326.594869,-306.438199
20990.535067,888.247130,-8068.244768,1762.019645
20990.535400,222.061783,-7698.141797,-76.609550
20990.535733,-74.020594,-7772.162391,-2451.505594
20990.536066,-148.041188,-11547.212695,-1302.362347
20990.536399,-962.267725,-13027.624579,-2528.115143
20990.536732,-740.205942,-9844.739029,0.000000
20990.537065,2294.638420,-11843.295072,3294.210641
20990.537398,1924.535449,-7846.182985,2757.943793
20990.537731,1406.391290,-8438.347739,2374.896044
20990.538064,-1184.329507,-7920.203579,1378.971896
20990.538397,-2960.823768,-6291.750507,153.219100
20990.538730,-74.020594,-5995.668130,-3677.258390
20990.539063,3256.906145,-9474.636058,3447.429741
20990.539396,3478.967927,-7179.997637,1838.629195
20990.539729,3552.988522,-5403.503377,2451.505594
20990.540062,2442.679609,-8956.491898,-995.924147
20990.540395,1702.473667,-11843.295072,-1302.362347
20990.540728,222.061783,-10658.965565,-3830.477490
20990.541061,0.000000,-12657.521608,-2451.505594
20990.541394,1332.370696,-12287.418637,-919.314598
20990.541727,-1776.494261,-8364.327145,0.000000
20990.542060,3478.967927,-9474.636058,3600.648841
20990.542393,518.144159,-3775.050304,2451.505594
20990.542727,-1332.370696,-8290.306550,4213.525239
20990.543060,-222.061783,-6513.812290,0.000000
20990.543393,2220.617826,-7994.224174,2298.286494
20990.543726,4663.297435,-8290.306550,4443.353888
20990.544059,3108.864956,-8438.347739,2681.334243
20990.544392,1702.473667,-10362.883188,-995.924147
20990.544725,0.000000,-13323.706956,-1915.238745
20990.545058,-2442.679609,-12509.480420,-4903.011187
20990.545391,-2368.659014,-11917.315666,-4290.134789
20990.545724,-370.102971,-13027.624579,-1608.800546
20990.546057,444.123565,-9474.636058,0.000000
20990.546390,222.061783,-7105.977043,4673.182538
20990.546723,-370.102971,-4589.276840,4749.792088
20990.547056,-3627.009116,-5995.668130,1225.752797
20990.547389,-666.185348,-6513.812290,1762.019645
20990.547722,444.123565,-8882.471304,2681.334243
20990.548055,2516.700203,-9770.718434,3677.258390
20990.548388,1776.494261,-9696.697840,1149.143247
20990.548721,666.185348,-9696.697840,-3294.210641
20990.549054,-74.020594,-12731.542202,-2834.553343
20990.549387,-3552.988522,-13397.727550,-4903.011187
20990.549720,-1850.514855,-14211.954086,-4979.620737
20990.550053,-5773.606348,-12213.398043,-2451.505594
20990.550386,-3552.988522,-7179.997637,1532.190996
20990.550719,1702.473667,-5329.482782,4519.963438
20990.551052,1184.329507,-4145.153275,6971.469032
20990.551385,-592.164754,-4663.297435,5745.716235
20990.551718,666.185348,-4441.235652,4060.306139
20990.552051,1628.453072,-4811.338623,1838.629195
20990.552384,2368.659014,-13027.624579,4213.525239
20990.552717,5255.462188,-7105.977043,-76.609550
20990.553050,-2072.576638,-11029.068536,-2451.505594
20990.553383,3108.864956,-13027.624579,-3753.867940
20990.553717,-4367.215058,-13101.645173,-8580.269578
20990.554050,-3627.009116,-14804.118840,-7124.688131
20990.554383,-888.247130,-12065.356855,-2528.115143
20990.554716,-2072.576638,-9844.739029,306.438199
20990.555049,3552.988522,-3627.009116,5209.449386
20990.555382,6291.750507,-7105.977043,9729.412825
20990.555715,5107.421000,-1554.432478,7660.954980
20990.556048,0.000000,-4811.338623,7354.516781
20990.556381,4663.297435,-7105.977043,1149.143247
20990.556714,4737.318029,-8364.327145,1838.629195
20990.557047,3552.988522,-11621.233289,-459.657299
20990.557380,4663.297435,-10288.862594,-4903.011187
20990.557713,-2368.659014,-16284.530724,-8350.440928
20990.558046,-1554.432478,-15100.201217,-6205.373534
20990.558379,-2442.679609,-15396.283594,-6511.811733
20990.558713,-1184.329507,-10140.821405,-1225.752797
20990.559046,1258.350101,-9474.636058,4826.401637
20990.559379,4071.132681,-5921.647536,5439.278036
20990.559712,5329.482782,-1258.350101,11261.603821
20990.560045,0.000000,-4219.173869,12027.699319
20990.560378,1258.350101,-5403.503377,4673.182538
20990.560711,-1332.370696,-8290.306550,306.438199
20990.561044,222.061783,-9770.718434,-76.609550
20990.561378,0.000000,-9326.594869,-3447.429741
20990.561711,-1554.432478,-11917.315666,-4903.011187
20990.562044,-1924.535449,-11695.253884,-5515.887586
20990.562377,-5847.626942,-11325.150913,-7967.393179
20990.562710,-4737.318029,-10732.986159,-4290.134789
20990.563043,-2442.679609,-13027.624579,-2528.115143
20990.563376,-1258.350101,-9474.636058,842.705048
20990.563710,592.164754,-5403.503377,8733.488677
20990.564043,3182.885551,-2960.823768,7277.907231
20990.564376,2812.782580,-3923.091493,8886.707777
20990.564709,-666.185348,-6365.771101,4903.011187
20990.565042,-2220.617826,-7179.997637,1225.752797
20990.565375,-2368.659014,-9548.656652,-1225.752797
20990.565708,-1258.350101,-11251.130318,-4290.134789
20990.566042,-74.020594,-11843.295072,-4979.620737
20990.566375,-4737.318029,-10140.821405,-5209.449386
20990.566708,-5921.647536,-12213.398043,-4596.572988
20990.567041,-4737.318029,-11621.233289,-4903.011187
20990.567374,-1480.411884,-10955.047942,-1455.581446
20990.567707,-1184.329507,-10436.903782,2451.505594
20990.568040,2072.576638,-6883.915261,4366.744339
20990.568374,4071.132681,-7105.977043,7277.907231
20990.568707,1776.494261,-3627.009116,7967.393179
20990.569040,3478.967927,-5921.647536,4826.401637
20990.569373,0.000000,-6587.832884,2451.505594
20990.569706,2886.803174,-8882.471304,-1302.362347
20990.570039,2294.638420,-11103.089130,-1915.238745
20990.570372,3997.112087,-10658.965565,-1915.238745
20990.570705,814.226536,-11621.233289,-3064.381992
20990.571039,888.247130,-12583.501014,-3600.648841
20990.571372,-1184.329507,-10881.027347,-3907.087040
20990.571705,-592.164754,-12213.398043,-1455.581446
20990.572038,222.061783,-8364.327145,-2451.505594
20990.572371,666.185348,-7772.162391,2451.505594
20990.572704,5847.626942,-7698.141797,6052.154434
20990.573037,3478.967927,-2516.700203,5669.106685
20990.573371,1702.473667,-5921.647536,3294.210641
20990.573704,-1406.391290,-7328.038826,536.266849
20990.574037,-2812.782580,-8734.430116,-1225.752797
20990.574370,1110.308913,-8734.430116,-995.924147
20990.574703,1998.556043,-9474.636058,-76.609550
20990.575036,0.000000,-8660.409521,-919.314598
20990.575369,2590.720797,-13323.706956,-76.609550
20990.575703,2294.638420,-12435.459826,-4979.620737
20990.576036,0.000000,-11029.068536,-4290.134789
20990.576369,518.144159,-13841.851115,-689.485948
20990.576702,0.000000,-10881.027347,459.657299
20990.577035,148.041188,-8660.409521,2681.334243
20990.577368,2738.761985,-6143.709319,5056.230287
20990.577701,-74.020594,-6513.812290,3294.210641
20990.578035,-3404.947333,-6069.688724,2604.724693
20990.578368,-4737.318029,-7772.162391,306.438199
20990.578701,-2442.679609,-7105.977043,536.266849
20990.579034,-1184.329507,-7476.080014,1225.752797
20990.579367,2146.597232,-7698.141797,536.266849
20990.579700,-1184.329507,-6661.853478,-3983.696590
20990.580033,-4737.318029,-11917.315666,-4290.134789
20990.580366,-74.020594,-13027.624579,-4060.306139
20990.580700,-3923.091493,-12065.356855,-3677.258390
