#time,accel_x,accel_y,accel_z
22156.506999,9400.615463,-7846.182985,919.314598
22156.507333,9104.533087,-9474.636058,1532.190996
22156.507667,7254.018232,-9770.718434,-1608.800546
22156.508001,6217.729913,-9918.759623,-2298.286494
22156.508334,5255.462188,-9400.615463,-3064.381992
22156.508668,5625.565159,-8660.409521,-2757.943793
22156.509002,6291.750507,-7179.997637,-4903.011187
22156.509336,8290.306550,-8956.491898,2374.896044
22156.509669,11769.274478,-9474.636058,3600.648841
22156.510003,11473.192101,-6883.915261,3064.381992
22156.510337,11251.130318,-8068.244768,2834.553343
22156.510671,11621.233289,-9770.718434,3217.601092
22156.511004,8808.450710,-10955.047942,1455.581446
22156.511338,4367.215058,-11547.212695,-1455.581446
22156.511672,2294.638420,-13619.789333,-2834.553343
22156.512006,0.000000,-11621.233289,-1302.362347
22156.512340,2886.803174,-11843.295072,-76.609550
22156.512673,3330.926739,-4811.338623,0.000000
22156.513007,4737.318029,-6513.812290,4826.401637
22156.513341,9400.615463,-4737.318029,4213.525239
22156.513675,10436.903782,-5403.503377,5362.668486
22156.514008,11843.295072,-6957.935855,5439.278036
22156.514342,11325.150913,-7920.203579,612.876398
22156.514676,8290.306550,-8364.327145,-2145.067394
22156.515010,11769.274478,-11843.295072,-4979.620737
22156.515343,7402.059420,-10732.986159,-4903.011187
22156.515677,3552.988522,-11917.315666,-4596.572988
22156.516011,5625.565159,-15396.283594,-2528.115143
22156.516345,3552.988522,-10807.006753,-1991.848295
22156.516678,6513.812290,-8512.368333,1532.190996
22156.517012,9696.697840,-6439.791695,2911.162892
22156.517346,12583.501014,-5551.544565,6588.421283
22156.517680,11843.295072,-4811.338623,8580.269578
22156.518013,15322.262999,-7105.977043,7277.907231
22156.518347,10807.006753,-8586.388927,4443.353888
22156.518681,7846.182985,-10066.800811,-612.876398
22156.519015,4811.338623,-9770.718434,-4060.306139
22156.519348,888.247130,-9548.656652,-6128.763984
22156.519682,3404.947333,-11843.295072,-3753.867940
22156.520016,4663.297435,-8586.388927,-5745.716235
22156.520350,6513.812290,-9548.656652,612.876398
22156.520683,12361.439231,-9178.553681,2374.896044
22156.521017,8660.409521,-7772.162391,0.000000
22156.521351,10881.027347,-8068.244768,0.000000
22156.521685,11473.192101,-8586.388927,1685.410096
22156.522018,13545.768739,-8142.265362,3294.210641
22156.522352,10658.965565,-10732.986159,3677.258390
22156.522686,12361.439231,-13027.624579,2068.457845
22156.523020,10066.800811,-7179.997637,766.095498
22156.523353,11843.295072,-8364.327145,5209.449386
22156.523687,14137.933492,-5921.647536,1149.143247
22156.524021,11843.295072,-6291.750507,1072.533697
22156.524355,10288.862594,-7476.080014,-2604.724693
22156.524689,10510.924376,-8512.368333,-3677.258390
22156.525022,8512.368333,-12139.377449,-4443.353888
22156.525356,7624.121203,-14211.954086,-4979.620737
22156.525690,9400.615463,-13027.624579,-4979.620737
22156.526024,9770.718434,-10436.903782,2298.286494
22156.526357,14211.954086,-8364.327145,7277.907231
22156.526691,15322.262999,-6217.729913,5898.935335
22156.527025,17024.736666,-7105.977043,7890.783629
22156.527359,12805.562797,-7328.038826,5669.106685
22156.527692,13545.768739,-7698.141797,1762.019645
22156.528026,10658.965565,-8660.409521,0.000000
22156.528360,9474.636058,-7698.141797,-2604.724693
22156.528694,8882.471304,-7179.997637,-6128.763984
22156.529027,7105.977043,-9844.739029,-5515.887586
22156.529361,8660.409521,-14211.954086,-4979.620737
22156.529695,6439.791695,-12139.377449,-4290.134789
22156.530029,9400.615463,-10066.800811,-76.609550
22156.530362,12287.418637,-7994.224174,2757.943793
22156.530696,17838.963202,-7105.977043,7507.735880
22156.531030,16358.551318,-6883.915261,8733.488677
22156.531364,11843.295072,-6365.771101,8273.831378
22156.531697,10140.821405,-9400.615463,2451.505594
22156.532031,6809.894666,-8068.244768,76.609550
22156.532365,6809.894666,-6587.832884,-3217.601092
22156.532699,4737.318029,-7476.080014,-3677.258390
22156.533032,1184.329507,-8364.327145,-7354.516781
22156.533366,2294.638420,-9474.636058,-9346.365076
22156.533700,5921.647536,-10140.821405,0.000000
22156.534034,10658.965565,-9844.739029,2374.896044
22156.534367,15396.283594,-8660.409521,5209.449386
22156.534701,11325.150913,-10140.821405,4596.572988
22156.535035,12657.521608,-7698.141797,2604.724693
22156.535369,13027.624579,-10436.903782,6205.373534
22156.535702,14137.933492,-10362.883188,4213.525239
22156.536036,8882.471304,-7179.997637,4213.525239
22156.536370,9400.615463,-7920.203579,-3064.381992
22156.536704,3552.988522,-8956.491898,-4979.620737
22156.537037,5847.626942,-13619.789333,-4979.620737
22156.537371,8808.450710,-9474.636058,-3140.991542
22156.537705,9252.574275,-10658.965565,2068.457845
22156.538039,10732.986159,-3182.885551,1455.581446
22156.538373,9400.615463,-9474.636058,995.924147
22156.538706,12139.377449,-11473.192101,2528.115143
22156.539040,14137.933492,-10362.883188,4213.525239
22156.539374,11843.295072,-5995.668130,2451.505594
22156.539708,12139.377449,-7179.997637,3217.601092
22156.540041,11177.109724,-11843.295072,2374.896044
22156.540375,7105.977043,-6291.750507,0.000000
22156.540709,9696.697840,-5625.565159,-2298.286494
22156.541043,7624.121203,-8808.450710,-4826.401637
22156.541376,8734.430116,-11473.192101,-1762.019645
22156.541710,8512.368333,-11177.109724,-1685.410096
22156.542044,8882.471304,-7476.080014,0.000000
22156.542378,8068.244768,-11843.295072,2374.896044
22156.542711,11473.192101,-6513.812290,-76.609550
22156.543045,7105.977043,-9548.656652,4443.353888
22156.543379,12953.603985,-9474.636058,4826.401637
22156.543713,7402.059420,-8956.491898,2528.115143
22156.544046,5477.523971,-10955.047942,536.266849
22156.544380,4737.318029,-10658.965565,0.000000
22156.544714,2590.720797,-8142.265362,-689.485948
22156.545048,2368.659014,-9474.636058,-2221.676944
22156.545381,4663.297435,-10658.965565,-1302.362347
22156.545715,2960.823768,-10140.821405,0.000000
22156.546049,2960.823768,-7476.080014,3140.991542
22156.546383,8216.285956,-8290.306550,3294.210641
22156.546716,5403.503377,-11547.212695,-689.485948
22156.547050,6217.729913,-11399.171507,4979.620737
22156.547384,5181.441594,-8808.450710,1762.019645
22156.547718,3997.112087,-10066.800811,3294.210641
22156.548051,1702.473667,-8882.471304,-76.609550
22156.548385,-2072.576638,-8808.450710,-1378.971896
22156.548719,3404.947333,-6069.688724,842.705048
22156.549053,2146.597232,-8290.306550,306.438199
22156.549386,592.164754,-5995.668130,-2145.067394
22156.549720,1776.494261,-9548.656652,1685.410096
22156.550054,4071.132681,-9474.636058,536.266849
22156.550388,3775.050304,-4811.338623,1225.752797
22156.550722,7105.977043,-8882.471304,2374.896044
22156.551055,8808.450710,-8290.306550,1149.143247
22156.551389,3330.926739,-12435.459826,459.657299
22156.551723,1776.494261,-9548.656652,-1532.190996
22156.552057,444.123565,-10584.944971,-2528.115143
22156.552390,296.082377,-11843.295072,-1838.629195
22156.552724,2368.659014,-8660.409521,3600.648841
22156.553058,1702.473667,-8882.471304,0.000000
22156.553392,592.164754,-7179.997637,-3677.258390
22156.553725,592.164754,-9252.574275,3600.648841
22156.554059,7105.977043,-4811.338623,4903.011187
22156.554393,6809.894666,-6661.853478,4826.401637
22156.554727,5625.565159,-8586.388927,2145.067394
22156.555060,2220.617826,-9548.656652,-2451.505594
22156.555394,2886.803174,-11843.295072,-1302.362347
22156.555728,592.164754,-11769.274478,-76.609550
22156.556062,1110.308913,-12213.398043,-3677.258390
22156.556395,-2368.659014,-10140.821405,-1608.800546
22156.556729,-74.020594,-10658.965565,-689.485948
22156.557063,1702.473667,-9178.553681,-383.047749
22156.557397,2220.617826,-7920.203579,2068.457845
22156.557730,2886.803174,-7031.956449,2604.724693
22156.558064,4885.359217,-9474.636058,6971.469032
22156.558398,3108.864956,-5995.668130,4903.011187
22156.558732,4663.297435,-11251.130318,2374.896044
22156.559065,4737.318029,-2442.679609,0.000000
22156.559399,888.247130,-15396.283594,-383.047749
22156.559733,1702.473667,-8290.306550,-2681.334243
22156.560067,-2368.659014,-11325.150913,-4749.792088
22156.560400,-2294.638420,-12213.398043,-842.705048
22156.560734,-4071.132681,-8586.388927,-2374.896044
22156.561068,-2738.761985,-9178.553681,-536.266849
22156.561402,-2368.659014,-8364.327145,1225.752797
22156.561735,-74.020594,-4219.173869,-1838.629195
22156.562069,888.247130,-10288.862594,7507.735880
22156.562403,4663.297435,-9178.553681,7890.783629
22156.562737,-1110.308913,-7772.162391,2757.943793
22156.563071,740.205942,-4959.379811,2911.162892
22156.563404,-1628.453072,-10881.027347,612.876398
22156.563738,-2960.823768,-8808.450710,-3600.648841
22156.564072,-2516.700203,-10214.842000,-2911.162892
22156.564406,-3256.906145,-12805.562797,-766.095498
22156.564739,-814.226536,-5699.585753,-3677.258390
22156.565073,-3034.844362,-12361.439231,842.705048
22156.565407,-1850.514855,-9178.553681,-1072.533697
22156.565741,-1480.411884,-9918.759623,-76.609550
22156.566074,-1184.329507,-7772.162391,2757.943793
22156.566408,2886.803174,-6513.812290,2068.457845
22156.566742,1110.308913,-9252.574275,0.000000
22156.567076,2368.659014,-9326.594869,7277.907231
22156.567409,2738.761985,-8290.306550,2374.896044
22156.567743,4145.153275,-6735.874072,4903.011187
22156.568077,0.000000,-10066.800811,-612.876398
22156.568411,-1924.535449,-10584.944971,-4060.306139
22156.568744,-888.247130,-9030.512492,-2604.724693
22156.569078,-1554.432478,-13027.624579,-2528.115143
22156.569412,-74.020594,-10362.883188,-3140.991542
22156.569746,-4441.235652,-10140.821405,-1685.410096
22156.570079,0.000000,-8364.327145,1225.752797
22156.570413,1406.391290,-9474.636058,2374.896044
22156.570747,4737.318029,-9918.759623,6971.469032
22156.571081,4145.153275,-5329.482782,5439.278036
22156.571414,3923.091493,-7402.059420,4519.963438
22156.571748,4663.297435,-6661.853478,2221.676944
22156.572082,1406.391290,-9474.636058,-1915.238745
22156.572416,4663.297435,-8364.327145,-7354.516781
22156.572749,-1480.411884,-14211.954086,-76.609550
22156.573083,1702.473667,-13027.624579,-1915.238745
22156.573417,-1554.432478,-12139.377449,-1762.019645
22156.573751,-1554.432478,-10658.965565,-3753.867940
22156.574084,814.226536,-8734.430116,1455.581446
22156.574418,370.102971,-6957.935855,3294.210641
22156.574752,1998.556043,-5625.565159,3830.477490
22156.575086,0.000000,-8068.244768,3983.696590
22156.575420,4737.318029,-4811.338623,2451.505594
22156.575753,6439.791695,-10658.965565,4826.401637
22156.576087,-1406.391290,-7772.162391,-3064.381992
22156.576421,-2368.659014,-8660.409521,-3677.258390
22156.576755,-3627.009116,-12435.459826,-4213.525239
22156.577088,-444.123565,-10658.965565,-6281.983084
22156.577422,148.041188,-12879.583391,0.000000
22156.577756,-1776.494261,-11695.253884,-766.095498
22156.578090,1776.494261,-7179.997637,0.000000
22156.578423,-2146.597232,-11917.315666,3294.210641
22156.578757,3182.885551,-6069.688724,3753.867940
22156.579091,2516.700203,-9548.656652,8427.050478
22156.579425,4071.132681,-2368.659014,3600.648841
22156.579758,0.000000,-11251.130318,-76.609550
22156.580092,-4441.235652,-5995.668130,-4290.134789
22156.580426,-370.102971,-12435.459826,-2528.115143
22156.580760,-3775.050304,-8882.471304,-4443.353888
22156.581093,3478.967927,-11843.295072,-689.485948
22156.581427,-4367.215058,-12731.542202,-689.485948
22156.581761,-962.267725,-6883.915261,-1225.752797
22156.582095,-1332.370696,-11843.295072,1915.238745
22156.582428,2886.803174,-9474.636058,4826.401637
22156.582762,4071.132681,-9474.636058,7277.907231
22156.583096,-3552.988522,-9548.656652,6128.763984
22156.583430,3108.864956,-3552.988522,1762.019645
22156.583763,-370.102971,-9474.636058,536.266849
22156.584097,3552.988522,-2442.679609,459.657299
22156.584431,-3330.926739,-10955.047942,-2604.724693
22156.584765,-2886.803174,-8956.491898,-5975.544884
22156.585098,-3182.885551,-11843.295072,-4749.792088
22156.585432,-4071.132681,-12139.377449,-4979.620737
22156.585766,4071.132681,-4737.318029,-1915.238745
22156.586100,-592.164754,-17172.777854,2145.067394
22156.586433,6439.791695,-11843.295072,4826.401637
22156.586767,-1184.329507,-9548.656652,3830.477490
22156.587101,3256.906145,-11251.130318,5515.887586
22156.587435,1628.453072,-3034.844362,5515.887586
22156.587769,2442.679609,-4885.359217,153.219100
22156.588102,2516.700203,-10140.821405,1762.019645
22156.588436,-2516.700203,-6957.935855,-3830.477490
22156.588770,-4737.318029,-10732.986159,-6128.763984
22156.589104,-666.185348,-11843.295072,-2528.115143
22156.589437,-1406.391290,-11251.130318,-4366.744339
22156.589771,-4145.153275,-9844.739029,0.000000
22156.590105,3478.967927,-11547.212695,4826.401637
22156.590439,1332.370696,-7328.038826,1455.581446
22156.590772,3404.947333,-11029.068536,4903.011187
22156.591106,2886.803174,-7920.203579,5362.668486
22156.591439,3034.844362,-6957.935855,3907.087040
22156.591772,1184.329507,-9252.574275,4443.353888
22156.592106,2294.638420,-2960.823768,-4749.792088
22156.592439,-3404.947333,-10807.006753,-2987.772442
22156.592772,-296.082377,-9474.636058,-689.485948
22156.593106,-74.020594,-13619.789333,-5592.497135
22156.593439,-1184.329507,-13101.645173,-1762.019645
22156.593772,0.000000,-12065.356855,1378.971896
22156.594106,814.226536,-8290.306550,1149.143247
22156.594439,3552.988522,-9770.718434,6894.859482
22156.594772,1184.329507,-9548.656652,6435.202183
22156.595106,6809.894666,-3775.050304,5669.106685
22156.595439,-2368.659014,-10732.986159,6894.859482
22156.595772,1850.514855,-5033.400406,-689.485948
22156.596106,370.102971,-3034.844362,-1225.752797
22156.596439,-7550.100608,-13397.727550,-3524.039291
22156.596772,-666.185348,-4145.153275,-8656.879127
22156.597106,-7476.080014,-17764.942608,-6741.640382
22156.597439,0.000000,-7179.997637,-3294.210641
22156.597772,-1850.514855,-11843.295072,-76.609550
22156.598106,2516.700203,-9178.553681,2987.772442
22156.598439,8068.244768,-7031.956449,4749.792088
22156.598772,-148.041188,-14434.015869,6358.592633
22156.599106,7105.977043,-5995.668130,5515.887586
22156.599439,-592.164754,-14878.139434,7277.907231
22156.599772,-74.020594,-3775.050304,0.000000
22156.600106,-2220.617826,-4811.338623,-4903.011187
22156.600439,-4145.153275,-9548.656652,-612.876398
22156.600772,-4737.318029,-6291.750507,-6588.421283
22156.601106,-3997.112087,-11547.212695,-1915.238745
22156.601439,-4515.256246,-10362.883188,-3524.039291
22156.601772,-4737.318029,-11547.212695,-2374.896044
22156.602106,-370.102971,-8290.306550,1149.143247
22156.602439,296.082377,-8660.409521,6665.030833
22156.602772,3478.967927,-5995.668130,2451.505594
22156.603106,2368.659014,-8290.306550,5439.278036
22156.603439,2886.803174,-14211.954086,4826.401637
22156.603772,1110.308913,-5699.585753,2681.334243
22156.604106,222.061783,-10362.883188,2068.457845
22156.604439,-2664.741391,-5921.647536,-1302.362347
22156.604772,-1924.535449,-6883.915261,-6435.202183
22156.605106,-1480.411884,-5699.585753,-4136.915689
22156.605439,2738.761985,-11843.295072,-1915.238745
22156.605772,592.164754,-9548.656652,-1225.752797
22156.606106,1184.329507,-10140.821405,2145.067394
22156.606439,-74.020594,-13915.871710,-383.047749
22156.606772,4515.256246,-5033.400406,0.000000
22156.607106,2664.741391,-14285.974681,5592.497135
22156.607439,9252.574275,-3552.988522,5439.278036
22156.607772,5033.400406,-9696.697840,6588.421283
22156.608106,592.164754,-7476.080014,1838.629195
22156.608439,2294.638420,-4589.276840,-4903.011187
22156.608772,-3552.988522,-14211.954086,-1608.800546
22156.609106,1702.473667,-9030.512492,-2528.115143
22156.609439,-5107.421000,-10510.924376,-4903.011187
22156.609773,-5699.585753,-8734.430116,-5439.278036
22156.610106,1776.494261,-7031.956449,-1608.800546
22156.610439,1406.391290,-12287.418637,5056.230287
22156.610773,5403.503377,-6587.832884,4443.353888
22156.611106,1776.494261,-12065.356855,5515.887586
22156.611439,3478.967927,-5773.606348,0.000000
22156.611773,5921.647536,-9548.656652,2451.505594
22156.612106,-148.041188,-12953.603985,4519.963438
22156.612439,3108.864956,-2146.597232,-919.314598
22156.612773,-5921.647536,-16062.468941,-2145.067394
22156.613106,-1258.350101,-6513.812290,-4443.353888
22156.613439,-8882.471304,-7772.162391,-6128.763984
22156.613773,-4811.338623,-14211.954086,-1608.800546
22156.614106,-2442.679609,-8882.471304,-1302.362347
22156.614439,-3552.988522,-9844.739029,4290.134789
22156.614773,888.247130,-4737.318029,3907.087040
22156.615106,2072.576638,-8142.265362,6665.030833
22156.615439,-2368.659014,-6957.935855,3524.039291
22156.615773,4367.215058,-7105.977043,6052.154434
22156.616106,2294.638420,-8290.306550,1225.752797
22156.616439,0.000000,-7179.997637,0.000000
22156.616773,-518.144159,-12879.583391,-76.609550
22156.617106,-2442.679609,-6957.935855,-8427.050478
22156.617439,-1480.411884,-14804.118840,-689.485948
22156.617773,-2516.700203,-8512.368333,-6128.763984
22156.618106,814.226536,-13841.851115,306.438199
22156.618439,1702.473667,-9326.594869,383.047749
22156.618773,6735.874072,-8882.471304,4213.525239
22156.619106,4663.297435,-4811.338623,3064.381992
22156.619439,7254.018232,-11251.130318,9729.412825
22156.619773,8216.285956,-6513.812290,6052.154434
22156.620106,1184.329507,-11325.150913,4826.401637
22156.620439,-74.020594,-5329.482782,-3447.429741
22156.620773,-4293.194464,-10658.965565,-5898.935335
22156.621106,-814.226536,-9696.697840,-2681.334243
22156.621439,-4515.256246,-8734.430116,-3983.696590
22156.621773,-2960.823768,-10732.986159,-4903.011187
22156.622106,-1184.329507,-8956.491898,0.000000
22156.622439,-74.020594,-14211.954086,-383.047749
22156.622773,3997.112087,-4219.173869,3677.258390
22156.623106,0.000000,-11325.150913,6128.763984
22156.623439,7624.121203,-7105.977043,2374.896044
22156.623773,2886.803174,-10066.800811,4826.401637
22156.624106,5773.606348,-7031.956449,689.485948
22156.624439,-592.164754,-10510.924376,766.095498
22156.624773,-1776.494261,-5403.503377,-4290.134789
22156.625106,814.226536,-12435.459826,-4673.182538
22156.625439,-7624.121203,-14730.098246,-2451.505594
22156.625773,-962.267725,-7698.141797,-5745.716235
22156.626106,-5403.503377,-15396.283594,2068.457845
22156.626439,1406.391290,-6513.812290,2068.457845
22156.626773,740.205942,-5403.503377,6128.763984
22156.627106,1628.453072,-9326.594869,8503.660028
22156.627439,7031.956449,-5329.482782,3294.210641
22156.627773,-6291.750507,-13545.768739,2374.896044
22156.628106,2442.679609,-7031.956449,612.876398
22156.628439,-2664.741391,-9844.739029,-229.828649
22156.628773,1036.288319,-5551.544565,-1915.238745
22156.629106,-370.102971,-9030.512492,536.266849
22156.629439,-2516.700203,-9178.553681,-5286.058936
22156.629773,-2368.659014,-9548.656652,-3064.381992
22156.630106,-5625.565159,-16136.489536,-1991.848295
22156.630439,7031.956449,-8808.450710,4826.401637
22156.630773,-2664.741391,-9548.656652,3677.258390
22156.631106,7920.203579,-6809.894666,3217.601092
22156.631439,4515.256246,-8364.327145,6128.763984
22156.631773,4737.318029,-10362.883188,7737.564530
22156.632106,8586.388927,-222.061783,3753.867940
22156.632439,-5699.585753,-14211.954086,-76.609550
22156.632773,2294.638420,-3552.988522,-1915.238745
22156.633106,-9548.656652,-15396.283594,-6818.249932
22156.633439,-5329.482782,-7179.997637,-5362.668486
22156.633773,-5625.565159,-11769.274478,-4596.572988
22156.634106,0.000000,-7179.997637,0.000000
22156.634439,2590.720797,-8290.306550,3830.477490
22156.634773,222.061783,-9770.718434,2528.115143
22156.635106,3849.070898,-8068.244768,3064.381992
22156.635439,0.000000,-9548.656652,0.000000
22156.635773,9400.615463,-9474.636058,4826.401637
22156.636106,1184.329507,-6661.853478,-536.266849
22156.636439,1184.329507,-9548.656652,536.266849
22156.636773,-74.020594,-13915.871710,-2528.115143
22156.637106,-2368.659014,-11029.068536,-766.095498
22156.637439,1110.308913,-7550.100608,-5132.839837
22156.637773,-3256.906145,-14878.139434,-2145.067394
22156.638106,962.267725,-7698.141797,-1302.362347
22156.638439,-888.247130,-12805.562797,4060.306139
22156.638773,5847.626942,-7105.977043,2987.772442
22156.639106,1184.329507,-7179.997637,5669.106685
22156.639439,4071.132681,-9474.636058,2987.772442
22156.639773,1110.308913,-5329.482782,536.266849
22156.640106,296.082377,-12287.418637,1762.019645
22156.640439,-2220.617826,-8956.491898,-2451.505594
22156.640773,0.000000,-9326.594869,229.828649
22156.641106,-3552.988522,-9844.739029,-3217.601092
22156.641439,-2368.659014,-9252.574275,1455.581446
22156.641773,-4219.173869,-7624.121203,-2221.676944
22156.642106,0.000000,-7772.162391,-2068.457845
22156.642440,888.247130,-11843.295072,3447.429741
22156.642773,2294.638420,-4811.338623,2451.505594
22156.643106,1480.411884,-10140.821405,5898.935335
22156.643440,4663.297435,-9474.636058,6052.154434
22156.643773,4663.297435,-7105.977043,306.438199
22156.644106,-2368.659014,-10732.986159,1072.533697
22156.644440,3478.967927,-7698.141797,-1302.362347
22156.644773,-4145.153275,-12213.398043,-3907.087040
22156.645106,-1776.494261,-11177.109724,-459.657299
22156.645440,-4219.173869,-8808.450710,-1225.752797
22156.645773,-4145.153275,-8956.491898,-1838.629195
22156.646106,0.000000,-4811.338623,4903.011187
22156.646440,-74.020594,-7105.977043,-383.047749
22156.646773,2368.659014,-5995.668130,3600.648841
22156.647106,-2368.659014,-9548.656652,2681.334243
22156.647440,2072.576638,-7179.997637,-1838.629195
22156.647773,518.144159,-8882.471304,536.266849
22156.648106,740.205942,-10584.944971,-2451.505594
22156.648440,-1554.432478,-9104.533087,-3447.429741
22156.648773,1110.308913,-11843.295072,-1915.238745
22156.649106,0.000000,-11473.192101,2374.896044
22156.649440,-74.020594,-9178.553681,-1685.410096
22156.649773,74.020594,-6291.750507,-3064.381992
22156.650106,1332.370696,-12213.398043,1608.800546
22156.650440,3478.967927,-11843.295072,5362.668486
22156.650773,4663.297435,-5847.626942,4213.525239
22156.651106,1406.391290,-12953.603985,4979.620737
22156.651440,1776.494261,-5551.544565,2451.505594
22156.651773,-1406.391290,-7772.162391,-919.314598
22156.652106,3478.967927,-7105.977043,1762.019645
22156.652440,0.000000,-7179.997637,-4903.011187
22156.652773,-3256.906145,-11917.315666,-689.485948
22156.653106,-1258.350101,-9474.636058,-3753.867940
22156.653440,-4663.297435,-9770.718434,-5132.839837
22156.653773,-2960.823768,-9252.574275,0.000000
22156.654106,-1258.350101,-7920.203579,0.000000
22156.654440,5107.421000,-5107.421000,1149.143247
22156.654773,1776.494261,-8956.491898,3064.381992
22156.655106,4663.297435,-6217.729913,-1225.752797
22156.655440,2368.659014,-11621.233289,5592.497135
22156.655773,8216.285956,-12435.459826,6052.154434
22156.656106,2664.741391,-5995.668130,1838.629195
22156.656440,-1628.453072,-11103.089130,-1685.410096
22156.656773,-444.123565,-8438.347739,-3830.477490
22156.657106,-2442.679609,-10955.047942,-5822.325785
22156.657440,1776.494261,-11177.109724,919.314598
22156.657773,-2368.659014,-7179.997637,612.876398
22156.658106,-1998.556043,-8364.327145,-1225.752797
22156.658440,296.082377,-5107.421000,3140.991542
22156.658773,-1258.350101,-9030.512492,2068.457845
22156.659106,4145.153275,-4441.235652,3983.696590
22156.659440,0.000000,-11917.315666,4903.011187
22156.659773,4367.215058,-3849.070898,-2221.676944
22156.660106,-4737.318029,-11325.150913,1225.752797
22156.660440,-740.205942,-8882.471304,-2528.115143
22156.660773,-2442.679609,-13027.624579,-3753.867940
22156.661106,-4145.153275,-11917.315666,-2451.505594
22156.661440,-74.020594,-11473.192101,842.705048
22156.661773,-3627.009116,-8882.471304,-1455.581446
22156.662106,444.123565,-6217.729913,1072.533697
22156.662440,1110.308913,-9178.553681,2834.553343
22156.662773,3478.967927,-10658.965565,5975.544884
22156.663106,5625.565159,-3330.926739,7354.516781
22156.663440,1702.473667,-14211.954086,2374.896044
22156.663773,1628.453072,-3182.885551,1532.190996
22156.664106,-3849.070898,-14211.954086,-1302.362347
22156.664440,1554.432478,-5551.544565,-1455.581446
22156.664773,-3330.926739,-12731.542202,-2221.676944
22156.665106,-2738.761985,-9178.553681,-5515.887586
22156.665440,-1998.556043,-12731.542202,-2528.115143
22156.665773,-5995.668130,-9548.656652,-6741.640382
22156.666106,1110.308913,-7698.141797,2374.896044
22156.666440,-666.185348,-10658.965565,4213.525239
22156.666773,7920.203579,-1406.391290,2528.115143
22156.667106,1702.473667,-8882.471304,4136.915689
22156.667440,5107.421000,-7179.997637,2221.676944
22156.667773,1924.535449,-11325.150913,2145.067394
22156.668106,4959.379811,-10807.006753,2068.457845
22156.668440,4737.318029,-8364.327145,-1838.629195
22156.668773,-2368.659014,-14582.057057,0.000000
22156.669106,3478.967927,-11251.130318,-4979.620737
22156.669440,-1258.350101,-10881.027347,-3677.258390
22156.669773,0.000000,-9548.656652,0.000000
22156.670106,2294.638420,-7698.141797,1455.581446
22156.670440,-370.102971,-8956.491898,2221.676944
22156.670773,962.267725,-5773.606348,3447.429741
22156.671106,740.205942,-5773.606348,3600.648841
22156.671440,2960.823768,-5403.503377,2757.943793
22156.671773,2368.659014,-8364.327145,6052.154434
22156.672106,1628.453072,-5625.565159,-612.876398
22156.672440,-1406.391290,-11399.171507,-1225.752797
22156.672773,-2442.679609,-11251.130318,-4979.620737
22156.673106,-3478.967927,-13027.624579,-5592.497135
22156.673440,-2368.659014,-9548.656652,-3677.258390
22156.673773,-74.020594,-12731.542202,-689.485948
22156.674106,-74.020594,-9178.553681,-2451.505594
22156.674440,1110.308913,-11843.295072,4826.401637
22156.674773,2738.761985,-8290.306550,2987.772442
22156.675107,3034.844362,-8364.327145,7507.735880
22156.675440,6957.935855,-4737.318029,6052.154434
22156.675773,3775.050304,-9918.759623,7277.907231
22156.676107,2368.659014,-5995.668130,5362.668486
22156.676440,-4737.318029,-9548.656652,-1838.629195
22156.676773,-3627.009116,-11547.212695,-4060.306139
22156.677107,-4219.173869,-8882.471304,-7431.126331
22156.677440,-6513.812290,-11917.315666,-3983.696590
22156.677773,-4219.173869,-10362.883188,-4519.963438
22156.678107,-4737.318029,-8808.450710,-3600.648841
22156.678440,-1554.432478,-11325.150913,3677.258390
22156.678773,3330.926739,-6365.771101,4749.792088
22156.679107,2886.803174,-8290.306550,6665.030833
22156.679440,3552.988522,-7105.977043,6052.154434
22156.679773,5847.626942,-8290.306550,2987.772442
22156.680107,296.082377,-6587.832884,3677.258390
22156.680440,3256.906145,-8956.491898,995.924147
22156.680773,-3256.906145,-11029.068536,-4596.572988
22156.681107,-2368.659014,-11029.068536,-4903.011187
22156.681440,-2590.720797,-11843.295072,-5515.887586
22156.681773,-2368.659014,-11325.150913,-1302.362347
22156.682107,-1776.494261,-7179.997637,-2451.505594
22156.682440,-74.020594,-11843.295072,4213.525239
22156.682773,3478.967927,-3552.988522,3600.648841
22156.683107,-2072.576638,-5995.668130,1225.752797
22156.683440,5255.462188,-9474.636058,6971.469032
22156.683773,3997.112087,-5699.585753,3294.210641
22156.684107,740.205942,-10658.965565,2451.505594
22156.684440,5403.503377,-4441.235652,-153.219100
22156.684773,-2072.576638,-16136.489536,-2681.334243
22156.685107,296.082377,-10732.986159,-1302.362347
22156.685440,-74.020594,-9474.636058,-7660.954980
22156.685773,-2368.659014,-15026.180623,-995.924147
22156.686107,-74.020594,-11029.068536,-76.609550
22156.686440,2294.638420,-11843.295072,1149.143247
22156.686773,2960.823768,-8216.285956,6511.811733
22156.687107,2442.679609,-7550.100608,4596.572988
22156.687440,6217.729913,-5403.503377,5745.716235
22156.687773,2368.659014,-8142.265362,5592.497135
22156.688107,2368.659014,-7328.038826,4596.572988
22156.688440,-666.185348,-6883.915261,459.657299
22156.688773,-962.267725,-10362.883188,-3600.648841
22156.689107,-3330.926739,-10881.027347,-4290.134789
22156.689440,-3923.091493,-9030.512492,-7507.735880
22156.689773,-2960.823768,-15026.180623,-1225.752797
22156.690107,-74.020594,-8882.471304,-76.609550
22156.690440,1702.473667,-10658.965565,229.828649
22156.690773,1332.370696,-6587.832884,4060.306139
22156.691107,4663.297435,-10658.965565,3294.210641
22156.691440,1776.494261,-8734.430116,6205.373534
22156.691773,5551.544565,-6735.874072,4673.182538
22156.692107,1480.411884,-8068.244768,4213.525239
22156.692440,1184.329507,-5699.585753,612.876398
22156.692773,-4737.318029,-8364.327145,-1532.190996
22156.693107,-1850.514855,-9474.636058,-6435.202183
22156.693440,-4737.318029,-9548.656652,-6741.640382
22156.693773,-5921.647536,-12509.480420,-3370.820191
22156.694107,-4145.153275,-6587.832884,-4060.306139
22156.694440,-1924.535449,-9474.636058,383.047749
22156.694773,148.041188,-8290.306550,2451.505594
22156.695106,3997.112087,-6735.874072,4903.011187
22156.695439,4367.215058,-8586.388927,5745.716235
22156.695773,3552.988522,-6883.915261,4826.401637
22156.696106,2886.803174,-7698.141797,919.314598
22156.696439,592.164754,-8364.327145,1838.629195
22156.696772,-4737.318029,-10140.821405,0.000000
22156.697105,-74.020594,-11843.295072,-2528.115143
22156.697439,-3552.988522,-9548.656652,-6741.640382
22156.697772,-4145.153275,-10732.986159,-3064.381992
22156.698105,-1924.535449,-9326.594869,0.000000
22156.698438,-2960.823768,-7179.997637,919.314598
22156.698771,5847.626942,-7105.977043,4673.182538
22156.699104,1480.411884,-7031.956449,8580.269578
22156.699438,2294.638420,-7698.141797,3600.648841
22156.699771,1776.494261,-2442.679609,0.000000
22156.700104,-2960.823768,-12509.480420,-1532.190996
22156.700437,518.144159,-8660.409521,-2221.676944
22156.700770,-1554.432478,-11325.150913,-3140.991542
22156.701104,0.000000,-10955.047942,-3447.429741
22156.701437,1110.308913,-13471.748144,-76.609550
22156.701770,-1258.350101,-9548.656652,-2145.067394
22156.702103,4663.297435,-9474.636058,1762.019645
22156.702436,1998.556043,-10658.965565,1149.143247
22156.702769,1184.329507,-7179.997637,6741.640382
22156.703103,1554.432478,-6809.894666,3907.087040
22156.703436,-1776.494261,-7920.203579,1532.190996
22156.703769,4145.153275,-6661.853478,995.924147
22156.704102,2442.679609,-10881.027347,4443.353888
22156.704435,4959.379811,-8882.471304,3600.648841
22156.704769,-2886.803174,-7476.080014,-1225.752797
22156.705102,-5995.668130,-11991.336260,-4673.182538
22156.705435,-2812.782580,-7550.100608,-3524.039291
22156.705768,-4885.359217,-9252.574275,-4749.792088
22156.706101,-1776.494261,-9104.533087,-1838.629195
22156.706434,-148.041188,-7031.956449,-2604.724693
22156.706768,0.000000,-10732.986159,3677.258390
22156.707101,8808.450710,-8290.306550,7277.907231
22156.707434,1406.391290,-7698.141797,2451.505594
22156.707767,3849.070898,-8364.327145,3753.867940
22156.708100,592.164754,-9400.615463,-383.047749
22156.708434,2960.823768,-10140.821405,1225.752797
22156.708767,-666.185348,-11029.068536,153.219100
22156.709100,2146.597232,-10658.965565,-76.609550
22156.709433,-1258.350101,-9178.553681,-2451.505594
22156.709766,-1702.473667,-10658.965565,-766.095498
22156.710099,-74.020594,-9474.636058,-2834.553343
22156.710433,-4737.318029,-8660.409521,-1838.629195
22156.710766,2294.638420,-7994.224174,-76.609550
22156.711099,0.000000,-7624.121203,2221.676944
22156.711432,-1184.329507,-9548.656652,2221.676944
22156.711765,-814.226536,-7698.141797,1455.581446
22156.712099,0.000000,-6291.750507,-4290.134789
22156.712432,-1258.350101,-8364.327145,0.000000
22156.712765,2294.638420,-11547.212695,1762.019645
22156.713098,2294.638420,-9474.636058,-1302.362347
22156.713431,0.000000,-10140.821405,766.095498
22156.713764,1110.308913,-9474.636058,-4443.353888
22156.714098,1702.473667,-10214.842000,1608.800546
22156.714431,-222.061783,-8882.471304,-2298.286494
22156.714764,1628.453072,-8808.450710,383.047749
22156.715097,-1776.494261,-10732.986159,1532.190996
22156.715430,3552.988522,-7105.977043,3600.648841
22156.715764,-74.020594,-9474.636058,2068.457845
22156.716097,3552.988522,-5403.503377,4290.134789
22156.716430,2960.823768,-10436.903782,7890.783629
22156.716763,1702.473667,-6957.935855,-3524.039291
22156.717096,444.123565,-12805.562797,-1608.800546
22156.717429,-6217.729913,-12583.501014,-1685.410096
22156.717763,1258.350101,-6587.832884,-3370.820191
22156.718096,-5773.606348,-11029.068536,-1225.752797
22156.718429,296.082377,-6291.750507,-1915.238745
22156.718762,148.041188,-6587.832884,0.000000
22156.719095,2442.679609,-11029.068536,2221.676944
22156.719429,7994.224174,-8290.306550,5439.278036
22156.719762,0.000000,-10510.924376,2681.334243
22156.720095,3552.988522,-7179.997637,4903.011187
22156.720428,-74.020594,-10658.965565,-76.609550
22156.720761,3478.967927,-10510.924376,-1225.752797
22156.721094,-74.020594,-10658.965565,1455.581446
22156.721428,-74.020594,-10658.965565,-2528.115143
22156.721761,-2590.720797,-10436.903782,-1378.971896
22156.722094,-5921.647536,-9474.636058,-2757.943793
22156.722427,-148.041188,-6513.812290,-1685.410096
22156.722760,-1258.350101,-11177.109724,3907.087040
22156.723094,0.000000,-2738.761985,2451.505594
22156.723427,1110.308913,-9474.636058,1762.019645
22156.723760,148.041188,-9474.636058,3140.991542
22156.724093,0.000000,-4219.173869,1225.752797
22156.724426,-666.185348,-7920.203579,-1072.533697
22156.724759,148.041188,-10066.800811,-4673.182538
22156.725093,-4959.379811,-16062.468941,-6128.763984
22156.725426,-2294.638420,-9252.574275,-5439.278036
22156.725759,-1332.370696,-9548.656652,-995.924147
22156.726092,1702.473667,-13027.624579,3600.648841
22156.726425,5847.626942,-3552.988522,2987.772442
22156.726759,0.000000,-8512.368333,2757.943793
22156.727092,8290.306550,-7698.141797,6971.469032
22156.727425,0.000000,-8068.244768,4060.306139
22156.727758,2368.659014,-9104.533087,1991.848295
22156.728091,1184.329507,-8142.265362,3447.429741
22156.728424,-1776.494261,-8882.471304,-3600.648841
22156.728758,0.000000,-10881.027347,-2451.505594
22156.729091,-1850.514855,-13027.624579,-2528.115143
22156.729424,-2812.782580,-9326.594869,-6205.373534
22156.729757,-4145.153275,-10288.862594,306.438199
22156.730090,-74.020594,-10658.965565,-1915.238745
22156.730424,-740.205942,-9326.594869,2068.457845
22156.730757,3108.864956,-5329.482782,4060.306139
22156.731090,6365.771101,-7105.977043,6128.763984
22156.731423,5847.626942,-6883.915261,7354.516781
22156.731756,5551.544565,-9474.636058,5439.278036
22156.732089,1110.308913,-6069.688724,-3600.648841
22156.732423,-1184.329507,-11917.315666,-76.609550
22156.732756,4663.297435,-11843.295072,-1302.362347
22156.733089,-1258.350101,-14211.954086,-383.047749
22156.733422,-1480.411884,-9400.615463,-1302.362347
22156.733755,-3923.091493,-12065.356855,-3217.601092
22156.734089,-2220.617826,-8438.347739,-1608.800546
22156.734422,1036.288319,-6809.894666,0.000000
22156.734755,3849.070898,-8364.327145,6052.154434
22156.735088,5477.523971,-4959.379811,5669.106685
22156.735421,222.061783,-7994.224174,842.705048
22156.735754,2516.700203,-9696.697840,2911.162892
22156.736088,0.000000,-7476.080014,0.000000
22156.736421,0.000000,-9548.656652,-612.876398
22156.736754,1110.308913,-10955.047942,-3140.991542
22156.737087,-3627.009116,-9548.656652,-4903.011187
22156.737420,-2960.823768,-9844.739029,-76.609550
22156.737754,-962.267725,-5773.606348,-3140.991542
22156.738087,-2960.823768,-12583.501014,-1302.362347
22156.738420,-2738.761985,-10362.883188,306.438199
22156.738753,296.082377,-5477.523971,383.047749
22156.739086,2368.659014,-9696.697840,3064.381992
22156.739419,4145.153275,-7179.997637,7890.783629
22156.739753,5255.462188,-3701.029710,3677.258390
22156.740086,3256.906145,-11029.068536,4903.011187
22156.740419,3478.967927,-8882.471304,-76.609550
22156.740752,-5329.482782,-13101.645173,-4903.011187
22156.741085,-1258.350101,-11695.253884,-2528.115143
22156.741419,-5033.400406,-11917.315666,-3600.648841
22156.741752,-5773.606348,-10955.047942,-3753.867940
22156.742085,1110.308913,-6513.812290,1455.581446
22156.742418,-4441.235652,-9400.615463,1762.019645
22156.742751,2294.638420,-5921.647536,1838.629195
22156.743084,1184.329507,-5107.421000,6665.030833
22156.743418,2294.638420,-8290.306550,1149.143247
22156.743751,6883.915261,-7698.141797,3907.087040
22156.744084,518.144159,-13471.748144,3983.696590
22156.744417,3627.009116,-8068.244768,2145.067394
22156.744750,-2072.576638,-10732.986159,-689.485948
22156.745084,-2368.659014,-10732.986159,-6128.763984
22156.745417,-74.020594,-12731.542202,-3294.210641
22156.745750,-4145.153275,-9548.656652,-2374.896044
22156.746083,-2368.659014,-10140.821405,-919.314598
22156.746416,-74.020594,-8882.471304,2068.457845
22156.746749,0.000000,-4811.338623,919.314598
22156.747083,2294.638420,-5847.626942,4060.306139
22156.747416,3627.009116,-6217.729913,4519.963438
22156.747749,1628.453072,-8660.409521,3447.429741
22156.748082,4145.153275,-8364.327145,4136.915689
22156.748415,4663.297435,-6661.853478,612.876398
22156.748749,0.000000,-13249.686362,-76.609550
22156.749082,3478.967927,-11843.295072,-1915.238745
22156.749415,-4811.338623,-11917.315666,-7354.516781
22156.749748,-2072.576638,-10140.821405,-1838.629195
22156.750081,-1702.473667,-8808.450710,-995.924147
22156.750414,-1258.350101,-7772.162391,-2834.553343
22156.750748,-444.123565,-10955.047942,1149.143247
22156.751081,2368.659014,-6957.935855,1991.848295
22156.751414,4959.379811,-8808.450710,3677.258390
22156.751747,4737.318029,-6587.832884,6741.640382
22156.752080,6143.709319,-7402.059420,4060.306139
22156.752413,1850.514855,-9844.739029,4060.306139
22156.752747,592.164754,-8660.409521,-306.438199
22156.753080,-1554.432478,-10658.965565,-6435.202183
22156.753413,-3552.988522,-13693.809927,612.876398
22156.753746,-2442.679609,-9474.636058,-3753.867940
22156.754079,-5107.421000,-10955.047942,-4979.620737
22156.754413,-5921.647536,-7328.038826,-1685.410096
22156.754746,-3478.967927,-9548.656652,-1072.533697
22156.755079,3997.112087,-5625.565159,5132.839837
22156.755412,3182.885551,-6439.791695,6818.249932
22156.755745,2294.638420,-8290.306550,3600.648841
22156.756078,3478.967927,-6217.729913,3064.381992
22156.756412,592.164754,-12139.377449,3600.648841
22156.756745,4663.297435,-9474.636058,-1608.800546
22156.757078,-5181.441594,-15174.221811,-3064.381992
22156.757411,-74.020594,-10510.924376,-3140.991542
22156.757744,-4515.256246,-12435.459826,-3370.820191
22156.758078,-888.247130,-9326.594869,-76.609550
22156.758411,-1110.308913,-8364.327145,766.095498
22156.758744,-1332.370696,-7105.977043,2374.896044
22156.759077,1702.473667,-2442.679609,2451.505594
22156.759410,740.205942,-10658.965565,4826.401637
22156.759743,4663.297435,-7105.977043,2987.772442
22156.760077,666.185348,-6883.915261,2451.505594
22156.760410,2146.597232,-10510.924376,-689.485948
22156.760743,3923.091493,-7105.977043,842.705048
22156.761076,-3034.844362,-14063.912898,-3524.039291
22156.761409,0.000000,-10140.821405,-4826.401637
22156.761743,-4737.318029,-14285.974681,-2451.505594
22156.762076,-1184.329507,-11029.068536,-1225.752797
22156.762409,2886.803174,-9178.553681,1149.143247
22156.762742,-1776.494261,-6291.750507,1378.971896
22156.763075,1184.329507,-7031.956449,3600.648841
22156.763408,3478.967927,-8290.306550,2681.334243
22156.763742,4219.173869,-9770.718434,2681.334243
22156.764075,5329.482782,-8290.306550,4443.353888
22156.764408,2072.576638,-9696.697840,4903.011187
22156.764741,4885.359217,-4959.379811,0.000000
22156.765074,-2368.659014,-14359.995275,-76.609550
22156.765408,888.247130,-7402.059420,-4060.306139
22156.765741,-1554.432478,-12509.480420,-3140.991542
22156.766074,-1850.514855,-13027.624579,-1915.238745
22156.766407,-4589.276840,-9474.636058,-4979.620737
22156.766740,-6439.791695,-9548.656652,0.000000
22156.767073,3478.967927,-7105.977043,3600.648841
22156.767407,4071.132681,-3256.906145,2911.162892
22156.767740,4663.297435,-11251.130318,5439.278036
22156.768073,2738.761985,-6809.894666,2528.115143
22156.768406,1702.473667,-9326.594869,2451.505594
22156.768739,1998.556043,-9696.697840,-536.266849
22156.769073,666.185348,-12435.459826,842.705048
22156.769406,-1850.514855,-11251.130318,-3753.867940
22156.769739,-4145.153275,-9548.656652,-2451.505594
22156.770072,-74.020594,-11695.253884,-6205.373534
22156.770405,-2664.741391,-11843.295072,229.828649
22156.770738,1184.329507,-5995.668130,1991.848295
22156.771072,-74.020594,-10214.842000,4519.963438
22156.771405,1998.556043,-3849.070898,3140.991542
22156.771738,1406.391290,-8142.265362,4366.744339
22156.772071,3552.988522,-4885.359217,4290.134789
22156.772404,1110.308913,-8882.471304,2068.457845
22156.772738,-74.020594,-11843.295072,3524.039291
22156.773071,-74.020594,-8882.471304,-4979.620737
22156.773404,-6513.812290,-12509.480420,-4903.011187
22156.773737,-3552.988522,-10732.986159,-3370.820191
22156.774070,-3849.070898,-9844.739029,-3370.820191
22156.774403,-2738.761985,-8734.430116,-1838.629195
22156.774737,-666.185348,-8660.409521,1685.410096
22156.775070,962.267725,-4737.318029,3907.087040
22156.775403,296.082377,-4811.338623,0.000000
22156.775736,7031.956449,-9474.636058,3294.210641
22156.776069,3997.112087,-9474.636058,2068.457845
22156.776403,2960.823768,-8364.327145,5209.449386
22156.776736,4071.132681,-10658.965565,-689.485948
22156.777069,0.000000,-11917.315666,-1455.581446
22156.777402,-222.061783,-12361.439231,-995.924147
22156.777735,74.020594,-7920.203579,-2451.505594
22156.778068,-740.205942,-11029.068536,-2298.286494
22156.778402,-3256.906145,-11029.068536,-842.705048
22156.778735,-74.020594,-7994.224174,-2298.286494
22156.779068,-2368.659014,-5995.668130,4290.134789
22156.779401,4663.297435,-9474.636058,6052.154434
22156.779734,4663.297435,-4737.318029,3294.210641
22156.780068,1480.411884,-9400.615463,4213.525239
22156.780401,1628.453072,-6957.935855,0.000000
22156.780734,2294.638420,-9400.615463,0.000000
22156.781067,-370.102971,-12731.542202,-3447.429741
22156.781400,1480.411884,-10881.027347,-842.705048
22156.781733,-6217.729913,-14878.139434,-3677.258390
22156.782067,740.205942,-8660.409521,-3907.087040
22156.782400,-814.226536,-11843.295072,-842.705048
22156.782733,2442.679609,-6883.915261,2757.943793
22156.783066,2960.823768,-7179.997637,6435.202183
22156.783399,2294.638420,-7698.141797,6052.154434
22156.783733,2294.638420,-4441.235652,0.000000
22156.784066,0.000000,-8660.409521,3907.087040
22156.784399,3923.091493,-7698.141797,1149.143247
22156.784732,-1036.288319,-10362.883188,842.705048
22156.785065,-2072.576638,-11177.109724,-3524.039291
22156.785398,-3849.070898,-9770.718434,-4519.963438
22156.785732,-4441.235652,-13397.727550,-3677.258390
22156.786065,-4145.153275,-9548.656652,-612.876398
22156.786398,-74.020594,-10066.800811,-1762.019645
22156.786731,-2812.782580,-6291.750507,0.000000
22156.787064,0.000000,-7179.997637,5132.839837
22156.787398,3552.988522,-3627.009116,3064.381992
22156.787731,2368.659014,-7994.224174,3600.648841
22156.788064,5255.462188,-7624.121203,4136.915689
22156.788397,2738.761985,-8512.368333,306.438199
22156.788730,3478.967927,-13027.624579,2068.457845
22156.789063,1184.329507,-10881.027347,-1302.362347
22156.789397,-814.226536,-11029.068536,-6128.763984
22156.789730,-2960.823768,-12509.480420,-766.095498
22156.790063,296.082377,-8660.409521,-229.828649
22156.790396,-666.185348,-10066.800811,-76.609550
22156.790729,-1850.514855,-7550.100608,229.828649
22156.791063,-1110.308913,-5699.585753,459.657299
22156.791396,222.061783,-5921.647536,4749.792088
22156.791729,592.164754,-4293.194464,1991.848295
22156.792062,4071.132681,-8882.471304,2374.896044
22156.792395,1184.329507,-8364.327145,612.876398
22156.792728,-74.020594,-11843.295072,-689.485948
22156.793062,3627.009116,-7550.100608,-3677.258390
22156.793395,-6513.812290,-15100.201217,-4903.011187
22156.793728,814.226536,-10066.800811,-4443.353888
22156.794061,-4737.318029,-15248.242405,-2451.505594
22156.794395,0.000000,-9696.697840,-1072.533697
22156.794728,2960.823768,-7772.162391,3677.258390
22156.795061,3478.967927,-7698.141797,2757.943793
22156.795394,7105.977043,-5699.585753,10035.851024
22156.795728,2294.638420,-8290.306550,3600.648841
22156.796061,0.000000,-7179.997637,3064.381992
22156.796394,148.041188,-5551.544565,1302.362347
22156.796728,814.226536,-8956.491898,0.000000
22156.797061,-814.226536,-9252.574275,-2221.676944
22156.797394,-3849.070898,-11769.274478,-4136.915689
22156.797728,-3256.906145,-11843.295072,-3294.210641
22156.798061,-962.267725,-10214.842000,-3677.258390
22156.798394,-2516.700203,-11547.212695,-2298.286494
22156.798728,-1776.494261,-9252.574275,1072.533697
22156.799061,-666.185348,-8142.265362,3447.429741
22156.799394,2664.741391,-3627.009116,4903.011187
22156.799728,3478.967927,-5181.441594,5515.887586
22156.800061,592.164754,-3627.009116,3677.258390
22156.800394,4663.297435,-11251.130318,1608.800546
22156.800728,3108.864956,-7994.224174,1762.019645
22156.801061,-1184.329507,-11917.315666,0.000000
22156.801394,-740.205942,-9696.697840,-4903.011187
22156.801727,-1554.432478,-12731.542202,-2987.772442
22156.802061,-3108.864956,-11473.192101,-3677.258390
22156.802394,-74.020594,-10658.965565,-76.609550
22156.802727,-3627.009116,-10362.883188,-3370.820191
22156.803061,-1480.411884,-7772.162391,1225.752797
22156.803394,2590.720797,-7105.977043,2987.772442
22156.803727,1554.432478,-7994.224174,4979.620737
22156.804061,2960.823768,-7179.997637,9116.536426
22156.804394,5847.626942,-1998.556043,3524.039291
22156.804727,1702.473667,-9104.533087,4366.744339
22156.805061,-2146.597232,-10140.821405,-3064.381992
22156.805394,-1998.556043,-7698.141797,-6358.592633
22156.805727,-9474.636058,-14285.974681,-7354.516781
22156.806061,-74.020594,-11843.295072,-5592.497135
22156.806394,-7698.141797,-15988.448347,-2834.553343
22156.806727,-1184.329507,-3034.844362,-3064.381992
22156.807061,-592.164754,-7550.100608,5132.839837
22156.807394,4367.215058,-5699.585753,4903.011187
22156.807727,6513.812290,-7402.059420,9729.412825
22156.808061,4071.132681,-7105.977043,2068.457845
22156.808394,7698.141797,-13323.706956,5515.887586
22156.808727,3108.864956,-9474.636058,6665.030833
22156.809060,6439.791695,-9474.636058,-2528.115143
22156.809394,-4441.235652,-11621.233289,-3064.381992
22156.809727,-4737.318029,-11621.233289,-4826.401637
22156.810060,-2146.597232,-7920.203579,-6128.763984
22156.810394,-2442.679609,-10362.883188,-1915.238745
22156.810727,-1554.432478,-9178.553681,-2451.505594
22156.811060,-370.102971,-7698.141797,3370.820191
22156.811394,1554.432478,-6143.709319,5209.449386
22156.811727,1776.494261,-5403.503377,7431.126331
22156.812060,2294.638420,-7105.977043,3294.210641
22156.812394,4737.318029,-3627.009116,1225.752797
22156.812727,1406.391290,-11843.295072,-76.609550
22156.813060,4663.297435,-11251.130318,-1225.752797
22156.813394,-1850.514855,-11843.295072,-4366.744339
22156.813727,888.247130,-11695.253884,-3140.991542
22156.814060,-1628.453072,-15026.180623,-3447.429741
22156.814394,1110.308913,-11473.192101,306.438199
22156.814727,1184.329507,-7846.182985,1608.800546
22156.815060,2146.597232,-8068.244768,4519.963438
22156.815393,3701.029710,-8290.306550,8503.660028
22156.815727,2368.659014,-3182.885551,3677.258390
22156.816060,-1776.494261,-9548.656652,4519.963438
22156.816393,0.000000,-3627.009116,4903.011187
22156.816727,2886.803174,-7105.977043,-76.609550
22156.817060,0.000000,-9548.656652,-2757.943793
22156.817393,-5773.606348,-8660.409521,-6435.202183
22156.817727,-4811.338623,-11917.315666,-7660.954980
22156.818060,-3923.091493,-14063.912898,-3907.087040
22156.818393,-2812.782580,-11399.171507,-4903.011187
22156.818727,-3034.844362,-10140.821405,-1225.752797
22156.819060,-814.226536,-7105.977043,1149.143247
22156.819393,3923.091493,-7994.224174,6052.154434
22156.819727,5847.626942,-4441.235652,3677.258390
22156.820060,3849.070898,-11325.150913,9729.412825
22156.820393,6661.853478,-6217.729913,4136.915689
22156.820727,1924.535449,-12509.480420,2145.067394
22156.821060,1776.494261,-9992.780217,919.314598
22156.821393,-1184.329507,-8956.491898,-4749.792088
22156.821726,-2368.659014,-12509.480420,-1455.581446
22156.822060,-5921.647536,-8364.327145,-4903.011187
22156.822393,-3034.844362,-12731.542202,-4060.306139
22156.822726,-3478.967927,-8882.471304,-689.485948
22156.823060,-2368.659014,-7179.997637,3677.258390
22156.823393,2294.638420,-5921.647536,6052.154434
22156.823726,2664.741391,-5329.482782,4826.401637
22156.824060,-962.267725,-8808.450710,2681.334243
22156.824393,1998.556043,-4737.318029,612.876398
22156.824726,1702.473667,-8660.409521,0.000000
22156.825060,1850.514855,-12657.521608,-2221.676944
22156.825393,3478.967927,-11251.130318,-4290.134789
22156.825726,-4145.153275,-13101.645173,-4749.792088
22156.826060,2960.823768,-9844.739029,1149.143247
22156.826393,-1258.350101,-15100.201217,-1302.362347
22156.826726,2960.823768,-9252.574275,2834.553343
22156.827060,1406.391290,-7846.182985,1762.019645
22156.827393,3627.009116,-6957.935855,4826.401637
22156.827726,4145.153275,-6735.874072,5975.544884
22156.828059,5847.626942,-5255.462188,7201.297681
22156.828393,3256.906145,-9992.780217,2681.334243
22156.828726,-666.185348,-9252.574275,1608.800546
22156.829059,666.185348,-8290.306550,-3140.991542
22156.829393,-5329.482782,-9548.656652,-6741.640382
22156.829726,-4145.153275,-12361.439231,-3140.991542
22156.830059,-1850.514855,-7994.224174,-4673.182538
22156.830393,-2442.679609,-9548.656652,-3064.381992
22156.830726,-3997.112087,-8956.491898,-3064.381992
22156.831059,-1702.473667,-9474.636058,-76.609550
22156.831393,1332.370696,-6291.750507,2068.457845
22156.831726,5551.544565,-7105.977043,7737.564530
22156.832059,2146.597232,-9474.636058,4443.353888
22156.832393,5033.400406,-8512.368333,6741.640382
22156.832726,-2368.659014,-9548.656652,2834.553343
22156.833059,3478.967927,-7846.182985,-4903.011187
22156.833393,0.000000,-11917.315666,0.000000
22156.833726,-1628.453072,-10436.903782,-2451.505594
22156.834059,-3552.988522,-10732.986159,-4596.572988
22156.834393,-5107.421000,-11843.295072,-4060.306139
22156.834726,-3849.070898,-10658.965565,-2528.115143
22156.835059,-2368.659014,-6883.915261,2068.457845
22156.835392,4663.297435,-6809.894666,5745.716235
22156.835726,0.000000,-7328.038826,6665.030833
22156.836059,2886.803174,-5403.503377,1225.752797
22156.836392,1332.370696,-7402.059420,3907.087040
22156.836726,3478.967927,-11843.295072,1762.019645
22156.837059,2294.638420,-10658.965565,2221.676944
22156.837392,-5403.503377,-12287.418637,-2068.457845
22156.837726,-962.267725,-7031.956449,-7354.516781
22156.838059,-1924.535449,-14359.995275,-2298.286494
22156.838392,740.205942,-5995.668130,-1225.752797
22156.838726,3478.967927,-11843.295072,1455.581446
22156.839059,0.000000,-7179.997637,0.000000
22156.839392,1776.494261,-8068.244768,1915.238745
22156.839726,1702.473667,-7476.080014,2834.553343
22156.840059,4145.153275,-3701.029710,1302.362347
22156.840392,3849.070898,-11029.068536,1225.752797
22156.840726,3701.029710,-9844.739029,4903.011187
22156.841059,962.267725,-7105.977043,2068.457845
22156.841392,-1480.411884,-11029.068536,-2145.067394
22156.841725,-74.020594,-8586.388927,-4903.011187
22156.842059,-6513.812290,-14878.139434,-2528.115143
22156.842392,-74.020594,-7105.977043,-689.485948
22156.842725,-5699.585753,-8068.244768,-2451.505594
22156.843059,-3182.885551,-8660.409521,0.000000
22156.843392,0.000000,-4515.256246,2528.115143
22156.843725,1924.535449,-6809.894666,2221.676944
22156.844059,3108.864956,-8216.285956,2604.724693
22156.844392,5625.565159,-8216.285956,6281.983084
22156.844725,2294.638420,-10436.903782,383.047749
22156.845059,1406.391290,-10658.965565,-383.047749
22156.845392,-74.020594,-11843.295072,-2528.115143
22156.845725,-962.267725,-11991.336260,-2374.896044
22156.846059,592.164754,-8660.409521,0.000000
22156.846392,-74.020594,-11547.212695,-4979.620737
22156.846725,-5107.421000,-8956.491898,0.000000
22156.847059,-148.041188,-6513.812290,2374.896044
22156.847392,2590.720797,-7105.977043,842.705048
22156.847725,4145.153275,-8586.388927,8197.221829
22156.848058,2516.700203,-5847.626942,1991.848295
22156.848392,-2072.576638,-10288.862594,612.876398
22156.848725,0.000000,-8734.430116,-2757.943793
22156.849058,-2738.761985,-14211.954086,-2528.115143
22156.849392,74.020594,-6883.915261,-4596.572988
22156.849725,-74.020594,-14211.954086,-76.609550
22156.850058,-2442.679609,-12731.542202,-3447.429741
22156.850392,0.000000,-8512.368333,2911.162892
22156.850725,-1258.350101,-7105.977043,1149.143247
22156.851058,2960.823768,-5477.523971,4596.572988
22156.851392,1776.494261,-8734.430116,8197.221829
22156.851725,7328.038826,296.082377,2068.457845
22156.852058,888.247130,-10140.821405,0.000000
22156.852392,0.000000,-7179.997637,0.000000
22156.852725,3478.967927,-12435.459826,-3140.991542
22156.853058,-1480.411884,-13471.748144,-4060.306139
22156.853392,0.000000,-11917.315666,-5209.449386
22156.853725,-4811.338623,-12879.583391,-7967.393179
22156.854058,2368.659014,-8808.450710,-153.219100
22156.854391,-444.123565,-8660.409521,1838.629195
22156.854725,2960.823768,-7179.997637,3524.039291
22156.855058,2368.659014,-5699.585753,3983.696590
22156.855391,1110.308913,-10658.965565,7277.907231
22156.855725,6439.791695,-4441.235652,4826.401637
22156.856058,1480.411884,-8660.409521,6358.592633
22156.856391,4367.215058,-8290.306550,3600.648841
22156.856725,-2738.761985,-8364.327145,-3064.381992
22156.857058,-296.082377,-10658.965565,-3600.648841
22156.857391,-3108.864956,-11621.233289,-3983.696590
22156.857725,-3034.844362,-11029.068536,-5669.106685
22156.858058,-888.247130,-12953.603985,-2145.067394
22156.858391,-4737.318029,-11251.130318,-1915.238745
22156.858725,-962.267725,-6661.853478,-1072.533697
22156.859058,-148.041188,-9622.677246,2757.943793
22156.859391,2590.720797,-5625.565159,3294.210641
22156.859725,1184.329507,-2738.761985,2834.553343
22156.860058,592.164754,-8364.327145,5209.449386
22156.860391,4071.132681,-7105.977043,1762.019645
22156.860725,1110.308913,-9178.553681,0.000000
22156.861058,4367.215058,-10066.800811,-76.609550
22156.861391,-1258.350101,-15396.283594,-995.924147
22156.861724,-740.205942,-8734.430116,-3447.429741
22156.862058,-3923.091493,-14359.995275,-3217.601092
22156.862391,-2960.823768,-7920.203579,-2987.772442
22156.862724,-2442.679609,-10658.965565,-3753.867940
22156.863058,-2368.659014,-8364.327145,4443.353888
22156.863391,-74.020594,-8290.306550,4213.525239
22156.863724,740.205942,-6513.812290,4213.525239
22156.864058,-4737.318029,-6291.750507,5515.887586
22156.864391,3775.050304,-370.102971,1072.533697
22156.864724,3849.070898,-8882.471304,2528.115143
22156.865058,2516.700203,-9992.780217,2451.505594
22156.865391,592.164754,-9548.656652,-3447.429741
22156.865724,-8586.388927,-11917.315666,-8427.050478
22156.866058,-74.020594,-14211.954086,-3753.867940
22156.866391,-666.185348,-10066.800811,-3140.991542
22156.866724,-2368.659014,-11325.150913,459.657299
22156.867058,3923.091493,-6217.729913,2681.334243
22156.867391,-2368.659014,-8956.491898,4290.134789
22156.867724,7328.038826,-3775.050304,7737.564530
22156.868057,5773.606348,-3627.009116,7890.783629
22156.868391,5551.544565,-7105.977043,3140.991542
22156.868724,2368.659014,-10436.903782,4903.011187
22156.869057,3478.967927,-6513.812290,-3140.991542
22156.869391,0.000000,-10732.986159,-7354.516781
22156.869724,-2368.659014,-10732.986159,-4673.182538
22156.870057,-1258.350101,-11843.295072,-8044.002729
22156.870391,-3478.967927,-13619.789333,-4519.963438
22156.870724,-2072.576638,-9844.739029,-2068.457845
22156.871057,-2664.741391,-9326.594869,-1685.410096
22156.871391,3701.029710,-8586.388927,7201.297681
22156.871724,4663.297435,-5921.647536,6971.469032
22156.872057,7624.121203,-2738.761985,4903.011187
22156.872391,3552.988522,-9474.636058,8503.660028
22156.872724,5847.626942,-7698.141797,4826.401637
22156.873057,814.226536,-7846.182985,-2681.334243
22156.873391,1850.514855,-10288.862594,-1685.410096
22156.873724,-3478.967927,-13767.830521,-6818.249932
22156.874057,-5033.400406,-12213.398043,-5669.106685
22156.874390,-3034.844362,-14359.995275,-5515.887586
22156.874724,-2738.761985,-11547.212695,-1302.362347
22156.875057,-370.102971,-6883.915261,1532.190996
22156.875390,148.041188,-7031.956449,2068.457845
22156.875724,5181.441594,-7402.059420,8044.002729
22156.876057,1184.329507,-4811.338623,7354.516781
22156.876390,2368.659014,-9548.656652,8503.660028
22156.876724,-74.020594,-2220.617826,1225.752797
22156.877057,-5921.647536,-9548.656652,-3677.258390
22156.877390,-666.185348,-12139.377449,-1915.238745
22156.877724,-6439.791695,-11103.089130,-6818.249932
22156.878057,-6809.894666,-13027.624579,-7431.126331
22156.878390,-5403.503377,-11177.109724,-4903.011187
22156.878724,-3552.988522,-7624.121203,-1991.848295
22156.879057,-74.020594,-9474.636058,4443.353888
22156.879390,2590.720797,-5255.462188,8503.660028
22156.879724,814.226536,-6587.832884,3677.258390
22156.880057,3552.988522,-4811.338623,5515.887586
22156.880390,5107.421000,-10362.883188,6665.030833
22156.880723,1480.411884,-6883.915261,3677.258390
22156.881057,2886.803174,-7402.059420,3140.991542
22156.881390,1480.411884,-6735.874072,-3447.429741
22156.881723,-3627.009116,-14582.057057,-6741.640382
22156.882057,-2442.679609,-11251.130318,-8044.002729
22156.882390,-2368.659014,-12213.398043,-3753.867940
22156.882723,-2442.679609,-10732.986159,-4903.011187
22156.883057,2072.576638,-13101.645173,2068.457845
22156.883390,4663.297435,-9474.636058,8197.221829
22156.883723,8216.285956,-3552.988522,7277.907231
22156.884057,4959.379811,-5477.523971,8350.440928
22156.884390,4145.153275,-6291.750507,5439.278036
22156.884723,4663.297435,-6365.771101,3447.429741
22156.885057,-2072.576638,-7772.162391,-2451.505594
22156.885390,2294.638420,-12435.459826,-5592.497135
22156.885723,-5921.647536,-11325.150913,-8580.269578
22156.886057,-3256.906145,-11177.109724,-6818.249932
22156.886390,-1554.432478,-10362.883188,-6511.811733
22156.886723,-3256.906145,-11325.150913,-3064.381992
22156.887057,888.247130,-8364.327145,2145.067394
22156.887390,4515.256246,-7772.162391,5209.449386
22156.887723,7254.018232,-7920.203579,7354.516781
22156.888056,8512.368333,-6513.812290,9116.536426
22156.888390,3182.885551,-6587.832884,0.000000
22156.888723,7772.162391,-14211.954086,3600.648841
22156.889056,1702.473667,-13027.624579,2374.896044
22156.889390,592.164754,-8364.327145,0.000000
22156.889723,-5625.565159,-11917.315666,-3524.039291
22156.890056,-5107.421000,-6957.935855,-5669.106685
22156.890390,-2442.679609,-7920.203579,-4443.353888
22156.890723,-3330.926739,-11029.068536,-459.657299
22156.891056,-222.061783,-10362.883188,1762.019645
22156.891390,-6291.750507,-7476.080014,766.095498
22156.891723,1036.288319,-3997.112087,2451.505594
22156.892056,0.000000,-5699.585753,3294.210641
22156.892390,1036.288319,-8956.491898,2987.772442
22156.892723,592.164754,-10732.986159,3677.258390
22156.893056,-74.020594,-7772.162391,-1838.629195
22156.893390,-3552.988522,-11325.150913,1378.971896
22156.893723,1110.308913,-10066.800811,536.266849
22156.894056,-2368.659014,-6291.750507,-3830.477490
22156.894389,0.000000,-12509.480420,3907.087040
22156.894723,-888.247130,-8216.285956,2068.457845
22156.895056,-444.123565,-6809.894666,229.828649
22156.895389,-222.061783,-9474.636058,1149.143247
22156.895723,2294.638420,-8142.265362,-76.609550
22156.896056,-370.102971,-8364.327145,-1838.629195
22156.896389,370.102971,-13915.871710,2374.896044
22156.896723,-74.020594,-11843.295072,2374.896044
22156.897056,0.000000,-4811.338623,0.000000
22156.897389,3330.926739,-11251.130318,4826.401637
22156.897723,-1776.494261,-7179.997637,0.000000
22156.898056,1110.308913,-7105.977043,-76.609550
22156.898389,-3701.029710,-7328.038826,-766.095498
22156.898722,-2590.720797,-6291.750507,-4903.011187
22156.899056,-6513.812290,-9548.656652,-2451.505594
22156.899389,962.267725,-9474.636058,-76.609550
22156.899722,148.041188,-6069.688724,-3140.991542
22156.900056,2368.659014,-9548.656652,1685.410096
22156.900389,3182.885551,-12583.501014,1225.752797
22156.900722,5625.565159,-6883.915261,2604.724693
22156.901056,3627.009116,-10807.006753,2451.505594
22156.901389,4145.153275,-10955.047942,1455.581446
22156.901722,1776.494261,-10584.944971,919.314598
22156.902056,1184.329507,-11251.130318,2068.457845
22156.902389,3478.967927,-7846.182985,-3677.258390
22156.902722,-2368.659014,-11325.150913,1072.533697
22156.903055,1776.494261,-5995.668130,1149.143247
22156.903389,-74.020594,-10066.800811,0.000000
22156.903722,4367.215058,-7105.977043,3753.867940
22156.904055,-1110.308913,-7550.100608,-1149.143247
22156.904389,1554.432478,-8956.491898,1149.143247
22156.904722,0.000000,-8956.491898,-1762.019645
22156.905055,1776.494261,-10807.006753,1762.019645
22156.905389,1036.288319,-8956.491898,1685.410096
22156.905722,-74.020594,-8438.347739,-2221.676944
22156.906055,-814.226536,-12435.459826,-1608.800546
22156.906389,-1184.329507,-7105.977043,-76.609550
22156.906722,-4145.153275,-9548.656652,-1225.752797
22156.907055,-74.020594,-8882.471304,4826.401637
22156.907388,2294.638420,-8882.471304,2987.772442
22156.907722,5255.462188,-3849.070898,5439.278036
22156.908055,4071.132681,-9474.636058,4519.963438
22156.908388,1184.329507,-8660.409521,383.047749
22156.908722,2738.761985,-11621.233289,536.266849
22156.909055,-296.082377,-13397.727550,153.219100
22156.909388,3478.967927,-10066.800811,2987.772442
22156.909722,-4737.318029,-11029.068536,-842.705048
22156.910055,-74.020594,-11547.212695,-2221.676944
22156.910388,-7105.977043,-9548.656652,-3524.039291
22156.910722,-3108.864956,-6069.688724,-995.924147
22156.911055,-4219.173869,-4959.379811,-1532.190996
22156.911388,-4219.173869,-8882.471304,1149.143247
22156.911721,-666.185348,-6883.915261,2911.162892
22156.912055,1406.391290,-6957.935855,4826.401637
22156.912388,2368.659014,-5329.482782,1762.019645
22156.912721,4663.297435,-10362.883188,4826.401637
22156.913055,2294.638420,-9474.636058,-3294.210641
22156.913388,592.164754,-11917.315666,-689.485948
22156.913721,-1628.453072,-16506.592507,-2374.896044
22156.914055,-1776.494261,-11325.150913,-4290.134789
22156.914388,-518.144159,-11621.233289,-1762.019645
22156.914721,2516.700203,-8734.430116,-229.828649
22156.915055,-814.226536,-10140.821405,3140.991542
22156.915388,0.000000,-1850.514855,4903.011187
22156.915721,-74.020594,-9474.636058,536.266849
22156.916054,2812.782580,-4441.235652,4213.525239
22156.916388,1184.329507,-6587.832884,3600.648841
22156.916721,4663.297435,-7105.977043,1762.019645
22156.917054,-2664.741391,-9252.574275,229.828649
22156.917388,-1184.329507,-7846.182985,-5362.668486
22156.917721,-2886.803174,-15396.283594,-2145.067394
22156.918054,-2368.659014,-9844.739029,-6511.811733
22156.918388,-814.226536,-14804.118840,-2528.115143
22156.918721,-1850.514855,-7402.059420,-4596.572988
22156.919054,2368.659014,-8660.409521,4443.353888
22156.919388,4071.132681,-7105.977043,7277.907231
22156.919721,9400.615463,-7698.141797,9729.412825
22156.920054,2664.741391,-6143.709319,5286.058936
22156.920388,4737.318029,-9252.574275,3064.381992
22156.920721,1036.288319,-9770.718434,-1838.629195
22156.921054,1850.514855,-10436.903782,-2145.067394
22156.921387,4663.297435,-10732.986159,-2528.115143
22156.921721,296.082377,-15322.262999,536.266849
22156.922054,0.000000,-8586.388927,-4443.353888
22156.922387,-2368.659014,-10140.821405,-1685.410096
22156.922721,-3997.112087,-9548.656652,-3677.258390
22156.923054,-1628.453072,-7031.956449,1915.238745
22156.923387,-2442.679609,-10288.862594,2374.896044
22156.923721,1702.473667,-4071.132681,2451.505594
22156.924054,740.205942,-6365.771101,6971.469032
22156.924387,1702.473667,-6513.812290,4213.525239
22156.924721,4219.173869,-6735.874072,1608.800546
22156.925054,-518.144159,-9548.656652,-2298.286494
22156.925387,-1110.308913,-11325.150913,-3753.867940
22156.925720,-2368.659014,-12213.398043,-3677.258390
22156.926054,-2072.576638,-13101.645173,-1608.800546
22156.926387,-74.020594,-10510.924376,-2451.505594
22156.926720,0.000000,-9844.739029,0.000000
22156.927054,-1184.329507,-12731.542202,842.705048
22156.927387,1776.494261,-9548.656652,1838.629195
22156.927720,-1184.329507,-8216.285956,7354.516781
22156.928054,4663.297435,-3404.947333,3294.210641
22156.928387,1850.514855,-9770.718434,4979.620737
22156.928720,3478.967927,-7105.977043,2374.896044
22156.929054,0.000000,-8068.244768,2374.896044
22156.929387,-2442.679609,-7624.121203,-4903.011187
22156.929720,-4071.132681,-9548.656652,-6894.859482
22156.930053,-4145.153275,-16876.695478,-1302.362347
22156.930387,-74.020594,-7105.977043,-3753.867940
22156.930720,-4515.256246,-12879.583391,-3217.601092
22156.931053,-1184.329507,-7476.080014,-842.705048
22156.931387,0.000000,-8068.244768,4366.744339
22156.931720,0.000000,-4811.338623,3064.381992
22156.932053,7920.203579,-7698.141797,7890.783629
22156.932387,0.000000,-5995.668130,2451.505594
22156.932720,6365.771101,-8882.471304,2374.896044
22156.933053,0.000000,-8660.409521,1991.848295
22156.933387,3552.988522,-8364.327145,76.609550
22156.933720,296.082377,-9400.615463,-2068.457845
22156.934053,-2664.741391,-14211.954086,-3447.429741
22156.934386,-1184.329507,-10510.924376,-4979.620737
22156.934720,-148.041188,-12879.583391,-1838.629195
22156.935053,-1554.432478,-11029.068536,-6128.763984
22156.935386,148.041188,-8808.450710,4213.525239
22156.935720,1110.308913,-4737.318029,3600.648841
22156.936053,2368.659014,-6587.832884,9959.241474
22156.936386,1628.453072,-5625.565159,4366.744339
22156.936720,740.205942,-6587.832884,1378.971896
22156.937053,2812.782580,-8882.471304,2374.896044
22156.937386,370.102971,-7179.997637,-1838.629195
22156.937720,1184.329507,-12139.377449,-1225.752797
22156.938053,-4219.173869,-11325.150913,-6128.763984
22156.938386,-1554.432478,-11103.089130,-7354.516781
22156.938719,-814.226536,-14508.036463,-3140.991542
22156.939053,1406.391290,-11029.068536,689.485948
22156.939386,0.000000,-7772.162391,919.314598
22156.939719,1702.473667,-6883.915261,3370.820191
22156.940053,1776.494261,-3627.009116,6128.763984
22156.940386,8216.285956,-8290.306550,7277.907231
22156.940719,3478.967927,-9178.553681,6971.469032
22156.941053,3552.988522,-7179.997637,3217.601092
22156.941386,2590.720797,-7254.018232,919.314598
22156.941719,-3775.050304,-10066.800811,-6971.469032
22156.942053,-2960.823768,-10658.965565,-6665.030833
22156.942386,-6587.832884,-15100.201217,-5592.497135
22156.942719,-1258.350101,-9474.636058,-5822.325785
22156.943052,-7105.977043,-15174.221811,0.000000
22156.943386,-592.164754,-6217.729913,-383.047749
22156.943719,-1850.514855,-7624.121203,3524.039291
22156.944052,3552.988522,-4737.318029,6665.030833
22156.944386,6883.915261,-5921.647536,8350.440928
22156.944719,962.267725,-8660.409521,4903.011187
22156.945052,7994.224174,-3330.926739,3600.648841
22156.945386,-3034.844362,-9178.553681,-3753.867940
22156.945719,1406.391290,-9548.656652,-4903.011187
22156.946052,-1554.432478,-11843.295072,-5592.497135
22156.946386,-2146.597232,-15396.283594,-5898.935335
22156.946719,-3552.988522,-14285.974681,-1225.752797
22156.947052,-74.020594,-8290.306550,-4060.306139
22156.947385,370.102971,-10584.944971,1838.629195
22156.947719,-666.185348,-6661.853478,6511.811733
22156.948052,5847.626942,-3923.091493,5286.058936
22156.948385,888.247130,-7179.997637,9806.022374
22156.948719,592.164754,-8882.471304,6741.640382
22156.949052,2886.803174,-4737.318029,-1302.362347
22156.949385,-1628.453072,-11917.315666,612.876398
22156.949719,0.000000,-6587.832884,-1685.410096
22156.950052,-3034.844362,-14211.954086,-5898.935335
22156.950385,-3997.112087,-10658.965565,-6588.421283
22156.950719,-3627.009116,-12287.418637,-6128.763984
22156.951052,-1110.308913,-11029.068536,-3140.991542
22156.951385,2368.659014,-9548.656652,2451.505594
22156.951718,444.123565,-7476.080014,2834.553343
22156.952052,5773.606348,-3330.926739,6741.640382
22156.952385,1924.535449,-7031.956449,5822.325785
22156.952718,7179.997637,-9474.636058,3600.648841
22156.953052,1406.391290,-11251.130318,4213.525239
22156.953385,2960.823768,-5403.503377,0.000000
22156.953718,814.226536,-12435.459826,-689.485948
22156.954052,-3627.009116,-10658.965565,-6665.030833
22156.954385,-3627.009116,-11843.295072,-6052.154434
22156.954718,-3775.050304,-11843.295072,-3140.991542
22156.955052,-1702.473667,-11325.150913,-2068.457845
22156.955385,-1850.514855,-9770.718434,1762.019645
22156.955718,1332.370696,-7698.141797,4290.134789
22156.956051,5255.462188,-5329.482782,7737.564530
22156.956385,0.000000,-8364.327145,6128.763984
22156.956718,7031.956449,-5625.565159,3907.087040
22156.957051,0.000000,-7846.182985,1532.190996
22156.957385,1480.411884,-4811.338623,153.219100
22156.957718,1702.473667,-11103.089130,-5592.497135
22156.958051,-2960.823768,-11917.315666,-4519.963438
22156.958385,-666.185348,-9178.553681,-4213.525239
22156.958718,-1924.535449,-9548.656652,-4136.915689
22156.959051,-1258.350101,-13619.789333,-76.609550
22156.959385,1480.411884,-10658.965565,3370.820191
22156.959718,1998.556043,-10658.965565,4519.963438
22156.960051,1184.329507,-3923.091493,3677.258390
22156.960384,4737.318029,-4811.338623,2451.505594
22156.960718,1184.329507,-9104.533087,6741.640382
22156.961051,5181.441594,-4737.318029,4519.963438
22156.961384,-2590.720797,-9104.533087,-1838.629195
22156.961718,0.000000,-11399.171507,-1915.238745
22156.962051,-4737.318029,-9844.739029,-7354.516781
22156.962384,-1850.514855,-11843.295072,-4979.620737
22156.962718,-2442.679609,-9474.636058,-4366.744339
22156.963051,-7550.100608,-9548.656652,-3677.258390
22156.963384,-2442.679609,-13471.748144,-76.609550
22156.963718,1776.494261,-8142.265362,5592.497135
22156.964051,2442.679609,-10658.965565,4673.182538
22156.964384,4811.338623,-6735.874072,7584.345430
22156.964717,2738.761985,-7846.182985,4213.525239
22156.965051,2664.741391,-8956.491898,4366.744339
22156.965384,6439.791695,-4737.318029,1608.800546
22156.965717,0.000000,-7179.997637,-2911.162892
22156.966051,-4441.235652,-16062.468941,-1072.533697
22156.966384,-74.020594,-9474.636058,-5592.497135
22156.966717,-7105.977043,-14878.139434,-6205.373534
22156.967051,666.185348,-9178.553681,-4060.306139
22156.967384,-1850.514855,-12879.583391,2757.943793
22156.967717,1480.411884,-6809.894666,3600.648841
22156.968051,4737.318029,-6587.832884,10265.679673
22156.968384,-2368.659014,-6587.832884,3447.429741
22156.968717,4515.256246,-3552.988522,3907.087040
22156.969050,-1850.514855,-9030.512492,3524.039291
22156.969384,3404.947333,-2146.597232,0.000000
22156.969717,-3552.988522,-10436.903782,842.705048
22156.970050,-74.020594,-8882.471304,-7431.126331
22156.970384,-2442.679609,-9548.656652,-7354.516781
22156.970717,-4145.153275,-13915.871710,-4136.915689
22156.971050,5255.462188,-9474.636058,-1915.238745
22156.971384,-2664.741391,-14804.118840,842.705048
22156.971717,5403.503377,-8660.409521,1608.800546
22156.972050,1554.432478,-11547.212695,7048.078582
22156.972384,6513.812290,-5403.503377,6128.763984
22156.972717,5921.647536,-8364.327145,10572.117872
22156.973050,8216.285956,-6513.812290,2911.162892
22156.973384,2368.659014,-7179.997637,0.000000
22156.973717,-888.247130,-9474.636058,-5592.497135
22156.974050,-1776.494261,-10140.821405,-4596.572988
22156.974383,-4441.235652,-9474.636058,-2221.676944
22156.974717,-888.247130,-11103.089130,-2528.115143
22156.975050,-4737.318029,-9252.574275,-1378.971896
22156.975383,-4219.173869,-9474.636058,-3753.867940
22156.975717,-2368.659014,-6587.832884,3600.648841
22156.976050,2294.638420,-3997.112087,3830.477490
22156.976383,0.000000,-9696.697840,3677.258390
22156.976717,2960.823768,-8660.409521,6818.249932
22156.977050,2294.638420,-8882.471304,1455.581446
22156.977383,370.102971,-10955.047942,842.705048
22156.977717,2294.638420,-7550.100608,1149.143247
22156.978050,-1184.329507,-12583.501014,-3294.210641
22156.978383,0.000000,-8364.327145,-3294.210641
22156.978716,-74.020594,-11843.295072,-689.485948
22156.979050,-5921.647536,-9548.656652,-4903.011187
22156.979383,1184.329507,-9474.636058,2374.896044
22156.979716,-1850.514855,-11843.295072,4826.401637
22156.980050,3849.070898,-1776.494261,4136.915689
22156.980383,-1406.391290,-8734.430116,3830.477490
22156.980716,814.226536,-7624.121203,1532.190996
22156.981050,0.000000,-9474.636058,1685.410096
22156.981383,0.000000,-7772.162391,919.314598
22156.981716,-74.020594,-7994.224174,-4290.134789
22156.982050,-5921.647536,-12065.356855,-2221.676944
22156.982383,-74.020594,-9474.636058,-7431.126331
22156.982716,-5625.565159,-9548.656652,-3677.258390
22156.983049,592.164754,-7105.977043,-2834.553343
22156.983383,-1184.329507,-9548.656652,2451.505594
22156.983716,3478.967927,-11399.171507,3753.867940
22156.984049,4885.359217,-8142.265362,5056.230287
22156.984383,5921.647536,-8068.244768,7967.393179
22156.984716,5107.421000,-5403.503377,2451.505594
22156.985049,6143.709319,-7772.162391,4673.182538
22156.985383,3108.864956,-11103.089130,2298.286494
22156.985716,3775.050304,-7920.203579,612.876398
22156.986049,-2368.659014,-10436.903782,-5822.325785
22156.986383,-2146.597232,-12287.418637,-4213.525239
22156.986716,-5921.647536,-9844.739029,-612.876398
22156.987049,-2442.679609,-7698.141797,-4213.525239
22156.987382,-1184.329507,-7105.977043,383.047749
22156.987716,-1184.329507,-5995.668130,4290.134789
22156.988049,1406.391290,-7105.977043,3677.258390
22156.988382,2220.617826,-4515.256246,2681.334243
22156.988716,0.000000,-11325.150913,-76.609550
22156.989049,1998.556043,-13027.624579,2374.896044
22156.989382,1554.432478,-8808.450710,-1225.752797
22156.989716,0.000000,-11103.089130,-2451.505594
22156.990049,4071.132681,-11843.295072,-689.485948
22156.990382,-1480.411884,-10140.821405,-4596.572988
22156.990716,3108.864956,-11103.089130,-76.609550
22156.991049,-2072.576638,-11029.068536,1072.533697
22156.991382,592.164754,-9252.574275,-1455.581446
22156.991715,3256.906145,-11843.295072,4290.134789
22156.992049,2886.803174,-6513.812290,4673.182538
22156.992382,1998.556043,-3627.009116,1532.190996
22156.992715,296.082377,-9400.615463,3600.648841
22156.993049,-74.020594,-8290.306550,-1302.362347
22156.993382,-3701.029710,-8956.491898,0.000000
22156.993715,-74.020594,-7846.182985,-2221.676944
22156.994049,-5995.668130,-11769.274478,-3753.867940
22156.994382,-3330.926739,-7624.121203,-3064.381992
22156.994715,-3552.988522,-8438.347739,-1685.410096
22156.995048,-5181.441594,-8364.327145,0.000000
22156.995382,-2960.823768,-7550.100608,2451.505594
22156.995715,2294.638420,-11251.130318,2374.896044
22156.996048,2960.823768,-7179.997637,3677.258390
22156.996381,2368.659014,-7179.997637,7967.393179
22156.996714,4071.132681,-10066.800811,3447.429741
22156.997048,4441.235652,-7476.080014,2757.943793
22156.997381,1702.473667,-12731.542202,842.705048
22156.997714,4515.256246,-8734.430116,-153.219100
22156.998047,-2960.823768,-11177.109724,-2145.067394
22156.998381,148.041188,-10732.986159,-1915.238745
22156.998714,-74.020594,-11843.295072,-4213.525239
22156.999047,-2368.659014,-9548.656652,612.876398
22156.999380,0.000000,-6365.771101,-76.609550
22156.999714,0.000000,-9252.574275,3677.258390
22157.000047,-2368.659014,-7772.162391,4903.011187
22157.000380,1406.391290,-4737.318029,2451.505594
22157.000713,1184.329507,-8290.306550,3294.210641
22157.001046,2886.803174,-6809.894666,-1302.362347
22157.001380,296.082377,-10510.924376,-76.609550
22157.001713,1036.288319,-9104.533087,-2451.505594
22157.002046,-1036.288319,-11621.233289,-4443.353888
22157.002379,-666.185348,-13767.830521,-4290.134789
22157.002713,3182.885551,-12731.542202,-76.609550
22157.003046,0.000000,-10140.821405,0.000000
22157.003379,2590.720797,-11843.295072,1149.143247
22157.003712,1776.494261,-8956.491898,2451.505594
22157.004045,4737.318029,-5995.668130,4903.011187
22157.004379,4663.297435,-11843.295072,7277.907231
22157.004712,4737.318029,-7920.203579,5515.887586
22157.005045,148.041188,-8142.265362,1838.629195
22157.005378,740.205942,-6883.915261,306.438199
22157.005712,-1850.514855,-6735.874072,-2451.505594
22157.006045,-2368.659014,-8956.491898,-1302.362347
22157.006378,-2442.679609,-11843.295072,-3753.867940
22157.006711,-4811.338623,-8660.409521,-4903.011187
22157.007045,-3256.906145,-10584.944971,-766.095498
22157.007378,-4811.338623,-8956.491898,-2451.505594
22157.007711,1110.308913,-8216.285956,306.438199
22157.008044,1258.350101,-9548.656652,5209.449386
22157.008377,4367.215058,-7846.182985,6358.592633
22157.008711,3552.988522,-4811.338623,3983.696590
22157.009044,4811.338623,-11843.295072,6665.030833
22157.009377,2664.741391,-5995.668130,3677.258390
22157.009710,0.000000,-8364.327145,2451.505594
22157.010044,1702.473667,-11843.295072,-4979.620737
22157.010377,-5625.565159,-12213.398043,-4903.011187
22157.010710,-3775.050304,-12213.398043,-5822.325785
22157.011043,-1702.473667,-12583.501014,-4596.572988
22157.011377,-2590.720797,-11251.130318,1762.019645
22157.011710,1110.308913,-7105.977043,5745.716235
22157.012043,3478.967927,-7105.977043,5439.278036
22157.012376,0.000000,-6587.832884,6435.202183
22157.012709,2294.638420,-5329.482782,2374.896044
22157.013043,1702.473667,-5625.565159,2374.896044
22157.013376,-1776.494261,-7179.997637,1532.190996
22157.013709,-370.102971,-9770.718434,-2681.334243
22157.014042,-3997.112087,-14137.933492,-4596.572988
22157.014376,-3108.864956,-10288.862594,-7431.126331
22157.014709,-2516.700203,-12953.603985,-5132.839837
22157.015042,518.144159,-12583.501014,-1838.629195
22157.015375,222.061783,-10362.883188,1455.581446
22157.015709,1480.411884,-7476.080014,2451.505594
22157.016042,3552.988522,-5403.503377,5515.887586
22157.016375,3552.988522,-4811.338623,8580.269578
22157.016708,6069.688724,-7698.141797,7277.907231
22157.017041,3775.050304,-5329.482782,1762.019645
22157.017375,0.000000,-8660.409521,-153.219100
22157.017708,-1702.473667,-9178.553681,-4366.744339
22157.018041,-3552.988522,-11917.315666,-3983.696590
22157.018374,-4737.318029,-11917.315666,-6281.983084
22157.018708,-4071.132681,-12509.480420,-2987.772442
22157.019041,0.000000,-9252.574275,-919.314598
22157.019374,-666.185348,-9104.533087,0.000000
22157.019707,5847.626942,-8882.471304,4826.401637
22157.020041,1184.329507,-6143.709319,3983.696590
22157.020374,4737.318029,-6587.832884,9116.536426
22157.020707,4145.153275,-6587.832884,4290.134789
22157.021040,2960.823768,-8808.450710,3294.210641
22157.021373,1702.473667,-9844.739029,1455.581446
22157.021707,0.000000,-10214.842000,-2681.334243
22157.022040,370.102971,-11843.295072,-3140.991542
22157.022373,-4145.153275,-11325.150913,-3677.258390
22157.022706,-3034.844362,-11843.295072,-5286.058936
22157.023040,-4441.235652,-9548.656652,-2145.067394
22157.023373,-1554.432478,-11843.295072,-76.609550
22157.023706,3330.926739,-6809.894666,3600.648841
22157.024039,4219.173869,-7105.977043,5439.278036
22157.024372,962.267725,-8734.430116,5592.497135
22157.024706,2664.741391,-5403.503377,2604.724693
22157.025039,-666.185348,-9622.677246,1762.019645
22157.025372,3478.967927,-7402.059420,2374.896044
22157.025705,-1998.556043,-10140.821405,-3064.381992
22157.026039,-4737.318029,-10140.821405,0.000000
22157.026372,-74.020594,-10362.883188,-2528.115143
22157.026705,-2368.659014,-8956.491898,0.000000
22157.027038,1110.308913,-4663.297435,-612.876398
22157.027372,-4145.153275,-8660.409521,-3217.601092
22157.027705,-370.102971,-10140.821405,306.438199
22157.028038,-740.205942,-9474.636058,306.438199
22157.028371,2146.597232,-10066.800811,2068.457845
22157.028704,0.000000,-9844.739029,4903.011187
22157.029038,2294.638420,-8586.388927,3600.648841
22157.029371,2886.803174,-6217.729913,-1532.190996
22157.029704,0.000000,-5995.668130,0.000000
22157.030037,814.226536,-10955.047942,-2528.115143
22157.030371,-1480.411884,-10881.027347,-1608.800546
22157.030704,-962.267725,-10658.965565,-995.924147
22157.031037,-2368.659014,-10658.965565,-1608.800546
22157.031370,-74.020594,-9178.553681,-383.047749
22157.031704,2220.617826,-9178.553681,-995.924147
22157.032037,3330.926739,-10288.862594,2298.286494
22157.032370,2294.638420,-9992.780217,5209.449386
22157.032703,1776.494261,-7179.997637,1838.629195
22157.033036,1702.473667,-11547.212695,4213.525239
22157.033370,0.000000,-5403.503377,0.000000
22157.033703,3997.112087,-5921.647536,-76.609550
22157.034036,-2590.720797,-10881.027347,-3447.429741
22157.034369,1184.329507,-7179.997637,-2451.505594
22157.034703,-3330.926739,-10955.047942,-1532.190996
22157.035036,-592.164754,-10732.986159,-3600.648841
22157.035369,-4293.194464,-9992.780217,-2221.676944
22157.035702,-74.020594,-12879.583391,1149.143247
22157.036036,5847.626942,-7994.224174,3600.648841
22157.036369,1184.329507,-7476.080014,6665.030833
22157.036702,4663.297435,-9474.636058,4826.401637
22157.037035,4071.132681,-8142.265362,4903.011187
22157.037368,3552.988522,-8068.244768,5745.716235
22157.037702,2368.659014,-6439.791695,612.876398
22157.038035,-2146.597232,-9622.677246,-2834.553343
22157.038368,-3256.906145,-11843.295072,-4596.572988
22157.038701,-4589.276840,-11399.171507,-4979.620737
22157.039035,-74.020594,-10288.862594,-3140.991542
22157.039368,-1776.494261,-7920.203579,-1302.362347
22157.039701,-1258.350101,-10066.800811,-1455.581446
22157.040034,962.267725,-11547.212695,2987.772442
22157.040367,1998.556043,-8290.306550,3294.210641
22157.040701,4737.318029,-6291.750507,6894.859482
22157.041034,1850.514855,-7624.121203,2757.943793
22157.041367,2442.679609,-9548.656652,4826.401637
22157.041700,-2072.576638,-7179.997637,1225.752797
22157.042034,0.000000,-5551.544565,-6128.763984
22157.042367,-1924.535449,-14211.954086,-1302.362347
22157.042700,-3034.844362,-8586.388927,-6588.421283
22157.043033,-4145.153275,-9548.656652,-4060.306139
22157.043367,-4737.318029,-11325.150913,-2451.505594
22157.043700,666.185348,-10658.965565,995.924147
22157.044033,740.205942,-8364.327145,4596.572988
22157.044366,2368.659014,-8290.306550,5362.668486
22157.044699,2886.803174,-7105.977043,4519.963438
22157.045033,0.000000,-11917.315666,4826.401637
22157.045366,3478.967927,-8882.471304,2374.896044
22157.045699,0.000000,-7179.997637,0.000000
22157.046032,2220.617826,-8290.306550,-1915.238745
22157.046366,-1776.494261,-11917.315666,-5975.544884
22157.046699,-3478.967927,-14359.995275,-995.924147
22157.047032,1702.473667,-5255.462188,-1378.971896
22157.047365,-2812.782580,-12657.521608,-3830.477490
22157.047699,4367.215058,-10955.047942,3600.648841
22157.048032,-1184.329507,-7920.203579,2374.896044
22157.048365,2590.720797,-7476.080014,4136.915689
22157.048698,2368.659014,-6957.935855,3140.991542
22157.049031,2146.597232,-9696.697840,2145.067394
22157.049365,5847.626942,-9474.636058,5439.278036
22157.049698,592.164754,-6291.750507,0.000000
22157.050031,1998.556043,-11843.295072,-1915.238745
22157.050364,-3552.988522,-8364.327145,-2451.505594
22157.050698,-2220.617826,-8956.491898,-4519.963438
22157.051031,1702.473667,-11695.253884,-2068.457845
22157.051364,-888.247130,-10362.883188,-536.266849
22157.051697,-222.061783,-8290.306550,-1302.362347
22157.052031,2516.700203,-8364.327145,3370.820191
22157.052364,2294.638420,-7105.977043,4673.182538
22157.052697,1480.411884,-9104.533087,7124.688131
22157.053030,6439.791695,-7105.977043,2374.896044
22157.053363,-222.061783,-9548.656652,0.000000
22157.053697,1776.494261,-9844.739029,3064.381992
22157.054030,1110.308913,-9622.677246,-3677.258390
22157.054363,-3552.988522,-11769.274478,-3447.429741
22157.054696,-2368.659014,-10140.821405,-3064.381992
22157.055030,-1850.514855,-9474.636058,-1991.848295
22157.055363,-2368.659014,-7179.997637,0.000000
22157.055696,-1776.494261,-9474.636058,-76.609550
22157.056029,74.020594,-9030.512492,1838.629195
22157.056362,-2072.576638,-4811.338623,4903.011187
22157.056696,1110.308913,-9474.636058,3600.648841
22157.057029,0.000000,-7179.997637,3064.381992
22157.057362,666.185348,-7772.162391,612.876398
22157.057695,-370.102971,-10881.027347,-229.828649
22157.058029,2072.576638,-8364.327145,306.438199
22157.058362,-3627.009116,-11029.068536,-2911.162892
22157.058695,-74.020594,-9474.636058,-6205.373534
22157.059028,-3478.967927,-13397.727550,-1685.410096
22157.059362,-592.164754,-9326.594869,2374.896044
22157.059695,2294.638420,-7105.977043,-2528.115143
22157.060028,1184.329507,-11917.315666,4596.572988
22157.060361,5255.462188,-6365.771101,7048.078582
22157.060694,1702.473667,-8586.388927,5286.058936
22157.061028,4293.194464,-7105.977043,4903.011187
22157.061361,-1850.514855,-9474.636058,1532.190996
22157.061694,3775.050304,-8808.450710,1991.848295
22157.062027,-962.267725,-8734.430116,-1915.238745
22157.062361,-2220.617826,-8882.471304,-6741.640382
22157.062694,-3775.050304,-7476.080014,-5515.887586
22157.063027,-2368.659014,-8364.327145,-2451.505594
22157.063360,1110.308913,-11843.295072,-76.609550
22157.063694,-2442.679609,-8290.306550,-2528.115143
22157.064027,296.082377,-10140.821405,3064.381992
22157.064360,2294.638420,-7105.977043,2681.334243
22157.064693,5921.647536,-7179.997637,6588.421283
22157.065026,2368.659014,-8734.430116,5515.887586
22157.065360,5181.441594,-5255.462188,2298.286494
22157.065693,592.164754,-11917.315666,0.000000
22157.066026,1998.556043,-11029.068536,-4903.011187
22157.066359,-74.020594,-11843.295072,-5592.497135
22157.066693,-1850.514855,-10732.986159,-2451.505594
22157.067026,0.000000,-6291.750507,-3677.258390
22157.067359,-2590.720797,-13101.645173,-1838.629195
22157.067692,-888.247130,-8068.244768,-1225.752797
22157.068026,592.164754,-9474.636058,4749.792088
22157.068359,5551.544565,-6439.791695,7354.516781
22157.068692,4071.132681,-7698.141797,7890.783629
22157.069025,0.000000,-4811.338623,2757.943793
22157.069358,-370.102971,-7105.977043,-2528.115143
22157.069692,-4737.318029,-12509.480420,2145.067394
22157.070025,814.226536,-7031.956449,-4903.011187
22157.070358,-3182.885551,-11769.274478,-3294.210641
22157.070691,-3552.988522,-12065.356855,-5592.497135
22157.071025,-3330.926739,-9918.759623,-5209.449386
22157.071358,-1110.308913,-10732.986159,1072.533697
22157.071691,3182.885551,-6291.750507,2528.115143
22157.072024,2960.823768,-8364.327145,6665.030833
22157.072358,3182.885551,-8364.327145,2451.505594
22157.072691,0.000000,-11917.315666,9499.584175
22157.073024,6439.791695,-2368.659014,4826.401637
22157.073357,3182.885551,-5403.503377,383.047749
22157.073690,-74.020594,-13619.789333,3600.648841
22157.074024,-1406.391290,-5921.647536,-4060.306139
22157.074357,-5551.544565,-12731.542202,-6052.154434
22157.074690,-1924.535449,-8586.388927,-4749.792088
22157.075023,-1850.514855,-10658.965565,-3753.867940
22157.075357,-4589.276840,-8364.327145,306.438199
22157.075690,-1332.370696,-9474.636058,1149.143247
22157.076023,-4811.338623,-12435.459826,-3140.991542
22157.076356,2960.823768,-6291.750507,6128.763984
22157.076689,5255.462188,-7105.977043,4903.011187
22157.077023,7179.997637,-8586.388927,5975.544884
22157.077356,2664.741391,-8660.409521,4596.572988
22157.077689,2294.638420,-8142.265362,-995.924147
22157.078022,3182.885551,-9474.636058,-1608.800546
22157.078356,-1110.308913,-10362.883188,-3447.429741
22157.078689,-888.247130,-10807.006753,-5515.887586
22157.079022,-1628.453072,-10584.944971,-2681.334243
22157.079355,0.000000,-9548.656652,-3677.258390
22157.079689,3478.967927,-8882.471304,-76.609550
22157.080022,0.000000,-11547.212695,2528.115143
22157.080355,2960.823768,-6587.832884,8044.002729
22157.080688,2294.638420,-10362.883188,4519.963438
22157.081021,1998.556043,-4959.379811,2451.505594
22157.081355,222.061783,-9178.553681,1915.238745
22157.081688,0.000000,-7698.141797,612.876398
22157.082021,-2072.576638,-7772.162391,-1455.581446
22157.082354,-3627.009116,-11103.089130,-2834.553343
22157.082688,-74.020594,-9474.636058,-3140.991542
22157.083021,-7105.977043,-9548.656652,-1225.752797
22157.083354,-2368.659014,-7179.997637,-1225.752797
22157.083687,1110.308913,-10066.800811,-76.609550
22157.084021,1776.494261,-11917.315666,4903.011187
22157.084354,6291.750507,-6587.832884,4749.792088
22157.084687,2812.782580,-11547.212695,2374.896044
22157.085020,5477.523971,-12139.377449,3677.258390
22157.085353,1554.432478,-10066.800811,6971.469032
22157.085687,7031.956449,-4441.235652,-689.485948
22157.086020,0.000000,-11621.233289,4826.401637
22157.086353,-2738.761985,-6661.853478,-4213.525239
22157.086686,-3923.091493,-7179.997637,-7354.516781
22157.087020,-3775.050304,-10658.965565,-1302.362347
22157.087353,-2368.659014,-6587.832884,-4290.134789
22157.087686,-4441.235652,-10584.944971,995.924147
22157.088019,-222.061783,-9178.553681,1302.362347
22157.088353,-1628.453072,-5403.503377,0.000000
22157.088686,1998.556043,-9844.739029,3677.258390
22157.089019,3552.988522,-6587.832884,6052.154434
22157.089352,2294.638420,-13027.624579,2374.896044
22157.089685,74.020594,-11695.253884,995.924147
22157.090019,-2072.576638,-5403.503377,-1225.752797
22157.090352,1406.391290,-8142.265362,-1302.362347
22157.090685,3404.947333,-7105.977043,1762.019645
22157.091018,-3330.926739,-9326.594869,-3753.867940
22157.091352,1702.473667,-8882.471304,-1302.362347
22157.091685,-4737.318029,-10732.986159,-612.876398
22157.092018,3182.885551,-11843.295072,1149.143247
22157.092351,2294.638420,-8808.450710,919.314598
22157.092684,0.000000,-10584.944971,3294.210641
22157.093018,3552.988522,-6587.832884,-1685.410096
22157.093351,-1332.370696,-12139.377449,4519.963438
22157.093684,5255.462188,-5921.647536,4366.744339
22157.094017,666.185348,-8882.471304,1838.629195
22157.094351,-962.267725,-10362.883188,-76.609550
22157.094684,-4737.318029,-8438.347739,-3753.867940
22157.095017,-3034.844362,-7846.182985,-1838.629195
22157.095350,1036.288319,-6513.812290,-2528.115143
22157.095683,-2146.597232,-11325.150913,0.000000
22157.096016,2294.638420,-10658.965565,1072.533697
22157.096350,666.185348,-7772.162391,-1532.190996
22157.096683,1184.329507,-11325.150913,2757.943793
22157.097016,4663.297435,-9474.636058,3447.429741
22157.097349,0.000000,-9548.656652,1532.190996
22157.097682,3701.029710,-9400.615463,3600.648841
22157.098015,1924.535449,-7846.182985,0.000000
22157.098349,2368.659014,-10140.821405,-2451.505594
22157.098682,2294.638420,-12435.459826,689.485948
22157.099015,1702.473667,-7698.141797,-689.485948
22157.099348,-5921.647536,-7476.080014,-2451.505594
22157.099681,-1554.432478,-10658.965565,-2834.553343
22157.100014,-518.144159,-11843.295072,-1302.362347
22157.100348,-2368.659014,-5995.668130,2451.505594
22157.100681,2294.638420,-8290.306550,1149.143247
22157.101014,222.061783,-9252.574275,3064.381992
22157.101347,3552.988522,-8290.306550,3600.648841
22157.101680,1184.329507,-10658.965565,2451.505594
22157.102013,444.123565,-8068.244768,0.000000
22157.102346,-2960.823768,-10214.842000,766.095498
22157.102680,1110.308913,-7179.997637,-1225.752797
22157.103013,-3552.988522,-7179.997637,0.000000
22157.103346,2294.638420,-8290.306550,-2528.115143
22157.103679,-3256.906145,-10140.821405,-1838.629195
22157.104012,1850.514855,-9474.636058,-1149.143247
22157.104345,2960.823768,-11695.253884,4213.525239
22157.104679,3627.009116,-9548.656652,4290.134789
22157.105012,4293.194464,-10362.883188,3907.087040
22157.105345,4663.297435,-11843.295072,2374.896044
22157.105678,2368.659014,-7476.080014,5056.230287
22157.106011,4071.132681,-7105.977043,3600.648841
22157.106344,-74.020594,-9326.594869,-3140.991542
22157.106678,-4811.338623,-7476.080014,-6128.763984
22157.107011,-7179.997637,-10955.047942,-5898.935335
22157.107344,-3997.112087,-8586.388927,-2834.553343
22157.107677,-1554.432478,-6883.915261,0.000000
22157.108010,-2368.659014,-10436.903782,1838.629195
22157.108343,2220.617826,-7105.977043,5056.230287
22157.108677,0.000000,-7254.018232,1455.581446
22157.109010,2072.576638,-10732.986159,1608.800546
22157.109343,5255.462188,-8882.471304,4213.525239
22157.109676,-1554.432478,-13027.624579,2374.896044
22157.110009,1776.494261,-3034.844362,0.000000
22157.110342,-2590.720797,-14211.954086,-76.609550
22157.110676,2294.638420,-11843.295072,-4673.182538
22157.111009,1110.308913,-11769.274478,459.657299
22157.111342,-666.185348,-11843.295072,-1915.238745
22157.111675,-1184.329507,-8956.491898,-536.266849
22157.112008,-4441.235652,-8956.491898,-1838.629195
22157.112341,1184.329507,-8364.327145,1838.629195
22157.112675,3552.988522,-5699.585753,7584.345430
22157.113008,0.000000,-7772.162391,4749.792088
22157.113341,3478.967927,-7994.224174,2757.943793
22157.113674,0.000000,-5995.668130,0.000000
22157.114007,-888.247130,-7402.059420,-1991.848295
22157.114340,-74.020594,-11251.130318,-2221.676944
22157.114674,-2368.659014,-10510.924376,-4443.353888
22157.115007,-3034.844362,-11547.212695,-1762.019645
22157.115340,-1554.432478,-8512.368333,-1225.752797
22157.115673,148.041188,-5329.482782,-1991.848295
22157.116006,1110.308913,-10658.965565,4826.401637
22157.116339,6439.791695,-7698.141797,2681.334243
22157.116673,2072.576638,-11621.233289,6052.154434
22157.117006,5847.626942,-10658.965565,6971.469032
22157.117339,2368.659014,-11251.130318,3294.210641
22157.117672,4663.297435,-10658.965565,4213.525239
22157.118005,3182.885551,-7550.100608,229.828649
22157.118338,-1184.329507,-10066.800811,-1685.410096
22157.118672,-1332.370696,-8882.471304,-1302.362347
22157.119005,-4811.338623,-8956.491898,-7354.516781
22157.119338,-4737.318029,-10140.821405,-4290.134789
22157.119671,296.082377,-9918.759623,4826.401637
22157.120004,1850.514855,-3997.112087,459.657299
22157.120337,2738.761985,-11695.253884,4826.401637
22157.120670,3182.885551,-6439.791695,3600.648841
22157.121004,0.000000,-8808.450710,383.047749
22157.121337,1406.391290,-12139.377449,536.266849
22157.121670,2886.803174,-10658.965565,-76.609550
22157.122003,-5921.647536,-8364.327145,612.876398
22157.122336,2590.720797,-6513.812290,-1302.362347
22157.122669,-3997.112087,-7179.997637,-6894.859482
22157.123003,-2368.659014,-9548.656652,0.000000
22157.123336,2294.638420,-8290.306550,-689.485948
22157.123669,-222.061783,-10066.800811,-1532.190996
22157.124002,-74.020594,-12139.377449,536.266849
22157.124335,962.267725,-9252.574275,2681.334243
22157.124668,5847.626942,-7105.977043,4826.401637
22157.125002,2294.638420,-13027.624579,5132.839837
22157.125335,2294.638420,-7328.038826,-1302.362347
22157.125668,-222.061783,-10955.047942,1455.581446
22157.126001,-4737.318029,-8364.327145,-3064.381992
22157.126334,3182.885551,-10658.965565,-2528.115143
22157.126667,-6217.729913,-9844.739029,-2451.505594
22157.127001,0.000000,-5995.668130,-1838.629195
22157.127334,-2442.679609,-10658.965565,-76.609550
22157.127667,-2368.659014,-5995.668130,-1532.190996
22157.128000,-3108.864956,-8882.471304,229.828649
22157.128333,962.267725,-5921.647536,229.828649
22157.128666,5477.523971,-10436.903782,3140.991542
22157.129000,5847.626942,-8290.306550,7890.783629
22157.129333,3182.885551,-13027.624579,3600.648841
22157.129666,296.082377,-8364.327145,1225.752797
22157.129999,3775.050304,-11251.130318,2374.896044
22157.130332,1702.473667,-11547.212695,-1302.362347
22157.130665,3552.988522,-6439.791695,-919.314598
22157.130999,-3923.091493,-10955.047942,-4290.134789
22157.131332,74.020594,-11843.295072,-2528.115143
22157.131665,-4293.194464,-9400.615463,459.657299
22157.131998,444.123565,-4737.318029,995.924147
22157.132331,1110.308913,-9474.636058,4826.401637
22157.132664,-2960.823768,-9548.656652,6128.763984
22157.132998,2220.617826,-7105.977043,1762.019645
22157.133331,-666.185348,-8882.471304,-536.266849
22157.133664,3627.009116,-9918.759623,1762.019645
22157.133997,-1554.432478,-9178.553681,-919.314598
22157.134330,666.185348,-8734.430116,-2374.896044
22157.134663,-5625.565159,-9844.739029,-2681.334243
22157.134997,-1776.494261,-7772.162391,-4903.011187
22157.135330,4071.132681,-7994.224174,-1608.800546
22157.135663,-888.247130,-13693.809927,3677.258390
22157.135996,5847.626942,-5921.647536,-689.485948
22157.136329,-4737.318029,-13101.645173,3217.601092
22157.136662,3552.988522,-5995.668130,306.438199
22157.136996,3404.947333,-10362.883188,4136.915689
22157.137329,1924.535449,-12657.521608,4903.011187
22157.137662,5477.523971,-5477.523971,2221.676944
22157.137995,-3923.091493,-14211.954086,-76.609550
22157.138328,2294.638420,-3034.844362,0.000000
22157.138661,-3627.009116,-9474.636058,-2834.553343
22157.138994,-518.144159,-7105.977043,-3753.867940
22157.139328,-7105.977043,-9548.656652,-1225.752797
22157.139661,-5921.647536,-11029.068536,-4290.134789
22157.139994,0.000000,-6513.812290,536.266849
22157.140327,-1850.514855,-10510.924376,2068.457845
22157.140660,2664.741391,-7772.162391,1072.533697
22157.140993,1110.308913,-10362.883188,5439.278036
22157.141327,2368.659014,-6291.750507,2451.505594
22157.141660,5255.462188,-8882.471304,3370.820191
22157.141993,4959.379811,-10955.047942,4903.011187
22157.142326,3478.967927,-6661.853478,-76.609550
22157.142659,-1258.350101,-11769.274478,-76.609550
22157.142992,0.000000,-7179.997637,-3370.820191
22157.143326,-2368.659014,-13101.645173,-76.609550
22157.143659,-74.020594,-11177.109724,-1532.190996
22157.143992,-4737.318029,-10140.821405,-3217.601092
22157.144325,-2368.659014,-10362.883188,2068.457845
22157.144658,3701.029710,-7179.997637,6741.640382
22157.144991,3034.844362,-7105.977043,7584.345430
22157.145325,3997.112087,-5699.585753,7507.735880
22157.145658,-1258.350101,-7105.977043,-1608.800546
22157.145991,-1924.535449,-10140.821405,612.876398
22157.146324,814.226536,-8290.306550,-383.047749
22157.146657,-666.185348,-9474.636058,-6128.763984
22157.146990,-4737.318029,-11917.315666,-2374.896044
22157.147324,-2960.823768,-5403.503377,-5515.887586
22157.147657,-3330.926739,-12065.356855,-3983.696590
22157.147990,1776.494261,-10807.006753,1149.143247
22157.148323,2220.617826,-10066.800811,3370.820191
22157.148656,3404.947333,-8660.409521,6128.763984
22157.148989,4737.318029,-8956.491898,9422.974625
22157.149323,2294.638420,-6735.874072,2451.505594
22157.149656,7105.977043,-8364.327145,3677.258390
22157.149989,740.205942,-11399.171507,4213.525239
22157.150322,222.061783,-4219.173869,-4290.134789
22157.150655,-3923.091493,-14211.954086,-3294.210641
22157.150988,-3404.947333,-9178.553681,-4979.620737
22157.151322,-3330.926739,-7846.182985,-4903.011187
22157.151655,-3627.009116,-11843.295072,-2221.676944
22157.151988,-1184.329507,-9326.594869,-76.609550
22157.152321,-1258.350101,-6957.935855,0.000000
22157.152654,2368.659014,-8364.327145,6971.469032
22157.152987,2294.638420,-8290.306550,2374.896044
22157.153321,1406.391290,-10436.903782,4366.744339
22157.153654,3701.029710,-7179.997637,2757.943793
22157.153987,3997.112087,-10436.903782,3447.429741
22157.154320,4071.132681,-9104.533087,995.924147
22157.154653,1184.329507,-6587.832884,-3677.258390
22157.154986,-1850.514855,-11251.130318,-5056.230287
22157.155320,0.000000,-8068.244768,-3677.258390
22157.155653,-1850.514855,-14211.954086,-2528.115143
22157.155986,-1110.308913,-8512.368333,-1838.629195
22157.156319,-148.041188,-11325.150913,2987.772442
22157.156652,1110.308913,-10584.944971,1225.752797
22157.156985,4071.132681,-8290.306550,7277.907231
22157.157318,2146.597232,-6809.894666,6052.154434
22157.157652,2664.741391,-5403.503377,3370.820191
22157.157985,1110.308913,-7698.141797,536.266849
22157.158318,-3478.967927,-10658.965565,-2221.676944
22157.158651,-2368.659014,-6587.832884,-2145.067394
22157.158984,-4367.215058,-9918.759623,-4749.792088
22157.159317,-2738.761985,-9178.553681,-3753.867940
22157.159651,-1258.350101,-11843.295072,-1302.362347
22157.159984,-3849.070898,-7179.997637,-4290.134789
22157.160317,1184.329507,-14211.954086,1225.752797
22157.160650,4441.235652,-10510.924376,4903.011187
22157.160983,3552.988522,-7476.080014,5669.106685
22157.161316,2812.782580,-10436.903782,6358.592633
22157.161650,2146.597232,-8290.306550,3983.696590
22157.161983,2442.679609,-5995.668130,-153.219100
22157.162316,2368.659014,-11325.150913,1225.752797
22157.162649,2294.638420,-6143.709319,-3370.820191
22157.162982,-4145.153275,-10732.986159,-3677.258390
22157.163315,-5033.400406,-9474.636058,-4366.744339
22157.163649,-3627.009116,-10658.965565,-4979.620737
22157.163982,-4737.318029,-10436.903782,-842.705048
22157.164315,1406.391290,-6587.832884,1608.800546
22157.164648,-1776.494261,-11991.336260,4596.572988
22157.164981,2664.741391,-5181.441594,3370.820191
22157.165314,2886.803174,-12731.542202,6052.154434
22157.165648,518.144159,-6291.750507,2757.943793
22157.165981,4737.318029,-5403.503377,3064.381992
22157.166314,2294.638420,-12435.459826,3294.210641
22157.166647,1554.432478,-1258.350101,-3370.820191
22157.166980,-962.267725,-10362.883188,-5592.497135
22157.167313,-740.205942,-5699.585753,-5975.544884
22157.167647,-2368.659014,-13175.665768,-4366.744339
22157.167980,-740.205942,-16580.613101,-1532.190996
22157.168313,1702.473667,-4145.153275,-689.485948
22157.168646,-3552.988522,-16654.633695,2451.505594
22157.168979,9252.574275,0.000000,3294.210641
22157.169312,3182.885551,-11843.295072,4826.401637
22157.169646,2368.659014,-19023.292709,7967.393179
22157.169979,7031.956449,-8290.306550,6052.154434
22157.170312,5181.441594,7328.038826,-1685.410096
22157.170645,-1998.556043,-5477.523971,-2221.676944
22157.170978,-4219.173869,-13323.706956,-2681.334243
22157.171311,-7772.162391,-16580.613101,-2528.115143
22157.171645,-5403.503377,-10955.047942,-4060.306139
22157.171978,-2738.761985,-13767.830521,-4826.401637
22157.172311,-1258.350101,-5921.647536,-5132.839837
22157.172644,4145.153275,-9548.656652,0.000000
22157.172977,7624.121203,-8882.471304,5745.716235
22157.173310,3330.926739,-8660.409521,5515.887586
22157.173644,1184.329507,-7476.080014,9193.145976
22157.173977,5255.462188,-6513.812290,7890.783629
22157.174310,1924.535449,-1850.514855,0.000000
22157.174643,4589.276840,-9326.594869,2911.162892
22157.174976,-3182.885551,-8808.450710,1072.533697
22157.175309,-2886.803174,-5699.585753,-4903.011187
22157.175642,-8364.327145,-15396.283594,-2528.115143
22157.175976,-6587.832884,-15988.448347,-1608.800546
22157.176309,-6217.729913,-7772.162391,-2451.505594
22157.176642,-4441.235652,-13249.686362,2451.505594
22157.176975,2886.803174,-11251.130318,2068.457845
22157.177308,2294.638420,-9474.636058,5669.106685
22157.177641,3330.926739,-9400.615463,2451.505594
22157.177975,3256.906145,-8512.368333,689.485948
22157.178308,222.061783,-10658.965565,-2834.553343
22157.178641,2368.659014,-6587.832884,-4290.134789
22157.178974,-1850.514855,-13619.789333,-4979.620737
22157.179307,0.000000,-9548.656652,-3983.696590
22157.179640,2886.803174,-9474.636058,-3447.429741
22157.179974,0.000000,-9622.677246,-1762.019645
22157.180307,3108.864956,-7105.977043,842.705048
22157.180640,-1776.494261,-10140.821405,1072.533697
22157.180973,2368.659014,-6069.688724,2681.334243
22157.181306,-518.144159,-8068.244768,2911.162892
22157.181639,1184.329507,-7772.162391,0.000000
22157.181973,2294.638420,-7994.224174,229.828649
22157.182306,-666.185348,-9474.636058,-383.047749
22157.182639,2294.638420,-7105.977043,-3447.429741
22157.182972,-4737.318029,-10436.903782,766.095498
22157.183305,296.082377,-5699.585753,-2451.505594
22157.183638,-592.164754,-8734.430116,3217.601092
22157.183972,-1406.391290,-9918.759623,153.219100
22157.184305,2442.679609,-8364.327145,4136.915689
22157.184638,2590.720797,-10658.965565,6052.154434
22157.184971,4737.318029,-4811.338623,4903.011187
22157.185304,4367.215058,-11843.295072,4213.525239
22157.185637,1776.494261,-8364.327145,0.000000
22157.185971,2368.659014,-10066.800811,3600.648841
22157.186304,4071.132681,-8068.244768,2221.676944
22157.186637,1924.535449,-8364.327145,536.266849
22157.186970,-1110.308913,-6069.688724,-1838.629195
22157.187303,-2442.679609,-8586.388927,-3600.648841
22157.187636,-2442.679609,-10658.965565,-1302.362347
22157.187970,-4441.235652,-9548.656652,0.000000
22157.188303,-1258.350101,-9918.759623,229.828649
22157.188636,0.000000,-10510.924376,1838.629195
22157.188969,1998.556043,-12435.459826,842.705048
22157.189302,4367.215058,-15100.201217,4826.401637
22157.189635,2368.659014,-8660.409521,4903.011187
22157.189969,2368.659014,-9548.656652,3907.087040
22157.190302,-74.020594,-10510.924376,153.219100
22157.190635,0.000000,-6439.791695,-2757.943793
22157.190968,-5921.647536,-12287.418637,-2528.115143
22157.191301,-4367.215058,-6809.894666,-2834.553343
22157.191634,-1554.432478,-9326.594869,-2681.334243
22157.191968,-2368.659014,-9696.697840,-1149.143247
22157.192301,-666.185348,-7698.141797,-383.047749
22157.192634,-7105.977043,-11917.315666,-2451.505594
22157.192967,4663.297435,-7105.977043,1762.019645
22157.193300,-1258.350101,-11621.233289,-1838.629195
22157.193633,4737.318029,-8364.327145,3753.867940
22157.193966,2886.803174,-10362.883188,2681.334243
22157.194300,2812.782580,-6735.874072,2451.505594
22157.194633,3034.844362,-4071.132681,2221.676944
22157.194966,-444.123565,-8364.327145,689.485948
22157.195299,-1480.411884,-5403.503377,-3064.381992
22157.195632,-9474.636058,-7772.162391,-1838.629195
22157.195965,-74.020594,-8882.471304,-2834.553343
22157.196299,-3849.070898,-5773.606348,-2528.115143
22157.196632,592.164754,-11621.233289,1149.143247
22157.196965,2368.659014,-5995.668130,6741.640382
22157.197298,2516.700203,-8586.388927,2374.896044
22157.197631,5107.421000,-9548.656652,7354.516781
22157.197964,1184.329507,-10362.883188,5362.668486
22157.198297,4663.297435,-7550.100608,1915.238745
22157.198630,1480.411884,-10807.006753,6052.154434
22157.198963,-74.020594,-6957.935855,-4826.401637
22157.199296,-3552.988522,-10732.986159,-536.266849
22157.199629,-1776.494261,-6883.915261,-1915.238745
22157.199963,-2368.659014,-10732.986159,-3677.258390
22157.200296,-3552.988522,-10584.944971,-459.657299
22157.200629,2146.597232,-8660.409521,995.924147
22157.200962,2072.576638,-10288.862594,4366.744339
22157.201295,3701.029710,-10436.903782,4136.915689
22157.201628,6439.791695,-10658.965565,4826.401637
22157.201961,3182.885551,-9770.718434,1455.581446
22157.202294,1998.556043,-7772.162391,-2145.067394
22157.202627,1332.370696,-12435.459826,-1302.362347
22157.202960,-74.020594,-13027.624579,-2834.553343
22157.203293,-1702.473667,-7772.162391,-4903.011187
22157.203626,-2146.597232,-8290.306550,-4366.744339
22157.203959,-1998.556043,-8438.347739,-2374.896044
22157.204292,-2368.659014,-7179.997637,0.000000
22157.204625,-1258.350101,-10955.047942,2681.334243
22157.204958,-74.020594,-8142.265362,3907.087040
22157.205291,2220.617826,-5477.523971,2987.772442
22157.205624,2220.617826,-8808.450710,3447.429741
22157.205957,592.164754,-10732.986159,4290.134789
22157.206290,1702.473667,-11547.212695,2068.457845
22157.206624,-666.185348,-7179.997637,-4903.011187
22157.206957,-3552.988522,-9992.780217,-3447.429741
22157.207290,-2442.679609,-10658.965565,-2834.553343
22157.207623,-2368.659014,-7179.997637,-1685.410096
22157.207956,-1036.288319,-8808.450710,383.047749
22157.208289,-666.185348,-8882.471304,612.876398
22157.208622,3034.844362,-7179.997637,3753.867940
22157.208955,2294.638420,-10510.924376,9116.536426
22157.209288,6439.791695,-5033.400406,2681.334243
22157.209621,592.164754,-11029.068536,2757.943793
22157.209954,2368.659014,-13619.789333,-689.485948
22157.210287,1702.473667,-10214.842000,536.266849
22157.210620,-2368.659014,-10214.842000,-2528.115143
22157.210953,1184.329507,-6883.915261,-2298.286494
22157.211286,-6513.812290,-11917.315666,-3524.039291
22157.211619,2516.700203,-4885.359217,-2681.334243
22157.211952,-3627.009116,-11251.130318,1149.143247
22157.212285,-74.020594,-3034.844362,-4903.011187
22157.212618,2812.782580,-11843.295072,4826.401637
22157.212951,1406.391290,-11843.295072,4213.525239
22157.213285,5847.626942,-4219.173869,3064.381992
22157.213618,-74.020594,-11251.130318,1762.019645
22157.213951,8068.244768,-11325.150913,766.095498
22157.214284,814.226536,-10732.986159,3064.381992
22157.214617,1036.288319,-11325.150913,-1838.629195
22157.214950,0.000000,-7179.997637,-3677.258390
22157.215283,-5921.647536,-11917.315666,-2451.505594
22157.215616,2590.720797,-7105.977043,-689.485948
22157.215949,-2442.679609,-9178.553681,-1532.190996
22157.216282,370.102971,-5107.421000,-1838.629195
22157.216615,-74.020594,-10362.883188,536.266849
22157.216948,0.000000,-10881.027347,5286.058936
22157.217281,3256.906145,-7772.162391,3370.820191
22157.217614,1406.391290,-10066.800811,3983.696590
22157.217947,3849.070898,-8364.327145,2451.505594
22157.218280,0.000000,-10807.006753,995.924147
22157.218613,2516.700203,-9400.615463,1378.971896
22157.218946,-3330.926739,-6883.915261,-4366.744339
22157.219279,-370.102971,-10066.800811,-2528.115143
22157.219612,-4811.338623,-14211.954086,-2528.115143
22157.219946,-3552.988522,-4219.173869,-2451.505594
22157.220279,-3627.009116,-11843.295072,-76.609550
22157.220612,4367.215058,-4441.235652,-76.609550
22157.220945,2516.700203,-13545.768739,7354.516781
22157.221278,1332.370696,-8364.327145,6052.154434
22157.221611,3034.844362,-8364.327145,4136.915689
22157.221944,-2738.761985,-10288.862594,2374.896044
22157.222277,6587.832884,-5551.544565,766.095498
22157.222610,-2368.659014,-9548.656652,306.438199
22157.222943,0.000000,-5403.503377,-3064.381992
22157.223276,-2590.720797,-11843.295072,-3753.867940
22157.223609,-2664.741391,-11251.130318,-4366.744339
22157.223942,-3627.009116,-10510.924376,-1302.362347
22157.224275,1702.473667,-8882.471304,-76.609550
22157.224608,1406.391290,-8882.471304,1762.019645
22157.224941,1480.411884,-9844.739029,4826.401637
22157.225274,7328.038826,-9770.718434,4903.011187
22157.225607,3182.885551,-12435.459826,8503.660028
22157.225940,7105.977043,-7328.038826,4903.011187
22157.226273,1406.391290,-11843.295072,2374.896044
22157.226607,370.102971,-7846.182985,-1532.190996
22157.226940,-5329.482782,-8956.491898,-4903.011187
22157.227273,-3182.885551,-8216.285956,-4749.792088
22157.227606,-2146.597232,-9474.636058,-3447.429741
22157.227939,-3478.967927,-8438.347739,-2374.896044
22157.228272,-2442.679609,-8290.306550,-2221.676944
22157.228605,-3701.029710,-5995.668130,-4903.011187
22157.228938,2294.638420,-11843.295072,-76.609550
22157.229271,4219.173869,-8882.471304,4519.963438
22157.229604,2368.659014,-9844.739029,6128.763984
22157.229937,5847.626942,-10510.924376,7277.907231
22157.230270,1776.494261,-10436.903782,1915.238745
22157.230603,4219.173869,-8512.368333,-2221.676944
22157.230936,3108.864956,-12583.501014,1149.143247
22157.231269,740.205942,-8216.285956,-76.609550
22157.231602,0.000000,-8660.409521,-1991.848295
22157.231935,-1258.350101,-10658.965565,-3907.087040
22157.232268,-3552.988522,-7179.997637,-3370.820191
22157.232601,-2368.659014,-7772.162391,2068.457845
22157.232934,2294.638420,-11251.130318,4213.525239
22157.233268,592.164754,-8364.327145,3370.820191
22157.233601,-1332.370696,-11991.336260,3907.087040
22157.233934,1406.391290,-8512.368333,1378.971896
22157.234267,0.000000,-9770.718434,3064.381992
22157.234600,0.000000,-2442.679609,612.876398
22157.234933,74.020594,-10140.821405,0.000000
22157.235266,-2294.638420,-8586.388927,-1302.362347
22157.235599,-1554.432478,-5329.482782,-3907.087040
22157.235932,-4811.338623,-11251.130318,-5439.278036
22157.236265,0.000000,-8364.327145,0.000000
22157.236598,-666.185348,-11251.130318,-76.609550
22157.236931,3478.967927,-9178.553681,766.095498
22157.237264,1776.494261,-11325.150913,3677.258390
22157.237597,7031.956449,-14211.954086,4826.401637
22157.237930,7105.977043,-7476.080014,11031.775171
22157.238263,5255.462188,-6513.812290,4366.744339
22157.238596,3775.050304,-7994.224174,3294.210641
22157.238929,-5329.482782,-9548.656652,-3064.381992
22157.239262,-5921.647536,-4811.338623,-7354.516781
22157.239596,-7179.997637,-7772.162391,-4903.011187
22157.239929,-4811.338623,-10658.965565,-4596.572988
22157.240262,-2442.679609,-11251.130318,-2221.676944
22157.240595,-5773.606348,-6365.771101,-2221.676944
22157.240928,1406.391290,-7402.059420,-383.047749
22157.241261,1184.329507,-8956.491898,4749.792088
22157.241594,6735.874072,-8808.450710,6818.249932
22157.241927,3552.988522,-11251.130318,6894.859482
22157.242260,1184.329507,-8956.491898,7277.907231
22157.242593,4663.297435,-6513.812290,-1762.019645
22157.242926,2368.659014,-10732.986159,-1838.629195
22157.243259,5329.482782,-13323.706956,2374.896044
22157.243592,-1480.411884,-10066.800811,0.000000
22157.243925,-2146.597232,-7846.182985,-5209.449386
22157.244258,-4145.153275,-11029.068536,-2528.115143
22157.244591,-2664.741391,-10140.821405,-383.047749
22157.244924,2294.638420,-5329.482782,1762.019645
22157.245257,0.000000,-9400.615463,6971.469032
22157.245590,0.000000,-3627.009116,0.000000
22157.245923,0.000000,-9548.656652,6358.592633
22157.246257,4071.132681,-7402.059420,1762.019645
22157.246590,3478.967927,-9474.636058,842.705048
22157.246923,-1332.370696,-9622.677246,-3524.039291
22157.247256,-4219.173869,-11695.253884,-5439.278036
22157.247589,-3627.009116,-9474.636058,-4519.963438
22157.247922,-2368.659014,-5995.668130,-3064.381992
22157.248255,2294.638420,-8882.471304,-2221.676944
22157.248588,592.164754,-8364.327145,2451.505594
22157.248921,4663.297435,-10362.883188,4213.525239
22157.249254,740.205942,-10732.986159,2757.943793
22157.249587,5847.626942,-11251.130318,7737.564530
22157.249920,4367.215058,-10732.986159,2604.724693
22157.250253,3849.070898,-12213.398043,4519.963438
22157.250586,2812.782580,-7920.203579,-536.266849
22157.250919,-2960.823768,-9548.656652,-2451.505594
22157.251252,-1258.350101,-8290.306550,-4903.011187
22157.251585,-3923.091493,-10955.047942,-4979.620737
22157.251918,-4737.318029,-8290.306550,229.828649
22157.252251,-2368.659014,-4811.338623,-1991.848295
22157.252584,-3552.988522,-6587.832884,1225.752797
22157.252918,-74.020594,-7698.141797,4213.525239
22157.253251,2294.638420,-4811.338623,0.000000
22157.253584,592.164754,-10732.986159,4826.401637
22157.253917,3404.947333,-14211.954086,3600.648841
22157.254250,-2072.576638,-11917.315666,612.876398
22157.254583,1998.556043,-10066.800811,842.705048
22157.254916,-1036.288319,-9474.636058,-689.485948
22157.255249,1628.453072,-8512.368333,-842.705048
22157.255582,592.164754,-10288.862594,1225.752797
22157.255915,1702.473667,-6217.729913,-3140.991542
22157.256248,0.000000,-10140.821405,-2451.505594
22157.256581,296.082377,-13027.624579,4826.401637
22157.256914,1998.556043,-6513.812290,229.828649
22157.257247,2368.659014,-10436.903782,6281.983084
22157.257580,2812.782580,-8364.327145,3064.381992
22157.257913,0.000000,-8142.265362,1915.238745
22157.258246,444.123565,-7772.162391,919.314598
22157.258579,1702.473667,-9474.636058,1762.019645
22157.258912,-74.020594,-9474.636058,-2834.553343
22157.259245,0.000000,-8956.491898,-1608.800546
22157.259579,-3330.926739,-13027.624579,-76.609550
22157.259912,-3627.009116,-5033.400406,-4749.792088
22157.260245,-74.020594,-8882.471304,-76.609550
22157.260578,1850.514855,-5033.400406,-1225.752797
22157.260911,1406.391290,-11843.295072,1455.581446
22157.261244,2368.659014,-9104.533087,3064.381992
22157.261577,1998.556043,-9548.656652,0.000000
22157.261910,3552.988522,-13101.645173,2451.505594
22157.262243,8808.450710,-11843.295072,6052.154434
22157.262576,1036.288319,-7772.162391,306.438199
22157.262909,1776.494261,-7179.997637,2451.505594
22157.263242,-666.185348,-9474.636058,-3753.867940
22157.263575,740.205942,-9548.656652,-2374.896044
22157.263908,-3256.906145,-11991.336260,-1225.752797
22157.264241,-3404.947333,-7105.977043,-2528.115143
22157.264574,-6365.771101,-8364.327145,-3447.429741
22157.264907,-1480.411884,-7846.182985,1762.019645
22157.265240,1036.288319,-7698.141797,2528.115143
22157.265573,740.205942,-6735.874072,2757.943793
22157.265906,2368.659014,-10140.821405,5209.449386
22157.266240,-74.020594,-11843.295072,2987.772442
22157.266573,1702.473667,-8438.347739,1225.752797
22157.266906,-296.082377,-9918.759623,2145.067394
22157.267239,-74.020594,-9474.636058,-4979.620737
22157.267572,0.000000,-8364.327145,-1225.752797
22157.267905,740.205942,-10658.965565,-383.047749
22157.268238,1776.494261,-7698.141797,229.828649
22157.268571,-814.226536,-10140.821405,-612.876398
22157.268904,2886.803174,-11843.295072,2374.896044
22157.269237,0.000000,-10140.821405,3983.696590
22157.269570,1850.514855,-6587.832884,3677.258390
22157.269903,1480.411884,-12213.398043,5132.839837
22157.270236,3478.967927,-9474.636058,2987.772442
22157.270569,3182.885551,-6217.729913,2221.676944
22157.270902,-74.020594,-8882.471304,-76.609550
22157.271235,-1924.535449,-7698.141797,-2757.943793
22157.271568,-4959.379811,-8216.285956,-4673.182538
22157.271901,-3627.009116,-10732.986159,-3217.601092
22157.272234,-666.185348,-8734.430116,-76.609550
22157.272567,-4145.153275,-8364.327145,0.000000
22157.272901,1702.473667,-8882.471304,-1302.362347
22157.273234,-666.185348,-11917.315666,1532.190996
22157.273567,0.000000,-7476.080014,2451.505594
22157.273900,2294.638420,-11473.192101,3140.991542
22157.274233,888.247130,-12879.583391,4596.572988
22157.274566,962.267725,-11547.212695,3294.210641
22157.274899,-1850.514855,-6809.894666,766.095498
22157.275232,-2442.679609,-7698.141797,-689.485948
22157.275565,-4145.153275,-7994.224174,-383.047749
22157.275898,-5403.503377,-12435.459826,-383.047749
22157.276231,-7772.162391,-8068.244768,-3677.258390
22157.276564,-11843.295072,-10288.862594,-2451.505594
22157.276897,-10288.862594,-8068.244768,-2451.505594
22157.277230,-6439.791695,-9030.512492,612.876398
22157.277563,-4367.215058,-11177.109724,2068.457845
22157.277896,-5847.626942,-9844.739029,5975.544884
22157.278229,-7105.977043,-5403.503377,1225.752797
22157.278562,-1850.514855,-12731.542202,4826.401637
22157.278895,-5033.400406,-5995.668130,1838.629195
22157.279228,-8882.471304,-5403.503377,-2451.505594
22157.279562,-10658.965565,-9548.656652,-612.876398
22157.279895,-10362.883188,-8068.244768,-5975.544884
22157.280228,-7698.141797,-10658.965565,-2757.943793
22157.280561,-7920.203579,-13101.645173,229.828649
22157.280894,-2072.576638,-5255.462188,-536.266849
22157.281227,-7105.977043,-10732.986159,1838.629195
22157.281560,-1332.370696,-9326.594869,2911.162892
22157.281893,-3034.844362,-11029.068536,3830.477490
22157.282226,-2738.761985,-12287.418637,5056.230287
22157.282559,-2442.679609,-11251.130318,4826.401637
22157.282892,-8068.244768,-6735.874072,612.876398
22157.283225,-5921.647536,-8660.409521,0.000000
22157.283558,-9770.718434,-9474.636058,-689.485948
22157.283891,-10584.944971,-6587.832884,-4596.572988
22157.284224,-11547.212695,-9548.656652,-1762.019645
22157.284557,-9474.636058,-7328.038826,-1225.752797
22157.284890,-12065.356855,-10510.924376,-766.095498
22157.285223,-5329.482782,-5625.565159,2221.676944
22157.285556,-7105.977043,-7179.997637,2451.505594
22157.285889,-5107.421000,-6587.832884,4903.011187
22157.286223,-1850.514855,-9326.594869,4213.525239
22157.286556,-5403.503377,-12435.459826,-2528.115143
22157.286889,-6587.832884,-11917.315666,-1838.629195
22157.287222,-10140.821405,-13027.624579,-2528.115143
22157.287555,-9474.636058,-9844.739029,-3217.601092
22157.287888,-9844.739029,-11473.192101,-536.266849
22157.288221,-6143.709319,-6883.915261,-995.924147
22157.288554,-8290.306550,-7772.162391,3217.601092
22157.288887,-8660.409521,-5403.503377,1225.752797
22157.289220,-3923.091493,-7994.224174,229.828649
22157.289553,-8290.306550,-8956.491898,5515.887586
22157.289886,-5329.482782,-9104.533087,2987.772442
22157.290219,-8290.306550,-10732.986159,0.000000
22157.290552,-9474.636058,-11695.253884,-919.314598
22157.290885,-9548.656652,-9696.697840,-3447.429741
22157.291218,-11399.171507,-10510.924376,-4136.915689
22157.291551,-11917.315666,-11843.295072,-2528.115143
22157.291884,-15396.283594,-9844.739029,-1532.190996
22157.292217,-12287.418637,-8882.471304,-383.047749
22157.292550,-12435.459826,-7179.997637,612.876398
22157.292884,-7772.162391,-8882.471304,6052.154434
22157.293217,-6587.832884,-9178.553681,6358.592633
22157.293550,-8216.285956,-7402.059420,3983.696590
22157.293883,-7179.997637,-8882.471304,3447.429741
22157.294216,-7476.080014,-10436.903782,2528.115143
22157.294549,-9474.636058,-7476.080014,-1149.143247
22157.294882,-11029.068536,-14211.954086,-2528.115143
22157.295215,-15396.283594,-9548.656652,-3677.258390
22157.295548,-16580.613101,-10732.986159,-1915.238745
22157.295881,-14285.974681,-8290.306550,-2528.115143
22157.296214,-14285.974681,-5625.565159,-2528.115143
22157.296547,-15470.304188,-9474.636058,-1378.971896
22157.296880,-11843.295072,-5403.503377,2757.943793
