#time,accel_x,accel_y,accel_z
20185.031436,-74.020594,-8734.430116,-5286.058936
20185.031769,1702.473667,-9474.636058,-2681.334243
20185.032103,3478.967927,-10140.821405,76.609550
20185.032436,6587.832884,-9030.512492,2604.724693
20185.032770,9474.636058,-8364.327145,3830.477490
20185.033103,7105.977043,-8364.327145,7354.516781
20185.033437,11769.274478,-8290.306550,2145.067394
20185.033770,9474.636058,-9252.574275,2451.505594
20185.034104,11177.109724,-10658.965565,-689.485948
20185.034437,5625.565159,-8364.327145,-2451.505594
20185.034771,6439.791695,-9770.718434,-2911.162892
20185.035104,7476.080014,-8512.368333,-3677.258390
20185.035438,8142.265362,-8956.491898,-2451.505594
20185.035771,9992.780217,-8882.471304,-76.609550
20185.036105,12287.418637,-10288.862594,6052.154434
20185.036438,14137.933492,-7698.141797,2911.162892
20185.036772,10658.965565,-8660.409521,5209.449386
20185.037105,12953.603985,-13027.624579,4213.525239
20185.037439,7105.977043,-10436.903782,2757.943793
20185.037772,4145.153275,-11325.150913,0.000000
20185.038106,3256.906145,-10140.821405,-766.095498
20185.038439,2146.597232,-9474.636058,-1608.800546
20185.038773,1702.473667,-6809.894666,-2145.067394
20185.039106,4663.297435,-7105.977043,-383.047749
20185.039440,3108.864956,-4811.338623,-2068.457845
20185.039774,4737.318029,-5995.668130,1838.629195
20185.040107,8216.285956,-8290.306550,3600.648841
20185.040441,9178.553681,-7920.203579,4060.306139
20185.040774,6809.894666,-10214.842000,0.000000
20185.041108,5255.462188,-12139.377449,-1302.362347
20185.041441,3997.112087,-11991.336260,-1838.629195
20185.041775,2590.720797,-11251.130318,-1915.238745
20185.042108,2590.720797,-12139.377449,-1378.971896
20185.042442,-296.082377,-11029.068536,-1302.362347
20185.042775,-518.144159,-9178.553681,-306.438199
20185.043109,740.205942,-7105.977043,1685.410096
20185.043442,2886.803174,-7105.977043,3600.648841
20185.043776,2368.659014,-5107.421000,6894.859482
20185.044109,6439.791695,-7105.977043,4826.401637
20185.044443,3552.988522,-3627.009116,1225.752797
20185.044776,1776.494261,-9548.656652,1532.190996
20185.045110,0.000000,-10140.821405,-2451.505594
20185.045443,-1850.514855,-12879.583391,-3447.429741
20185.045777,-4959.379811,-12583.501014,-4749.792088
20185.046110,-5033.400406,-12509.480420,-3600.648841
20185.046444,-4737.318029,-9548.656652,-2221.676944
20185.046777,1702.473667,-8290.306550,3600.648841
20185.047111,4663.297435,-3552.988522,3064.381992
20185.047444,5921.647536,-3330.926739,6894.859482
20185.047778,11177.109724,-4737.318029,6665.030833
20185.048111,8882.471304,-6143.709319,3677.258390
20185.048445,10436.903782,-6883.915261,766.095498
20185.048778,7994.224174,-11399.171507,-1455.581446
20185.049112,5551.544565,-13989.892304,-4290.134789
20185.049445,2960.823768,-14434.015869,-4903.011187
20185.049779,2294.638420,-15988.448347,-4366.744339
20185.050112,0.000000,-14211.954086,-2834.553343
20185.050446,-3552.988522,-11917.315666,919.314598
20185.050779,-74.020594,-9474.636058,1608.800546
20185.051113,3404.947333,-6291.750507,6971.469032
20185.051446,6217.729913,-3478.967927,8656.879127
20185.051780,8290.306550,-2368.659014,8120.612279
20185.052113,8882.471304,-3627.009116,5745.716235
20185.052447,11177.109724,-5329.482782,3294.210641
20185.052780,9400.615463,-6809.894666,-3447.429741
20185.053114,4737.318029,-10288.862594,-5056.230287
20185.053447,4737.318029,-14878.139434,-6205.373534
20185.053781,1110.308913,-15396.283594,-11108.384721
20185.054114,-222.061783,-18949.272115,-6205.373534
20185.054448,-3404.947333,-17394.839637,-3370.820191
20185.054781,-4441.235652,-15766.386565,766.095498
20185.055115,-3034.844362,-10288.862594,4290.134789
20185.055448,1110.308913,-7105.977043,9729.412825
20185.055782,2516.700203,-2442.679609,11568.042020
20185.056115,7550.100608,1406.391290,12487.356617
20185.056449,9178.553681,1258.350101,11491.432470
20185.056782,7105.977043,-666.185348,4903.011187
20185.057116,3849.070898,-6143.709319,-612.876398
20185.057449,2886.803174,-10066.800811,-7584.345430
20185.057783,-3330.926739,-13101.645173,-14096.157163
20185.058116,-7698.141797,-17246.798449,-13789.718964
20185.058450,-10288.862594,-20133.601622,-11108.384721
20185.058783,-11029.068536,-18283.086767,-6435.202183
20185.059117,-9844.739029,-14804.118840,-76.609550
20185.059450,-6957.935855,-11029.068536,5975.544884
20185.059784,-2960.823768,-6291.750507,12870.404366
20185.060117,592.164754,3182.885551,16547.662757
20185.060451,8808.450710,3552.988522,13713.109414
20185.060784,7105.977043,3478.967927,8580.269578
20185.061118,8290.306550,-1258.350101,6358.592633
20185.061451,3552.988522,-4219.173869,-4596.572988
20185.061785,-222.061783,-10066.800811,-10801.946522
20185.062118,-6957.935855,-16432.571912,-15321.909960
20185.062452,-10436.903782,-21243.910535,-16164.615008
20185.062785,-11029.068536,-21317.931130,-11108.384721
20185.063119,-13619.789333,-19911.539840,-2528.115143
20185.063452,-6587.832884,-15988.448347,1149.143247
20185.063786,-3330.926739,-8956.491898,8733.488677
20185.064119,1184.329507,-1554.432478,15934.786358
20185.064453,10584.944971,666.185348,18922.558801
20185.064786,13101.645173,4145.153275,15321.909960
20185.065120,11177.109724,1554.432478,9346.365076
20185.065453,10214.842000,-2368.659014,1455.581446
20185.065787,4737.318029,-3923.091493,-8273.831378
20185.066120,-74.020594,-14211.954086,-13253.452115
20185.066454,-5921.647536,-18949.272115,-17543.586904
20185.066787,-9252.574275,-20799.786970,-15934.786358
20185.067121,-8882.471304,-20947.828159,-9806.022374
20185.067454,-5403.503377,-20133.601622,-689.485948
20185.067788,-1184.329507,-12879.583391,7048.078582
20185.068121,5625.565159,-6513.812290,14325.985813
20185.068455,11843.295072,222.061783,18462.901502
20185.068788,12657.521608,2886.803174,15934.786358
20185.069122,12361.439231,2368.659014,7507.735880
20185.069455,6513.812290,-222.061783,3064.381992
20185.069789,5921.647536,-3627.009116,-2604.724693
20185.070122,1702.473667,-7698.141797,-12640.575717
20185.070456,-4219.173869,-13841.851115,-15781.567259
20185.070789,-9474.636058,-19615.457463,-16547.662757
20185.071123,-10140.821405,-20207.622217,-12870.404366
20185.071456,-8438.347739,-19689.478057,-5132.839837
20185.071790,-4737.318029,-17542.880825,3677.258390
20185.072123,1702.473667,-10955.047942,10342.289223
20185.072457,7328.038826,-4219.173869,15934.786358
20185.072790,10955.047942,-1036.288319,17466.977354
20185.073124,9030.512492,2812.782580,11644.651570
20185.073457,7698.141797,-74.020594,5515.887586
20185.073791,6439.791695,-2960.823768,-76.609550
20185.074124,-74.020594,-6513.812290,-8963.317327
20185.074458,-6809.894666,-8660.409521,-14709.033562
20185.074791,-7179.997637,-18949.272115,-12334.137518
20185.075125,-10288.862594,-16950.716072,-11031.775171
20185.075458,-8956.491898,-18875.251521,-3907.087040
20185.075792,-6217.729913,-16062.468941,1072.533697
20185.076125,-2886.803174,-13619.789333,7277.907231
20185.076459,3552.988522,-8142.265362,14096.157163
20185.076792,7920.203579,-4737.318029,14019.547613
20185.077126,3552.988522,-74.020594,7660.954980
20185.077459,3849.070898,-74.020594,5822.325785
20185.077793,3182.885551,-2368.659014,842.705048
20185.078126,0.000000,-3034.844362,-3370.820191
20185.078460,-2590.720797,-6217.729913,-9882.631924
20185.078793,-7031.956449,-13101.645173,-11797.870669
20185.079127,-7772.162391,-14952.160028,-9806.022374
20185.079461,-7179.997637,-18357.107362,-4979.620737
20185.079794,-3627.009116,-17468.860231,-3140.991542
20185.080128,-4145.153275,-15470.304188,5209.449386
20185.080461,1184.329507,-9548.656652,11644.651570
20185.080795,8216.285956,-7105.977043,12180.918418
20185.081128,7624.121203,-4737.318029,8963.317327
20185.081462,6439.791695,-2368.659014,4826.401637
20185.081795,4737.318029,-2294.638420,2221.676944
20185.082128,3404.947333,-2960.823768,-2221.676944
20185.082461,-1110.308913,-4959.379811,-7890.783629
20185.082794,-5921.647536,-8364.327145,-11721.261119
20185.083127,-7105.977043,-14285.974681,-7814.174080
20185.083460,-4589.276840,-14656.077652,-4290.134789
20185.083793,-74.020594,-16580.613101,-766.095498
20185.084127,2886.803174,-15100.201217,2834.553343
20185.084460,3552.988522,-11917.315666,9806.022374
20185.084793,7328.038826,-9474.636058,10648.727422
20185.085126,6439.791695,-5255.462188,6281.983084
20185.085459,4737.318029,-5107.421000,3983.696590
20185.085792,5773.606348,-3997.112087,2374.896044
20185.086125,1850.514855,-4071.132681,-1072.533697
20185.086459,-148.041188,-4737.318029,-5132.839837
20185.086792,-3330.926739,-9474.636058,-5592.497135
20185.087125,-4811.338623,-12953.603985,-5745.716235
20185.087458,-5107.421000,-10140.821405,-6128.763984
20185.087791,-3849.070898,-14434.015869,-2451.505594
20185.088124,-1184.329507,-14656.077652,3600.648841
20185.088457,4441.235652,-12361.439231,8273.831378
20185.088791,6809.894666,-8956.491898,9729.412825
20185.089124,7328.038826,-6735.874072,7660.954980
20185.089457,6735.874072,-6735.874072,4903.011187
20185.089790,5773.606348,-4515.256246,612.876398
20185.090123,0.000000,-5995.668130,-1378.971896
20185.090456,-1850.514855,-4811.338623,-9193.145976
20185.090789,-7105.977043,-11029.068536,-7124.688131
20185.091123,-6217.729913,-12731.542202,-4979.620737
20185.091456,-6291.750507,-11843.295072,-2834.553343
20185.091789,-3627.009116,-11695.253884,842.705048
20185.092122,-1332.370696,-10807.006753,3753.867940
20185.092455,3108.864956,-8438.347739,7660.954980
20185.092788,5995.668130,-7179.997637,10112.460574
20185.093121,7031.956449,-7994.224174,8197.221829
20185.093455,2368.659014,-7179.997637,2451.505594
20185.093788,1184.329507,-7328.038826,-76.609550
20185.094121,-2886.803174,-7179.997637,-6128.763984
20185.094454,-4737.318029,-7179.997637,-8273.831378
20185.094787,-7772.162391,-11103.089130,-8580.269578
20185.095120,-8290.306550,-10807.006753,-6588.421283
20185.095453,-6957.935855,-11843.295072,-2068.457845
20185.095786,-3627.009116,-10288.862594,1991.848295
20185.096120,-518.144159,-8142.265362,5439.278036
20185.096453,3552.988522,-7476.080014,10801.946522
20185.096786,9474.636058,-7328.038826,14019.547613
20185.097119,6439.791695,-5107.421000,4903.011187
20185.097452,7105.977043,-7846.182985,3983.696590
20185.097785,2960.823768,-7772.162391,-1532.190996
20185.098118,-74.020594,-9178.553681,-6128.763984
20185.098452,-2812.782580,-10362.883188,-8044.002729
20185.098785,-6957.935855,-12805.562797,-8350.440928
20185.099118,-7105.977043,-11325.150913,-7354.516781
20185.099451,-3849.070898,-12731.542202,-76.609550
20185.099784,-74.020594,-8364.327145,3294.210641
20185.100117,2294.638420,-5995.668130,4903.011187
20185.100450,6513.812290,-6143.709319,11184.994271
20185.100784,7105.977043,-6291.750507,9499.584175
20185.101117,7328.038826,-5625.565159,5439.278036
20185.101450,5773.606348,-7476.080014,1072.533697
20185.101783,3997.112087,-8586.388927,-2145.067394
20185.102116,222.061783,-8660.409521,-6128.763984
20185.102449,-1258.350101,-10881.027347,-8197.221829
20185.102782,-6291.750507,-13767.830521,-9346.365076
20185.103116,-6439.791695,-13619.789333,-7048.078582
20185.103449,-4219.173869,-13027.624579,-689.485948
20185.103782,-3108.864956,-9548.656652,2604.724693
20185.104115,2886.803174,-8734.430116,9499.584175
20185.104448,9104.533087,-5921.647536,10955.165621
20185.104781,7994.224174,-3923.091493,11644.651570
20185.105114,8290.306550,-5255.462188,9729.412825
20185.105447,5403.503377,-6291.750507,842.705048
20185.105781,1998.556043,-8956.491898,-3677.258390
20185.106114,-2072.576638,-10140.821405,-7814.174080
20185.106447,-4293.194464,-10288.862594,-10265.679673
20185.106780,-7179.997637,-13101.645173,-9806.022374
20185.107113,-6587.832884,-14804.118840,-4979.620737
20185.107446,-5107.421000,-15396.283594,-76.609550
20185.107779,-2442.679609,-9400.615463,2451.505594
20185.108113,-222.061783,-8882.471304,7890.783629
20185.108446,2812.782580,-3923.091493,9346.365076
20185.108779,6143.709319,-4219.173869,10035.851024
20185.109112,5477.523971,-4515.256246,6741.640382
20185.109445,4737.318029,-5403.503377,3830.477490
20185.109778,1406.391290,-7179.997637,0.000000
20185.110111,-74.020594,-10658.965565,-6511.811733
20185.110445,-5921.647536,-9548.656652,-10418.898773
20185.110778,-9474.636058,-14582.057057,-8427.050478
20185.111111,-7772.162391,-12583.501014,-7584.345430
20185.111444,-7179.997637,-14211.954086,-1608.800546
20185.111777,-3478.967927,-11843.295072,2911.162892
20185.112110,-1184.329507,-8364.327145,6588.421283
20185.112443,7031.956449,-4737.318029,9729.412825
20185.112777,5329.482782,-4811.338623,11644.651570
20185.113110,8808.450710,-5921.647536,6665.030833
20185.113443,6439.791695,-3627.009116,1838.629195
20185.113776,4663.297435,-9474.636058,-76.609550
20185.114109,1702.473667,-8586.388927,-6128.763984
20185.114442,-3108.864956,-11029.068536,-9652.803275
20185.114775,-5255.462188,-15396.283594,-8656.879127
20185.115108,-6661.853478,-14137.933492,-6435.202183
20185.115442,-6291.750507,-12879.583391,-2451.505594
20185.115775,-666.185348,-13619.789333,3600.648841
20185.116108,222.061783,-7179.997637,5209.449386
20185.116441,4737.318029,-4811.338623,12257.527968
20185.116774,8216.285956,-3997.112087,8886.707777
20185.117107,8512.368333,-3034.844362,7354.516781
20185.117440,7328.038826,-6069.688724,2528.115143
20185.117774,4885.359217,-7624.121203,-1302.362347
20185.118107,2738.761985,-8586.388927,-5286.058936
20185.118440,-962.267725,-9178.553681,-8580.269578
20185.118773,-3627.009116,-16580.613101,-8963.317327
20185.119106,-7105.977043,-15100.201217,-7890.783629
20185.119439,-6957.935855,-15174.221811,-2911.162892
20185.119772,-2738.761985,-12953.603985,2451.505594
20185.120106,518.144159,-9474.636058,6665.030833
20185.120439,4885.359217,-5107.421000,13483.280765
20185.120772,9400.615463,-4737.318029,11874.480219
20185.121105,7846.182985,-1258.350101,8580.269578
20185.121438,7105.977043,-4811.338623,4903.011187
20185.121771,4663.297435,-7698.141797,-1225.752797
20185.122104,962.267725,-9474.636058,-6511.811733
20185.122438,-4293.194464,-11621.233289,-9882.631924
20185.122771,-7105.977043,-15396.283594,-10572.117872
20185.123104,-8882.471304,-13101.645173,-9193.145976
20185.123437,-5699.585753,-17172.777854,-1915.238745
20185.123770,-4589.276840,-11843.295072,1762.019645
20185.124103,-2146.597232,-8364.327145,6128.763984
20185.124436,5847.626942,-8290.306550,10955.165621
20185.124770,5625.565159,-3627.009116,11644.651570
20185.125103,7031.956449,-2590.720797,7584.345430
20185.125436,6143.709319,-4737.318029,3294.210641
20185.125769,2812.782580,-7994.224174,-153.219100
20185.126102,1776.494261,-7476.080014,-4290.134789
20185.126435,-74.020594,-13027.624579,-8044.002729
20185.126768,-7105.977043,-13693.809927,-9499.584175
20185.127101,-11251.130318,-14285.974681,-7354.516781
20185.127435,-8438.347739,-16432.571912,-2834.553343
20185.127768,-5625.565159,-12879.583391,2528.115143
20185.128101,-962.267725,-9400.615463,6588.421283
20185.128434,3478.967927,-5033.400406,10342.289223
20185.128767,6365.771101,-3997.112087,11491.432470
20185.129100,8216.285956,-3404.947333,9116.536426
20185.129433,5551.544565,-1258.350101,1149.143247
20185.129767,2368.659014,-6587.832884,306.438199
20185.130100,1998.556043,-7698.141797,-4979.620737
20185.130433,-3034.844362,-9548.656652,-10801.946522
20185.130766,-7105.977043,-14878.139434,-9882.631924
20185.131099,-8364.327145,-15174.221811,-9422.974625
20185.131432,-7179.997637,-15396.283594,-4060.306139
20185.131765,-2368.659014,-13323.706956,2528.115143
20185.132099,2294.638420,-10658.965565,6971.469032
20185.132432,4515.256246,-6513.812290,9576.193725
20185.132765,7031.956449,-5033.400406,10801.946522
20185.133098,8216.285956,-2886.803174,7814.174080
20185.133431,5329.482782,-4219.173869,3677.258390
20185.133764,2368.659014,-5995.668130,919.314598
20185.134097,3478.967927,-8290.306550,-4979.620737
20185.134431,-2146.597232,-7994.224174,-10189.070123
20185.134764,-5921.647536,-13989.892304,-9269.755526
20185.135097,-7105.977043,-13693.809927,-8503.660028
20185.135430,-7179.997637,-16062.468941,-4443.353888
20185.135763,-4737.318029,-13915.871710,1302.362347
20185.136096,-740.205942,-10510.924376,5132.839837
20185.136429,4293.194464,-7031.956449,11184.994271
20185.136762,8216.285956,-3330.926739,12180.918418
20185.137096,11473.192101,-2368.659014,8503.660028
20185.137429,6217.729913,-3034.844362,5669.106685
20185.137762,3552.988522,-5699.585753,153.219100
20185.138095,1184.329507,-7476.080014,-4903.011187
20185.138428,-3256.906145,-11251.130318,-8656.879127
20185.138761,-5625.565159,-13989.892304,-10418.898773
20185.139094,-8216.285956,-14804.118840,-8427.050478
20185.139428,-5995.668130,-15396.283594,-3140.991542
20185.139761,-4737.318029,-11917.315666,3064.381992
20185.140094,-74.020594,-9474.636058,4826.401637
20185.140427,2368.659014,-5403.503377,8580.269578
20185.140760,7624.121203,-6513.812290,11031.775171
20185.141093,9400.615463,-4441.235652,9116.536426
20185.141426,6143.709319,-5921.647536,4519.963438
20185.141760,3256.906145,-7476.080014,-383.047749
20185.142093,888.247130,-7105.977043,-4979.620737
20185.142426,-2960.823768,-10436.903782,-7431.126331
20185.142759,-3034.844362,-14211.954086,-7431.126331
20185.143092,-9474.636058,-13101.645173,-7048.078582
20185.143425,-9474.636058,-13101.645173,-3064.381992
20185.143758,-3034.844362,-13619.789333,1762.019645
20185.144092,-2072.576638,-7179.997637,4903.011187
20185.144425,4367.215058,-6809.894666,8810.098227
20185.144758,7105.977043,-5033.400406,10955.165621
20185.145091,7328.038826,-2220.617826,7354.516781
20185.145424,6143.709319,-5329.482782,2987.772442
20185.145757,4071.132681,-6217.729913,-2528.115143
20185.146090,0.000000,-8364.327145,-4749.792088
20185.146423,-2442.679609,-11547.212695,-7431.126331
20185.146757,-3627.009116,-13027.624579,-11338.213370
20185.147090,-8882.471304,-12509.480420,-7354.516781
20185.147423,-4219.173869,-13471.748144,-2528.115143
20185.147756,-1850.514855,-11769.274478,3524.039291
20185.148089,1332.370696,-8956.491898,7277.907231
20185.148422,4515.256246,-6587.832884,8580.269578
20185.148755,7031.956449,-5329.482782,7737.564530
20185.149089,6735.874072,-4441.235652,5898.935335
20185.149422,5255.462188,-6661.853478,2528.115143
20185.149755,2738.761985,-7476.080014,-1225.752797
20185.150088,0.000000,-7179.997637,-4903.011187
20185.150421,-1554.432478,-10510.924376,-7431.126331
20185.150754,-4737.318029,-10140.821405,-9806.022374
20185.151087,-7105.977043,-14285.974681,-3753.867940
20185.151421,-5255.462188,-14211.954086,-1915.238745
20185.151754,-4145.153275,-9844.739029,1225.752797
20185.152087,222.061783,-9326.594869,5515.887586
20185.152420,3997.112087,-6217.729913,8810.098227
20185.152753,6735.874072,-5255.462188,9576.193725
20185.153086,9104.533087,-6217.729913,7277.907231
20185.153419,7031.956449,-6809.894666,1762.019645
20185.153753,2368.659014,-7179.997637,-306.438199
20185.154086,1776.494261,-8660.409521,-2528.115143
20185.154419,-1850.514855,-11103.089130,-8120.612279
20185.154752,-4737.318029,-13101.645173,-6818.249932
20185.155085,-7550.100608,-14137.933492,-6588.421283
20185.155418,-5847.626942,-13767.830521,-2987.772442
20185.155751,-2368.659014,-11843.295072,3140.991542
20185.156085,-518.144159,-9178.553681,5745.716235
20185.156418,3923.091493,-6217.729913,4826.401637
20185.156751,4737.318029,-5995.668130,9729.412825
20185.157084,7031.956449,-5921.647536,7277.907231
20185.157417,4663.297435,-4811.338623,2451.505594
20185.157750,3182.885551,-9178.553681,1149.143247
20185.158083,296.082377,-6661.853478,-3677.258390
20185.158416,-2812.782580,-9252.574275,-6281.983084
20185.158750,-4293.194464,-11843.295072,-7277.907231
20185.159083,-8586.388927,-13101.645173,-6741.640382
20185.159416,-8364.327145,-13693.809927,-4903.011187
20185.159749,-7698.141797,-11917.315666,1532.190996
20185.160082,-814.226536,-10658.965565,4213.525239
20185.160415,1850.514855,-4737.318029,6052.154434
20185.160748,5329.482782,-3034.844362,8427.050478
20185.161082,7698.141797,-3256.906145,7277.907231
20185.161415,6439.791695,-4737.318029,3907.087040
20185.161748,4959.379811,-7179.997637,383.047749
20185.162081,4663.297435,-9474.636058,-2681.334243
20185.162414,-3256.906145,-10732.986159,-6741.640382
20185.162747,-2442.679609,-13915.871710,-8656.879127
20185.163080,-4811.338623,-15396.283594,-7124.688131
20185.163414,-5625.565159,-14285.974681,-1838.629195
20185.163747,-2368.659014,-11325.150913,2145.067394
20185.164080,1110.308913,-9992.780217,5439.278036
20185.164413,3478.967927,-6439.791695,7507.735880
20185.164746,6069.688724,-5329.482782,8350.440928
20185.165079,8216.285956,-5625.565159,7737.564530
20185.165412,4737.318029,-4811.338623,3294.210641
20185.165746,3775.050304,-6661.853478,-766.095498
20185.166079,3034.844362,-8142.265362,-3140.991542
20185.166412,-1332.370696,-10140.821405,-5898.935335
20185.166745,-2960.823768,-14508.036463,-7354.516781
20185.167078,-8290.306550,-13101.645173,-9806.022374
20185.167411,-6809.894666,-14656.077652,-2528.115143
20185.167744,-2738.761985,-12731.542202,1149.143247
20185.168077,370.102971,-7994.224174,4290.134789
20185.168411,3849.070898,-7105.977043,9729.412825
20185.168744,7772.162391,-4737.318029,9729.412825
20185.169077,7254.018232,-3330.926739,7660.954980
20185.169410,7105.977043,-4885.359217,3677.258390
20185.169743,5847.626942,-8290.306550,-1302.362347
20185.170076,0.000000,-8364.327145,-3983.696590
20185.170409,-2960.823768,-12213.398043,-5745.716235
20185.170743,-4811.338623,-13915.871710,-9422.974625
20185.171076,-9474.636058,-14285.974681,-6128.763984
20185.171409,-4959.379811,-14211.954086,-2374.896044
20185.171742,-4071.132681,-11769.274478,3370.820191
20185.172075,-814.226536,-8142.265362,5209.449386
20185.172408,2146.597232,-5773.606348,7890.783629
20185.172741,3108.864956,-3627.009116,5822.325785
20185.173075,2960.823768,-4219.173869,7584.345430
20185.173408,4071.132681,-6217.729913,1302.362347
20185.173741,1258.350101,-5107.421000,-1838.629195
20185.174074,2590.720797,-10658.965565,-1302.362347
20185.174407,-2294.638420,-9548.656652,-7354.516781
20185.174740,-2590.720797,-13619.789333,-7277.907231
20185.175073,-6809.894666,-15174.221811,-6358.592633
20185.175407,-4959.379811,-14656.077652,-2528.115143
20185.175740,-4737.318029,-12509.480420,2451.505594
20185.176073,2220.617826,-11547.212695,8503.660028
20185.176406,4071.132681,-4589.276840,7354.516781
20185.176739,5921.647536,-1258.350101,7354.516781
20185.177072,8438.347739,-4441.235652,9729.412825
20185.177405,5699.585753,-3034.844362,2604.724693
20185.177738,3034.844362,-6291.750507,-1991.848295
20185.178072,518.144159,-8068.244768,-5056.230287
20185.178405,-2146.597232,-10955.047942,-7890.783629
20185.178738,-4441.235652,-13101.645173,-9193.145976
20185.179071,-5551.544565,-15988.448347,-6511.811733
20185.179404,-4811.338623,-14804.118840,-3447.429741
20185.179737,-3404.947333,-12657.521608,1685.410096
20185.180070,2294.638420,-9474.636058,4826.401637
20185.180404,4663.297435,-6513.812290,7277.907231
20185.180737,4737.318029,-4219.173869,9499.584175
20185.181070,7105.977043,-4811.338623,9729.412825
20185.181403,7031.956449,-4145.153275,3524.039291
20185.181736,5551.544565,-5699.585753,995.924147
20185.182069,2886.803174,-7402.059420,-3753.867940
20185.182403,-74.020594,-10214.842000,-7124.688131
20185.182736,-3552.988522,-14434.015869,-8044.002729
20185.183069,-7994.224174,-14878.139434,-8273.831378
20185.183402,-4811.338623,-14878.139434,-7048.078582
20185.183735,-5329.482782,-15470.304188,3600.648841
20185.184069,-74.020594,-10066.800811,5515.887586
20185.184402,5847.626942,-8290.306550,9116.536426
20185.184735,6439.791695,-2368.659014,8503.660028
20185.185068,9104.533087,-5625.565159,9729.412825
20185.185401,5847.626942,-1850.514855,3064.381992
20185.185735,4293.194464,-5921.647536,-536.266849
20185.186068,0.000000,-8364.327145,-4903.011187
20185.186401,-1258.350101,-11251.130318,-8810.098227
20185.186734,-7105.977043,-14582.057057,-6358.592633
20185.187067,-5403.503377,-16580.613101,-7431.126331
20185.187401,-7105.977043,-13027.624579,-2681.334243
20185.187734,-4737.318029,-11917.315666,1838.629195
20185.188067,-370.102971,-7846.182985,4290.134789
20185.188400,2294.638420,-6439.791695,7890.783629
20185.188733,5551.544565,-3701.029710,9193.145976
20185.189066,5255.462188,-5107.421000,7890.783629
20185.189400,4663.297435,-3034.844362,2757.943793
20185.189733,4071.132681,-7105.977043,-689.485948
20185.190066,1110.308913,-5921.647536,-6205.373534
20185.190399,-1184.329507,-10732.986159,-4979.620737
20185.190732,-3034.844362,-14804.118840,-7124.688131
20185.191066,-6439.791695,-13841.851115,-7354.516781
20185.191399,-6957.935855,-14952.160028,-3370.820191
20185.191732,-4367.215058,-14063.912898,2298.286494
20185.192065,-666.185348,-9770.718434,3983.696590
20185.192398,1924.535449,-4811.338623,9422.974625
20185.192732,3849.070898,-1258.350101,7967.393179
20185.193065,7624.121203,-4737.318029,8503.660028
20185.193398,8216.285956,-4737.318029,2987.772442
20185.193731,592.164754,-3627.009116,0.000000
20185.194064,592.164754,-8068.244768,-5209.449386
20185.194398,-1554.432478,-10510.924376,-7584.345430
20185.194731,-4515.256246,-13989.892304,-7354.516781
20185.195064,-5699.585753,-13989.892304,-6741.640382
20185.195397,-4515.256246,-12953.603985,-3064.381992
20185.195730,-2812.782580,-12287.418637,2145.067394
20185.196064,592.164754,-9178.553681,6052.154434
20185.196397,3182.885551,-5995.668130,7507.735880
20185.196730,5847.626942,-6513.812290,9116.536426
20185.197063,5847.626942,-3256.906145,2757.943793
20185.197396,5181.441594,-6291.750507,2757.943793
20185.197730,5255.462188,-7698.141797,-689.485948
20185.198063,0.000000,-7179.997637,-4903.011187
20185.198396,-2368.659014,-9548.656652,-6128.763984
20185.198729,-3849.070898,-13101.645173,-6741.640382
20185.199062,-6291.750507,-15100.201217,-3907.087040
20185.199395,-5033.400406,-14434.015869,-1915.238745
20185.199729,-3775.050304,-12879.583391,1455.581446
20185.200062,1110.308913,-8660.409521,4213.525239
20185.200395,3849.070898,-7105.977043,9729.412825
20185.200728,7920.203579,-5921.647536,9729.412825
20185.201061,5847.626942,-3627.009116,4903.011187
20185.201395,6735.874072,-5699.585753,4826.401637
20185.201728,3997.112087,-5921.647536,-842.705048
20185.202061,444.123565,-9548.656652,-3064.381992
20185.202394,-370.102971,-11251.130318,-7584.345430
20185.202727,-5625.565159,-13101.645173,-7354.516781
20185.203061,-3923.091493,-13175.665768,-7354.516781
20185.203394,-2738.761985,-15396.283594,-689.485948
20185.203727,-1850.514855,-12287.418637,2221.676944
20185.204060,-74.020594,-8068.244768,3064.381992
20185.204393,1332.370696,-5551.544565,6511.811733
20185.204727,4145.153275,-4811.338623,6741.640382
20185.205060,4737.318029,-5625.565159,5439.278036
20185.205393,5625.565159,-5181.441594,3983.696590
20185.205726,4589.276840,-6513.812290,1532.190996
20185.206059,0.000000,-6587.832884,-2451.505594
20185.206393,2294.638420,-11843.295072,-3753.867940
20185.206726,-3627.009116,-13471.748144,-6741.640382
20185.207059,-7105.977043,-13101.645173,-7354.516781
20185.207392,-8882.471304,-14878.139434,-3677.258390
20185.207725,-5995.668130,-13397.727550,153.219100
20185.208059,-2220.617826,-8882.471304,3830.477490
20185.208392,2220.617826,-5329.482782,7737.564530
20185.208725,5847.626942,-3552.988522,6971.469032
20185.209058,7105.977043,-5181.441594,9116.536426
20185.209391,5181.441594,-1850.514855,3677.258390
20185.209724,3552.988522,-5995.668130,2757.943793
20185.210058,2886.803174,-9474.636058,-5286.058936
20185.210391,-1036.288319,-10732.986159,-8580.269578
20185.210724,-3330.926739,-16580.613101,-7124.688131
20185.211057,-4589.276840,-15174.221811,-5745.716235
20185.211390,-5255.462188,-14656.077652,-2145.067394
20185.211724,-3034.844362,-12435.459826,1149.143247
20185.212057,888.247130,-8586.388927,6052.154434
20185.212390,1924.535449,-5699.585753,7737.564530
20185.212723,4293.194464,-3627.009116,7737.564530
20185.213056,4071.132681,-4737.318029,4903.011187
20185.213390,7031.956449,-4737.318029,3600.648841
20185.213723,1776.494261,-6883.915261,1225.752797
20185.214056,2294.638420,-9474.636058,-4979.620737
20185.214389,-2368.659014,-9548.656652,-6435.202183
20185.214722,-5921.647536,-13693.809927,-7354.516781
20185.215056,-4219.173869,-15100.201217,-6818.249932
20185.215389,-7179.997637,-15470.304188,-2681.334243
20185.215722,-4367.215058,-13619.789333,2374.896044
20185.216055,-1776.494261,-9548.656652,5439.278036
20185.216388,2812.782580,-3034.844362,6894.859482
20185.216722,5329.482782,-4145.153275,10955.165621
20185.217055,8216.285956,-6513.812290,7277.907231
20185.217388,5477.523971,-1850.514855,3064.381992
20185.217721,4145.153275,-8882.471304,2374.896044
20185.218054,518.144159,-7476.080014,-6128.763984
20185.218388,-1850.514855,-11843.295072,-7124.688131
20185.218721,-4071.132681,-14804.118840,-7814.174080
20185.219054,-4589.276840,-14804.118840,-4979.620737
20185.219387,-5329.482782,-12805.562797,-2451.505594
20185.219720,-74.020594,-15396.283594,4213.525239
20185.220053,0.000000,-7179.997637,3830.477490
20185.220387,2294.638420,-3923.091493,6128.763984
20185.220720,3849.070898,-5329.482782,7277.907231
20185.221053,4145.153275,-3627.009116,4903.011187
20185.221386,5403.503377,-5181.441594,2987.772442
20185.221719,3849.070898,-6587.832884,-76.609550
20185.222053,1184.329507,-8364.327145,-4596.572988
20185.222386,2146.597232,-10362.883188,-4060.306139
20185.222719,-1850.514855,-16580.613101,-6818.249932
20185.223052,-5181.441594,-13693.809927,-6128.763984
20185.223385,-3775.050304,-15618.345376,-383.047749
20185.223719,-1258.350101,-15396.283594,-76.609550
20185.224052,-2368.659014,-8364.327145,5898.935335
20185.224385,2886.803174,-5847.626942,7584.345430
20185.224718,5477.523971,-3775.050304,8963.317327
20185.225051,5477.523971,-2146.597232,7048.078582
20185.225385,8216.285956,-3923.091493,4903.011187
20185.225718,4367.215058,-6365.771101,76.609550
20185.226051,1406.391290,-10066.800811,-4366.744339
20185.226384,-1184.329507,-10658.965565,-7048.078582
20185.226717,-4515.256246,-13323.706956,-9269.755526
20185.227051,-6513.812290,-13693.809927,-6128.763984
20185.227384,-4219.173869,-16580.613101,-2528.115143
20185.227717,-2442.679609,-14211.954086,1149.143247
20185.228050,-1184.329507,-7476.080014,5209.449386
20185.228383,4663.297435,-6513.812290,7584.345430
20185.228717,4219.173869,-3701.029710,8273.831378
20185.229050,6217.729913,-4737.318029,6971.469032
20185.229383,5181.441594,-3627.009116,3294.210641
20185.229716,2664.741391,-5995.668130,0.000000
20185.230049,2294.638420,-8882.471304,-3447.429741
20185.230382,2146.597232,-11251.130318,-6205.373534
20185.230716,-5773.606348,-14285.974681,-7967.393179
20185.231049,-8290.306550,-14285.974681,-6741.640382
20185.231382,-8216.285956,-15618.345376,-4903.011187
20185.231715,-5625.565159,-14582.057057,1762.019645
20185.232048,-1628.453072,-9400.615463,6358.592633
20185.232382,3775.050304,-4811.338623,8197.221829
20185.232715,5847.626942,-4737.318029,9729.412825
20185.233048,3256.906145,-666.185348,5515.887586
20185.233381,4071.132681,-4737.318029,2068.457845
20185.233714,0.000000,-5107.421000,0.000000
20185.234048,1110.308913,-9474.636058,-3753.867940
20185.234381,-74.020594,-11251.130318,-5745.716235
20185.234714,-5329.482782,-15026.180623,-6511.811733
20185.235047,-6439.791695,-15174.221811,-5515.887586
20185.235380,-5995.668130,-14582.057057,-2987.772442
20185.235714,-3034.844362,-13027.624579,1685.410096
20185.236047,-1184.329507,-8364.327145,7584.345430
20185.236380,1776.494261,-4219.173869,6128.763984
20185.236713,0.000000,-3627.009116,8580.269578
20185.237046,6439.791695,-3552.988522,4213.525239
20185.237380,3478.967927,-3923.091493,2451.505594
20185.237713,3478.967927,-6069.688724,-229.828649
20185.238046,1406.391290,-8438.347739,-4596.572988
20185.238379,-370.102971,-9696.697840,-6818.249932
20185.238712,-3478.967927,-14211.954086,-7431.126331
20185.239046,-3034.844362,-16580.613101,-4979.620737
20185.239379,-5921.647536,-14285.974681,-1838.629195
20185.239712,-1480.411884,-14804.118840,4290.134789
20185.240045,1998.556043,-10658.965565,4519.963438
20185.240378,2368.659014,-4441.235652,5822.325785
20185.240711,5847.626942,-4737.318029,6971.469032
20185.241045,7105.977043,-2220.617826,5439.278036
20185.241378,6735.874072,-5033.400406,4060.306139
20185.241711,4959.379811,-5773.606348,229.828649
20185.242044,3182.885551,-9474.636058,-4366.744339
20185.242377,-370.102971,-10584.944971,-6435.202183
20185.242711,-2738.761985,-14582.057057,-6588.421283
20185.243044,-2738.761985,-14434.015869,-4826.401637
20185.243377,-4145.153275,-13101.645173,-1838.629195
20185.243710,-888.247130,-14063.912898,2374.896044
20185.244043,0.000000,-6069.688724,2451.505594
20185.244377,1776.494261,-5995.668130,6894.859482
20185.244710,5551.544565,-5329.482782,6971.469032
20185.245043,5255.462188,-1628.453072,2451.505594
20185.245376,3849.070898,-5403.503377,2681.334243
20185.245709,1776.494261,-5551.544565,-1225.752797
20185.246043,1110.308913,-8068.244768,-4366.744339
20185.246376,296.082377,-10140.821405,-4290.134789
20185.246709,-1628.453072,-15100.201217,-5592.497135
20185.247042,-7105.977043,-13397.727550,-4749.792088
20185.247375,-8290.306550,-14285.974681,-1838.629195
20185.247709,-3552.988522,-14656.077652,2374.896044
20185.248042,-2960.823768,-9548.656652,5515.887586
20185.248375,2738.761985,-5551.544565,6818.249932
20185.248708,4071.132681,-4441.235652,7124.688131
20185.249041,4515.256246,-2664.741391,3907.087040
20185.249375,4663.297435,-5773.606348,4213.525239
20185.249708,3182.885551,-8290.306550,-689.485948
20185.250041,-1776.494261,-7772.162391,-3677.258390
20185.250374,-1258.350101,-11251.130318,-4136.915689
20185.250707,-2738.761985,-15396.283594,-5745.716235
20185.251040,-4219.173869,-14952.160028,-2221.676944
20185.251374,-4663.297435,-14285.974681,-1608.800546
20185.251707,-3997.112087,-13175.665768,2451.505594
20185.252040,-1554.432478,-9474.636058,4136.915689
20185.252373,592.164754,-4811.338623,4903.011187
20185.252706,3182.885551,-4737.318029,4596.572988
20185.253040,1776.494261,-1850.514855,4443.353888
20185.253373,4663.297435,-6809.894666,3294.210641
20185.253706,2960.823768,-5921.647536,-76.609550
20185.254039,1702.473667,-7105.977043,-3140.991542
20185.254372,296.082377,-10214.842000,-3753.867940
20185.254706,-3478.967927,-13915.871710,-5592.497135
20185.255039,-5995.668130,-14508.036463,-5286.058936
20185.255372,-5181.441594,-15840.407159,-2451.505594
20185.255705,-6439.791695,-12213.398043,1225.752797
20185.256038,-370.102971,-10658.965565,6052.154434
20185.256372,2294.638420,-4589.276840,3677.258390
20185.256705,2664.741391,-3923.091493,7814.174080
20185.257038,6143.709319,-2368.659014,4213.525239
20185.257371,5329.482782,-5107.421000,3524.039291
20185.257704,4515.256246,-5773.606348,0.000000
20185.258038,3108.864956,-7624.121203,-2528.115143
20185.258371,1776.494261,-11547.212695,-4596.572988
20185.258704,-2220.617826,-14285.974681,-5209.449386
20185.259037,-2738.761985,-15248.242405,-4443.353888
20185.259370,-2146.597232,-15840.407159,-1762.019645
20185.259704,-1776.494261,-13249.686362,1762.019645
20185.260037,0.000000,-9548.656652,3677.258390
20185.260370,3108.864956,-6513.812290,4826.401637
20185.260703,2664.741391,-3034.844362,6435.202183
20185.261036,4663.297435,-3404.947333,3983.696590
20185.261369,4663.297435,-5921.647536,2987.772442
20185.261703,1776.494261,-6217.729913,536.266849
20185.262036,888.247130,-6587.832884,-3753.867940
20185.262369,-814.226536,-10214.842000,-4519.963438
20185.262702,-3256.906145,-13397.727550,-6128.763984
20185.263035,-3182.885551,-15988.448347,-3753.867940
20185.263369,-6513.812290,-14285.974681,-2451.505594
20185.263702,-5921.647536,-13101.645173,1838.629195
20185.264035,-2072.576638,-11843.295072,4826.401637
20185.264368,0.000000,-3627.009116,3677.258390
20185.264701,4367.215058,-4737.318029,7277.907231
20185.265035,4737.318029,-1998.556043,5056.230287
20185.265368,5033.400406,-4663.297435,4673.182538
20185.265701,3701.029710,-5773.606348,1302.362347
20185.266034,1110.308913,-7105.977043,-3447.429741
20185.266367,-4737.318029,-10732.986159,-4290.134789
20185.266701,-3034.844362,-14804.118840,-4979.620737
20185.267034,-3627.009116,-14804.118840,-5132.839837
20185.267367,-4737.318029,-14285.974681,0.000000
20185.267700,-2442.679609,-12139.377449,1302.362347
20185.268033,-592.164754,-8660.409521,5132.839837
20185.268367,3330.926739,-5921.647536,6665.030833
20185.268700,1776.494261,-3627.009116,7354.516781
20185.269033,2960.823768,-2442.679609,2451.505594
20185.269366,2368.659014,-6291.750507,4519.963438
20185.269699,3478.967927,-6217.729913,-1915.238745
20185.270033,1480.411884,-4811.338623,-4903.011187
20185.270366,592.164754,-12065.356855,-2451.505594
20185.270699,-666.185348,-12805.562797,-6358.592633
20185.271032,-3552.988522,-15470.304188,-4136.915689
20185.271365,-3034.844362,-15470.304188,-1455.581446
20185.271698,-2368.659014,-13323.706956,2604.724693
20185.272032,-1036.288319,-9548.656652,4060.306139
20185.272365,3478.967927,-5625.565159,6971.469032
20185.272698,4737.318029,-3849.070898,7507.735880
20185.273031,5773.606348,-2072.576638,5362.668486
20185.273364,7550.100608,-5921.647536,4213.525239
20185.273698,5847.626942,-4737.318029,-1302.362347
20185.274031,0.000000,-7920.203579,-3677.258390
20185.274364,-74.020594,-13027.624579,-5592.497135
20185.274697,-2590.720797,-15396.283594,-8120.612279
20185.275030,-4441.235652,-16506.592507,-4903.011187
20185.275364,-2442.679609,-15248.242405,-2068.457845
20185.275697,-2442.679609,-14063.912898,2374.896044
20185.276030,222.061783,-10140.821405,5056.230287
20185.276363,2738.761985,-3997.112087,6128.763984
20185.276696,5921.647536,-4737.318029,7890.783629
20185.277030,2368.659014,-1554.432478,6435.202183
20185.277363,4663.297435,-5329.482782,3600.648841
20185.277696,4071.132681,-5181.441594,-1225.752797
20185.278029,1998.556043,-7402.059420,-3140.991542
20185.278362,444.123565,-8956.491898,-6741.640382
20185.278696,-74.020594,-15100.201217,-6205.373534
20185.279029,-4663.297435,-15470.304188,-5975.544884
20185.279362,-6217.729913,-16062.468941,-4903.011187
20185.279695,-2442.679609,-15100.201217,-1072.533697
20185.280028,-2368.659014,-11325.150913,5822.325785
20185.280362,4663.297435,-6809.894666,6665.030833
20185.280695,4737.318029,-2442.679609,7354.516781
20185.281028,4737.318029,-2146.597232,6894.859482
20185.281361,4737.318029,-2738.761985,4443.353888
20185.281694,3701.029710,-3849.070898,1225.752797
20185.282028,1702.473667,-8216.285956,-2604.724693
20185.282361,-1850.514855,-13619.789333,-4979.620737
20185.282694,-5107.421000,-13249.686362,-9806.022374
20185.283027,-5403.503377,-16580.613101,-4979.620737
20185.283360,-3034.844362,-15988.448347,-2681.334243
20185.283694,-4737.318029,-13101.645173,3830.477490
20185.284027,-888.247130,-10584.944971,7660.954980
20185.284360,888.247130,-5847.626942,8197.221829
20185.284693,3034.844362,-4441.235652,6894.859482
20185.285027,3108.864956,-2220.617826,4903.011187
20185.285360,2812.782580,-4145.153275,1762.019645
20185.285693,592.164754,-4811.338623,1762.019645
20185.286026,-74.020594,-7402.059420,-6435.202183
20185.286359,-3552.988522,-9548.656652,-9499.584175
20185.286693,-2368.659014,-14582.057057,-4366.744339
20185.287026,-3701.029710,-17320.819043,-3370.820191
20185.287359,-3552.988522,-15248.242405,-1149.143247
20185.287692,-3034.844362,-13545.768739,1991.848295
20185.288026,0.000000,-10140.821405,5209.449386
20185.288359,1998.556043,-6291.750507,7584.345430
20185.288692,4737.318029,-3923.091493,7814.174080
20185.289025,3330.926739,-3330.926739,4136.915689
20185.289358,3256.906145,-3552.988522,1072.533697
20185.289692,2590.720797,-5551.544565,-689.485948
20185.290025,-74.020594,-9474.636058,-4979.620737
20185.290358,-1184.329507,-11621.233289,-4979.620737
20185.290691,-1258.350101,-16580.613101,-5592.497135
20185.291025,-3997.112087,-13693.809927,-3064.381992
20185.291358,-1776.494261,-15100.201217,689.485948
20185.291691,-74.020594,-13915.871710,3600.648841
20185.292024,1184.329507,-9104.533087,5439.278036
20185.292357,3256.906145,-5329.482782,6128.763984
20185.292691,5699.585753,-4441.235652,5515.887586
20185.293024,1998.556043,-2146.597232,766.095498
20185.293357,1184.329507,-4219.173869,153.219100
20185.293690,2886.803174,-7698.141797,-2068.457845
20185.294024,2294.638420,-5995.668130,-6435.202183
20185.294357,740.205942,-11843.295072,-4366.744339
20185.294690,-74.020594,-13027.624579,-5745.716235
20185.295023,-3034.844362,-15100.201217,-3447.429741
20185.295357,-2960.823768,-14952.160028,-383.047749
20185.295690,-1850.514855,-13249.686362,2757.943793
20185.296023,0.000000,-10140.821405,5209.449386
20185.296356,2368.659014,-5995.668130,10955.165621
20185.296689,5255.462188,-3552.988522,4979.620737
20185.297023,2368.659014,-2442.679609,2451.505594
20185.297356,3997.112087,-5625.565159,1762.019645
20185.297689,592.164754,-4219.173869,-1838.629195
20185.298022,296.082377,-8956.491898,-4903.011187
20185.298356,-2220.617826,-12065.356855,-6588.421283
20185.298689,-2886.803174,-14952.160028,-6052.154434
20185.299022,-3627.009116,-15988.448347,-3294.210641
20185.299355,-2072.576638,-15396.283594,1149.143247
20185.299688,-1258.350101,-12139.377449,2068.457845
20185.300022,-1628.453072,-8364.327145,6128.763984
20185.300355,592.164754,-5995.668130,8350.440928
20185.300688,4663.297435,-4737.318029,7277.907231
20185.301021,1776.494261,-3182.885551,3830.477490
20185.301355,2368.659014,-4441.235652,1149.143247
20185.301688,1628.453072,-6365.771101,229.828649
20185.302021,-1110.308913,-5995.668130,-3907.087040
20185.302354,-1258.350101,-9770.718434,-7737.564530
20185.302687,-2960.823768,-13397.727550,-6128.763984
20185.303021,-5921.647536,-15766.386565,-2221.676944
20185.303354,-4811.338623,-15100.201217,-1915.238745
20185.303687,-3923.091493,-13989.892304,3294.210641
20185.304020,-2368.659014,-9104.533087,3370.820191
20185.304354,592.164754,-4737.318029,6358.592633
20185.304687,3775.050304,-3256.906145,5592.497135
20185.305020,2368.659014,-1258.350101,2757.943793
20185.305353,4367.215058,-3108.864956,229.828649
20185.305686,3997.112087,-5995.668130,229.828649
20185.306020,1998.556043,-8216.285956,-3217.601092
20185.306353,962.267725,-11695.253884,-5286.058936
20185.306686,-814.226536,-15988.448347,-5592.497135
20185.307019,-1480.411884,-18505.148550,-689.485948
20185.307353,-1554.432478,-14508.036463,-1991.848295
20185.307686,-1776.494261,-12509.480420,2145.067394
20185.308019,1184.329507,-9252.574275,5515.887586
20185.308352,2072.576638,-4811.338623,6281.983084
20185.308685,5255.462188,-3330.926739,6435.202183
20185.309019,3108.864956,-2738.761985,3983.696590
20185.309352,3404.947333,-3108.864956,536.266849
20185.309685,1184.329507,-4811.338623,-2451.505594
20185.310018,1110.308913,-7105.977043,-5898.935335
20185.310352,-1258.350101,-9548.656652,-9193.145976
20185.310685,-3552.988522,-15174.221811,-4366.744339
20185.311018,-3034.844362,-16580.613101,-3140.991542
20185.311351,-4737.318029,-15026.180623,-306.438199
20185.311684,-2442.679609,-13915.871710,3064.381992
20185.312018,-1110.308913,-9622.677246,5745.716235
20185.312351,1702.473667,-4515.256246,6435.202183
20185.312684,5033.400406,-3330.926739,9729.412825
20185.313017,2886.803174,-74.020594,3064.381992
20185.313351,2960.823768,-3627.009116,0.000000
20185.313684,3182.885551,-7698.141797,-1915.238745
20185.314017,-3108.864956,-7179.997637,-6741.640382
20185.314350,-3182.885551,-13619.789333,-7124.688131
20185.314684,-5329.482782,-15174.221811,-6128.763984
20185.315017,-7179.997637,-16284.530724,-3753.867940
20185.315350,-5329.482782,-13841.851115,0.000000
20185.315683,-1258.350101,-13027.624579,4826.401637
20185.316016,-3552.988522,-5995.668130,6128.763984
20185.316350,3404.947333,-4737.318029,8503.660028
20185.316683,4663.297435,-4737.318029,5745.716235
20185.317016,1258.350101,-74.020594,1838.629195
20185.317349,2590.720797,-4737.318029,-995.924147
20185.317683,148.041188,-7920.203579,-3753.867940
20185.318016,-74.020594,-9400.615463,-5822.325785
20185.318349,74.020594,-10436.903782,-7354.516781
20185.318682,1702.473667,-15988.448347,-3140.991542
20185.319015,-2220.617826,-16802.674883,-1378.971896
20185.319349,814.226536,-14137.933492,1378.971896
20185.319682,1184.329507,-13249.686362,5056.230287
20185.320015,2368.659014,-7772.162391,6128.763984
20185.320348,4885.359217,-5921.647536,8810.098227
20185.320682,5847.626942,-2590.720797,4903.011187
20185.321015,4589.276840,-74.020594,1225.752797
20185.321348,5625.565159,-4589.276840,1762.019645
20185.321681,4515.256246,-4367.215058,-2528.115143
20185.322014,1184.329507,-8956.491898,-4136.915689
20185.322348,-222.061783,-11251.130318,-7660.954980
20185.322681,-1036.288319,-14582.057057,-6281.983084
20185.323014,-74.020594,-16580.613101,-1455.581446
20185.323347,814.226536,-15840.407159,2374.896044
20185.323681,222.061783,-11621.233289,2451.505594
20185.324014,2664.741391,-8364.327145,4903.011187
20185.324347,4737.318029,-8142.265362,8503.660028
20185.324680,7105.977043,-4441.235652,4903.011187
20185.325013,5255.462188,-4589.276840,3907.087040
20185.325347,4219.173869,-3552.988522,536.266849
20185.325680,4071.132681,-6957.935855,-919.314598
20185.326013,3478.967927,-7105.977043,-3753.867940
20185.326346,2516.700203,-11991.336260,-3140.991542
20185.326680,-74.020594,-11917.315666,-7354.516781
20185.327013,-3849.070898,-19171.333898,-2681.334243
20185.327346,-1850.514855,-16580.613101,-1302.362347
20185.327679,-3627.009116,-16876.695478,2987.772442
20185.328012,-2146.597232,-9548.656652,3370.820191
20185.328346,-148.041188,-6957.935855,7124.688131
20185.328679,1406.391290,-1850.514855,7048.078582
20185.329012,1480.411884,-74.020594,4903.011187
20185.329345,3478.967927,-2368.659014,2374.896044
20185.329679,0.000000,-6291.750507,0.000000
20185.330012,-3552.988522,-8956.491898,-3447.429741
20185.330345,-5403.503377,-11843.295072,-9039.926876
20185.330678,-10066.800811,-15470.304188,-8120.612279
20185.331011,-7402.059420,-16210.510130,-3983.696590
20185.331345,-6883.915261,-15470.304188,76.609550
20185.331678,-4293.194464,-13175.665768,4136.915689
20185.332011,-2368.659014,-10362.883188,7277.907231
20185.332344,-1258.350101,-2738.761985,5209.449386
20185.332678,2886.803174,-4737.318029,7890.783629
20185.333011,518.144159,-2368.659014,3294.210641
20185.333344,0.000000,-3627.009116,3600.648841
20185.333677,-2960.823768,-6143.709319,-1915.238745
20185.334011,-2368.659014,-7179.997637,-4290.134789
20185.334344,-1702.473667,-10140.821405,-5056.230287
20185.334677,-3404.947333,-15692.365970,-5286.058936
20185.335010,-3997.112087,-16580.613101,-3217.601092
20185.335343,-5921.647536,-15174.221811,-1838.629195
20185.335677,-1702.473667,-14063.912898,2681.334243
20185.336010,740.205942,-9178.553681,6128.763984
20185.336343,3701.029710,-5181.441594,7354.516781
20185.336676,6513.812290,-3775.050304,8733.488677
20185.337010,6439.791695,-2368.659014,2451.505594
20185.337343,3256.906145,-370.102971,0.000000
20185.337676,4515.256246,-9474.636058,-1608.800546
20185.338009,3478.967927,-7105.977043,-5898.935335
20185.338342,0.000000,-11325.150913,-5439.278036
20185.338676,740.205942,-15396.283594,-5592.497135
20185.339009,1998.556043,-15026.180623,-1915.238745
20185.339342,592.164754,-16728.654289,1685.410096
20185.339675,4663.297435,-13471.748144,4826.401637
20185.340009,2886.803174,-10066.800811,3677.258390
20185.340342,5625.565159,-5107.421000,4903.011187
20185.340675,7624.121203,-7105.977043,6665.030833
20185.341008,4959.379811,-1850.514855,1991.848295
20185.341341,3849.070898,-5551.544565,1608.800546
20185.341675,888.247130,-6957.935855,-2298.286494
20185.342008,2368.659014,-7698.141797,-3524.039291
20185.342341,148.041188,-9770.718434,-4979.620737
20185.342674,-74.020594,-14211.954086,-5745.716235
20185.343008,-3034.844362,-11917.315666,-4903.011187
20185.343341,-1184.329507,-17172.777854,842.705048
20185.343674,-74.020594,-15988.448347,2987.772442
20185.344007,74.020594,-8956.491898,4903.011187
20185.344340,3478.967927,-5921.647536,5132.839837
20185.344674,4293.194464,-4367.215058,6358.592633
20185.345007,4737.318029,-2368.659014,3907.087040
20185.345340,3182.885551,-3182.885551,842.705048
20185.345673,888.247130,-5403.503377,-3064.381992
20185.346007,-1184.329507,-9252.574275,-2604.724693
20185.346340,-1850.514855,-13027.624579,-6818.249932
20185.346673,-7105.977043,-15470.304188,-5975.544884
20185.347006,-4737.318029,-14878.139434,-1072.533697
20185.347339,-3034.844362,-15100.201217,229.828649
20185.347673,-1480.411884,-12065.356855,5515.887586
20185.348006,-1480.411884,-8438.347739,6665.030833
20185.348339,-296.082377,-4663.297435,6435.202183
20185.348672,0.000000,-2442.679609,4903.011187
20185.349006,0.000000,-2442.679609,3294.210641
20185.349339,-740.205942,-3108.864956,-383.047749
20185.349672,-2442.679609,-7550.100608,-2145.067394
20185.350005,-666.185348,-9474.636058,-3753.867940
20185.350338,-4071.132681,-11251.130318,-6358.592633
20185.350672,-6513.812290,-13693.809927,-5822.325785
20185.351005,-4219.173869,-15988.448347,-1608.800546
20185.351338,-4811.338623,-15988.448347,-995.924147
20185.351671,-1554.432478,-13619.789333,6052.154434
20185.352005,-814.226536,-9474.636058,7277.907231
20185.352338,1850.514855,-3701.029710,7584.345430
20185.352671,3034.844362,-2368.659014,6741.640382
20185.353004,3478.967927,-1480.411884,3677.258390
20185.353338,2368.659014,-3404.947333,1149.143247
20185.353671,0.000000,-4811.338623,-1838.629195
20185.354004,2294.638420,-8882.471304,-6818.249932
20185.354337,-2368.659014,-10658.965565,-7814.174080
20185.354670,-3108.864956,-16580.613101,-7124.688131
20185.355004,-666.185348,-17468.860231,-4060.306139
20185.355337,-1628.453072,-16506.592507,-76.609550
20185.355670,1776.494261,-12953.603985,4290.134789
20185.356003,3923.091493,-8808.450710,7354.516781
20185.356337,7031.956449,-5921.647536,7890.783629
20185.356670,7105.977043,-4737.318029,10418.898773
20185.357003,7920.203579,-4145.153275,3294.210641
20185.357336,1776.494261,-3923.091493,0.000000
20185.357669,2072.576638,-7179.997637,-2528.115143
20185.358003,518.144159,-7476.080014,-6128.763984
20185.358336,962.267725,-10510.924376,-6511.811733
20185.358669,-666.185348,-15692.365970,-5898.935335
20185.359002,-1480.411884,-15914.427753,-2911.162892
20185.359336,-4219.173869,-14878.139434,-1532.190996
20185.359669,-74.020594,-15988.448347,4826.401637
20185.360002,2294.638420,-10658.965565,6665.030833
20185.360335,1480.411884,-3034.844362,8580.269578
20185.360668,7624.121203,-3256.906145,9729.412825
20185.361002,3849.070898,-666.185348,4903.011187
20185.361335,2590.720797,-2812.782580,459.657299
20185.361668,1110.308913,-5995.668130,-3447.429741
20185.362001,-1628.453072,-9770.718434,-6128.763984
20185.362335,-4737.318029,-12065.356855,-7660.954980
20185.362668,-3627.009116,-16580.613101,-8656.879127
20185.363001,-5107.421000,-15174.221811,-4290.134789
20185.363334,-5107.421000,-13397.727550,1225.752797
20185.363667,2294.638420,-12435.459826,8503.660028
20185.364001,592.164754,-8364.327145,8580.269578
20185.364334,2886.803174,-3997.112087,8120.612279
20185.364667,3034.844362,-2368.659014,6358.592633
20185.365000,2886.803174,-2368.659014,2528.115143
20185.365334,0.000000,-3627.009116,0.000000
20185.365667,-814.226536,-6957.935855,-4443.353888
20185.366000,-888.247130,-8512.368333,-6128.763984
20185.366333,-3182.885551,-12361.439231,-6971.469032
20185.366666,-2146.597232,-14804.118840,-6971.469032
20185.367000,-3849.070898,-14582.057057,-2298.286494
20185.367333,-962.267725,-16580.613101,3600.648841
20185.367666,3478.967927,-13027.624579,5439.278036
20185.367999,2294.638420,-8364.327145,7354.516781
20185.368333,5255.462188,-4589.276840,9729.412825
20185.368666,3775.050304,-1480.411884,5439.278036
20185.368999,4737.318029,-1702.473667,2834.553343
20185.369332,2738.761985,-3182.885551,-229.828649
20185.369665,1776.494261,-3034.844362,-4903.011187
20185.369999,-1776.494261,-7772.162391,-6128.763984
20185.370332,-74.020594,-11843.295072,-8656.879127
20185.370665,-2294.638420,-13693.809927,-8044.002729
20185.370998,-3256.906145,-16210.510130,-2757.943793
20185.371332,-518.144159,-15988.448347,1149.143247
20185.371665,592.164754,-13693.809927,4826.401637
20185.371998,2960.823768,-9548.656652,7201.297681
20185.372331,5033.400406,-4811.338623,8120.612279
20185.372665,6217.729913,-4737.318029,8580.269578
20185.372998,3849.070898,-74.020594,5056.230287
20185.373331,4071.132681,-4737.318029,-689.485948
20185.373664,592.164754,-4219.173869,-4749.792088
20185.373997,0.000000,-7179.997637,-3983.696590
20185.374331,-814.226536,-11917.315666,-7354.516781
20185.374664,-148.041188,-14508.036463,-7124.688131
20185.374997,-3478.967927,-19689.478057,-3830.477490
20185.375330,-4145.153275,-17246.798449,-1532.190996
20185.375664,-666.185348,-15100.201217,4213.525239
20185.375997,0.000000,-11325.150913,8810.098227
20185.376330,3923.091493,-3552.988522,7890.783629
20185.376663,1184.329507,-1850.514855,10418.898773
20185.376996,6439.791695,592.164754,6052.154434
20185.377330,2294.638420,-3256.906145,1762.019645
20185.377663,0.000000,-4515.256246,-3677.258390
20185.377996,-3478.967927,-9400.615463,-6205.373534
20185.378329,-6513.812290,-12805.562797,-9116.536426
20185.378663,-8882.471304,-14582.057057,-9806.022374
20185.378996,-5995.668130,-18949.272115,-4979.620737
20185.379329,-5625.565159,-14878.139434,1225.752797
20185.379662,-4737.318029,-11917.315666,7354.516781
20185.379995,-74.020594,-9474.636058,7890.783629
20185.380329,-74.020594,-4737.318029,7890.783629
20185.380662,1110.308913,-2886.803174,7277.907231
20185.380995,740.205942,-666.185348,3753.867940
20185.381328,-370.102971,-3330.926739,612.876398
20185.381660,-2368.659014,-3108.864956,-3217.601092
20185.381993,-1850.514855,-9326.594869,-5439.278036
20185.382327,-2442.679609,-10955.047942,-7584.345430
20185.382660,-4145.153275,-14952.160028,-7354.516781
20185.382993,-4515.256246,-17542.880825,-4749.792088
20185.383326,-3627.009116,-15470.304188,-1225.752797
20185.383659,444.123565,-14211.954086,7277.907231
20185.383993,4663.297435,-9474.636058,6665.030833
20185.384326,4737.318029,-5403.503377,9729.412825
20185.384659,7105.977043,-4589.276840,9193.145976
20185.384992,5847.626942,-1702.473667,2451.505594
20185.385326,5551.544565,-2072.576638,-76.609550
20185.385659,2072.576638,-6291.750507,-2451.505594
20185.385992,740.205942,-7550.100608,-5975.544884
20185.386325,0.000000,-11621.233289,-6741.640382
20185.386659,2294.638420,-15396.283594,-6818.249932
20185.386992,0.000000,-15766.386565,-4903.011187
20185.387325,0.000000,-16062.468941,1532.190996
20185.387658,4367.215058,-14211.954086,3600.648841
20185.387992,2368.659014,-10732.986159,7354.516781
20185.388325,6069.688724,-4219.173869,5975.544884
20185.388658,6439.791695,-4589.276840,7507.735880
20185.388991,6217.729913,-1554.432478,4136.915689
20185.389325,5847.626942,-5255.462188,2374.896044
20185.389658,4071.132681,-5921.647536,-4366.744339
20185.389991,592.164754,-8364.327145,-3677.258390
20185.390324,0.000000,-11621.233289,-4060.306139
20185.390658,-74.020594,-14063.912898,-6435.202183
20185.390991,-3256.906145,-18949.272115,-3140.991542
20185.391324,-2294.638420,-15840.407159,-1378.971896
20185.391657,-518.144159,-14063.912898,4290.134789
20185.391991,296.082377,-11843.295072,7124.688131
20185.392324,4367.215058,-4441.235652,7584.345430
20185.392657,1480.411884,-1258.350101,4903.011187
20185.392990,2664.741391,-666.185348,5515.887586
20185.393324,3478.967927,-2368.659014,1762.019645
20185.393657,-74.020594,-3627.009116,-5822.325785
20185.393990,-1628.453072,-10658.965565,-5592.497135
20185.394323,-4737.318029,-12509.480420,-7814.174080
20185.394657,-5403.503377,-15470.304188,-7354.516781
20185.394990,-5995.668130,-17764.942608,-4673.182538
20185.395323,-3034.844362,-15396.283594,-76.609550
20185.395656,-3552.988522,-13471.748144,5669.106685
20185.395990,74.020594,-9474.636058,7277.907231
20185.396323,1184.329507,-4959.379811,7737.564530
20185.396656,1184.329507,-3627.009116,7967.393179
20185.396989,1184.329507,-1850.514855,6818.249932
20185.397322,-74.020594,-2960.823768,-689.485948
20185.397656,-3256.906145,-2442.679609,-5822.325785
20185.397989,-4145.153275,-8512.368333,-5209.449386
20185.398322,-3923.091493,-9548.656652,-8427.050478
20185.398655,-4737.318029,-15100.201217,-6205.373534
20185.398989,-6587.832884,-17616.901420,-5515.887586
20185.399322,-4737.318029,-16358.551318,-536.266849
20185.399655,-1850.514855,-15988.448347,4826.401637
20185.399988,0.000000,-8364.327145,8503.660028
20185.400322,4663.297435,-2960.823768,6511.811733
20185.400655,5033.400406,-2294.638420,10342.289223
20185.400988,7031.956449,-2368.659014,5439.278036
20185.401321,4663.297435,-3701.029710,1762.019645
20185.401655,1184.329507,-6069.688724,-2757.943793
20185.401988,-1332.370696,-9104.533087,-7737.564530
20185.402321,-2220.617826,-12065.356855,-8350.440928
20185.402654,-3849.070898,-15544.324782,-8120.612279
20185.402988,-2960.823768,-17246.798449,-2834.553343
20185.403321,-1776.494261,-13397.727550,-1532.190996
20185.403654,0.000000,-13101.645173,6281.983084
20185.403987,6143.709319,-9474.636058,8503.660028
20185.404321,5699.585753,-3552.988522,8120.612279
20185.404654,7624.121203,-4145.153275,6894.859482
20185.404987,4959.379811,-2368.659014,3447.429741
20185.405320,4515.256246,-3997.112087,0.000000
20185.405654,2368.659014,-6217.729913,-3064.381992
20185.405987,1702.473667,-10658.965565,-6205.373534
20185.406320,0.000000,-11917.315666,-6052.154434
20185.406653,-3552.988522,-14582.057057,-6435.202183
20185.406987,-1258.350101,-18357.107362,-5132.839837
20185.407320,-2368.659014,-14878.139434,306.438199
20185.407653,0.000000,-13915.871710,6128.763984
20185.407986,3627.009116,-9770.718434,9269.755526
20185.408320,6439.791695,-3404.947333,11261.603821
20185.408653,6439.791695,-1850.514855,9193.145976
20185.408986,4367.215058,592.164754,1915.238745
20185.409319,2368.659014,-4737.318029,1762.019645
20185.409652,-1554.432478,-5551.544565,-6741.640382
20185.409986,-6365.771101,-8660.409521,-9193.145976
20185.410319,-7105.977043,-11917.315666,-8886.707777
20185.410652,-7328.038826,-15470.304188,-8886.707777
20185.410985,-6217.729913,-16210.510130,-4673.182538
20185.411319,-3627.009116,-14952.160028,1838.629195
20185.411652,-1036.288319,-11325.150913,7048.078582
20185.411985,3478.967927,-6069.688724,8273.831378
20185.412318,4071.132681,-3330.926739,9806.022374
20185.412652,4663.297435,-2664.741391,7584.345430
20185.412985,0.000000,-2442.679609,2451.505594
20185.413318,888.247130,-4737.318029,-153.219100
20185.413651,-1258.350101,-8586.388927,-6128.763984
20185.413985,-3849.070898,-7772.162391,-9806.022374
20185.414318,-2664.741391,-14063.912898,-6205.373534
20185.414651,-4515.256246,-15544.324782,-7584.345430
20185.414984,-4737.318029,-15470.304188,-3677.258390
20185.415318,-1480.411884,-15248.242405,1991.848295
20185.415651,1406.391290,-12879.583391,6741.640382
20185.415984,3552.988522,-8364.327145,9729.412825
20185.416317,6735.874072,-4737.318029,9729.412825
20185.416651,7624.121203,-1776.494261,5745.716235
20185.416984,4737.318029,-1258.350101,5132.839837
20185.417317,5847.626942,-5921.647536,-76.609550
20185.417650,444.123565,-4811.338623,-4903.011187
20185.417984,-74.020594,-9400.615463,-6818.249932
20185.418317,-1628.453072,-11695.253884,-8656.879127
20185.418650,-888.247130,-15100.201217,-7354.516781
20185.418983,-962.267725,-16728.654289,-3753.867940
20185.419317,0.000000,-14582.057057,-919.314598
20185.419650,1702.473667,-13397.727550,2451.505594
20185.419983,5625.565159,-11251.130318,9116.536426
20185.420316,5847.626942,-4219.173869,8733.488677
20185.420650,5699.585753,-222.061783,8580.269578
20185.420983,3849.070898,-2368.659014,4826.401637
20185.421316,3552.988522,-962.267725,306.438199
20185.421649,370.102971,-6439.791695,-3370.820191
20185.421983,-444.123565,-7105.977043,-8120.612279
20185.422316,-1776.494261,-13545.768739,-8580.269578
20185.422649,-5625.565159,-14582.057057,-9193.145976
20185.422982,-2664.741391,-20133.601622,-4979.620737
20185.423315,-3330.926739,-16580.613101,-2298.286494
20185.423649,-1776.494261,-14804.118840,4673.182538
20185.423982,2368.659014,-8364.327145,8886.707777
20185.424315,6069.688724,-4589.276840,11184.994271
20185.424648,5181.441594,-1480.411884,9346.365076
20185.424982,4219.173869,-740.205942,6052.154434
20185.425315,4071.132681,-2960.823768,2374.896044
20185.425648,0.000000,-7179.997637,-689.485948
20185.425981,-3627.009116,-7476.080014,-9806.022374
20185.426315,-7772.162391,-11917.315666,-11031.775171
20185.426648,-6883.915261,-17764.942608,-7737.564530
20185.426981,-6809.894666,-16654.633695,-6128.763984
20185.427314,-4367.215058,-16432.571912,1072.533697
20185.427648,-2442.679609,-12953.603985,6511.811733
20185.427981,-296.082377,-7698.141797,8810.098227
20185.428314,3182.885551,-4737.318029,10955.165621
20185.428647,2368.659014,-1406.391290,8886.707777
20185.428981,1258.350101,-370.102971,4290.134789
20185.429314,592.164754,-2590.720797,-306.438199
20185.429647,-3182.885551,-6291.750507,-4443.353888
20185.429980,-3034.844362,-9474.636058,-8044.002729
20185.430314,-6365.771101,-10732.986159,-9806.022374
20185.430647,-3923.091493,-18357.107362,-6358.592633
20185.430980,-4811.338623,-15026.180623,-4903.011187
20185.431313,-4737.318029,-15174.221811,0.000000
20185.431647,1406.391290,-14211.954086,5132.839837
20185.431980,4293.194464,-8882.471304,9652.803275
20185.432313,6513.812290,-4663.297435,11491.432470
20185.432646,7550.100608,-1702.473667,9499.584175
20185.432980,4367.215058,-1776.494261,4519.963438
20185.433313,3552.988522,-1258.350101,1378.971896
20185.433646,3478.967927,-9474.636058,-2528.115143
20185.433979,518.144159,-5107.421000,-9499.584175
20185.434313,0.000000,-14285.974681,-6741.640382
20185.434646,-666.185348,-14804.118840,-9039.926876
20185.434979,370.102971,-16950.716072,-3830.477490
20185.435312,-962.267725,-17098.757260,536.266849
20185.435646,3775.050304,-13249.686362,5286.058936
20185.435979,2960.823768,-8364.327145,7967.393179
20185.436312,7698.141797,-7105.977043,11568.042020
20185.436645,7624.121203,-1776.494261,6511.811733
20185.436978,2368.659014,-1258.350101,4903.011187
20185.437312,5847.626942,-4737.318029,-76.609550
20185.437645,0.000000,-5107.421000,-3677.258390
20185.437978,1110.308913,-7994.224174,-6971.469032
20185.438311,-1776.494261,-12139.377449,-8120.612279
20185.438645,-1628.453072,-15396.283594,-6894.859482
20185.438978,-2220.617826,-17246.798449,-3064.381992
20185.439311,-1258.350101,-20725.766376,-76.609550
20185.439644,148.041188,-12213.398043,3677.258390
20185.439978,888.247130,-10732.986159,9806.022374
20185.440311,7031.956449,-7105.977043,10955.165621
20185.440644,3256.906145,-1554.432478,8886.707777
20185.440977,4367.215058,-1110.308913,5132.839837
20185.441311,2072.576638,-2886.803174,995.924147
20185.441644,-2146.597232,-5773.606348,-4136.915689
20185.441977,-3552.988522,-8956.491898,-7354.516781
20185.442310,-5699.585753,-12287.418637,-9346.365076
20185.442644,-6365.771101,-16654.633695,-7967.393179
20185.442977,-6661.853478,-16580.613101,-4979.620737
20185.443310,-5403.503377,-16580.613101,-1302.362347
20185.443643,-1554.432478,-11769.274478,4290.134789
20185.443977,1184.329507,-8808.450710,11261.603821
20185.444310,5847.626942,-7105.977043,12180.918418
20185.444643,2886.803174,-1406.391290,7354.516781
20185.444976,1850.514855,-1184.329507,4519.963438
20185.445310,518.144159,-2738.761985,0.000000
20185.445643,-1184.329507,-5699.585753,-3907.087040
20185.445976,-3404.947333,-8882.471304,-8044.002729
20185.446309,-6809.894666,-11325.150913,-9806.022374
20185.446643,-4811.338623,-15988.448347,-9806.022374
20185.446976,-5773.606348,-18949.272115,-3753.867940
20185.447309,-5995.668130,-16654.633695,-1225.752797
20185.447642,-962.267725,-12287.418637,4979.620737
20185.447976,1480.411884,-7846.182985,9959.241474
20185.448309,6069.688724,-2590.720797,12410.747068
20185.448642,6587.832884,-1184.329507,10495.508323
20185.448975,5477.523971,0.000000,4903.011187
20185.449309,4145.153275,-4145.153275,2681.334243
20185.449642,666.185348,-4219.173869,-5515.887586
20185.449975,-1258.350101,-11251.130318,-10189.070123
20185.450308,-6217.729913,-12213.398043,-12257.527968
20185.450641,-2738.761985,-17764.942608,-10725.336972
20185.450975,-1850.514855,-18505.148550,-3753.867940
20185.451308,1702.473667,-17172.777854,1149.143247
20185.451641,4145.153275,-12065.356855,6741.640382
20185.451974,5699.585753,-9400.615463,10495.508323
20185.452308,8660.409521,-3997.112087,10648.727422
20185.452641,9918.759623,-3849.070898,11568.042020
20185.452974,5181.441594,-74.020594,3677.258390
20185.453307,1184.329507,-2738.761985,1838.629195
20185.453641,2886.803174,-7698.141797,-4979.620737
20185.453974,-2294.638420,-8216.285956,-10112.460574
20185.454307,-3404.947333,-12435.459826,-11261.603821
20185.454640,-3404.947333,-16136.489536,-7431.126331
20185.454974,-4441.235652,-17394.839637,-4673.182538
20185.455307,-2886.803174,-16506.592507,-612.876398
20185.455640,1702.473667,-13915.871710,5745.716235
20185.455973,592.164754,-8660.409521,12257.527968
20185.456307,8216.285956,-4145.153275,11568.042020
20185.456640,7031.956449,-592.164754,7737.564530
20185.456973,2368.659014,-74.020594,4903.011187
20185.457306,1998.556043,-2368.659014,-995.924147
20185.457640,-1702.473667,-7105.977043,-4673.182538
20185.457973,-4737.318029,-8956.491898,-9422.974625
20185.458306,-7550.100608,-13397.727550,-10878.556072
20185.458639,-5403.503377,-16580.613101,-8963.317327
20185.458973,-6217.729913,-16876.695478,-3447.429741
20185.459306,-3923.091493,-14434.015869,842.705048
20185.459639,518.144159,-11843.295072,7584.345430
20185.459972,888.247130,-7179.997637,9806.022374
20185.460306,5847.626942,-4737.318029,10955.165621
20185.460639,3108.864956,-2072.576638,7277.907231
20185.460972,0.000000,-1406.391290,4290.134789
20185.461305,-148.041188,-4145.153275,-1915.238745
20185.461639,-3034.844362,-5403.503377,-6741.640382
20185.461972,-4071.132681,-7476.080014,-8810.098227
20185.462305,-3923.091493,-11843.295072,-9882.631924
20185.462638,-2738.761985,-14656.077652,-7431.126331
20185.462972,-2220.617826,-17616.901420,-2528.115143
20185.463305,-74.020594,-17764.942608,-76.609550
20185.463638,0.000000,-12213.398043,5515.887586
20185.463971,1184.329507,-7179.997637,9806.022374
20185.464304,8808.450710,-4737.318029,9729.412825
20185.464638,5921.647536,-1850.514855,10572.117872
20185.464971,7624.121203,-2220.617826,5056.230287
20185.465304,5329.482782,-2886.803174,1378.971896
20185.465637,4293.194464,-5921.647536,-2528.115143
20185.465971,962.267725,-7698.141797,-7124.688131
20185.466304,-74.020594,-13619.789333,-10495.508323
20185.466637,-2960.823768,-15174.221811,-8273.831378
20185.466970,-592.164754,-18357.107362,-2528.115143
20185.467304,2294.638420,-16580.613101,-383.047749
20185.467637,2886.803174,-14582.057057,7277.907231
20185.467970,2960.823768,-8660.409521,7967.393179
20185.468303,5773.606348,-4219.173869,9346.365076
20185.468637,6513.812290,-2368.659014,9269.755526
20185.468970,4737.318029,-74.020594,4903.011187
20185.469303,2886.803174,-1406.391290,0.000000
20185.469636,592.164754,-4219.173869,-766.095498
20185.469970,-1258.350101,-9474.636058,-7584.345430
20185.470303,-3478.967927,-10066.800811,-11414.822920
20185.470636,-6809.894666,-16802.674883,-10035.851024
20185.470969,-6439.791695,-18209.066173,-7737.564530
20185.471303,-5403.503377,-17838.963202,-2528.115143
20185.471636,-2812.782580,-14804.118840,4443.353888
20185.471969,3701.029710,-9252.574275,11568.042020
20185.472302,2368.659014,-3627.009116,13483.280765
20185.472636,8216.285956,0.000000,12180.918418
20185.472969,3478.967927,148.041188,4903.011187
20185.473302,0.000000,-2442.679609,2987.772442
20185.473635,-2072.576638,-3923.091493,-4366.744339
20185.473969,-5699.585753,-10658.965565,-8656.879127
20185.474302,-7476.080014,-12879.583391,-12027.699319
20185.474635,-9178.553681,-18357.107362,-9882.631924
20185.474968,-7846.182985,-18505.148550,-5209.449386
20185.475302,-8290.306550,-15544.324782,0.000000
20185.475635,-2960.823768,-12065.356855,6052.154434
20185.475968,-1184.329507,-8734.430116,10725.336972
20185.476301,3775.050304,-1850.514855,12257.527968
20185.476634,4441.235652,-2442.679609,11031.775171
20185.476968,2590.720797,2886.803174,3677.258390
20185.477301,0.000000,-3182.885551,2834.553343
20185.477634,-1554.432478,-4737.318029,-6128.763984
20185.477967,-4515.256246,-8586.388927,-10189.070123
20185.478301,-5625.565159,-12657.521608,-11108.384721
20185.478634,-5107.421000,-16654.633695,-10265.679673
20185.478967,-4663.297435,-17764.942608,-5439.278036
20185.479300,-1776.494261,-17024.736666,383.047749
20185.479634,3182.885551,-14211.954086,7890.783629
20185.479967,4737.318029,-7772.162391,12257.527968
20185.480300,7698.141797,-3034.844362,14325.985813
20185.480633,10288.862594,-1628.453072,9576.193725
20185.480967,5329.482782,-74.020594,4903.011187
20185.481300,6439.791695,-4441.235652,-76.609550
20185.481633,3849.070898,-5699.585753,-4903.011187
20185.481966,0.000000,-9104.533087,-7967.393179
20185.482300,-2146.597232,-12435.459826,-11951.089769
20185.482633,-370.102971,-15988.448347,-9269.755526
20185.482966,0.000000,-18135.045579,-2145.067394
20185.483299,3330.926739,-17764.942608,1762.019645
20185.483632,4663.297435,-13027.624579,4673.182538
20185.483966,5921.647536,-11843.295072,11951.089769
20185.484299,9104.533087,-2886.803174,10418.898773
20185.484632,7698.141797,-3182.885551,10342.289223
20185.484965,6143.709319,0.000000,3907.087040
20185.485298,4663.297435,-4367.215058,2987.772442
20185.485632,0.000000,-3923.091493,-5515.887586
20185.485965,-1184.329507,-8512.368333,-7354.516781
20185.486298,-3330.926739,-13915.871710,-10801.946522
20185.486631,-5255.462188,-16654.633695,-9806.022374
20185.486964,-7105.977043,-16654.633695,-4903.011187
20185.487298,-4145.153275,-16654.633695,0.000000
20185.487631,-962.267725,-14804.118840,5056.230287
20185.487964,3108.864956,-9770.718434,12104.308868
20185.488297,5403.503377,-4219.173869,13176.842566
20185.488630,5329.482782,-370.102971,10112.460574
20185.488964,4885.359217,0.000000,6358.592633
20185.489297,1110.308913,-2960.823768,995.924147
20185.489630,-666.185348,-5181.441594,-3370.820191
20185.489963,-3627.009116,-10658.965565,-8656.879127
20185.490296,-7179.997637,-12879.583391,-12793.794817
20185.490630,-9474.636058,-17098.757260,-9269.755526
20185.490963,-7179.997637,-20133.601622,-4979.620737
20185.491296,-7698.141797,-14285.974681,0.000000
20185.491629,-2442.679609,-15396.283594,7890.783629
20185.491962,518.144159,-7476.080014,9806.022374
20185.492296,2442.679609,-3182.885551,11951.089769
20185.492629,4145.153275,-74.020594,9806.022374
20185.492962,1776.494261,-74.020594,6128.763984
20185.493295,2590.720797,-888.247130,-2221.676944
20185.493628,-1184.329507,-7994.224174,-2528.115143
20185.493962,-4885.359217,-7179.997637,-11031.775171
20185.494295,-7698.141797,-11621.233289,-12257.527968
20185.494628,-7846.182985,-17246.798449,-11338.213370
20185.494961,-7105.977043,-17616.901420,-7277.907231
20185.495294,-4515.256246,-17172.777854,-383.047749
20185.495628,0.000000,-14137.933492,6358.592633
20185.495961,5033.400406,-8216.285956,14096.157163
20185.496294,7328.038826,-814.226536,12947.013916
20185.496627,9400.615463,0.000000,11568.042020
20185.496960,5921.647536,2294.638420,7048.078582
20185.497294,4959.379811,-3552.988522,1225.752797
20185.497627,2294.638420,-6809.894666,-4366.744339
20185.497960,-2960.823768,-9400.615463,-10725.336972
20185.498293,-4737.318029,-13989.892304,-12334.137518
20185.498626,-3775.050304,-17764.942608,-10572.117872
20185.498960,-2886.803174,-18727.210333,-5362.668486
20185.499293,1184.329507,-16358.551318,3600.648841
20185.499626,2812.782580,-11917.315666,6128.763984
20185.499959,4737.318029,-7179.997637,12257.527968
20185.500292,10584.944971,-4737.318029,12793.794817
20185.500626,9104.533087,-74.020594,7967.393179
20185.500959,7476.080014,-1924.535449,5592.497135
20185.501292,3552.988522,-3034.844362,459.657299
20185.501625,1258.350101,-6661.853478,-4519.963438
20185.501958,-1258.350101,-8364.327145,-9422.974625
20185.502292,-2368.659014,-13101.645173,-9116.536426
20185.502625,-4737.318029,-15470.304188,-9346.365076
20185.502958,-3627.009116,-17098.757260,-8580.269578
20185.503291,-4737.318029,-16950.716072,-76.609550
20185.503624,-74.020594,-15396.283594,3907.087040
20185.503958,4663.297435,-10066.800811,9422.974625
20185.504291,6513.812290,-4293.194464,13559.890315
20185.504624,7328.038826,-666.185348,11874.480219
20185.504957,5847.626942,0.000000,6665.030833
20185.505290,2886.803174,-3997.112087,2221.676944
20185.505624,-2220.617826,-6143.709319,-4443.353888
20185.505957,-5329.482782,-8438.347739,-10112.460574
20185.506290,-7624.121203,-13989.892304,-11797.870669
20185.506623,-9474.636058,-15470.304188,-9806.022374
20185.506956,-6365.771101,-18949.272115,-3753.867940
20185.507290,-4219.173869,-15692.365970,76.609550
20185.507623,-1850.514855,-11325.150913,4903.011187
20185.507956,1184.329507,-8512.368333,11568.042020
20185.508289,2886.803174,-2072.576638,11568.042020
20185.508622,4737.318029,-370.102971,9806.022374
20185.508956,3552.988522,-814.226536,6052.154434
20185.509289,222.061783,-2294.638420,689.485948
20185.509622,-1184.329507,-5921.647536,-3370.820191
20185.509955,-3404.947333,-8364.327145,-6205.373534
20185.510288,-4219.173869,-9844.739029,-13483.280765
20185.510622,-5625.565159,-16654.633695,-12257.527968
20185.510955,-4441.235652,-19837.519246,-5592.497135
20185.511288,-3849.070898,-16654.633695,-2451.505594
20185.511621,-74.020594,-14656.077652,4979.620737
20185.511955,5403.503377,-8364.327145,11338.213370
20185.512288,7994.224174,-3478.967927,13176.842566
20185.512621,9400.615463,-1184.329507,11568.042020
20185.512954,7105.977043,-1110.308913,9116.536426
20185.513287,3775.050304,-74.020594,0.000000
20185.513621,2368.659014,-6957.935855,-2528.115143
20185.513954,-666.185348,-9474.636058,-9269.755526
20185.514287,-2442.679609,-13323.706956,-11108.384721
20185.514620,-4811.338623,-17616.901420,-11644.651570
20185.514953,-3182.885551,-18209.066173,-6588.421283
20185.515287,-1258.350101,-17616.901420,-995.924147
20185.515620,148.041188,-12509.480420,5669.106685
20185.515953,6439.791695,-10658.965565,9729.412825
20185.516286,7105.977043,-3627.009116,10418.898773
20185.516619,9770.718434,-2960.823768,14019.547613
20185.516953,8216.285956,370.102971,7354.516781
20185.517286,3552.988522,-222.061783,1915.238745
20185.517619,1332.370696,-5255.462188,-3294.210641
20185.517952,-814.226536,-7994.224174,-8963.317327
20185.518285,-4293.194464,-13323.706956,-11874.480219
20185.518619,-3849.070898,-17616.901420,-9499.584175
20185.518952,-7179.997637,-19023.292709,-10725.336972
20185.519285,-4737.318029,-18431.127956,-1302.362347
20185.519618,-74.020594,-16580.613101,7277.907231
20185.519951,3182.885551,-8068.244768,10112.460574
20185.520285,5477.523971,-1554.432478,14709.033562
20185.520618,6365.771101,-444.123565,13253.452115
20185.520951,5625.565159,1110.308913,7814.174080
20185.521284,2072.576638,-1110.308913,2451.505594
20185.521617,592.164754,-5995.668130,-2145.067394
20185.521951,-4811.338623,-8364.327145,-10725.336972
20185.522284,-7476.080014,-13767.830521,-13253.452115
20185.522617,-9474.636058,-18431.127956,-12410.747068
20185.522950,-8364.327145,-18727.210333,-7354.516781
20185.523283,-7105.977043,-17838.963202,-1225.752797
20185.523617,-1554.432478,-13027.624579,4826.401637
20185.523950,518.144159,-5995.668130,9806.022374
20185.524283,4589.276840,-4589.276840,14632.424012
20185.524616,6439.791695,0.000000,11568.042020
20185.524949,3256.906145,-74.020594,7507.735880
20185.525283,1998.556043,-962.267725,1225.752797
20185.525616,-1480.411884,-5181.441594,-4136.915689
20185.525949,-4293.194464,-7698.141797,-8656.879127
20185.526282,-5403.503377,-12731.542202,-12027.699319
20185.526615,-5995.668130,-16876.695478,-13023.623466
20185.526949,-6513.812290,-19023.292709,-8580.269578
20185.527282,-2368.659014,-20429.683999,-76.609550
20185.527615,1110.308913,-13545.768739,5822.325785
20185.527948,4737.318029,-9992.780217,13406.671215
20185.528281,8290.306550,-2442.679609,13406.671215
20185.528615,8512.368333,-888.247130,12027.699319
20185.528948,8438.347739,518.144159,7890.783629
20185.529281,4071.132681,-2368.659014,76.609550
20185.529614,2294.638420,-2442.679609,-7354.516781
20185.529947,-2516.700203,-10658.965565,-8963.317327
20185.530281,-2442.679609,-14211.954086,-11414.822920
20185.530614,-4219.173869,-17246.798449,-11031.775171
20185.530947,-2146.597232,-18949.272115,-6358.592633
20185.531280,666.185348,-17987.004391,536.266849
20185.531613,518.144159,-14137.933492,6665.030833
20185.531947,5699.585753,-9844.739029,10342.289223
20185.532280,9326.594869,-4737.318029,15551.738609
20185.532613,8882.471304,-4145.153275,12180.918418
20185.532946,6883.915261,2294.638420,6128.763984
20185.533279,2664.741391,-3478.967927,2374.896044
20185.533613,2294.638420,-5921.647536,-4979.620737
20185.533946,-2368.659014,-8364.327145,-5975.544884
20185.534279,-2812.782580,-11029.068536,-11491.432470
20185.534612,-4071.132681,-17172.777854,-10801.946522
20185.534945,-5107.421000,-18949.272115,-7431.126331
20185.535279,-4515.256246,-18209.066173,-2145.067394
20185.535612,-74.020594,-15396.283594,4213.525239
20185.535945,2960.823768,-7772.162391,7967.393179
20185.536278,7105.977043,-4811.338623,16471.053207
20185.536611,9400.615463,1036.288319,12257.527968
20185.536945,7105.977043,1110.308913,11184.994271
20185.537278,4145.153275,-962.267725,2451.505594
20185.537611,222.061783,-5847.626942,-4060.306139
20185.537944,-3627.009116,-8660.409521,-9806.022374
20185.538277,-6957.935855,-12435.459826,-13023.623466
20185.538611,-7179.997637,-18209.066173,-12334.137518
20185.538944,-8290.306550,-18135.045579,-8197.221829
20185.539277,-5551.544565,-17764.942608,-1302.362347
20185.539610,-1110.308913,-13915.871710,6205.373534
20185.539943,2294.638420,-9474.636058,11568.042020
20185.540277,5329.482782,-4811.338623,17083.929605
20185.540610,5847.626942,-1036.288319,10955.165621
20185.540943,3552.988522,2294.638420,6128.763984
20185.541276,1480.411884,-1258.350101,3677.258390
20185.541609,0.000000,-4219.173869,-3064.381992
20185.541943,-3330.926739,-7994.224174,-9039.926876
20185.542276,-6809.894666,-12805.562797,-12334.137518
20185.542609,-8068.244768,-16950.716072,-12563.966167
20185.542942,-9474.636058,-16950.716072,-9806.022374
20185.543275,-3923.091493,-18653.189738,-1915.238745
20185.543609,-1554.432478,-13989.892304,4290.134789
20185.543942,1184.329507,-8660.409521,11797.870669
20185.544275,9400.615463,-4441.235652,15858.176809
20185.544608,6513.812290,-74.020594,13330.061665
20185.544942,7031.956449,1480.411884,8273.831378
20185.545275,3775.050304,-296.082377,1225.752797
20185.545608,1036.288319,-6069.688724,-4826.401637
20185.545941,-4145.153275,-8956.491898,-9193.145976
20185.546274,-3923.091493,-12731.542202,-14938.862211
20185.546608,-7105.977043,-16654.633695,-13100.233016
20185.546941,-6513.812290,-19023.292709,-6435.202183
20185.547274,-2368.659014,-17616.901420,-1302.362347
20185.547607,2886.803174,-14211.954086,7277.907231
20185.547940,6587.832884,-8882.471304,11568.042020
20185.548274,7550.100608,-3478.967927,13176.842566
20185.548607,8290.306550,-1332.370696,11338.213370
20185.548940,9104.533087,0.000000,8197.221829
20185.549273,4367.215058,-74.020594,0.000000
20185.549606,2368.659014,-7105.977043,-2528.115143
20185.549940,-2442.679609,-9474.636058,-9882.631924
20185.550273,-4737.318029,-9548.656652,-13789.718964
20185.550606,-4293.194464,-18357.107362,-9882.631924
20185.550939,-6217.729913,-17838.963202,-8810.098227
20185.551272,-4219.173869,-18875.251521,-2221.676944
20185.551606,-1702.473667,-15396.283594,4826.401637
20185.551939,4663.297435,-10658.965565,12180.918418
20185.552272,7105.977043,-3330.926739,14019.547613
20185.552605,9326.594869,-740.205942,13176.842566
20185.552938,7254.018232,1702.473667,8580.269578
20185.553272,2960.823768,-74.020594,1225.752797
20185.553605,888.247130,-6291.750507,-2834.553343
20185.553938,-2738.761985,-8882.471304,-11031.775171
20185.554271,-8290.306550,-11917.315666,-12257.527968
20185.554604,-5107.421000,-18949.272115,-12027.699319
20185.554938,-7328.038826,-19541.436869,-8656.879127
20185.555271,-5033.400406,-18209.066173,-306.438199
20185.555604,-1924.535449,-13545.768739,6358.592633
20185.555937,2664.741391,-8290.306550,11108.384721
20185.556270,5329.482782,-3627.009116,14709.033562
20185.556604,5921.647536,-666.185348,14632.424012
20185.556937,4367.215058,2886.803174,5515.887586
20185.557270,1776.494261,-1850.514855,1838.629195
20185.557603,740.205942,-7105.977043,-3140.991542
20185.557936,-4737.318029,-7179.997637,-11644.651570
20185.558270,-4811.338623,-13323.706956,-13253.452115
20185.558603,-6587.832884,-17098.757260,-13253.452115
20185.558936,-6661.853478,-20133.601622,-8656.879127
20185.559269,-3923.091493,-18949.272115,-1915.238745
20185.559602,0.000000,-15470.304188,8503.660028
20185.559936,4663.297435,-7179.997637,10418.898773
20185.560269,7105.977043,-3627.009116,16394.443657
20185.560602,10658.965565,0.000000,15551.738609
20185.560935,8216.285956,592.164754,9729.412825
20185.561268,5255.462188,-74.020594,2757.943793
20185.561602,1776.494261,-4737.318029,-3064.381992
20185.561935,-3552.988522,-8364.327145,-9959.241474
20185.562268,-6217.729913,-9844.739029,-14709.033562
20185.562601,-4811.338623,-18949.272115,-12334.137518
20185.562934,-6513.812290,-16654.633695,-10418.898773
20185.563268,-4441.235652,-19171.333898,-1072.533697
20185.563601,-74.020594,-14804.118840,3600.648841
20185.563934,2368.659014,-7846.182985,8580.269578
20185.564267,6661.853478,-4367.215058,13176.842566
20185.564600,10066.800811,-148.041188,12793.794817
20185.564934,8364.327145,-814.226536,9806.022374
20185.565267,7402.059420,-1258.350101,4903.011187
20185.565600,3478.967927,-3034.844362,-4903.011187
20185.565933,-1184.329507,-8882.471304,-7584.345430
20185.566266,-666.185348,-14211.954086,-10495.508323
20185.566600,-6365.771101,-16654.633695,-12257.527968
20185.566933,-7105.977043,-19023.292709,-10418.898773
20185.567266,-6513.812290,-20873.807564,-3447.429741
20185.567599,-2220.617826,-15766.386565,4673.182538
20185.567932,3775.050304,-9548.656652,12257.527968
20185.568266,8290.306550,-3034.844362,15934.786358
20185.568599,8808.450710,1406.391290,13330.061665
20185.568932,6069.688724,1184.329507,8810.098227
20185.569265,3701.029710,0.000000,2987.772442
20185.569598,-592.164754,-4515.256246,-4136.915689
20185.569932,-5921.647536,-7772.162391,-9806.022374
20185.570265,-6587.832884,-13323.706956,-14479.204912
20185.570598,-10955.047942,-16654.633695,-13483.280765
20185.570931,-8956.491898,-21317.931130,-9882.631924
20185.571264,-7179.997637,-19837.519246,-3753.867940
20185.571598,-3256.906145,-12805.562797,6128.763984
20185.571931,2516.700203,-9104.533087,12563.966167
20185.572264,5847.626942,-2960.823768,15245.300410
20185.572597,5477.523971,-148.041188,13253.452115
20185.572930,5107.421000,0.000000,9422.974625
20185.573264,3478.967927,-592.164754,1455.581446
20185.573597,-1776.494261,-4219.173869,-4903.011187
20185.573930,-4737.318029,-9326.594869,-7737.564530
20185.574263,-6883.915261,-11769.274478,-13942.938064
20185.574596,-7105.977043,-17987.004391,-10495.508323
20185.574930,-7550.100608,-18949.272115,-8963.317327
20185.575263,-5329.482782,-18875.251521,-2451.505594
20185.575596,-1480.411884,-15470.304188,4673.182538
20185.575929,3182.885551,-9474.636058,10342.289223
20185.576263,8216.285956,-1776.494261,9806.022374
20185.576596,8290.306550,-518.144159,14172.766713
20185.576929,9474.636058,-1184.329507,11568.042020
20185.577262,7920.203579,370.102971,3370.820191
20185.577595,3182.885551,-5329.482782,-2681.334243
20185.577929,-666.185348,-7031.956449,-9882.631924
20185.578262,-4811.338623,-13693.809927,-13176.842566
20185.578595,-5477.523971,-17172.777854,-13176.842566
20185.578928,-5551.544565,-18431.127956,-8503.660028
20185.579261,-3552.988522,-18135.045579,-2451.505594
20185.579595,4071.132681,-16580.613101,4826.401637
20185.579928,3775.050304,-7476.080014,9806.022374
20185.580261,5921.647536,-4219.173869,14709.033562
20185.580594,10584.944971,0.000000,11874.480219
20185.580927,6291.750507,-962.267725,8733.488677
20185.581261,6513.812290,666.185348,3524.039291
20185.581594,2294.638420,-5699.585753,-1762.019645
20185.581927,-1184.329507,-6587.832884,-9499.584175
20185.582260,-3552.988522,-11917.315666,-11031.775171
20185.582593,-3849.070898,-16358.551318,-12180.918418
20185.582927,-5625.565159,-20207.622217,-9576.193725
20185.583260,-4219.173869,-21317.931130,-2528.115143
20185.583593,-74.020594,-18357.107362,3294.210641
20185.583926,2886.803174,-9622.677246,8580.269578
20185.584259,8290.306550,-3627.009116,14709.033562
20185.584593,9770.718434,-888.247130,16164.615008
20185.584926,9474.636058,1110.308913,11644.651570
20185.585259,7624.121203,0.000000,5132.839837
20185.585592,2812.782580,-4885.359217,-995.924147
20185.585925,-1184.329507,-7031.956449,-8044.002729
20185.586258,-6587.832884,-12435.459826,-14172.766713
20185.586591,-7698.141797,-16950.716072,-14709.033562
20185.586924,-11843.295072,-19615.457463,-9499.584175
20185.587257,-5699.585753,-20429.683999,-5286.058936
20185.587590,-3108.864956,-13841.851115,2451.505594
20185.587923,0.000000,-8068.244768,11031.775171
20185.588257,7031.956449,-4737.318029,14632.424012
20185.588590,5773.606348,222.061783,13483.280765
20185.588923,4959.379811,1702.473667,9806.022374
20185.589256,3552.988522,-74.020594,5286.058936
20185.589589,518.144159,-4145.153275,-2068.457845
20185.589922,-4737.318029,-8216.285956,-6665.030833
20185.590255,-7179.997637,-13027.624579,-13559.890315
20185.590588,-9178.553681,-15470.304188,-13483.280765
20185.590921,-9178.553681,-20059.581028,-8886.707777
20185.591254,-7179.997637,-18653.189738,-6128.763984
20185.591587,-3775.050304,-17690.922014,4519.963438
20185.591921,1332.370696,-9918.759623,11261.603821
20185.592254,5329.482782,-3552.988522,15092.081311
20185.592587,6217.729913,2294.638420,13483.280765
20185.592920,6513.812290,0.000000,13406.671215
20185.593253,5255.462188,2294.638420,3064.381992
20185.593586,0.000000,-1850.514855,-2451.505594
20185.593919,-2738.761985,-9474.636058,-8044.002729
20185.594252,-7698.141797,-11029.068536,-14709.033562
20185.594585,-6883.915261,-18579.169144,-13100.233016
20185.594918,-6587.832884,-19023.292709,-10035.851024
20185.595251,-4219.173869,-18875.251521,-3677.258390
20185.595585,0.000000,-15174.221811,4903.011187
20185.595918,7031.956449,-13027.624579,12793.794817
20185.596251,8216.285956,-4145.153275,12487.356617
20185.596584,9474.636058,-666.185348,12257.527968
20185.596917,9400.615463,-2368.659014,11568.042020
20185.597250,6069.688724,1110.308913,3983.696590
20185.597583,3552.988522,-4737.318029,-1302.362347
20185.597916,-888.247130,-7179.997637,-8810.098227
20185.598249,-4145.153275,-11769.274478,-12793.794817
20185.598582,-5699.585753,-17394.839637,-14709.033562
20185.598915,-5995.668130,-19911.539840,-10342.289223
20185.599249,-6513.812290,-19911.539840,-4903.011187
20185.599582,-1628.453072,-16950.716072,4826.401637
20185.599915,4071.132681,-10066.800811,10342.289223
20185.600248,7920.203579,-1850.514855,13789.718964
20185.600581,10066.800811,-1184.329507,15858.176809
20185.600914,9400.615463,0.000000,9729.412825
20185.601247,6883.915261,1998.556043,3217.601092
20185.601580,4663.297435,-4737.318029,-1302.362347
20185.601913,-2368.659014,-8142.265362,-10189.070123
20185.602246,-5921.647536,-13175.665768,-14709.033562
20185.602580,-6513.812290,-19467.416275,-12947.013916
20185.602913,-8290.306550,-19319.375086,-9499.584175
20185.603246,-4219.173869,-18431.127956,-6128.763984
20185.603579,-3404.947333,-16284.530724,6052.154434
20185.603912,2738.761985,-9474.636058,12180.918418
20185.604245,7476.080014,-3552.988522,14632.424012
20185.604578,6513.812290,2294.638420,14172.766713
20185.604911,6217.729913,1258.350101,9959.241474
20185.605244,3775.050304,296.082377,3907.087040
20185.605577,962.267725,-5033.400406,-2834.553343
20185.605910,-3849.070898,-8438.347739,-8656.879127
20185.606244,-5995.668130,-11769.274478,-15475.129060
20185.606577,-4811.338623,-21317.931130,-13559.890315
20185.606910,-8512.368333,-20207.622217,-11644.651570
20185.607243,-7402.059420,-21021.848753,-4903.011187
20185.607576,-2072.576638,-17468.860231,4519.963438
20185.607909,3552.988522,-10140.821405,13406.671215
20185.608242,7550.100608,-2294.638420,16624.272307
20185.608575,8734.430116,592.164754,15092.081311
20185.608908,8438.347739,2368.659014,9729.412825
20185.609241,3552.988522,1702.473667,6741.640382
20185.609574,4663.297435,-2072.576638,-3064.381992
20185.609908,-2590.720797,-5995.668130,-9806.022374
20185.610241,-4737.318029,-13619.789333,-13559.890315
20185.610574,-5995.668130,-18949.272115,-13559.890315
20185.610907,-6735.874072,-20725.766376,-11414.822920
20185.611240,-5255.462188,-19985.560434,-4213.525239
20185.611573,-1850.514855,-16432.571912,3524.039291
20185.611906,3256.906145,-9770.718434,11261.603821
20185.612239,7920.203579,-5921.647536,15858.176809
20185.612572,8660.409521,1110.308913,12257.527968
20185.612905,8882.471304,1702.473667,9806.022374
20185.613238,9400.615463,0.000000,5745.716235
20185.613572,6439.791695,-3552.988522,-1302.362347
20185.613905,-222.061783,-8512.368333,-8197.221829
20185.614238,-3256.906145,-11991.336260,-14019.547613
20185.614571,-5847.626942,-19837.519246,-13559.890315
20185.614904,-6735.874072,-20355.663405,-11874.480219
20185.615237,-6957.935855,-23390.507767,-5362.668486
20185.615570,-2664.741391,-17912.983796,3294.210641
20185.615903,3404.947333,-10214.842000,12104.308868
20185.616236,7476.080014,-3923.091493,16471.053207
20185.616569,9252.574275,4071.132681,13789.718964
20185.616902,7105.977043,1702.473667,12487.356617
20185.617236,8142.265362,296.082377,7890.783629
20185.617569,2294.638420,-1036.288319,-2451.505594
20185.617902,-4145.153275,-7994.224174,-8733.488677
20185.618235,-5403.503377,-13027.624579,-14785.643111
20185.618568,-9474.636058,-19837.519246,-14249.376263
20185.618901,-7920.203579,-20355.663405,-11644.651570
20185.619234,-7476.080014,-20725.766376,-5209.449386
20185.619567,-4441.235652,-16062.468941,2451.505594
20185.619900,1184.329507,-10140.821405,13713.109414
20185.620233,6439.791695,-3552.988522,14938.862211
20185.620566,7920.203579,1480.411884,12257.527968
20185.620900,5329.482782,1406.391290,12257.527968
20185.621233,3478.967927,2294.638420,3677.258390
20185.621566,1036.288319,-2072.576638,-2145.067394
20185.621899,-3997.112087,-7105.977043,-9116.536426
20185.622232,-6439.791695,-11547.212695,-14096.157163
20185.622565,-6439.791695,-18283.086767,-12334.137518
20185.622898,-7328.038826,-22946.384202,-9882.631924
20185.623231,-9030.512492,-19023.292709,-6128.763984
20185.623564,-4441.235652,-17542.880825,1225.752797
20185.623897,2368.659014,-11251.130318,11414.822920
20185.624230,5921.647536,-3775.050304,16547.662757
20185.624564,9992.780217,0.000000,14402.595362
20185.624897,9326.594869,1998.556043,12027.699319
20185.625230,7772.162391,1110.308913,6588.421283
20185.625563,5255.462188,-2368.659014,-76.609550
20185.625896,-74.020594,-8290.306550,-8656.879127
20185.626229,-4811.338623,-10140.821405,-15934.786358
20185.626562,-7105.977043,-17838.963202,-13789.718964
20185.626895,-4811.338623,-22206.178260,-9882.631924
20185.627228,-4219.173869,-20725.766376,-4979.620737
20185.627561,-1110.308913,-17098.757260,3294.210641
20185.627894,3923.091493,-9548.656652,11414.822920
20185.628228,8364.327145,-3627.009116,14938.862211
20185.628561,8290.306550,-74.020594,13789.718964
20185.628894,8512.368333,3923.091493,8733.488677
20185.629227,7105.977043,-1184.329507,7354.516781
20185.629560,6439.791695,-2368.659014,-1915.238745
20185.629893,-2368.659014,-7179.997637,-7660.954980
20185.630226,-3330.926739,-12435.459826,-11721.261119
20185.630559,-7105.977043,-18135.045579,-13942.938064
20185.630892,-8660.409521,-21317.931130,-12640.575717
20185.631225,-7994.224174,-21317.931130,-6818.249932
20185.631558,-5329.482782,-16654.633695,1225.752797
20185.631892,3034.844362,-10140.821405,10572.117872
20185.632225,8068.244768,-3256.906145,16394.443657
20185.632558,10584.944971,962.267725,16547.662757
20185.632891,9918.759623,1924.535449,13176.842566
20185.633224,5921.647536,2886.803174,5362.668486
20185.633557,4663.297435,-4737.318029,-1302.362347
20185.633890,-4737.318029,-6291.750507,-9193.145976
20185.634223,-5773.606348,-13027.624579,-14785.643111
20185.634556,-7994.224174,-19837.519246,-13789.718964
20185.634889,-9474.636058,-20207.622217,-11797.870669
20185.635222,-8364.327145,-20355.663405,-6052.154434
20185.635556,-3923.091493,-16950.716072,3447.429741
20185.635889,1332.370696,-9548.656652,11568.042020
20185.636222,5921.647536,-3775.050304,15934.786358
20185.636555,8216.285956,2294.638420,12870.404366
20185.636888,5699.585753,3182.885551,9806.022374
20185.637221,4737.318029,0.000000,6511.811733
20185.637554,2294.638420,-2960.823768,-1915.238745
20185.637887,-3552.988522,-7624.121203,-8350.440928
20185.638220,-5921.647536,-11325.150913,-13866.328514
20185.638553,-8438.347739,-17764.942608,-13866.328514
20185.638886,-8586.388927,-20059.581028,-11644.651570
20185.639220,-6661.853478,-22206.178260,-4979.620737
20185.639553,-4737.318029,-15470.304188,2451.505594
20185.639886,1850.514855,-11029.068536,9959.241474
20185.640219,6809.894666,-4737.318029,17083.929605
20185.640552,7846.182985,2886.803174,13789.718964
20185.640885,9104.533087,1184.329507,11414.822920
20185.641218,7105.977043,2146.597232,5822.325785
20185.641551,3552.988522,-2146.597232,-536.266849
20185.641884,-2294.638420,-8068.244768,-9269.755526
20185.642217,-4811.338623,-11843.295072,-14938.862211
20185.642550,-9474.636058,-17838.963202,-12257.527968
20185.642884,-3923.091493,-21317.931130,-10495.508323
20185.643217,-3923.091493,-21317.931130,-4979.620737
20185.643550,-2368.659014,-14285.974681,2451.505594
20185.643883,5847.626942,-11251.130318,10648.727422
20185.644216,7994.224174,-4885.359217,15245.300410
20185.644549,9770.718434,148.041188,13483.280765
20185.644882,8438.347739,0.000000,9806.022374
20185.645215,7624.121203,0.000000,4826.401637
20185.645548,4441.235652,-2220.617826,-383.047749
20185.645881,0.000000,-6439.791695,-7967.393179
20185.646215,-4219.173869,-11251.130318,-12947.013916
20185.646548,-7698.141797,-17542.880825,-13176.842566
20185.646881,-5403.503377,-21317.931130,-11721.261119
20185.647214,-8512.368333,-19171.333898,-6741.640382
20185.647547,-5921.647536,-17246.798449,4136.915689
20185.647880,3478.967927,-11843.295072,10648.727422
20185.648213,5329.482782,-1554.432478,12870.404366
20185.648546,9622.677246,0.000000,14632.424012
20185.648879,8068.244768,740.205942,11414.822920
20185.649212,6957.935855,666.185348,5745.716235
20185.649545,4071.132681,-2812.782580,-76.609550
20185.649879,-2442.679609,-9474.636058,-7431.126331
20185.650212,-8290.306550,-11917.315666,-12257.527968
20185.650545,-6883.915261,-18949.272115,-11414.822920
20185.650878,-6587.832884,-20725.766376,-10495.508323
20185.651211,-7179.997637,-19467.416275,-3983.696590
20185.651544,-4589.276840,-16358.551318,1685.410096
20185.651877,148.041188,-9844.739029,10265.679673
20185.652210,4737.318029,-3849.070898,15398.519510
20185.652543,7031.956449,1924.535449,13406.671215
20185.652876,8142.265362,0.000000,11568.042020
20185.653209,1184.329507,1998.556043,5822.325785
20185.653543,3182.885551,-3256.906145,-1302.362347
20185.653876,-3330.926739,-7105.977043,-10189.070123
20185.654209,-5255.462188,-12213.398043,-13559.890315
20185.654542,-8734.430116,-17838.963202,-14402.595362
20185.654875,-8142.265362,-21021.848753,-11644.651570
20185.655208,-7476.080014,-21095.869347,-4979.620737
20185.655541,-4737.318029,-16654.633695,2451.505594
20185.655874,3478.967927,-10658.965565,9729.412825
20185.656207,7402.059420,-4293.194464,17160.539155
20185.656540,11473.192101,0.000000,15858.176809
20185.656873,7328.038826,2886.803174,11031.775171
20185.657207,5921.647536,2294.638420,6128.763984
20185.657540,4737.318029,-2516.700203,842.705048
20185.657873,-1036.288319,-7328.038826,-7660.954980
20185.658206,-4071.132681,-11251.130318,-14555.814462
20185.658539,-5403.503377,-21317.931130,-13559.890315
20185.658872,-7328.038826,-19023.292709,-13483.280765
20185.659205,-3627.009116,-21317.931130,-5132.839837
20185.659538,-1850.514855,-16580.613101,1762.019645
20185.659871,2368.659014,-9548.656652,11338.213370
20185.660204,7698.141797,-3627.009116,15475.129060
20185.660537,9622.677246,666.185348,14402.595362
20185.660871,8734.430116,740.205942,9729.412825
20185.661204,8142.265362,1554.432478,4903.011187
20185.661537,7031.956449,-4737.318029,-76.609550
20185.661870,1110.308913,-6587.832884,-7354.516781
20185.662203,-2590.720797,-12731.542202,-12640.575717
20185.662536,-5921.647536,-18283.086767,-13866.328514
20185.662869,-6439.791695,-21317.931130,-11414.822920
20185.663202,-4737.318029,-21317.931130,-4519.963438
20185.663535,-3552.988522,-17542.880825,2451.505594
20185.663868,0.000000,-9548.656652,10112.460574
20185.664201,6957.935855,-4737.318029,15858.176809
20185.664535,8216.285956,740.205942,14325.985813
20185.664868,6513.812290,1406.391290,13023.623466
20185.665201,5847.626942,2368.659014,5669.106685
20185.665534,2442.679609,-2960.823768,459.657299
20185.665867,-1998.556043,-7105.977043,-7890.783629
20185.666200,-6143.709319,-13027.624579,-13866.328514
20185.666533,-9252.574275,-17246.798449,-14709.033562
20185.666866,-8068.244768,-22354.219448,-10418.898773
20185.667199,-5403.503377,-21317.931130,-6205.373534
20185.667532,-6217.729913,-16062.468941,1225.752797
20185.667865,-74.020594,-12583.501014,9729.412825
20185.668199,4737.318029,-4515.256246,15168.690860
20185.668532,6735.874072,518.144159,15398.519510
20185.668865,6069.688724,1776.494261,12257.527968
20185.669198,5107.421000,3701.029710,5132.839837
20185.669531,0.000000,-74.020594,0.000000
20185.669864,-518.144159,-7105.977043,-6511.811733
20185.670197,-5107.421000,-11843.295072,-13559.890315
20185.670530,-9030.512492,-16654.633695,-14096.157163
20185.670863,-8660.409521,-20429.683999,-13789.718964
20185.671196,-9326.594869,-21317.931130,-8197.221829
20185.671529,-6661.853478,-18579.169144,0.000000
20185.671863,1110.308913,-12435.459826,8503.660028
20185.672196,6217.729913,-3182.885551,15015.471761
20185.672529,9030.512492,-962.267725,18922.558801
20185.672862,10584.944971,1184.329507,11568.042020
20185.673195,7105.977043,2886.803174,8580.269578
20185.673528,7550.100608,-2072.576638,4826.401637
20185.673861,2294.638420,-5329.482782,-7814.174080
20185.674194,-3627.009116,-12435.459826,-13023.623466
20185.674527,-6809.894666,-19245.354492,-15092.081311
20185.674860,-7402.059420,-21614.013506,-13023.623466
20185.675193,-6217.729913,-20503.704593,-7354.516781
20185.675527,-3034.844362,-18357.107362,536.266849
20185.675860,2812.782580,-11695.253884,9269.755526
20185.676193,8216.285956,-3923.091493,15321.909960
20185.676526,10881.027347,0.000000,17083.929605
20185.676859,8734.430116,2368.659014,11874.480219
20185.677192,6217.729913,3182.885551,6741.640382
20185.677525,5329.482782,-2960.823768,2451.505594
20185.677858,2516.700203,-7105.977043,-6818.249932
20185.678191,-3627.009116,-11843.295072,-13559.890315
20185.678524,-6069.688724,-18505.148550,-15092.081311
20185.678857,-7994.224174,-21539.992912,-13483.280765
20185.679191,-7402.059420,-22206.178260,-7814.174080
20185.679524,-5773.606348,-19171.333898,-76.609550
20185.679857,2072.576638,-13619.789333,9729.412825
20185.680190,2960.823768,-2442.679609,17160.539155
20185.680523,10066.800811,74.020594,18769.339701
20185.680856,10584.944971,1184.329507,14325.985813
20185.681189,8142.265362,4663.297435,7354.516781
20185.681522,5551.544565,-1776.494261,2374.896044
20185.681855,148.041188,-6217.729913,-6894.859482
20185.682188,-6735.874072,-12065.356855,-14785.643111
20185.682521,-9326.594869,-18727.210333,-17083.929605
20185.682855,-9548.656652,-22502.260637,-13559.890315
20185.683188,-7698.141797,-22502.260637,-4979.620737
20185.683521,-3923.091493,-18949.272115,-76.609550
20185.683854,0.000000,-10732.986159,9806.022374
20185.684187,5329.482782,-5107.421000,17620.196454
20185.684520,7105.977043,1998.556043,16547.662757
20185.684853,8438.347739,2146.597232,12640.575717
20185.685186,6587.832884,2368.659014,7354.516781
20185.685519,2812.782580,-1406.391290,1072.533697
20185.685853,-1184.329507,-4811.338623,-8886.707777
20185.686186,-3627.009116,-12435.459826,-13559.890315
20185.686519,-9326.594869,-16284.530724,-17007.320056
20185.686852,-11251.130318,-20503.704593,-12410.747068
20185.687185,-7179.997637,-23686.590144,-8044.002729
20185.687518,-4885.359217,-19689.478057,-76.609550
20185.687851,0.000000,-11843.295072,8197.221829
20185.688185,6291.750507,-3923.091493,16164.615008
20185.688518,9622.677246,1036.288319,16854.100956
20185.688851,10066.800811,1554.432478,14709.033562
20185.689184,9400.615463,0.000000,6665.030833
20185.689517,2368.659014,-666.185348,0.000000
20185.689850,962.267725,-7698.141797,-6358.592633
20185.690184,-4219.173869,-14211.954086,-13559.890315
20185.690517,-7994.224174,-17394.839637,-15321.909960
20185.690850,-6883.915261,-21614.013506,-11568.042020
20185.691183,-6069.688724,-21095.869347,-6281.983084
20185.691516,-3108.864956,-17246.798449,1378.971896
20185.691849,3701.029710,-11917.315666,9806.022374
20185.692182,7550.100608,-5033.400406,15858.176809
20185.692516,9696.697840,222.061783,15858.176809
20185.692849,8734.430116,1258.350101,11568.042020
20185.693182,7031.956449,2368.659014,4826.401637
20185.693515,3478.967927,-74.020594,0.000000
20185.693848,0.000000,-5699.585753,-5592.497135
20185.694181,-3034.844362,-13027.624579,-13559.890315
20185.694514,-6587.832884,-16136.489536,-15321.909960
20185.694848,-7476.080014,-21021.848753,-11721.261119
20185.695181,-7476.080014,-21243.910535,-7814.174080
20185.695514,-4885.359217,-18949.272115,842.705048
20185.695847,962.267725,-12065.356855,8963.317327
20185.696180,3552.988522,-3034.844362,14709.033562
20185.696513,9992.780217,1406.391290,12563.966167
20185.696846,10881.027347,0.000000,13100.233016
20185.697180,8216.285956,2738.761985,6205.373534
20185.697513,3923.091493,-74.020594,0.000000
20185.697846,296.082377,-5107.421000,-6128.763984
20185.698179,-5181.441594,-11917.315666,-12487.356617
20185.698512,-7179.997637,-18209.066173,-14096.157163
20185.698845,-8660.409521,-21614.013506,-11184.994271
20185.699178,-7031.956449,-21317.931130,-5515.887586
20185.699512,-5995.668130,-16062.468941,0.000000
20185.699845,2220.617826,-12139.377449,9729.412825
20185.700178,5847.626942,-4441.235652,13253.452115
20185.700511,7105.977043,2294.638420,13789.718964
20185.700844,8290.306550,592.164754,13483.280765
20185.701177,6143.709319,1924.535449,6971.469032
20185.701510,3256.906145,-962.267725,689.485948
20185.701844,-370.102971,-5477.523971,-6894.859482
20185.702177,-4293.194464,-12435.459826,-13559.890315
20185.702510,-9474.636058,-16062.468941,-14402.595362
20185.702843,-8364.327145,-20799.786970,-14479.204912
20185.703176,-7772.162391,-20503.704593,-9806.022374
20185.703509,-5329.482782,-19319.375086,1302.362347
20185.703842,2294.638420,-13027.624579,9729.412825
20185.704176,6291.750507,-5847.626942,14938.862211
20185.704509,8734.430116,814.226536,16317.834107
20185.704842,8142.265362,2146.597232,12563.966167
20185.705175,7624.121203,2812.782580,6971.469032
20185.705508,6291.750507,-3256.906145,3600.648841
20185.705841,666.185348,-3034.844362,-7354.516781
20185.706175,-4145.153275,-11621.233289,-13483.280765
20185.706508,-6513.812290,-18949.272115,-13559.890315
20185.706841,-7179.997637,-23094.425390,-12947.013916
20185.707174,-6809.894666,-21762.054695,-7584.345430
20185.707507,-3701.029710,-18135.045579,612.876398
20185.707840,814.226536,-12435.459826,7660.954980
20185.708173,5107.421000,-4811.338623,14862.252661
20185.708507,9918.759623,-1776.494261,17083.929605
20185.708840,9178.553681,2812.782580,13023.623466
20185.709173,7550.100608,1184.329507,7890.783629
20185.709506,4737.318029,-370.102971,2221.676944
20185.709839,370.102971,-3775.050304,-6435.202183
20185.710172,-3256.906145,-11547.212695,-11491.432470
20185.710505,-4811.338623,-18949.272115,-14785.643111
20185.710839,-9400.615463,-20503.704593,-14555.814462
20185.711172,-7105.977043,-21762.054695,-7431.126331
20185.711505,-4811.338623,-20725.766376,-1762.019645
20185.711838,-74.020594,-12879.583391,7124.688131
20185.712171,3997.112087,-4811.338623,13942.938064
20185.712504,9696.697840,888.247130,16317.834107
20185.712837,8290.306550,2294.638420,14709.033562
20185.713171,8290.306550,592.164754,9729.412825
20185.713504,5255.462188,444.123565,612.876398
20185.713837,-2368.659014,-4811.338623,-4903.011187
20185.714170,-3627.009116,-12583.501014,-12027.699319
20185.714503,-8068.244768,-16654.633695,-15934.786358
20185.714836,-8068.244768,-22428.240043,-12870.404366
20185.715169,-7772.162391,-20947.828159,-8580.269578
20185.715503,-4367.215058,-18875.251521,-306.438199
20185.715836,814.226536,-12879.583391,9039.926876
20185.716169,6439.791695,-9178.553681,16471.053207
20185.716502,8512.368333,1998.556043,14709.033562
20185.716835,7698.141797,1998.556043,12870.404366
20185.717168,8216.285956,592.164754,7890.783629
20185.717501,2960.823768,-370.102971,2757.943793
20185.717835,666.185348,-5477.523971,-5515.887586
20185.718168,-2812.782580,-10881.027347,-11721.261119
20185.718501,-7105.977043,-16432.571912,-14709.033562
20185.718834,-9844.739029,-22206.178260,-14172.766713
20185.719167,-8364.327145,-22798.343014,-10189.070123
20185.719500,-6143.709319,-19023.292709,-3677.258390
20185.719833,-2072.576638,-13693.809927,9116.536426
20185.720167,6217.729913,-6069.688724,17083.929605
20185.720500,11177.109724,0.000000,17696.806004
20185.720833,8882.471304,3330.926739,14938.862211
20185.721166,8586.388927,2960.823768,8427.050478
20185.721499,6143.709319,-444.123565,2757.943793
20185.721832,0.000000,-4219.173869,-5975.544884
20185.722166,-3034.844362,-9548.656652,-14709.033562
20185.722499,-7698.141797,-18431.127956,-17160.539155
20185.722832,-9474.636058,-23464.528361,-12334.137518
20185.723165,-7179.997637,-20577.725188,-9882.631924
20185.723498,-2442.679609,-20133.601622,-76.609550
20185.723831,0.000000,-11917.315666,7967.393179
20185.724164,6365.771101,-5699.585753,15092.081311
20185.724498,9770.718434,962.267725,17237.148705
20185.724831,8586.388927,2886.803174,13636.499864
20185.725164,7031.956449,2738.761985,6435.202183
20185.725497,5181.441594,-592.164754,2145.067394
20185.725830,-296.082377,-6069.688724,-5592.497135
20185.726163,-2960.823768,-9548.656652,-12257.527968
20185.726496,-8586.388927,-16062.468941,-16317.834107
20185.726830,-7772.162391,-23686.590144,-13559.890315
20185.727163,-9474.636058,-20207.622217,-9193.145976
20185.727496,-5033.400406,-19985.560434,-76.609550
20185.727829,1110.308913,-12879.583391,7967.393179
20185.728162,4737.318029,-4811.338623,15015.471761
20185.728495,11177.109724,1258.350101,16317.834107
20185.728828,10214.842000,1184.329507,14479.204912
20185.729162,9622.677246,2368.659014,6971.469032
20185.729495,5921.647536,-1554.432478,1532.190996
20185.729828,1406.391290,-4811.338623,-8120.612279
20185.730161,-5625.565159,-9548.656652,-13483.280765
20185.730494,-7179.997637,-18949.272115,-15704.957709
20185.730827,-9548.656652,-21910.095883,-14938.862211
20185.731160,-8734.430116,-22280.198854,-7431.126331
20185.731494,-4145.153275,-18061.024985,459.657299
20185.731827,-814.226536,-12065.356855,8580.269578
20185.732160,4737.318029,-4219.173869,13942.938064
20185.732493,9400.615463,0.000000,17083.929605
20185.732826,7031.956449,4071.132681,10112.460574
20185.733159,6661.853478,2294.638420,4903.011187
20185.733492,4737.318029,-3182.885551,3600.648841
20185.733826,0.000000,-3627.009116,-7354.516781
20185.734159,-2516.700203,-11103.089130,-12027.699319
20185.734492,-7105.977043,-16210.510130,-15168.690860
20185.734825,-8364.327145,-22502.260637,-13100.233016
20185.735158,-8956.491898,-21317.931130,-8427.050478
20185.735491,-5551.544565,-18949.272115,-1915.238745
20185.735824,-3849.070898,-10732.986159,7354.516781
20185.736158,6217.729913,-5847.626942,15858.176809
20185.736491,8512.368333,2368.659014,14632.424012
20185.736824,5921.647536,4663.297435,13483.280765
20185.737157,8216.285956,2368.659014,6052.154434
20185.737490,3849.070898,-2072.576638,1149.143247
20185.737823,-1110.308913,-5847.626942,-7354.516781
20185.738156,-4071.132681,-11473.192101,-12947.013916
20185.738490,-7105.977043,-18653.189738,-13559.890315
20185.738823,-7328.038826,-21910.095883,-10801.946522
20185.739156,-6291.750507,-20207.622217,-6128.763984
20185.739489,-3701.029710,-17320.819043,459.657299
20185.739822,0.000000,-12509.480420,9193.145976
20185.740155,6439.791695,-7105.977043,14325.985813
20185.740489,7920.203579,1110.308913,13636.499864
20185.740822,7031.956449,2886.803174,9806.022374
20185.741155,7105.977043,592.164754,7277.907231
20185.741488,4811.338623,-962.267725,612.876398
20185.741821,2072.576638,-5181.441594,-4443.353888
20185.742154,-1110.308913,-9844.739029,-10342.289223
20185.742487,-5699.585753,-16358.551318,-14325.985813
20185.742821,-5403.503377,-22206.178260,-12334.137518
20185.743154,-6957.935855,-22798.343014,-6818.249932
20185.743487,-5773.606348,-17246.798449,0.000000
20185.743820,-1480.411884,-13397.727550,6128.763984
20185.744153,5477.523971,-6365.771101,13406.671215
20185.744486,9104.533087,0.000000,15321.909960
20185.744819,9400.615463,2368.659014,12717.185267
20185.745153,8882.471304,3404.947333,6894.859482
20185.745486,6735.874072,-1332.370696,2298.286494
20185.745819,518.144159,-4145.153275,-6052.154434
20185.746152,-1850.514855,-11843.295072,-11108.384721
20185.746485,-8290.306550,-16654.633695,-14709.033562
20185.746818,-6661.853478,-23686.590144,-11108.384721
20185.747151,-4959.379811,-22502.260637,-5592.497135
20185.747485,-3182.885551,-18357.107362,536.266849
20185.747818,-1184.329507,-11621.233289,7354.516781
20185.748151,4515.256246,-5107.421000,13330.061665
20185.748484,7920.203579,-518.144159,16164.615008
20185.748817,5329.482782,2294.638420,12870.404366
20185.749150,7031.956449,2664.741391,5132.839837
20185.749483,2960.823768,-2442.679609,2451.505594
20185.749817,2294.638420,-6513.812290,-4979.620737
20185.750150,-3182.885551,-8660.409521,-11031.775171
20185.750483,-7105.977043,-16062.468941,-13483.280765
20185.750816,-8882.471304,-21762.054695,-12563.966167
20185.751149,-10658.965565,-21836.075289,-9346.365076
20185.751482,-6809.894666,-20133.601622,-2221.676944
20185.751815,-1850.514855,-15988.448347,7890.783629
20185.752149,2368.659014,-3034.844362,12257.527968
20185.752482,8512.368333,0.000000,17083.929605
20185.752815,9400.615463,2368.659014,13406.671215
20185.753148,6217.729913,4071.132681,9806.022374
20185.753481,4737.318029,-666.185348,3524.039291
20185.753814,592.164754,-4811.338623,-4979.620737
20185.754147,-3997.112087,-9844.739029,-11951.089769
20185.754481,-7031.956449,-17838.963202,-15015.471761
20185.754814,-6143.709319,-24278.754898,-11414.822920
20185.755147,-8882.471304,-20503.704593,-8273.831378
20185.755480,-4515.256246,-18505.148550,-1608.800546
20185.755813,-888.247130,-12953.603985,6435.202183
20185.756146,4811.338623,-5921.647536,13406.671215
20185.756480,8438.347739,-1924.535449,18233.072852
20185.756813,7920.203579,3404.947333,12257.527968
20185.757146,4737.318029,3478.967927,9193.145976
20185.757479,6439.791695,-1184.329507,1762.019645
20185.757812,2072.576638,-2442.679609,-4596.572988
20185.758145,-2072.576638,-9844.739029,-8427.050478
20185.758478,-5403.503377,-15470.304188,-15321.909960
20185.758812,-7179.997637,-22280.198854,-13713.109414
20185.759145,-8068.244768,-22650.301825,-9652.803275
20185.759478,-3627.009116,-20725.766376,-1302.362347
20185.759811,-666.185348,-12509.480420,4903.011187
20185.760144,4737.318029,-5403.503377,11031.775171
20185.760477,9474.636058,-1332.370696,17083.929605
20185.760810,11177.109724,1924.535449,14019.547613
20185.761144,10881.027347,2368.659014,9116.536426
20185.761477,6217.729913,-1776.494261,3907.087040
20185.761810,1776.494261,-4071.132681,-4596.572988
20185.762143,-2664.741391,-10436.903782,-10648.727422
20185.762476,-5921.647536,-15914.427753,-15398.519510
20185.762809,-8216.285956,-19023.292709,-13483.280765
20185.763142,-7550.100608,-23020.404796,-7737.564530
20185.763476,-2590.720797,-20133.601622,-76.609550
20185.763809,-2442.679609,-13693.809927,3983.696590
20185.764142,3478.967927,-6365.771101,9806.022374
20185.764475,7476.080014,-888.247130,14938.862211
20185.764808,8956.491898,1480.411884,13942.938064
20185.765141,8142.265362,2886.803174,8886.707777
20185.765474,4145.153275,-1258.350101,4290.134789
20185.765808,2368.659014,-4441.235652,-1685.410096
20185.766141,-666.185348,-11251.130318,-9882.631924
20185.766474,-5625.565159,-14878.139434,-14096.157163
20185.766807,-10362.883188,-20207.622217,-11338.213370
20185.767140,-9548.656652,-23094.425390,-11644.651570
20185.767473,-7402.059420,-20207.622217,-3064.381992
20185.767806,-3627.009116,-14211.954086,4903.011187
20185.768140,3256.906145,-6365.771101,12717.185267
20185.768473,7402.059420,-74.020594,16241.224558
20185.768806,9400.615463,2664.741391,13713.109414
20185.769139,8956.491898,3849.070898,9652.803275
20185.769472,5847.626942,-740.205942,3753.867940
20185.769805,2442.679609,-4441.235652,-4979.620737
20185.770138,-5033.400406,-11843.295072,-11721.261119
20185.770472,-9104.533087,-16062.468941,-16547.662757
20185.770805,-9548.656652,-23686.590144,-12640.575717
20185.771138,-8660.409521,-23390.507767,-10495.508323
20185.771471,-3923.091493,-18875.251521,-1608.800546
20185.771804,0.000000,-12953.603985,8197.221829
20185.772137,5329.482782,-5107.421000,14709.033562
20185.772470,8142.265362,0.000000,16164.615008
20185.772804,8142.265362,1406.391290,13253.452115
20185.773137,7846.182985,2072.576638,8197.221829
20185.773470,592.164754,-1258.350101,2451.505594
20185.773803,4367.215058,-5773.606348,-4366.744339
20185.774136,-2146.597232,-11843.295072,-9882.631924
20185.774469,-4737.318029,-14730.098246,-14555.814462
20185.774803,-7179.997637,-22502.260637,-13253.452115
20185.775136,-9474.636058,-22502.260637,-9576.193725
20185.775469,-5921.647536,-19689.478057,-1762.019645
20185.775802,-2442.679609,-14063.912898,6511.811733
20185.776135,4663.297435,-5921.647536,13406.671215
20185.776468,8438.347739,0.000000,19535.435199
20185.776801,12953.603985,2960.823768,14632.424012
20185.777135,7550.100608,4663.297435,9193.145976
20185.777468,5329.482782,-1850.514855,3983.696590
20185.777801,1110.308913,-3330.926739,-6435.202183
20185.778134,-4367.215058,-11473.192101,-12717.185267
20185.778467,-5699.585753,-16802.674883,-16241.224558
20185.778800,-8290.306550,-22872.363608,-13559.890315
20185.779133,-7920.203579,-19615.457463,-10955.165621
20185.779467,-1554.432478,-20725.766376,-76.609550
20185.779800,0.000000,-13027.624579,6052.154434
20185.780133,2960.823768,-4811.338623,12563.966167
20185.780466,9400.615463,-2368.659014,17083.929605
20185.780799,9474.636058,2886.803174,14096.157163
20185.781132,7476.080014,2220.617826,8350.440928
20185.781465,5403.503377,-1480.411884,2528.115143
20185.781799,2072.576638,-4589.276840,-4749.792088
20185.782132,-3256.906145,-10436.903782,-9346.365076
20185.782465,-2442.679609,-16580.613101,-14785.643111
20185.782798,-9252.574275,-20355.663405,-14402.595362
20185.783131,-10658.965565,-20207.622217,-9806.022374
20185.783464,-4219.173869,-21317.931130,-76.609550
20185.783797,-2368.659014,-12805.562797,7354.516781
20185.784131,2590.720797,-5329.482782,12257.527968
20185.784464,7031.956449,-592.164754,15628.348159
20185.784797,8364.327145,2886.803174,13483.280765
20185.785130,7105.977043,3478.967927,8886.707777
20185.785463,5551.544565,-888.247130,2068.457845
20185.785796,518.144159,-5181.441594,-5592.497135
20185.786130,-3997.112087,-10658.965565,-11414.822920
20185.786463,-6291.750507,-14878.139434,-15321.909960
20185.786796,-8290.306550,-20799.786970,-10265.679673
20185.787129,-5403.503377,-21317.931130,-7431.126331
20185.787462,-3627.009116,-17394.839637,-2451.505594
20185.787796,-1776.494261,-12509.480420,7354.516781
20185.788129,3182.885551,-7105.977043,11874.480219
20185.788462,7402.059420,-3256.906145,17083.929605
20185.788795,6735.874072,2812.782580,12257.527968
20185.789128,4885.359217,2738.761985,6741.640382
20185.789462,3552.988522,-1998.556043,2451.505594
20185.789795,2368.659014,-4367.215058,-1608.800546
20185.790128,-2442.679609,-9400.615463,-10418.898773
20185.790461,-3552.988522,-14285.974681,-13483.280765
20185.790794,-8290.306550,-22280.198854,-10572.117872
20185.791127,-8290.306550,-21688.034101,-9499.584175
20185.791461,-5921.647536,-19467.416275,-1378.971896
20185.791794,-2294.638420,-13841.851115,5592.497135
20185.792127,4663.297435,-6809.894666,11261.603821
20185.792460,7031.956449,-2072.576638,14632.424012
20185.792793,10362.883188,1184.329507,14632.424012
20185.793127,6809.894666,5255.462188,6128.763984
20185.793460,5921.647536,-2960.823768,3294.210641
20185.793793,3478.967927,-4145.153275,-4979.620737
20185.794126,-666.185348,-11473.192101,-8963.317327
20185.794459,-1998.556043,-15322.262999,-13023.623466
20185.794793,-5403.503377,-21539.992912,-11108.384721
20185.795126,-6291.750507,-20947.828159,-7431.126331
20185.795459,-5329.482782,-15470.304188,-2451.505594
20185.795792,-74.020594,-14211.954086,3907.087040
20185.796125,1776.494261,-7179.997637,7660.954980
20185.796458,6217.729913,-3552.988522,14325.985813
20185.796792,7624.121203,1480.411884,10418.898773
20185.797125,5625.565159,2886.803174,7048.078582
20185.797458,6439.791695,-592.164754,3600.648841
20185.797791,3404.947333,-4219.173869,-1302.362347
20185.798124,0.000000,-8364.327145,-7354.516781
20185.798458,-1628.453072,-15692.365970,-10035.851024
20185.798791,-7179.997637,-20281.642811,-14096.157163
20185.799124,-7179.997637,-23686.590144,-8656.879127
20185.799457,-5995.668130,-22502.260637,-1915.238745
20185.799790,-4145.153275,-13101.645173,3983.696590
20185.800123,0.000000,-5995.668130,11031.775171
20185.800457,5255.462188,-1110.308913,14096.157163
20185.800790,7328.038826,2664.741391,13253.452115
20185.801123,6143.709319,3330.926739,8503.660028
20185.801456,4663.297435,0.000000,2987.772442
20185.801789,666.185348,-2738.761985,-3677.258390
20185.802123,-3034.844362,-8808.450710,-10725.336972
20185.802456,-3997.112087,-15174.221811,-12334.137518
20185.802789,-7402.059420,-21021.848753,-12027.699319
20185.803122,-5477.523971,-21614.013506,-7431.126331
20185.803455,-5255.462188,-17394.839637,-2451.505594
20185.803789,-4737.318029,-14285.974681,6435.202183
20185.804122,2886.803174,-8290.306550,9116.536426
20185.804455,4589.276840,-1258.350101,12257.527968
20185.804788,7105.977043,666.185348,13942.938064
20185.805121,6217.729913,2294.638420,9116.536426
20185.805454,4737.318029,-370.102971,3983.696590
20185.805788,2664.741391,-2738.761985,-1915.238745
20185.806121,-74.020594,-9474.636058,-6818.249932
20185.806454,-3775.050304,-12657.521608,-11644.651570
20185.806787,-6291.750507,-22502.260637,-11108.384721
20185.807120,-6587.832884,-22502.260637,-10648.727422
20185.807454,-7105.977043,-19023.292709,-4290.134789
20185.807787,-666.185348,-15988.448347,4213.525239
20185.808120,2368.659014,-7328.038826,10189.070123
20185.808453,6809.894666,-888.247130,12947.013916
20185.808786,9030.512492,1628.453072,13330.061665
20185.809120,7476.080014,4071.132681,7660.954980
20185.809453,4145.153275,2294.638420,3677.258390
20185.809786,5551.544565,-4737.318029,-2528.115143
20185.810119,0.000000,-7179.997637,-10648.727422
20185.810452,-3997.112087,-15174.221811,-12180.918418
20185.810785,-4811.338623,-21317.931130,-13176.842566
20185.811119,-5847.626942,-21910.095883,-8963.317327
20185.811452,-5107.421000,-18949.272115,-3294.210641
20185.811785,-962.267725,-13915.871710,3983.696590
20185.812118,888.247130,-7179.997637,9806.022374
20185.812451,7550.100608,-1776.494261,14632.424012
