#time,accel_x,accel_y,accel_z
21850.297734,3478.967927,-9474.636058,-76.609550
21850.298068,1850.514855,-8660.409521,-3140.991542
21850.298402,1924.535449,-10288.862594,-3983.696590
21850.298736,2442.679609,-10214.842000,-3600.648841
21850.299070,2664.741391,-9548.656652,-1225.752797
21850.299405,7476.080014,-7772.162391,0.000000
21850.299739,9770.718434,-10658.965565,5439.278036
21850.300073,10288.862594,-8660.409521,2757.943793
21850.300407,10658.965565,-8660.409521,6971.469032
21850.300741,10584.944971,-7624.121203,1915.238745
21850.301075,11103.089130,-9474.636058,2298.286494
21850.301409,8142.265362,-8734.430116,-1302.362347
21850.301743,7105.977043,-9252.574275,-2221.676944
21850.302078,8808.450710,-10214.842000,-1608.800546
21850.302412,5329.482782,-9548.656652,-2451.505594
21850.302746,5921.647536,-10732.986159,-383.047749
21850.303080,8808.450710,-10658.965565,-1302.362347
21850.303414,5921.647536,-9622.677246,1455.581446
21850.303748,5921.647536,-11103.089130,2451.505594
21850.304082,5847.626942,-10362.883188,2987.772442
21850.304416,7105.977043,-8586.388927,5132.839837
21850.304751,7179.997637,-6513.812290,5286.058936
21850.305085,8216.285956,-4737.318029,3907.087040
21850.305419,7105.977043,-8142.265362,3294.210641
21850.305753,5847.626942,-5921.647536,-2298.286494
21850.306087,6143.709319,-5107.421000,-4290.134789
21850.306421,7105.977043,-8586.388927,-2528.115143
21850.306755,7994.224174,-11251.130318,-4596.572988
21850.307089,7994.224174,-10807.006753,-4290.134789
21850.307424,9474.636058,-12065.356855,-2374.896044
21850.307758,9844.739029,-11917.315666,0.000000
21850.308092,11177.109724,-12139.377449,536.266849
21850.308426,11103.089130,-11843.295072,3600.648841
21850.308760,10362.883188,-9992.780217,4443.353888
21850.309094,11251.130318,-8142.265362,4826.401637
21850.309428,11473.192101,-6957.935855,4519.963438
21850.309762,11177.109724,-6513.812290,3600.648841
21850.310097,8290.306550,-4811.338623,0.000000
21850.310431,8586.388927,-9474.636058,-76.609550
21850.310765,4663.297435,-9326.594869,-4290.134789
21850.311099,1184.329507,-9548.656652,-4903.011187
21850.311433,4663.297435,-11251.130318,-3907.087040
21850.311767,4737.318029,-10288.862594,-1302.362347
21850.312101,9104.533087,-9474.636058,1149.143247
21850.312435,11843.295072,-9104.533087,5286.058936
21850.312770,11769.274478,-5995.668130,3677.258390
21850.313104,10658.965565,-7179.997637,4213.525239
21850.313438,10066.800811,-8956.491898,1915.238745
21850.313772,10584.944971,-8882.471304,-2681.334243
21850.314106,8586.388927,-8364.327145,-919.314598
21850.314440,7328.038826,-8956.491898,-4903.011187
21850.314774,5699.585753,-12657.521608,-4366.744339
21850.315109,6291.750507,-11695.253884,-1225.752797
21850.315443,10732.986159,-10955.047942,4366.744339
21850.315777,12435.459826,-7476.080014,6128.763984
21850.316111,16580.613101,-8586.388927,7277.907231
21850.316445,16210.510130,-6217.729913,4519.963438
21850.316779,11843.295072,-4811.338623,3677.258390
21850.317113,15026.180623,-9474.636058,-76.609550
21850.317447,8290.306550,-10732.986159,-3524.039291
21850.317782,4737.318029,-11991.336260,-6894.859482
21850.318116,3923.091493,-11769.274478,-6205.373534
21850.318450,6513.812290,-10436.903782,-3830.477490
21850.318784,11769.274478,-8734.430116,1762.019645
21850.319118,14137.933492,-9178.553681,4826.401637
21850.319452,13545.768739,-5995.668130,4903.011187
21850.319786,14211.954086,-9548.656652,6128.763984
21850.320120,14434.015869,-11251.130318,4826.401637
21850.320455,13027.624579,-8364.327145,4290.134789
21850.320789,14434.015869,-7772.162391,2451.505594
21850.321123,12879.583391,-7994.224174,229.828649
21850.321457,11843.295072,-8512.368333,-3524.039291
21850.321791,9030.512492,-11843.295072,-3907.087040
21850.322125,4811.338623,-12361.439231,-4826.401637
21850.322459,5181.441594,-10584.944971,-3753.867940
21850.322793,6217.729913,-9548.656652,-1378.971896
21850.323128,9474.636058,-6587.832884,919.314598
21850.323462,14137.933492,-5033.400406,5515.887586
21850.323796,13323.706956,-7179.997637,8810.098227
21850.324130,14137.933492,-9474.636058,4826.401637
21850.324464,11547.212695,-8364.327145,1532.190996
21850.324798,13693.809927,-7698.141797,1302.362347
21850.325132,11621.233289,-5403.503377,0.000000
21850.325466,6883.915261,-9252.574275,-7048.078582
21850.325801,4515.256246,-11769.274478,-7124.688131
21850.326135,1184.329507,-12509.480420,-6128.763984
21850.326469,7031.956449,-9474.636058,-4596.572988
21850.326803,10658.965565,-9178.553681,4826.401637
21850.327137,9400.615463,-8660.409521,612.876398
21850.327471,8364.327145,-7179.997637,2757.943793
21850.327805,8882.471304,-10436.903782,5822.325785
21850.328139,10658.965565,-6143.709319,4519.963438
21850.328472,10510.924376,-9030.512492,5592.497135
21850.328806,8438.347739,-8068.244768,1838.629195
21850.329139,2886.803174,-11843.295072,-2528.115143
21850.329473,0.000000,-11917.315666,-5822.325785
21850.329806,3182.885551,-11843.295072,-4979.620737
21850.330140,4515.256246,-7772.162391,-2068.457845
21850.330474,4737.318029,-7179.997637,1838.629195
21850.330807,4663.297435,-9474.636058,-76.609550
21850.331141,1776.494261,-12361.439231,1762.019645
21850.331474,5773.606348,-7105.977043,2374.896044
21850.331808,7179.997637,-9992.780217,4673.182538
21850.332141,6217.729913,-5995.668130,3064.381992
21850.332475,2368.659014,-13397.727550,0.000000
21850.332808,3478.967927,-9474.636058,-1608.800546
21850.333142,3478.967927,-9474.636058,-76.609550
21850.333475,3849.070898,-3627.009116,0.000000
21850.333809,3552.988522,-10436.903782,2757.943793
21850.334142,2072.576638,-9474.636058,-689.485948
21850.334476,2960.823768,-8660.409521,-536.266849
21850.334809,1628.453072,-8586.388927,-1685.410096
21850.335143,3478.967927,-8068.244768,-1991.848295
21850.335476,3552.988522,-8364.327145,0.000000
21850.335810,8512.368333,-12435.459826,3294.210641
21850.336143,6217.729913,-6291.750507,1225.752797
21850.336477,3552.988522,-13101.645173,6128.763984
21850.336810,11177.109724,-9474.636058,4519.963438
21850.337144,3552.988522,-9548.656652,2451.505594
21850.337478,5255.462188,-7624.121203,612.876398
21850.337811,2368.659014,-9474.636058,76.609550
21850.338145,888.247130,-6661.853478,-1991.848295
21850.338478,1480.411884,-9548.656652,-2911.162892
21850.338812,1036.288319,-11103.089130,-383.047749
21850.339145,1776.494261,-7031.956449,-1455.581446
21850.339479,3627.009116,-11843.295072,919.314598
21850.339812,5847.626942,-10510.924376,3600.648841
21850.340146,3182.885551,-7846.182985,1225.752797
21850.340479,2516.700203,-9400.615463,3677.258390
21850.340813,7624.121203,-9474.636058,2374.896044
21850.341146,6291.750507,-8364.327145,1302.362347
21850.341480,6439.791695,-13545.768739,6052.154434
21850.341813,1406.391290,-7698.141797,2298.286494
21850.342147,-3404.947333,-11325.150913,-3753.867940
21850.342480,-1110.308913,-8438.347739,-2451.505594
21850.342814,-6217.729913,-7772.162391,-4903.011187
21850.343147,-666.185348,-3034.844362,-4903.011187
21850.343481,444.123565,-11843.295072,2374.896044
21850.343814,-74.020594,-10658.965565,3600.648841
21850.344148,2886.803174,-5107.421000,1991.848295
21850.344482,1776.494261,-7994.224174,4826.401637
21850.344815,7994.224174,-5403.503377,4060.306139
21850.345149,1998.556043,-12065.356855,2374.896044
21850.345482,4367.215058,-10362.883188,1149.143247
21850.345816,-2960.823768,-11177.109724,-4903.011187
21850.346149,-2368.659014,-13397.727550,-3677.258390
21850.346483,-74.020594,-10658.965565,-3140.991542
21850.346816,-2590.720797,-11399.171507,-2834.553343
21850.347150,-2368.659014,-6587.832884,-2451.505594
21850.347483,-2960.823768,-8364.327145,612.876398
21850.347817,1702.473667,-7550.100608,4673.182538
21850.348150,1850.514855,-5921.647536,5286.058936
21850.348484,2960.823768,-8512.368333,6435.202183
21850.348817,4071.132681,-6513.812290,4826.401637
21850.349151,-2072.576638,-9548.656652,3524.039291
21850.349484,-74.020594,-9474.636058,-2528.115143
21850.349818,-3923.091493,-11325.150913,-4290.134789
21850.350151,-2960.823768,-11325.150913,-4903.011187
21850.350485,-2590.720797,-13027.624579,-4060.306139
21850.350818,-3775.050304,-11029.068536,-2834.553343
21850.351152,-1406.391290,-8734.430116,-1149.143247
21850.351486,-518.144159,-9474.636058,1302.362347
21850.351819,2664.741391,-4811.338623,4903.011187
21850.352153,4663.297435,-9474.636058,4519.963438
21850.352486,2294.638420,-7476.080014,4903.011187
21850.352820,0.000000,-5995.668130,6128.763984
21850.353153,1998.556043,-7105.977043,1149.143247
21850.353487,3182.885551,-8882.471304,-76.609550
21850.353820,-1850.514855,-11325.150913,-3370.820191
21850.354154,-2146.597232,-9548.656652,-4903.011187
21850.354487,-2886.803174,-11029.068536,-3294.210641
21850.354821,-3552.988522,-10140.821405,-4290.134789
21850.355154,1110.308913,-11547.212695,-1608.800546
21850.355488,0.000000,-10732.986159,1608.800546
21850.355821,2812.782580,-7846.182985,3370.820191
21850.356155,4367.215058,-8734.430116,4443.353888
21850.356488,3923.091493,-7402.059420,3830.477490
21850.356822,4737.318029,-8808.450710,7277.907231
21850.357155,4071.132681,-6217.729913,0.000000
21850.357489,2368.659014,-8660.409521,2374.896044
21850.357822,-1184.329507,-11769.274478,-2145.067394
21850.358156,1110.308913,-6439.791695,-4903.011187
21850.358490,-4219.173869,-13545.768739,-3447.429741
21850.358823,-3478.967927,-11621.233289,-5745.716235
21850.359157,-2220.617826,-11177.109724,-2528.115143
21850.359490,0.000000,-11917.315666,3064.381992
21850.359824,9030.512492,-4737.318029,6665.030833
21850.360157,3182.885551,-13915.871710,7890.783629
21850.360491,2812.782580,-1850.514855,919.314598
21850.360824,1110.308913,-11843.295072,4826.401637
21850.361158,0.000000,-5403.503377,0.000000
21850.361491,2072.576638,-7105.977043,1072.533697
21850.361825,-3182.885551,-10362.883188,-3830.477490
21850.362158,0.000000,-9844.739029,-1838.629195
21850.362492,-3552.988522,-11177.109724,-1915.238745
21850.362825,3849.070898,-12435.459826,-1302.362347
21850.363159,-2442.679609,-9696.697840,-2145.067394
21850.363492,-2368.659014,-9548.656652,612.876398
21850.363826,1184.329507,-10510.924376,1762.019645
21850.364159,2072.576638,-10807.006753,4826.401637
21850.364493,4515.256246,-7994.224174,2528.115143
21850.364826,1776.494261,-10658.965565,5439.278036
21850.365160,2960.823768,-6809.894666,2681.334243
21850.365494,-1850.514855,-7698.141797,-76.609550
21850.365827,-1850.514855,-6957.935855,-2068.457845
21850.366161,-4737.318029,-7179.997637,-842.705048
21850.366494,-1258.350101,-10214.842000,-76.609550
21850.366828,-370.102971,-6513.812290,-3907.087040
21850.367161,-3256.906145,-9770.718434,-995.924147
21850.367495,-2368.659014,-9992.780217,-2987.772442
21850.367828,-1850.514855,-13545.768739,153.219100
21850.368162,-74.020594,-10288.862594,3677.258390
21850.368495,4367.215058,-6513.812290,3600.648841
21850.368829,2812.782580,-8956.491898,6358.592633
21850.369162,1554.432478,-4219.173869,3983.696590
21850.369496,1406.391290,-7402.059420,-153.219100
21850.369829,-4737.318029,-8364.327145,-3677.258390
21850.370163,-4145.153275,-9548.656652,-3294.210641
21850.370496,-3627.009116,-10658.965565,-4213.525239
21850.370830,0.000000,-5403.503377,-3677.258390
21850.371163,-1184.329507,-8660.409521,-1991.848295
21850.371497,0.000000,-9844.739029,919.314598
21850.371830,4737.318029,-6883.915261,2757.943793
21850.372164,962.267725,-13471.748144,4596.572988
21850.372498,5107.421000,-6735.874072,1378.971896
21850.372831,3034.844362,-12435.459826,4519.963438
21850.373165,2442.679609,-6587.832884,2145.067394
21850.373498,4071.132681,-8882.471304,-1608.800546
21850.373832,-2368.659014,-11029.068536,-612.876398
21850.374165,1184.329507,-10140.821405,-76.609550
21850.374499,-1480.411884,-11843.295072,766.095498
21850.374832,-666.185348,-8142.265362,-689.485948
21850.375166,-3923.091493,-7402.059420,-2374.896044
21850.375499,-1184.329507,-6883.915261,-919.314598
21850.375833,2590.720797,-7105.977043,842.705048
21850.376166,592.164754,-8956.491898,5056.230287
21850.376500,1480.411884,-5403.503377,1991.848295
21850.376833,-1184.329507,-10732.986159,612.876398
21850.377167,2590.720797,-8882.471304,2221.676944
21850.377500,-74.020594,-7698.141797,-4366.744339
21850.377834,2664.741391,-12583.501014,689.485948
21850.378167,-888.247130,-9622.677246,-1072.533697
21850.378501,-1998.556043,-10288.862594,-1685.410096
21850.378834,-2886.803174,-9474.636058,-229.828649
21850.379168,-74.020594,-9474.636058,-76.609550
21850.379502,-3552.988522,-8364.327145,1225.752797
21850.379835,0.000000,-5403.503377,4903.011187
21850.380169,4071.132681,-9474.636058,4826.401637
21850.380502,1776.494261,-2442.679609,3064.381992
21850.380836,888.247130,-11621.233289,4903.011187
21850.381169,-74.020594,-7031.956449,-1455.581446
21850.381503,-1184.329507,-10658.965565,-2221.676944
21850.381836,-3404.947333,-10881.027347,-4290.134789
21850.382170,-2146.597232,-9696.697840,-5592.497135
21850.382503,-7105.977043,-11029.068536,-995.924147
21850.382837,-74.020594,-8882.471304,-2834.553343
21850.383170,-1258.350101,-8068.244768,0.000000
21850.383504,0.000000,-5995.668130,3677.258390
21850.383837,2886.803174,-7328.038826,4290.134789
21850.384171,3478.967927,-5181.441594,4826.401637
21850.384504,2220.617826,-7994.224174,306.438199
21850.384838,1036.288319,-10214.842000,3064.381992
21850.385171,4663.297435,-6661.853478,0.000000
21850.385505,2220.617826,-11177.109724,766.095498
21850.385838,-444.123565,-11695.253884,-1685.410096
21850.386172,-2960.823768,-11621.233289,-4673.182538
21850.386506,-3552.988522,-11843.295072,-76.609550
21850.386839,-370.102971,-8290.306550,-3140.991542
21850.387173,-2072.576638,-7179.997637,0.000000
21850.387506,-1776.494261,-7476.080014,2374.896044
21850.387840,1110.308913,-7994.224174,1455.581446
21850.388173,592.164754,-5995.668130,4903.011187
21850.388507,3701.029710,-7254.018232,3983.696590
21850.388840,3404.947333,-9770.718434,5439.278036
21850.389174,4367.215058,-5699.585753,1532.190996
21850.389507,1110.308913,-13027.624579,-383.047749
21850.389841,2294.638420,-9474.636058,-5439.278036
21850.390174,-2960.823768,-13619.789333,-3140.991542
21850.390508,-74.020594,-13619.789333,-76.609550
21850.390841,-962.267725,-9548.656652,-2451.505594
21850.391175,-1258.350101,-11325.150913,1762.019645
21850.391508,-1850.514855,-7179.997637,76.609550
21850.391842,962.267725,-7031.956449,306.438199
21850.392175,2442.679609,-8364.327145,4519.963438
21850.392509,1480.411884,-4811.338623,3983.696590
21850.392842,3478.967927,-5995.668130,0.000000
21850.393176,0.000000,-12435.459826,5745.716235
21850.393510,2294.638420,-6957.935855,0.000000
21850.393843,-1850.514855,-6291.750507,-2451.505594
21850.394177,0.000000,-9474.636058,-4060.306139
21850.394510,-2368.659014,-12583.501014,-3983.696590
21850.394844,-2294.638420,-11621.233289,-3217.601092
21850.395177,-1554.432478,-11325.150913,-2298.286494
21850.395511,-2664.741391,-12287.418637,-1225.752797
21850.395844,296.082377,-6587.832884,1225.752797
21850.396178,2294.638420,-12435.459826,4213.525239
21850.396511,4663.297435,-3627.009116,3064.381992
21850.396845,2294.638420,-9178.553681,5515.887586
21850.397178,4145.153275,-7328.038826,4903.011187
21850.397512,2590.720797,-7105.977043,4749.792088
21850.397845,2738.761985,-7846.182985,-306.438199
21850.398179,-1110.308913,-12435.459826,-383.047749
21850.398512,-1258.350101,-8290.306550,-5592.497135
21850.398846,-4145.153275,-16062.468941,-3753.867940
21850.399179,-3034.844362,-9844.739029,-3294.210641
21850.399513,-1850.514855,-7179.997637,-4290.134789
21850.399846,-1036.288319,-10658.965565,2374.896044
21850.400180,2368.659014,-4811.338623,0.000000
21850.400514,1258.350101,-8290.306550,2834.553343
21850.400847,2960.823768,-9252.574275,4366.744339
21850.401181,4367.215058,-7698.141797,4366.744339
21850.401514,4367.215058,-9178.553681,4213.525239
21850.401848,4293.194464,-8364.327145,3447.429741
21850.402181,0.000000,-8956.491898,-1915.238745
21850.402515,-1850.514855,-10807.006753,-4903.011187
21850.402848,-2072.576638,-11621.233289,-3753.867940
21850.403182,-1258.350101,-13915.871710,-1915.238745
21850.403515,-2368.659014,-8364.327145,-3677.258390
21850.403849,444.123565,-11843.295072,2374.896044
21850.404182,3478.967927,-7994.224174,2911.162892
21850.404516,1184.329507,-5995.668130,3983.696590
21850.404849,4663.297435,-9178.553681,2374.896044
21850.405183,3997.112087,-9992.780217,3830.477490
21850.405516,666.185348,-9844.739029,4290.134789
21850.405850,518.144159,-6513.812290,76.609550
21850.406183,-4219.173869,-8808.450710,-2681.334243
21850.406517,-1776.494261,-8216.285956,-2528.115143
21850.406850,-1998.556043,-8290.306550,-4366.744339
21850.407184,-4145.153275,-10436.903782,-2298.286494
21850.407518,-1184.329507,-9474.636058,-229.828649
21850.407851,-2442.679609,-11325.150913,-2451.505594
21850.408185,2368.659014,-9474.636058,2987.772442
21850.408518,370.102971,-9104.533087,2374.896044
21850.408852,2590.720797,-8290.306550,2221.676944
21850.409185,1184.329507,-7772.162391,3677.258390
21850.409519,2220.617826,-9474.636058,3600.648841
21850.409852,0.000000,-8956.491898,2451.505594
21850.410186,-4737.318029,-5995.668130,1532.190996
21850.410519,-74.020594,-9474.636058,-1915.238745
21850.410853,-4145.153275,-8956.491898,-2451.505594
21850.411186,148.041188,-9474.636058,-1608.800546
21850.411520,-3404.947333,-9992.780217,-2528.115143
21850.411853,-74.020594,-10140.821405,-1149.143247
21850.412187,962.267725,-10362.883188,-76.609550
21850.412520,-74.020594,-11843.295072,-76.609550
21850.412854,2368.659014,-7772.162391,4213.525239
21850.413187,2294.638420,-9474.636058,2834.553343
21850.413521,1184.329507,-4811.338623,1225.752797
21850.413854,1776.494261,-9252.574275,5745.716235
21850.414188,1628.453072,-6291.750507,612.876398
21850.414522,148.041188,-9844.739029,-2451.505594
21850.414855,-1480.411884,-10732.986159,-2681.334243
21850.415189,-666.185348,-11399.171507,-1991.848295
21850.415522,-370.102971,-8290.306550,-995.924147
21850.415856,0.000000,-9548.656652,1378.971896
21850.416189,1332.370696,-6069.688724,2834.553343
21850.416523,2220.617826,-5995.668130,-1685.410096
21850.416856,1184.329507,-8364.327145,1838.629195
21850.417190,2072.576638,-10955.047942,-76.609550
21850.417523,1110.308913,-9474.636058,-76.609550
21850.417857,592.164754,-10140.821405,2145.067394
21850.418190,2294.638420,-8142.265362,-1915.238745
21850.418524,444.123565,-9252.574275,0.000000
21850.418857,370.102971,-8882.471304,-2221.676944
21850.419191,888.247130,-9548.656652,-2374.896044
21850.419524,-3256.906145,-10732.986159,0.000000
21850.419858,2294.638420,-7698.141797,-1225.752797
21850.420191,3552.988522,-12435.459826,4826.401637
21850.420525,3404.947333,-7772.162391,3064.381992
21850.420858,1184.329507,-5107.421000,1532.190996
21850.421192,2368.659014,-10732.986159,3677.258390
21850.421526,2664.741391,-8364.327145,1685.410096
21850.421859,444.123565,-9844.739029,-689.485948
21850.422193,-814.226536,-11991.336260,-995.924147
21850.422526,-2442.679609,-9474.636058,-2528.115143
21850.422860,-5329.482782,-9548.656652,-3064.381992
21850.423193,-962.267725,-5921.647536,-3447.429741
21850.423527,-6513.812290,-10140.821405,-1225.752797
21850.423860,2294.638420,-7698.141797,2374.896044
21850.424194,-370.102971,-10362.883188,4213.525239
21850.424527,4663.297435,-5773.606348,3600.648841
21850.424861,-1628.453072,-10140.821405,4749.792088
21850.425194,0.000000,-7920.203579,1685.410096
21850.425528,814.226536,-8364.327145,0.000000
21850.425861,-1184.329507,-9844.739029,-76.609550
21850.426195,0.000000,-9548.656652,-2451.505594
21850.426528,-5921.647536,-9548.656652,-1225.752797
21850.426862,1110.308913,-11103.089130,-842.705048
21850.427195,-4959.379811,-10658.965565,-3140.991542
21850.427529,-74.020594,-7402.059420,-2298.286494
21850.427862,-74.020594,-10362.883188,2221.676944
21850.428196,1480.411884,-7105.977043,2987.772442
21850.428529,2072.576638,-7105.977043,5362.668486
21850.428862,2294.638420,-8290.306550,4826.401637
21850.429195,1184.329507,-7179.997637,3983.696590
21850.429529,1998.556043,-9474.636058,-76.609550
21850.429862,-74.020594,-7772.162391,-3064.381992
21850.430195,-3552.988522,-9548.656652,-3217.601092
21850.430528,-666.185348,-10658.965565,-1302.362347
21850.430862,-2368.659014,-8660.409521,-1608.800546
21850.431195,370.102971,-6587.832884,-1225.752797
21850.431528,-1702.473667,-10214.842000,-3753.867940
21850.431861,1110.308913,-10066.800811,-2834.553343
21850.432195,740.205942,-10362.883188,766.095498
21850.432528,5477.523971,-9400.615463,4826.401637
21850.432861,4737.318029,-8660.409521,4903.011187
21850.433194,2960.823768,-9548.656652,3064.381992
21850.433528,7031.956449,-8290.306550,3600.648841
21850.433861,2368.659014,-7772.162391,-2451.505594
21850.434194,4145.153275,-11251.130318,2068.457845
21850.434527,-2738.761985,-9400.615463,-4826.401637
21850.434861,-2442.679609,-11029.068536,-4290.134789
21850.435194,-2146.597232,-8882.471304,-2451.505594
21850.435527,-1554.432478,-11843.295072,-2528.115143
21850.435860,-370.102971,-7550.100608,0.000000
21850.436194,-74.020594,-10066.800811,2911.162892
21850.436527,2294.638420,-9474.636058,2374.896044
21850.436860,1184.329507,-4219.173869,3983.696590
21850.437193,0.000000,-10140.821405,6971.469032
21850.437527,8216.285956,-3256.906145,4213.525239
21850.437860,592.164754,-11621.233289,5515.887586
21850.438193,2368.659014,-5995.668130,-2145.067394
21850.438526,-3182.885551,-12435.459826,-3447.429741
21850.438860,-3701.029710,-13101.645173,-4749.792088
21850.439193,-2738.761985,-8882.471304,-4979.620737
21850.439526,-3923.091493,-11843.295072,-5592.497135
21850.439859,-3552.988522,-9548.656652,1378.971896
21850.440193,-2886.803174,-9474.636058,4826.401637
21850.440526,3478.967927,-2738.761985,3677.258390
21850.440859,3775.050304,-5625.565159,7890.783629
21850.441192,2812.782580,-8068.244768,4596.572988
21850.441526,2146.597232,-6513.812290,3370.820191
21850.441859,74.020594,-9030.512492,689.485948
21850.442192,-1776.494261,-8660.409521,-3677.258390
21850.442525,-2146.597232,-10510.924376,-4596.572988
21850.442859,-4737.318029,-12509.480420,-2604.724693
21850.443192,-2220.617826,-11843.295072,-3753.867940
21850.443525,-5033.400406,-11251.130318,-5056.230287
21850.443858,-3997.112087,-9548.656652,-2604.724693
21850.444192,-814.226536,-8290.306550,2987.772442
21850.444525,4367.215058,-5921.647536,5592.497135
21850.444858,4515.256246,-3923.091493,7124.688131
21850.445191,5107.421000,-8586.388927,7737.564530
21850.445525,4737.318029,-4219.173869,4290.134789
21850.445858,-74.020594,-11695.253884,-76.609550
21850.446191,4071.132681,-7402.059420,-3677.258390
21850.446524,-4737.318029,-12509.480420,-3217.601092
21850.446857,-2368.659014,-10288.862594,-5592.497135
21850.447191,-2886.803174,-10955.047942,-5362.668486
21850.447524,-1480.411884,-11917.315666,-3370.820191
21850.447857,740.205942,-10658.965565,76.609550
21850.448190,1850.514855,-9474.636058,2298.286494
21850.448524,5329.482782,-8364.327145,6971.469032
21850.448857,2146.597232,-7105.977043,4826.401637
21850.449190,6143.709319,-6217.729913,4826.401637
21850.449523,2516.700203,-6809.894666,3753.867940
21850.449857,3552.988522,-9474.636058,1225.752797
21850.450190,740.205942,-5995.668130,-2451.505594
21850.450523,-1184.329507,-12139.377449,-2528.115143
21850.450856,-1258.350101,-10658.965565,-5132.839837
21850.451190,-3923.091493,-9326.594869,-7201.297681
21850.451523,-740.205942,-15396.283594,-2681.334243
21850.451856,-2220.617826,-10510.924376,-766.095498
21850.452189,-222.061783,-10658.965565,-76.609550
21850.452523,1776.494261,-7772.162391,4596.572988
21850.452856,3478.967927,-8290.306550,4826.401637
21850.453189,1184.329507,-5403.503377,5515.887586
21850.453522,8216.285956,-10658.965565,6052.154434
21850.453856,1998.556043,-8364.327145,5515.887586
21850.454189,2368.659014,-5403.503377,1991.848295
21850.454522,-2442.679609,-11843.295072,-2221.676944
21850.454855,-1258.350101,-6365.771101,-4979.620737
21850.455189,-4737.318029,-13323.706956,-4519.963438
21850.455522,-2590.720797,-11547.212695,-3600.648841
21850.455855,-4663.297435,-9548.656652,-4596.572988
21850.456188,-4145.153275,-9548.656652,612.876398
21850.456522,1406.391290,-9474.636058,2987.772442
21850.456855,1998.556043,-5181.441594,1532.190996
21850.457188,2294.638420,-10510.924376,4826.401637
21850.457521,0.000000,-7772.162391,3983.696590
21850.457855,-74.020594,-5921.647536,2068.457845
21850.458188,2294.638420,-6143.709319,1685.410096
21850.458521,2812.782580,-9178.553681,2681.334243
21850.458854,-2960.823768,-10436.903782,-1225.752797
21850.459188,-74.020594,-11843.295072,-1302.362347
21850.459521,-4811.338623,-14582.057057,-5822.325785
21850.459854,-5329.482782,-7179.997637,-8580.269578
21850.460187,-2294.638420,-14211.954086,1149.143247
21850.460521,0.000000,-5403.503377,153.219100
21850.460854,3330.926739,-9104.533087,5286.058936
21850.461187,1036.288319,-7254.018232,4366.744339
21850.461520,5847.626942,-6735.874072,5515.887586
21850.461854,0.000000,-7328.038826,2451.505594
21850.462187,3775.050304,-8882.471304,-995.924147
21850.462520,-1924.535449,-9918.759623,-76.609550
21850.462853,-1850.514855,-8142.265362,-2374.896044
21850.463187,-74.020594,-9474.636058,-2528.115143
21850.463520,0.000000,-5995.668130,0.000000
21850.463853,-814.226536,-12731.542202,-4366.744339
21850.464186,-74.020594,-11251.130318,-1915.238745
21850.464520,0.000000,-8364.327145,-919.314598
21850.464853,4071.132681,-11843.295072,2374.896044
21850.465186,4737.318029,-7550.100608,4749.792088
21850.465519,3775.050304,-9400.615463,919.314598
21850.465852,3849.070898,-7624.121203,3217.601092
21850.466186,2368.659014,-5995.668130,612.876398
21850.466519,4367.215058,-11621.233289,0.000000
21850.466852,-74.020594,-10658.965565,-76.609550
21850.467185,-1258.350101,-9030.512492,-4903.011187
21850.467519,-2368.659014,-8364.327145,0.000000
21850.467852,-1184.329507,-9178.553681,-2145.067394
21850.468185,592.164754,-7179.997637,0.000000
21850.468518,5181.441594,-8068.244768,2068.457845
21850.468852,4367.215058,-14285.974681,4903.011187
21850.469185,2072.576638,-8068.244768,5669.106685
21850.469518,2294.638420,-7328.038826,0.000000
21850.469851,2294.638420,-9474.636058,-76.609550
21850.470185,-3552.988522,-7476.080014,-1225.752797
21850.470518,-74.020594,-9178.553681,-1302.362347
21850.470851,-5329.482782,-9548.656652,-2451.505594
21850.471184,-2442.679609,-10288.862594,-2528.115143
21850.471518,-4145.153275,-8512.368333,306.438199
21850.471851,-2294.638420,-7254.018232,-76.609550
21850.472184,-1850.514855,-8290.306550,-76.609550
21850.472517,-4737.318029,-7772.162391,2451.505594
21850.472851,-666.185348,-5995.668130,0.000000
21850.473184,0.000000,-4811.338623,3064.381992
21850.473517,5847.626942,-11251.130318,2068.457845
21850.473850,2294.638420,-10955.047942,4673.182538
21850.474184,-222.061783,-10066.800811,-76.609550
21850.474517,-1480.411884,-12953.603985,-689.485948
21850.474850,-3478.967927,-9252.574275,-4060.306139
21850.475183,-1924.535449,-9474.636058,-1608.800546
21850.475517,-3182.885551,-11251.130318,-76.609550
21850.475850,-3997.112087,-5995.668130,0.000000
21850.476183,-2442.679609,-10658.965565,1762.019645
21850.476516,2886.803174,-5329.482782,2221.676944
21850.476850,-666.185348,-7254.018232,4519.963438
21850.477183,1998.556043,-6809.894666,1455.581446
21850.477516,2368.659014,-8216.285956,3370.820191
21850.477849,-666.185348,-8734.430116,1302.362347
21850.478183,3775.050304,-7698.141797,689.485948
21850.478516,1554.432478,-9474.636058,-689.485948
21850.478849,-1184.329507,-13841.851115,-5362.668486
21850.479182,-2146.597232,-10140.821405,-3753.867940
21850.479516,1554.432478,-11621.233289,-2911.162892
21850.479849,1258.350101,-8364.327145,0.000000
21850.480182,1406.391290,-9030.512492,2068.457845
21850.480515,4663.297435,-11251.130318,2374.896044
21850.480849,2368.659014,-5995.668130,9806.022374
21850.481182,6143.709319,-7031.956449,4749.792088
21850.481515,5847.626942,-9178.553681,3217.601092
21850.481848,2146.597232,-7550.100608,1072.533697
21850.482182,2294.638420,-8068.244768,-1532.190996
21850.482515,370.102971,-11029.068536,-1532.190996
21850.482848,1184.329507,-9844.739029,-2451.505594
21850.483181,-2368.659014,-16580.613101,-76.609550
21850.483515,-2072.576638,-5995.668130,-4903.011187
21850.483848,-5773.606348,-11917.315666,-2451.505594
21850.484181,-814.226536,-8290.306550,-995.924147
21850.484514,0.000000,-8364.327145,2451.505594
21850.484847,5107.421000,-5329.482782,4366.744339
21850.485181,5329.482782,-9104.533087,4826.401637
21850.485514,2442.679609,-10436.903782,10035.851024
21850.485847,7031.956449,-3849.070898,4213.525239
21850.486180,1702.473667,-14211.954086,3600.648841
21850.486514,0.000000,-6291.750507,-1838.629195
21850.486847,-3849.070898,-13027.624579,-2834.553343
21850.487180,-2738.761985,-10658.965565,-4673.182538
21850.487513,-2664.741391,-10807.006753,-3217.601092
21850.487847,-7476.080014,-11547.212695,-2911.162892
21850.488180,-2664.741391,-7476.080014,-919.314598
21850.488513,-2960.823768,-8882.471304,1378.971896
21850.488846,-1998.556043,-5107.421000,1225.752797
21850.489180,-74.020594,-8290.306550,3600.648841
21850.489513,0.000000,-4811.338623,7354.516781
21850.489846,5847.626942,-8882.471304,6052.154434
21850.490179,1480.411884,-5921.647536,1762.019645
21850.490513,2294.638420,-9474.636058,1762.019645
21850.490846,-1850.514855,-12361.439231,-2911.162892
21850.491179,-2664.741391,-13323.706956,-4979.620737
21850.491512,-6735.874072,-10881.027347,-8120.612279
21850.491846,-4737.318029,-15248.242405,-689.485948
21850.492179,-2146.597232,-5107.421000,-2451.505594
21850.492512,1184.329507,-8956.491898,6052.154434
21850.492845,2886.803174,-6735.874072,4060.306139
21850.493179,2368.659014,-3627.009116,3677.258390
21850.493512,6439.791695,-11251.130318,4826.401637
21850.493845,4071.132681,-5477.523971,5209.449386
21850.494178,2220.617826,-7994.224174,4213.525239
21850.494512,3256.906145,-4885.359217,1455.581446
21850.494845,-1776.494261,-9548.656652,-4903.011187
21850.495178,-2442.679609,-13915.871710,-6971.469032
21850.495511,-1776.494261,-11917.315666,-4366.744339
21850.495845,-1998.556043,-13545.768739,-5056.230287
21850.496178,-1184.329507,-12509.480420,-1532.190996
21850.496511,296.082377,-6587.832884,0.000000
21850.496844,4663.297435,-9474.636058,7277.907231
21850.497178,8216.285956,-3552.988522,3600.648841
21850.497511,4145.153275,-6291.750507,4903.011187
21850.497844,6365.771101,-9474.636058,8427.050478
21850.498177,4663.297435,-5033.400406,1532.190996
21850.498511,888.247130,-9770.718434,-1378.971896
21850.498844,-1406.391290,-10066.800811,-3370.820191
21850.499177,-2960.823768,-10140.821405,-4749.792088
21850.499510,-1776.494261,-10140.821405,-4290.134789
21850.499844,-74.020594,-13619.789333,-4366.744339
21850.500177,-2368.659014,-13693.809927,-2451.505594
21850.500510,0.000000,-8364.327145,3370.820191
21850.500843,2294.638420,-9474.636058,1149.143247
21850.501177,2960.823768,-4367.215058,4903.011187
21850.501510,1036.288319,-9178.553681,3370.820191
21850.501843,3627.009116,-6587.832884,4596.572988
21850.502176,222.061783,-7254.018232,3217.601092
21850.502510,2294.638420,-10362.883188,2374.896044
21850.502843,-74.020594,-9474.636058,-2528.115143
21850.503176,-4737.318029,-10140.821405,-1455.581446
21850.503509,-5773.606348,-9844.739029,-2451.505594
21850.503842,-5551.544565,-12435.459826,-1608.800546
21850.504176,-5181.441594,-9992.780217,-2298.286494
21850.504509,-4145.153275,-7179.997637,766.095498
21850.504842,2442.679609,-8808.450710,2757.943793
21850.505175,4293.194464,-6217.729913,5592.497135
21850.505509,1702.473667,-9474.636058,4443.353888
21850.505842,2368.659014,-4811.338623,-1762.019645
21850.506175,0.000000,-10288.862594,3294.210641
21850.506508,1110.308913,-8142.265362,-4136.915689
21850.506842,370.102971,-9548.656652,-2451.505594
21850.507175,-1924.535449,-13323.706956,-1915.238745
21850.507508,0.000000,-8956.491898,-2528.115143
21850.507841,-4071.132681,-12435.459826,-766.095498
21850.508175,1998.556043,-6365.771101,-2145.067394
21850.508508,-3034.844362,-11843.295072,766.095498
21850.508841,2738.761985,-3849.070898,2374.896044
21850.509174,2294.638420,-8364.327145,4903.011187
21850.509508,2072.576638,-8216.285956,3907.087040
21850.509841,6217.729913,-5403.503377,2451.505594
21850.510174,0.000000,-13619.789333,4826.401637
21850.510507,7031.956449,-7698.141797,229.828649
21850.510841,-4737.318029,-9548.656652,-4903.011187
21850.511174,-1184.329507,-10510.924376,-7584.345430
21850.511507,-4737.318029,-10288.862594,-4903.011187
21850.511840,-888.247130,-11769.274478,-2451.505594
21850.512174,2220.617826,-9548.656652,0.000000
21850.512507,3182.885551,-9474.636058,3140.991542
21850.512840,4663.297435,-9474.636058,5439.278036
21850.513173,4145.153275,-5699.585753,6052.154434
21850.513507,4367.215058,-7846.182985,0.000000
21850.513840,4737.318029,-10066.800811,4826.401637
21850.514173,2146.597232,-9474.636058,842.705048
21850.514506,2294.638420,-9474.636058,-1302.362347
21850.514840,-74.020594,-12435.459826,-3447.429741
21850.515173,-3404.947333,-12731.542202,-1915.238745
21850.515506,-1258.350101,-9918.759623,-1991.848295
21850.515839,-3701.029710,-9326.594869,-1532.190996
21850.516173,-1258.350101,-9474.636058,-383.047749
21850.516506,-1776.494261,-5995.668130,0.000000
21850.516839,2886.803174,-11547.212695,4213.525239
21850.517172,2368.659014,-3627.009116,5822.325785
21850.517506,0.000000,-9548.656652,3064.381992
21850.517839,2294.638420,-5995.668130,1225.752797
21850.518172,1702.473667,-9770.718434,-766.095498
21850.518505,-1036.288319,-13027.624579,-76.609550
21850.518839,-666.185348,-9474.636058,-1608.800546
21850.519172,-5403.503377,-11325.150913,-5132.839837
21850.519505,1184.329507,-10658.965565,-76.609550
21850.519838,-370.102971,-13027.624579,-76.609550
21850.520172,-666.185348,-8438.347739,1225.752797
21850.520505,444.123565,-7402.059420,3830.477490
21850.520838,0.000000,-7476.080014,3524.039291
21850.521171,1258.350101,-5181.441594,2911.162892
21850.521505,1702.473667,-8142.265362,1838.629195
21850.521838,3182.885551,-8290.306550,2834.553343
21850.522171,-2368.659014,-10140.821405,306.438199
21850.522504,2294.638420,-11251.130318,-1302.362347
21850.522838,-4737.318029,-11325.150913,-2451.505594
21850.523171,-4145.153275,-7772.162391,-4290.134789
21850.523504,-1850.514855,-13619.789333,-1302.362347
21850.523837,-2960.823768,-8364.327145,-3064.381992
21850.524170,-2664.741391,-10955.047942,-2834.553343
21850.524504,-1702.473667,-8586.388927,1991.848295
21850.524837,3552.988522,-6439.791695,4673.182538
21850.525170,2368.659014,-6291.750507,6741.640382
21850.525503,7031.956449,-4737.318029,6971.469032
21850.525837,2368.659014,-8586.388927,3600.648841
21850.526170,3997.112087,-6809.894666,1149.143247
21850.526503,1110.308913,-11251.130318,-3753.867940
21850.526836,0.000000,-13249.686362,-3064.381992
21850.527170,518.144159,-11843.295072,-4979.620737
21850.527503,-1850.514855,-15396.283594,-5822.325785
21850.527836,0.000000,-7624.121203,-1532.190996
21850.528169,-666.185348,-12731.542202,-76.609550
21850.528503,1702.473667,-6291.750507,1532.190996
21850.528836,1554.432478,-7846.182985,4826.401637
21850.529169,4959.379811,-6883.915261,5362.668486
21850.529502,3552.988522,-3627.009116,6818.249932
21850.529836,1776.494261,-6291.750507,3677.258390
21850.530169,5847.626942,-8882.471304,2374.896044
21850.530502,-2368.659014,-9844.739029,-2451.505594
21850.530835,592.164754,-9844.739029,-1455.581446
21850.531169,-4515.256246,-11843.295072,-4979.620737
21850.531502,-592.164754,-9696.697840,-4060.306139
21850.531835,-3997.112087,-13175.665768,-1149.143247
21850.532168,-888.247130,-7031.956449,-2451.505594
21850.532501,-2368.659014,-12213.398043,919.314598
21850.532834,-74.020594,-5995.668130,612.876398
21850.533167,4737.318029,-6735.874072,9116.536426
21850.533500,-74.020594,-6513.812290,3907.087040
21850.533833,2368.659014,-6291.750507,2451.505594
21850.534166,-74.020594,-11251.130318,4826.401637
21850.534499,4663.297435,-6365.771101,-306.438199
21850.534832,2368.659014,-10584.944971,1685.410096
21850.535165,-1702.473667,-12731.542202,-153.219100
21850.535498,-2368.659014,-8808.450710,-5592.497135
21850.535831,-4737.318029,-13397.727550,-2528.115143
21850.536164,-3404.947333,-9548.656652,-6128.763984
21850.536497,-3627.009116,-9844.739029,0.000000
21850.536830,2294.638420,-9178.553681,2374.896044
21850.537163,370.102971,-5403.503377,2604.724693
21850.537496,740.205942,-5625.565159,4213.525239
21850.537829,3775.050304,-5403.503377,5286.058936
21850.538162,592.164754,-8364.327145,4596.572988
21850.538495,2442.679609,-5921.647536,153.219100
21850.538828,-1258.350101,-9474.636058,-1915.238745
21850.539161,-3552.988522,-10140.821405,-3140.991542
21850.539494,-74.020594,-11843.295072,-1302.362347
21850.539827,-3034.844362,-10955.047942,-6665.030833
21850.540161,0.000000,-11029.068536,-3064.381992
21850.540494,-1998.556043,-9104.533087,-2298.286494
21850.540827,518.144159,-11103.089130,2451.505594
21850.541160,2294.638420,-1924.535449,1455.581446
21850.541493,3034.844362,-8438.347739,2681.334243
21850.541826,5255.462188,-9252.574275,3907.087040
21850.542159,4737.318029,-7920.203579,4213.525239
21850.542492,2960.823768,-8956.491898,3830.477490
21850.542825,4663.297435,-8660.409521,1685.410096
21850.543158,2516.700203,-10584.944971,1149.143247
21850.543491,-1258.350101,-10658.965565,-4060.306139
21850.543824,0.000000,-10732.986159,-3677.258390
21850.544157,-148.041188,-15100.201217,-76.609550
21850.544490,-1850.514855,-9030.512492,-1455.581446
21850.544823,-2368.659014,-10140.821405,2911.162892
21850.545156,1110.308913,-6365.771101,1532.190996
21850.545489,370.102971,-8586.388927,3983.696590
21850.545822,3034.844362,-4293.194464,3677.258390
21850.546155,2294.638420,-9178.553681,3600.648841
21850.546488,4367.215058,-6217.729913,459.657299
21850.546821,2368.659014,-9474.636058,3600.648841
21850.547154,-74.020594,-9474.636058,-2528.115143
21850.547487,0.000000,-9992.780217,-3524.039291
21850.547820,-370.102971,-13027.624579,-2528.115143
21850.548153,-1924.535449,-13693.809927,-1762.019645
21850.548486,-2146.597232,-10066.800811,-3140.991542
21850.548819,-1036.288319,-11103.089130,76.609550
21850.549152,-1776.494261,-6291.750507,2757.943793
21850.549485,2886.803174,-3627.009116,0.000000
21850.549818,296.082377,-10658.965565,7277.907231
21850.550151,4663.297435,-3108.864956,1455.581446
21850.550485,-2368.659014,-10732.986159,4903.011187
21850.550818,148.041188,-4219.173869,-76.609550
21850.551151,-4145.153275,-11769.274478,-3370.820191
21850.551484,-3849.070898,-11769.274478,-2451.505594
21850.551817,-1480.411884,-10510.924376,-3447.429741
21850.552150,-3627.009116,-13619.789333,-1838.629195
21850.552483,-4737.318029,-8364.327145,-2298.286494
21850.552816,-74.020594,-11695.253884,-76.609550
21850.553149,1998.556043,-7402.059420,2834.553343
21850.553482,1184.329507,-6883.915261,2451.505594
21850.553815,2960.823768,-9770.718434,4903.011187
21850.554148,3701.029710,-5329.482782,2374.896044
21850.554481,740.205942,-9252.574275,2681.334243
21850.554814,1776.494261,-5995.668130,76.609550
21850.555147,-666.185348,-11547.212695,-2528.115143
21850.555480,-1184.329507,-12879.583391,-2834.553343
21850.555813,-3330.926739,-9548.656652,-4903.011187
21850.556146,-4663.297435,-10732.986159,-3677.258390
21850.556479,1628.453072,-9178.553681,-76.609550
21850.556812,1702.473667,-11547.212695,1225.752797
21850.557145,3404.947333,-6957.935855,3370.820191
21850.557478,4145.153275,-6809.894666,5745.716235
21850.557811,1332.370696,-7254.018232,4213.525239
21850.558144,4071.132681,-3552.988522,-1608.800546
21850.558477,-2590.720797,-13841.851115,-76.609550
21850.558810,4811.338623,-7476.080014,-612.876398
21850.559143,-1332.370696,-13989.892304,-3294.210641
21850.559476,1184.329507,-8956.491898,-766.095498
21850.559809,1998.556043,-11251.130318,-76.609550
21850.560142,2368.659014,-10732.986159,3677.258390
21850.560475,1776.494261,-7402.059420,-76.609550
21850.560809,-2146.597232,-11103.089130,-1838.629195
21850.561142,1776.494261,-7179.997637,3677.258390
21850.561475,1998.556043,-7698.141797,1762.019645
21850.561808,2516.700203,-7698.141797,2681.334243
21850.562141,1110.308913,-7994.224174,1149.143247
21850.562474,888.247130,-11399.171507,1455.581446
21850.562807,0.000000,-4811.338623,-2145.067394
21850.563140,-2368.659014,-15396.283594,-76.609550
21850.563473,-666.185348,-11251.130318,-2528.115143
21850.563806,-2886.803174,-7772.162391,-3677.258390
21850.564139,814.226536,-14211.954086,2987.772442
21850.564472,666.185348,-4811.338623,0.000000
21850.564805,2146.597232,-10658.965565,689.485948
21850.565138,4663.297435,-9178.553681,3907.087040
21850.565471,592.164754,-9326.594869,4519.963438
21850.565804,0.000000,-7476.080014,306.438199
21850.566137,4367.215058,-11251.130318,4213.525239
21850.566470,-592.164754,-7772.162391,0.000000
21850.566803,0.000000,-7179.997637,2451.505594
21850.567136,-3034.844362,-11547.212695,-3753.867940
21850.567469,-4145.153275,-8364.327145,-2451.505594
21850.567802,-5995.668130,-10510.924376,-2145.067394
21850.568135,-1110.308913,-5995.668130,-2374.896044
21850.568468,-5477.523971,-10881.027347,-3600.648841
21850.568801,2294.638420,-7698.141797,3294.210641
21850.569134,518.144159,-10658.965565,2374.896044
21850.569467,-3552.988522,-8364.327145,3983.696590
21850.569800,4071.132681,-4737.318029,1762.019645
21850.570133,-370.102971,-10807.006753,0.000000
21850.570466,7698.141797,-3627.009116,5286.058936
21850.570799,-1702.473667,-14285.974681,1838.629195
21850.571132,2590.720797,-6513.812290,-1378.971896
21850.571466,-2812.782580,-11621.233289,-2604.724693
21850.571799,-1850.514855,-12731.542202,-3140.991542
21850.572132,962.267725,-7328.038826,-1991.848295
21850.572465,-3701.029710,-9326.594869,-2374.896044
21850.572798,-1776.494261,-9030.512492,-2374.896044
21850.573131,-3997.112087,-4811.338623,0.000000
21850.573464,888.247130,-4811.338623,3677.258390
21850.573797,5625.565159,-4737.318029,4213.525239
21850.574130,2294.638420,-8512.368333,229.828649
21850.574463,1258.350101,-8956.491898,2757.943793
21850.574796,3997.112087,-8882.471304,2221.676944
21850.575129,2960.823768,-10732.986159,229.828649
21850.575462,-518.144159,-11917.315666,-3830.477490
21850.575795,-1110.308913,-13027.624579,-2374.896044
21850.576128,-1480.411884,-11843.295072,-1685.410096
21850.576461,-370.102971,-8216.285956,-2221.676944
21850.576794,1110.308913,-9474.636058,1149.143247
21850.577127,1850.514855,-5551.544565,2451.505594
21850.577460,2960.823768,-4219.173869,6741.640382
21850.577793,3552.988522,-5995.668130,5209.449386
21850.578126,3552.988522,-7920.203579,4519.963438
21850.578459,1332.370696,-9474.636058,2221.676944
21850.578792,1258.350101,-9030.512492,-2145.067394
21850.579125,-74.020594,-14211.954086,-1302.362347
21850.579458,-3552.988522,-7476.080014,-4290.134789
21850.579791,-3775.050304,-12287.418637,-5592.497135
21850.580124,-3256.906145,-8660.409521,-3677.258390
21850.580457,-370.102971,-14211.954086,-76.609550
21850.580790,-74.020594,-9474.636058,2987.772442
21850.581123,4071.132681,-6957.935855,4519.963438
21850.581456,1776.494261,-5995.668130,7507.735880
21850.581790,4663.297435,-2738.761985,4749.792088
21850.582123,1480.411884,-8956.491898,3447.429741
21850.582456,4663.297435,-9474.636058,4519.963438
21850.582789,-2960.823768,-9548.656652,0.000000
21850.583122,-518.144159,-14211.954086,-689.485948
21850.583455,-3034.844362,-10066.800811,-6588.421283
21850.583788,-6217.729913,-12213.398043,-4903.011187
21850.584121,-4219.173869,-9918.759623,-3140.991542
21850.584454,-4737.318029,-10288.862594,-1225.752797
21850.584787,-740.205942,-5033.400406,2374.896044
21850.585120,0.000000,-8068.244768,2757.943793
21850.585453,3478.967927,-4737.318029,5439.278036
21850.585786,0.000000,-6587.832884,6205.373534
21850.586119,4663.297435,-7698.141797,2374.896044
21850.586452,2294.638420,-6883.915261,1532.190996
21850.586785,592.164754,-5995.668130,0.000000
21850.587118,2590.720797,-10658.965565,-1915.238745
21850.587451,-2886.803174,-11103.089130,-4826.401637
21850.587784,-2220.617826,-13767.830521,-5362.668486
21850.588117,-4145.153275,-12213.398043,-2451.505594
21850.588450,-74.020594,-8882.471304,-2911.162892
21850.588783,-2738.761985,-11399.171507,842.705048
21850.589116,1702.473667,-4515.256246,2145.067394
21850.589449,1850.514855,-7846.182985,5515.887586
21850.589782,4737.318029,-4811.338623,7354.516781
21850.590115,4515.256246,-7698.141797,4519.963438
21850.590448,2368.659014,-4811.338623,1225.752797
21850.590781,2738.761985,-11843.295072,-76.609550
21850.591114,2146.597232,-9844.739029,-2451.505594
21850.591447,-1776.494261,-11917.315666,-4903.011187
21850.591780,-296.082377,-12213.398043,-4290.134789
21850.592114,-740.205942,-15544.324782,-3064.381992
21850.592447,814.226536,-11399.171507,-76.609550
21850.592780,-74.020594,-10658.965565,-76.609550
21850.593113,3478.967927,-9474.636058,-76.609550
21850.593446,2368.659014,-6291.750507,6128.763984
21850.593779,2368.659014,-6587.832884,8503.660028
21850.594112,4663.297435,-5921.647536,4060.306139
21850.594445,2960.823768,-6291.750507,5286.058936
21850.594778,1776.494261,-9548.656652,1685.410096
21850.595111,2442.679609,-8734.430116,1455.581446
21850.595444,-2738.761985,-11621.233289,-3294.210641
21850.595777,-3552.988522,-10066.800811,-6971.469032
21850.596110,-1258.350101,-14804.118840,-5592.497135
21850.596443,-4145.153275,-13101.645173,1149.143247
21850.596776,-444.123565,-9474.636058,-76.609550
21850.597109,-1258.350101,-8438.347739,612.876398
21850.597442,1998.556043,-5921.647536,3907.087040
21850.597775,1850.514855,-5625.565159,5132.839837
21850.598108,1332.370696,-7624.121203,2911.162892
21850.598441,2294.638420,-6735.874072,2834.553343
21850.598774,0.000000,-8956.491898,2451.505594
21850.599107,2220.617826,-5699.585753,-1225.752797
21850.599440,-4145.153275,-12213.398043,-306.438199
21850.599773,-74.020594,-10066.800811,-5898.935335
21850.600106,-3404.947333,-13027.624579,-3140.991542
21850.600439,-5921.647536,-10732.986159,-5515.887586
21850.600772,-2146.597232,-11399.171507,-689.485948
21850.601105,-2812.782580,-10807.006753,1685.410096
21850.601438,2294.638420,-3923.091493,2681.334243
21850.601771,2294.638420,-9178.553681,4826.401637
21850.602104,2368.659014,-6883.915261,7201.297681
21850.602438,1110.308913,-6513.812290,2221.676944
21850.602771,-1258.350101,-7179.997637,0.000000
21850.603104,0.000000,-9474.636058,1455.581446
21850.603437,-2960.823768,-9548.656652,-4749.792088
21850.603770,1924.535449,-8586.388927,-1608.800546
21850.604103,-3478.967927,-11843.295072,-2374.896044
21850.604436,-370.102971,-11177.109724,-3140.991542
21850.604769,-666.185348,-8882.471304,-1302.362347
21850.605102,-1184.329507,-11843.295072,-689.485948
21850.605435,2812.782580,-7402.059420,1532.190996
21850.605768,592.164754,-9104.533087,2757.943793
21850.606101,5255.462188,-8142.265362,2068.457845
21850.606434,5847.626942,-8882.471304,8197.221829
21850.606767,4737.318029,-4811.338623,2451.505594
21850.607100,5921.647536,-9474.636058,2374.896044
21850.607433,-2886.803174,-10732.986159,-2451.505594
21850.607766,0.000000,-8660.409521,-5362.668486
21850.608099,-2442.679609,-14211.954086,-2834.553343
21850.608432,888.247130,-9030.512492,-3447.429741
21850.608765,-1332.370696,-12213.398043,-153.219100
21850.609098,0.000000,-8734.430116,153.219100
21850.609431,4663.297435,-7105.977043,842.705048
21850.609764,296.082377,-7772.162391,5362.668486
21850.610097,5847.626942,-9474.636058,2374.896044
21850.610430,592.164754,-7179.997637,4290.134789
21850.610763,2664.741391,-8660.409521,3064.381992
21850.611096,1702.473667,-10510.924376,612.876398
21850.611429,-888.247130,-8956.491898,76.609550
21850.611762,-1036.288319,-8808.450710,-4826.401637
21850.612095,2294.638420,-10658.965565,-1532.190996
21850.612428,-3997.112087,-11325.150913,-1685.410096
21850.612762,0.000000,-8216.285956,1762.019645
21850.613095,-3627.009116,-10955.047942,-1608.800546
21850.613428,-2368.659014,-4811.338623,0.000000
21850.613761,1110.308913,-11251.130318,4213.525239
21850.614094,0.000000,-5403.503377,2757.943793
21850.614427,1332.370696,-9178.553681,1685.410096
21850.614760,-592.164754,-8142.265362,1072.533697
21850.615093,3108.864956,-8586.388927,2068.457845
21850.615426,-4441.235652,-11473.192101,0.000000
21850.615759,-74.020594,-11251.130318,-1302.362347
21850.616092,-8216.285956,-11917.315666,-3370.820191
21850.616425,-1628.453072,-8290.306550,-76.609550
21850.616758,-74.020594,-9474.636058,-689.485948
21850.617091,-2368.659014,-8364.327145,1532.190996
21850.617424,4219.173869,-6661.853478,3140.991542
21850.617757,0.000000,-10288.862594,4136.915689
21850.618090,3034.844362,-7031.956449,1915.238745
21850.618423,0.000000,-10658.965565,2451.505594
21850.618756,1850.514855,-8512.368333,0.000000
21850.619089,296.082377,-9548.656652,229.828649
21850.619422,518.144159,-11251.130318,-689.485948
21850.619755,-2146.597232,-7105.977043,-3524.039291
21850.620088,-5995.668130,-9622.677246,-4903.011187
21850.620421,-2368.659014,-8660.409521,-2221.676944
21850.620754,-3034.844362,-14211.954086,-1302.362347
21850.621087,0.000000,-4811.338623,1225.752797
21850.621420,3478.967927,-6513.812290,6665.030833
21850.621753,4441.235652,-4293.194464,5515.887586
21850.622086,6735.874072,-6809.894666,3524.039291
21850.622419,1998.556043,-9622.677246,0.000000
21850.622752,2664.741391,-9548.656652,-2451.505594
21850.623086,3478.967927,-10584.944971,-4903.011187
21850.623419,2294.638420,-18949.272115,-2528.115143
21850.623752,222.061783,-9548.656652,-3370.820191
21850.624085,-1184.329507,-10732.986159,-1225.752797
21850.624418,1776.494261,-8364.327145,-1072.533697
21850.624751,2960.823768,-7179.997637,3140.991542
21850.625084,740.205942,-8586.388927,2221.676944
21850.625417,3108.864956,-5699.585753,4903.011187
21850.625750,3478.967927,-7698.141797,4826.401637
21850.626083,3034.844362,-6883.915261,3983.696590
21850.626416,4071.132681,-9474.636058,3600.648841
21850.626749,2590.720797,-7772.162391,-1685.410096
21850.627082,3404.947333,-11843.295072,1225.752797
21850.627415,-2442.679609,-15840.407159,-2451.505594
21850.627748,-666.185348,-8142.265362,-5286.058936
21850.628081,-6291.750507,-15248.242405,-4749.792088
21850.628414,74.020594,-9178.553681,-1149.143247
21850.628747,-2886.803174,-9178.553681,-76.609550
21850.629080,-4441.235652,-7772.162391,1838.629195
21850.629413,1998.556043,-3034.844362,2451.505594
21850.629746,-2368.659014,-8364.327145,6741.640382
21850.630079,7624.121203,-3256.906145,4826.401637
21850.630412,-74.020594,-9474.636058,3294.210641
21850.630745,2294.638420,-9326.594869,1762.019645
21850.631078,-1924.535449,-10066.800811,536.266849
21850.631411,-2442.679609,-11547.212695,-3140.991542
21850.631745,-1332.370696,-8438.347739,-5975.544884
21850.632078,-3034.844362,-17468.860231,-2834.553343
21850.632411,-3256.906145,-7179.997637,-2451.505594
21850.632744,-5699.585753,-14211.954086,-1302.362347
21850.633077,-370.102971,-8290.306550,-1149.143247
21850.633411,-5107.421000,-8068.244768,1915.238745
21850.633744,1776.494261,-4811.338623,7354.516781
21850.634077,2294.638420,-5921.647536,8503.660028
21850.634410,4071.132681,-5847.626942,5515.887586
21850.634743,1554.432478,-7031.956449,5132.839837
21850.635077,1406.391290,-8290.306550,1149.143247
21850.635410,592.164754,-11621.233289,-1915.238745
21850.635743,-4589.276840,-12805.562797,-6128.763984
21850.636076,-1480.411884,-12509.480420,-5286.058936
21850.636409,-7105.977043,-10140.821405,-4290.134789
21850.636742,2664.741391,-8290.306550,-1302.362347
21850.637076,1702.473667,-10584.944971,-1302.362347
21850.637409,2886.803174,-9548.656652,0.000000
21850.637742,2664.741391,-5551.544565,4596.572988
21850.638075,2886.803174,-7105.977043,2987.772442
21850.638408,6735.874072,-7105.977043,5898.935335
21850.638742,4737.318029,-7846.182985,5132.839837
21850.639075,6735.874072,-7550.100608,3830.477490
21850.639408,3997.112087,-8882.471304,1378.971896
21850.639741,0.000000,-11917.315666,-76.609550
21850.640074,-2442.679609,-10732.986159,-5822.325785
21850.640407,-2220.617826,-9548.656652,-7354.516781
21850.640741,-2368.659014,-12953.603985,-3140.991542
21850.641074,0.000000,-10584.944971,0.000000
21850.641407,1110.308913,-9030.512492,1149.143247
21850.641740,4959.379811,-5181.441594,5745.716235
21850.642073,3552.988522,-7476.080014,6128.763984
21850.642407,4071.132681,-6513.812290,3600.648841
21850.642740,2368.659014,-10214.842000,4826.401637
21850.643073,2590.720797,-6587.832884,612.876398
21850.643406,592.164754,-10807.006753,1762.019645
21850.643739,-1258.350101,-11251.130318,-4366.744339
21850.644073,-666.185348,-11251.130318,-2834.553343
21850.644406,0.000000,-10140.821405,-4290.134789
21850.644739,-1850.514855,-14656.077652,-1915.238745
21850.645072,-962.267725,-9030.512492,-766.095498
21850.645405,-4737.318029,-10732.986159,-1225.752797
21850.645738,3478.967927,-7994.224174,5439.278036
21850.646072,-2072.576638,-6587.832884,4903.011187
21850.646405,1554.432478,-8882.471304,4826.401637
21850.646738,666.185348,-2738.761985,3677.258390
21850.647071,-3552.988522,-6587.832884,-1072.533697
21850.647404,2664.741391,-6661.853478,3140.991542
21850.647738,-4367.215058,-11251.130318,-536.266849
21850.648071,-1776.494261,-9918.759623,-4673.182538
21850.648404,-4441.235652,-14137.933492,-2145.067394
21850.648737,-2738.761985,-8660.409521,-6741.640382
21850.649070,-888.247130,-11251.130318,-76.609550
21850.649404,1702.473667,-12879.583391,3600.648841
21850.649737,2294.638420,-5995.668130,1225.752797
21850.650070,-2368.659014,-7772.162391,4903.011187
21850.650403,3256.906145,-6957.935855,3447.429741
21850.650736,0.000000,-9696.697840,4060.306139
21850.651069,296.082377,-6883.915261,1302.362347
21850.651403,-74.020594,-8882.471304,-76.609550
21850.651736,-2442.679609,-6587.832884,-2451.505594
21850.652069,-962.267725,-9918.759623,-2681.334243
21850.652402,-2294.638420,-10066.800811,-1302.362347
21850.652735,-1850.514855,-10362.883188,-3907.087040
21850.653069,0.000000,-11917.315666,-1532.190996
21850.653402,-74.020594,-11843.295072,0.000000
21850.653735,4071.132681,-3034.844362,3677.258390
21850.654068,2368.659014,-10584.944971,6511.811733
21850.654401,7031.956449,-3552.988522,842.705048
21850.654734,0.000000,-10436.903782,2604.724693
21850.655068,3478.967927,-7402.059420,1378.971896
21850.655401,2516.700203,-9326.594869,-689.485948
21850.655734,-2442.679609,-13027.624579,-3907.087040
21850.656067,3478.967927,-9474.636058,-689.485948
21850.656400,-2442.679609,-10140.821405,-3677.258390
21850.656734,5477.523971,-8290.306550,1225.752797
21850.657067,-74.020594,-13027.624579,-76.609550
21850.657400,1628.453072,-7772.162391,0.000000
21850.657733,4663.297435,-9474.636058,4213.525239
21850.658066,1480.411884,-9400.615463,2681.334243
21850.658400,4071.132681,-8660.409521,2068.457845
21850.658733,74.020594,-10214.842000,919.314598
21850.659066,4589.276840,-5329.482782,-536.266849
21850.659399,962.267725,-9548.656652,0.000000
21850.659732,1110.308913,-14211.954086,2374.896044
21850.660065,-370.102971,-6513.812290,-3140.991542
21850.660399,-2960.823768,-11917.315666,0.000000
21850.660732,-74.020594,-8586.388927,-229.828649
21850.661065,-1406.391290,-5921.647536,-76.609550
21850.661398,-1702.473667,-7846.182985,306.438199
21850.661731,592.164754,-7550.100608,1991.848295
21850.662065,-1184.329507,-8364.327145,2451.505594
21850.662398,1184.329507,-7994.224174,3600.648841
21850.662731,4071.132681,-9474.636058,1149.143247
21850.663064,-1776.494261,-8660.409521,0.000000
21850.663397,-2368.659014,-11621.233289,2374.896044
21850.663731,-1554.432478,-9992.780217,-4290.134789
21850.664064,-2220.617826,-10510.924376,-2528.115143
21850.664397,-2072.576638,-11103.089130,-536.266849
21850.664730,-666.185348,-9030.512492,306.438199
21850.665063,-2072.576638,-8660.409521,612.876398
21850.665396,888.247130,-7698.141797,3600.648841
21850.665730,0.000000,-5921.647536,2604.724693
21850.666063,814.226536,-8068.244768,2528.115143
21850.666396,814.226536,-8290.306550,1149.143247
21850.666729,-1850.514855,-8290.306550,-1915.238745
21850.667062,-2368.659014,-10140.821405,612.876398
21850.667396,-666.185348,-11547.212695,-1302.362347
21850.667729,-2442.679609,-10807.006753,-4596.572988
21850.668062,-74.020594,-11251.130318,-1608.800546
21850.668395,-2072.576638,-12435.459826,-459.657299
21850.668728,-888.247130,-8364.327145,766.095498
21850.669061,222.061783,-6439.791695,76.609550
21850.669395,-592.164754,-10066.800811,-689.485948
21850.669728,5255.462188,-7698.141797,7277.907231
21850.670061,0.000000,-4811.338623,6128.763984
21850.670394,7031.956449,-7994.224174,2911.162892
21850.670727,2368.659014,-5995.668130,1225.752797
21850.671061,1628.453072,-8660.409521,-1915.238745
21850.671394,1998.556043,-11547.212695,-1378.971896
21850.671727,-2368.659014,-11473.192101,-4903.011187
21850.672060,-1480.411884,-11251.130318,-4903.011187
21850.672393,-3256.906145,-12213.398043,-1762.019645
21850.672727,-1258.350101,-9474.636058,-3140.991542
21850.673060,740.205942,-10658.965565,2298.286494
21850.673393,4663.297435,-7698.141797,4060.306139
21850.673726,2664.741391,-3775.050304,4903.011187
21850.674059,2664.741391,-7920.203579,6741.640382
21850.674392,1480.411884,-6587.832884,1532.190996
21850.674726,3627.009116,-7772.162391,2451.505594
21850.675059,4885.359217,-8586.388927,2987.772442
21850.675392,3849.070898,-9696.697840,1225.752797
21850.675725,0.000000,-11029.068536,-4903.011187
21850.676058,-74.020594,-15396.283594,-4979.620737
21850.676392,-1850.514855,-15396.283594,-2528.115143
21850.676725,-3701.029710,-8364.327145,-3370.820191
21850.677058,-1850.514855,-10658.965565,2068.457845
21850.677391,-4145.153275,-5551.544565,-1915.238745
21850.677724,2960.823768,-7772.162391,4519.963438
21850.678058,3701.029710,-5847.626942,8656.879127
21850.678391,3108.864956,-4737.318029,4826.401637
21850.678724,2664.741391,-8068.244768,4519.963438
21850.679057,2294.638420,-10658.965565,-2068.457845
21850.679390,-1776.494261,-10881.027347,-1532.190996
21850.679723,-74.020594,-14211.954086,-76.609550
21850.680057,-3627.009116,-13027.624579,-6511.811733
21850.680390,-3256.906145,-11917.315666,-2451.505594
21850.680723,-1036.288319,-9252.574275,689.485948
21850.681056,-1850.514855,-10510.924376,-76.609550
21850.681389,0.000000,-6291.750507,2221.676944
21850.681723,0.000000,-8364.327145,4596.572988
21850.682056,1406.391290,-4811.338623,5056.230287
21850.682389,2738.761985,-5255.462188,6665.030833
21850.682722,1332.370696,-7328.038826,2987.772442
21850.683055,518.144159,-6365.771101,0.000000
21850.683388,-2368.659014,-9548.656652,-1685.410096
21850.683722,1110.308913,-14211.954086,-3140.991542
21850.684055,-2442.679609,-9696.697840,-5515.887586
21850.684388,-3256.906145,-14137.933492,-2834.553343
21850.684721,-74.020594,-10658.965565,-76.609550
21850.685054,740.205942,-7772.162391,-1072.533697
21850.685388,814.226536,-9474.636058,2757.943793
21850.685721,1332.370696,-6587.832884,3294.210641
21850.686054,296.082377,-5995.668130,612.876398
21850.686387,592.164754,-7179.997637,5898.935335
21850.686720,2886.803174,-7402.059420,766.095498
21850.687054,592.164754,-7179.997637,0.000000
21850.687387,2812.782580,-10658.965565,2374.896044
21850.687720,1332.370696,-10436.903782,-2681.334243
21850.688053,-74.020594,-12435.459826,-1608.800546
21850.688386,-1184.329507,-11843.295072,-2221.676944
21850.688719,-2368.659014,-10732.986159,-2757.943793
21850.689053,-666.185348,-10955.047942,-689.485948
21850.689386,0.000000,-8364.327145,2374.896044
21850.689719,1110.308913,-6513.812290,1149.143247
21850.690052,2368.659014,-6735.874072,4903.011187
21850.690385,4071.132681,-9474.636058,4826.401637
21850.690719,3849.070898,-6735.874072,3064.381992
21850.691052,2886.803174,-10658.965565,4519.963438
21850.691385,4737.318029,-6587.832884,2145.067394
21850.691718,1110.308913,-12213.398043,-689.485948
21850.692051,-1554.432478,-7994.224174,-5592.497135
21850.692385,-1184.329507,-14804.118840,-2528.115143
21850.692718,-3849.070898,-9844.739029,-4596.572988
21850.693051,-2368.659014,-9548.656652,-1532.190996
21850.693384,-2442.679609,-10066.800811,-1915.238745
21850.693717,-74.020594,-8290.306550,842.705048
21850.694050,592.164754,-6291.750507,3677.258390
21850.694384,444.123565,-6439.791695,5209.449386
21850.694717,-962.267725,-5625.565159,4443.353888
21850.695050,0.000000,-5995.668130,3064.381992
21850.695383,3478.967927,-11843.295072,1149.143247
21850.695716,1776.494261,-9548.656652,4060.306139
21850.696050,-1036.288319,-13027.624579,-76.609550
21850.696383,-74.020594,-9178.553681,-4136.915689
21850.696716,-2738.761985,-11251.130318,-4673.182538
21850.697049,-3034.844362,-10436.903782,-3677.258390
21850.697382,-1850.514855,-9030.512492,-4213.525239
21850.697715,-1036.288319,-11473.192101,-229.828649
21850.698049,1776.494261,-7179.997637,4903.011187
21850.698382,3478.967927,-4737.318029,3907.087040
21850.698715,3701.029710,-6587.832884,5132.839837
21850.699048,4293.194464,-6365.771101,2451.505594
21850.699381,1998.556043,-9548.656652,3370.820191
21850.699715,-2368.659014,-7772.162391,0.000000
21850.700048,1702.473667,-9474.636058,-1915.238745
21850.700381,-3627.009116,-11029.068536,-3064.381992
21850.700714,0.000000,-6883.915261,-1302.362347
21850.701047,-74.020594,-14211.954086,-1302.362347
21850.701381,-3849.070898,-7772.162391,-3677.258390
21850.701714,-1110.308913,-9622.677246,-1455.581446
21850.702047,444.123565,-10732.986159,2834.553343
21850.702380,4663.297435,-8660.409521,5056.230287
21850.702713,3923.091493,-9178.553681,6435.202183
21850.703046,7031.956449,-7105.977043,3600.648841
21850.703380,296.082377,-10140.821405,1225.752797
21850.703713,4811.338623,-8216.285956,1762.019645
21850.704046,-814.226536,-11399.171507,-1378.971896
21850.704379,-1776.494261,-9104.533087,-1685.410096
21850.704712,-814.226536,-10140.821405,-2987.772442
21850.705046,-2442.679609,-11843.295072,-1762.019645
21850.705379,444.123565,-8290.306550,-1838.629195
21850.705712,-74.020594,-12731.542202,1149.143247
21850.706045,4663.297435,-7698.141797,2528.115143
21850.706378,2368.659014,-7994.224174,4519.963438
21850.706712,2294.638420,-11547.212695,4213.525239
21850.707045,1110.308913,-6883.915261,0.000000
21850.707378,-74.020594,-12435.459826,2068.457845
21850.707711,1924.535449,-7402.059420,919.314598
21850.708044,-3701.029710,-10436.903782,-1991.848295
21850.708377,-2220.617826,-9474.636058,-2757.943793
21850.708711,-2368.659014,-7476.080014,-1838.629195
21850.709044,-2960.823768,-9548.656652,0.000000
21850.709377,-666.185348,-9474.636058,-76.609550
21850.709710,-2442.679609,-8808.450710,1225.752797
21850.710043,0.000000,-4811.338623,0.000000
21850.710377,3923.091493,-12731.542202,3907.087040
21850.710710,3404.947333,-8956.491898,2604.724693
21850.711043,4145.153275,-9474.636058,4826.401637
21850.711376,3330.926739,-9030.512492,3294.210641
21850.711709,-2368.659014,-7772.162391,-2451.505594
21850.712042,-3701.029710,-10066.800811,-3370.820191
21850.712376,-2738.761985,-10066.800811,-3140.991542
21850.712709,-3849.070898,-10881.027347,-2604.724693
21850.713042,1184.329507,-9844.739029,4596.572988
21850.713375,-3627.009116,-8512.368333,1762.019645
21850.713708,3478.967927,-4737.318029,1532.190996
21850.714042,0.000000,-7328.038826,2451.505594
21850.714375,4071.132681,-9474.636058,1762.019645
21850.714708,0.000000,-8512.368333,-1838.629195
21850.715041,1332.370696,-14878.139434,1762.019645
21850.715374,3478.967927,-7994.224174,3140.991542
21850.715708,3404.947333,-6883.915261,1455.581446
21850.716041,2886.803174,-9474.636058,-689.485948
21850.716374,-3552.988522,-11029.068536,-2451.505594
21850.716707,-2294.638420,-7179.997637,0.000000
21850.717040,-1776.494261,-10214.842000,-689.485948
21850.717373,1702.473667,-12583.501014,1149.143247
21850.717707,518.144159,-6957.935855,1608.800546
21850.718040,4071.132681,-6513.812290,2221.676944
21850.718373,2368.659014,-10436.903782,3294.210641
21850.718706,2072.576638,-9400.615463,1378.971896
21850.719039,2072.576638,-10140.821405,919.314598
21850.719373,2294.638420,-9178.553681,-76.609550
21850.719706,1184.329507,-11029.068536,0.000000
21850.720039,814.226536,-13619.789333,-76.609550
21850.720372,-740.205942,-6587.832884,-2451.505594
21850.720705,-1776.494261,-9844.739029,0.000000
21850.721039,1110.308913,-7994.224174,-1455.581446
21850.721372,-666.185348,-9844.739029,-1225.752797
21850.721705,74.020594,-9326.594869,-919.314598
21850.722038,1184.329507,-9844.739029,2987.772442
21850.722371,2442.679609,-8290.306550,2987.772442
21850.722704,3552.988522,-8142.265362,6052.154434
21850.723038,4071.132681,-8882.471304,2374.896044
21850.723371,-1036.288319,-8956.491898,0.000000
21850.723704,2368.659014,-8586.388927,1225.752797
21850.724037,-3404.947333,-11917.315666,-2145.067394
21850.724370,-4219.173869,-11325.150913,-2221.676944
21850.724704,-5107.421000,-10732.986159,-2068.457845
21850.725037,-2294.638420,-5403.503377,-2528.115143
21850.725370,-4737.318029,-7476.080014,-2451.505594
21850.725703,-74.020594,-13027.624579,2068.457845
21850.726036,814.226536,-4293.194464,2757.943793
21850.726369,-4145.153275,-10732.986159,4903.011187
21850.726703,4663.297435,-8290.306550,3600.648841
21850.727036,-1480.411884,-7772.162391,3217.601092
21850.727369,3701.029710,-5921.647536,2451.505594
21850.727702,1406.391290,-9178.553681,2068.457845
21850.728035,-2590.720797,-12361.439231,-2068.457845
21850.728369,0.000000,-7772.162391,-1532.190996
21850.728702,-5107.421000,-11103.089130,-4366.744339
21850.729035,222.061783,-9326.594869,-4290.134789
21850.729368,-4071.132681,-10362.883188,-2221.676944
21850.729701,2294.638420,-9474.636058,-76.609550
21850.730035,4071.132681,-4589.276840,4903.011187
21850.730368,1184.329507,-6587.832884,4903.011187
21850.730701,7550.100608,-5625.565159,3600.648841
21850.731034,4071.132681,-8290.306550,1762.019645
21850.731363,4737.318029,-9548.656652,-612.876398
21850.731696,592.164754,-13693.809927,-3524.039291
21850.732030,1628.453072,-15618.345376,229.828649
21850.732363,2220.617826,-11325.150913,-1762.019645
21850.732696,1184.329507,-9548.656652,-995.924147
21850.733029,2294.638420,-4959.379811,-2451.505594
21850.733362,1184.329507,-9474.636058,1149.143247
21850.733695,-74.020594,-10658.965565,2374.896044
21850.734028,-1850.514855,-7179.997637,306.438199
21850.734361,-1406.391290,-7105.977043,1762.019645
21850.734694,2960.823768,-7105.977043,4519.963438
21850.735027,3701.029710,-8068.244768,2681.334243
21850.735360,2960.823768,-5773.606348,1532.190996
21850.735693,-1628.453072,-12509.480420,0.000000
21850.736026,-888.247130,-9548.656652,-4903.011187
21850.736359,-2442.679609,-15396.283594,-6818.249932
21850.736692,-1850.514855,-12879.583391,-4903.011187
21850.737025,-3256.906145,-9548.656652,0.000000
21850.737358,-1776.494261,-8364.327145,-2451.505594
21850.737691,1332.370696,-7698.141797,3370.820191
21850.738024,888.247130,-7624.121203,4749.792088
21850.738358,4071.132681,-7031.956449,5975.544884
21850.738691,4071.132681,-7105.977043,5745.716235
21850.739024,0.000000,-9548.656652,3217.601092
21850.739357,2590.720797,-6513.812290,-76.609550
21850.739690,-4441.235652,-10140.821405,3064.381992
21850.740023,-74.020594,-5921.647536,-1302.362347
21850.740356,-4811.338623,-12731.542202,-4366.744339
21850.740689,-5625.565159,-13323.706956,-4673.182538
21850.741022,-3108.864956,-11547.212695,-2987.772442
21850.741355,-6365.771101,-11251.130318,-2528.115143
21850.741688,-2368.659014,-6587.832884,0.000000
21850.742021,-74.020594,-8290.306550,3600.648841
21850.742354,2368.659014,-4811.338623,5822.325785
21850.742687,2368.659014,-5403.503377,8810.098227
21850.743020,2294.638420,-8882.471304,1608.800546
21850.743353,4663.297435,-7031.956449,4826.401637
21850.743686,296.082377,-9622.677246,1915.238745
21850.744019,2146.597232,-8068.244768,-2068.457845
21850.744353,-2516.700203,-11991.336260,-3753.867940
21850.744686,-1850.514855,-11177.109724,-4136.915689
21850.745019,-518.144159,-11251.130318,-3140.991542
21850.745352,-1776.494261,-9992.780217,-1838.629195
21850.745685,-1036.288319,-9178.553681,766.095498
21850.746018,1036.288319,-6809.894666,4519.963438
21850.746351,2886.803174,-3404.947333,1762.019645
21850.746684,2368.659014,-8216.285956,4213.525239
21850.747017,5847.626942,-8882.471304,2681.334243
21850.747350,2368.659014,-8364.327145,1685.410096
21850.747683,4145.153275,-10955.047942,2834.553343
21850.748016,2886.803174,-9992.780217,-2757.943793
21850.748349,2294.638420,-9178.553681,-4903.011187
21850.748682,-74.020594,-15100.201217,-3447.429741
21850.749015,1628.453072,-12139.377449,-2451.505594
21850.749348,0.000000,-9548.656652,1532.190996
21850.749681,2738.761985,-9474.636058,2374.896044
21850.750014,2294.638420,-11251.130318,4213.525239
21850.750347,0.000000,-4811.338623,3677.258390
21850.750681,3478.967927,-7105.977043,4826.401637
21850.751014,-2072.576638,-5995.668130,1532.190996
21850.751347,0.000000,-7254.018232,-383.047749
21850.751680,-2590.720797,-8808.450710,-1685.410096
21850.752013,74.020594,-10955.047942,-2834.553343
21850.752346,-1184.329507,-11029.068536,-2451.505594
21850.752679,-74.020594,-14211.954086,-3753.867940
21850.753012,-1628.453072,-8956.491898,-2145.067394
21850.753345,-4145.153275,-9548.656652,1225.752797
21850.753678,-74.020594,-11843.295072,-689.485948
21850.754011,2368.659014,-7920.203579,6052.154434
21850.754344,2368.659014,-8438.347739,4596.572988
21850.754677,5181.441594,-7846.182985,6205.373534
21850.755010,1036.288319,-9030.512492,3753.867940
21850.755343,2294.638420,-8290.306550,2374.896044
21850.755676,-814.226536,-7179.997637,0.000000
21850.756009,0.000000,-8956.491898,-1532.190996
21850.756342,-370.102971,-12731.542202,-1302.362347
21850.756676,-3034.844362,-8734.430116,-3217.601092
21850.757009,-2368.659014,-10436.903782,-76.609550
21850.757342,-4441.235652,-8068.244768,0.000000
21850.757675,-3330.926739,-4663.297435,-1915.238745
21850.758008,-2368.659014,-8216.285956,306.438199
21850.758341,-1850.514855,-8882.471304,3294.210641
21850.758674,-2072.576638,-4811.338623,2757.943793
21850.759007,-592.164754,-7031.956449,2221.676944
21850.759340,1998.556043,-8586.388927,1608.800546
21850.759673,1184.329507,-8364.327145,612.876398
21850.760006,0.000000,-9844.739029,-1532.190996
21850.760339,2294.638420,-12435.459826,-3447.429741
21850.760672,-3256.906145,-11917.315666,-4903.011187
21850.761005,1184.329507,-10732.986159,766.095498
21850.761338,-444.123565,-9548.656652,0.000000
21850.761671,888.247130,-9104.533087,1302.362347
21850.762004,3701.029710,-8956.491898,5669.106685
21850.762337,3182.885551,-6809.894666,5745.716235
21850.762670,4663.297435,-7105.977043,6052.154434
21850.763004,74.020594,-8068.244768,2834.553343
21850.763337,-74.020594,-7105.977043,-3064.381992
21850.763670,-2368.659014,-8660.409521,-76.609550
21850.764003,-74.020594,-12287.418637,-1302.362347
21850.764336,1480.411884,-8290.306550,-1532.190996
21850.764669,-740.205942,-12435.459826,-2528.115143
21850.765002,1036.288319,-9696.697840,-229.828649
21850.765335,-518.144159,-11325.150913,229.828649
21850.765668,2368.659014,-7624.121203,689.485948
21850.766001,2368.659014,-11103.089130,5209.449386
21850.766334,2368.659014,-3627.009116,0.000000
21850.766667,5329.482782,-8512.368333,5439.278036
21850.767000,1998.556043,-8660.409521,612.876398
21850.767333,4367.215058,-8586.388927,1149.143247
21850.767666,-74.020594,-10955.047942,-76.609550
21850.767999,1924.535449,-9252.574275,-1685.410096
21850.768332,-2812.782580,-9844.739029,-4213.525239
21850.768665,-4145.153275,-12879.583391,-2221.676944
21850.768999,-1258.350101,-9474.636058,-1302.362347
21850.769332,-4145.153275,-8660.409521,1532.190996
21850.769665,0.000000,-6587.832884,2451.505594
21850.769998,1702.473667,-7105.977043,2221.676944
21850.770331,0.000000,-5995.668130,2451.505594
21850.770664,1406.391290,-6439.791695,1225.752797
21850.770997,814.226536,-11473.192101,-842.705048
21850.771330,5995.668130,-10807.006753,4519.963438
21850.771663,962.267725,-11399.171507,2911.162892
21850.771996,4071.132681,-8142.265362,0.000000
21850.772329,-6809.894666,-11325.150913,-1685.410096
21850.772662,-1554.432478,-9178.553681,-4060.306139
21850.772995,-1850.514855,-10955.047942,-3217.601092
21850.773328,-4145.153275,-9548.656652,0.000000
21850.773661,-814.226536,-5551.544565,0.000000
21850.773994,-6809.894666,-10510.924376,3140.991542
21850.774327,2220.617826,-2886.803174,5745.716235
21850.774660,814.226536,-5921.647536,3524.039291
21850.774994,4663.297435,-8364.327145,919.314598
21850.775327,1924.535449,-9178.553681,1302.362347
21850.775660,-1184.329507,-8882.471304,-2451.505594
21850.775993,1332.370696,-9992.780217,-2528.115143
21850.776326,-2960.823768,-11917.315666,-2987.772442
21850.776659,814.226536,-12953.603985,-2528.115143
21850.776992,-2072.576638,-8364.327145,-3064.381992
21850.777325,-2368.659014,-10140.821405,-76.609550
21850.777658,-1258.350101,-9178.553681,1608.800546
21850.777991,0.000000,-4811.338623,2451.505594
21850.778324,4071.132681,-5773.606348,4443.353888
21850.778657,4145.153275,-7105.977043,5286.058936
21850.778990,2442.679609,-8808.450710,2681.334243
21850.779323,4071.132681,-10658.965565,1762.019645
21850.779656,2294.638420,-11843.295072,-2374.896044
21850.779989,1184.329507,-10732.986159,-995.924147
21850.780322,-74.020594,-15988.448347,-689.485948
21850.780655,-666.185348,-11029.068536,-2451.505594
21850.780988,-666.185348,-10066.800811,1149.143247
21850.781322,-1184.329507,-7772.162391,-1225.752797
21850.781655,0.000000,-7402.059420,1838.629195
21850.781988,888.247130,-7402.059420,2834.553343
21850.782321,1184.329507,-4811.338623,3830.477490
21850.782654,2886.803174,-7179.997637,0.000000
21850.782987,5107.421000,-11843.295072,2374.896044
21850.783320,2368.659014,-9548.656652,1225.752797
21850.783653,296.082377,-7179.997637,0.000000
21850.783986,518.144159,-11843.295072,-2528.115143
21850.784319,370.102971,-12213.398043,-2298.286494
21850.784652,0.000000,-11547.212695,-1991.848295
21850.784985,-1702.473667,-10658.965565,-1532.190996
21850.785318,1258.350101,-9918.759623,0.000000
21850.785651,-2960.823768,-7772.162391,1225.752797
21850.785984,2294.638420,-9474.636058,1762.019645
21850.786317,-1776.494261,-4811.338623,2451.505594
21850.786650,2294.638420,-7698.141797,2987.772442
21850.786983,962.267725,-8660.409521,1225.752797
21850.787317,3478.967927,-10288.862594,2681.334243
21850.787650,148.041188,-10955.047942,3064.381992
21850.787983,2072.576638,-7550.100608,1149.143247
21850.788316,-1850.514855,-11251.130318,-2528.115143
21850.788649,-2960.823768,-11029.068536,-1302.362347
21850.788982,-4811.338623,-8512.368333,-5822.325785
21850.789315,-4145.153275,-9548.656652,-3370.820191
21850.789648,-2442.679609,-11843.295072,-842.705048
21850.789981,-3552.988522,-6883.915261,0.000000
21850.790314,518.144159,-7698.141797,3907.087040
21850.790647,2368.659014,-4219.173869,3524.039291
21850.790980,888.247130,-9770.718434,2834.553343
21850.791313,4071.132681,-8290.306550,4213.525239
21850.791646,-740.205942,-9474.636058,2068.457845
21850.791979,-148.041188,-8734.430116,-689.485948
21850.792312,-2516.700203,-11695.253884,-1532.190996
21850.792645,-1924.535449,-8216.285956,-4213.525239
21850.792978,-74.020594,-13027.624579,-1608.800546
21850.793311,-1628.453072,-9844.739029,1838.629195
21850.793645,-2590.720797,-13027.624579,-3753.867940
21850.793978,-814.226536,-9104.533087,0.000000
21850.794311,0.000000,-7179.997637,3677.258390
21850.794644,3478.967927,-4737.318029,2987.772442
21850.794977,3552.988522,-8290.306550,4826.401637
21850.795310,4145.153275,-6143.709319,3140.991542
21850.795643,2960.823768,-8882.471304,2145.067394
21850.795976,4071.132681,-6587.832884,-2451.505594
21850.796309,148.041188,-16580.613101,-76.609550
21850.796642,-1258.350101,-12731.542202,-3753.867940
21850.796975,1554.432478,-9548.656652,306.438199
21850.797308,592.164754,-9992.780217,459.657299
21850.797641,4367.215058,-4441.235652,-2145.067394
21850.797974,888.247130,-10288.862594,689.485948
21850.798307,1924.535449,-6809.894666,-306.438199
21850.798640,-74.020594,-9548.656652,-766.095498
21850.798973,0.000000,-10732.986159,0.000000
21850.799306,5847.626942,-11843.295072,3600.648841
21850.799640,2812.782580,-6587.832884,1838.629195
21850.799973,4737.318029,-7179.997637,4903.011187
21850.800306,3923.091493,-8882.471304,842.705048
21850.800639,1184.329507,-7476.080014,-2145.067394
21850.800972,-814.226536,-10362.883188,-2528.115143
21850.801305,-962.267725,-13619.789333,-2681.334243
21850.801638,-1924.535449,-9548.656652,-1915.238745
21850.801971,-148.041188,-12731.542202,1762.019645
21850.802304,-74.020594,-9474.636058,-76.609550
21850.802637,0.000000,-3923.091493,1532.190996
21850.802970,3256.906145,-8882.471304,3294.210641
21850.803303,4663.297435,-10362.883188,2374.896044
21850.803636,0.000000,-10436.903782,5515.887586
21850.803969,814.226536,-6291.750507,1225.752797
21850.804302,-4737.318029,-10732.986159,-2145.067394
21850.804635,-1554.432478,-7031.956449,-2757.943793
21850.804968,-5107.421000,-13027.624579,-1302.362347
21850.805301,-1554.432478,-7476.080014,-3370.820191
21850.805634,-6587.832884,-11103.089130,-1915.238745
21850.805968,-5181.441594,-7179.997637,-1685.410096
21850.806301,-2220.617826,-4811.338623,1838.629195
21850.806634,-3552.988522,-7179.997637,3064.381992
21850.806967,-296.082377,-8734.430116,4826.401637
21850.807300,-2294.638420,-7994.224174,1455.581446
21850.807633,296.082377,-2442.679609,612.876398
21850.807966,370.102971,-9474.636058,2068.457845
21850.808299,2368.659014,-11029.068536,2757.943793
21850.808632,-3849.070898,-10881.027347,-1915.238745
21850.808965,-2368.659014,-8956.491898,-2757.943793
21850.809298,-4737.318029,-14211.954086,-4290.134789
21850.809631,-1258.350101,-9252.574275,-3677.258390
21850.809964,-74.020594,-14211.954086,-76.609550
21850.810297,1850.514855,-6883.915261,2451.505594
21850.810630,2146.597232,-6587.832884,4903.011187
21850.810963,4737.318029,-2442.679609,3064.381992
21850.811296,1184.329507,-12805.562797,3217.601092
21850.811629,3923.091493,-7105.977043,2681.334243
21850.811963,1628.453072,-8438.347739,1608.800546
21850.812296,814.226536,-13027.624579,-76.609550
21850.812629,2072.576638,-4219.173869,-1838.629195
21850.812962,-3701.029710,-7476.080014,-5898.935335
21850.813295,2960.823768,-8364.327145,153.219100
21850.813628,-2738.761985,-10658.965565,-4979.620737
21850.813961,2294.638420,-11843.295072,-2528.115143
21850.814294,2294.638420,-7402.059420,766.095498
21850.814627,7254.018232,-7105.977043,3907.087040
21850.814960,5107.421000,-10955.047942,4903.011187
21850.815293,7624.121203,-9844.739029,5745.716235
21850.815626,5329.482782,-10436.903782,4519.963438
21850.815959,4145.153275,-5995.668130,0.000000
21850.816292,0.000000,-11325.150913,0.000000
21850.816625,1406.391290,-12879.583391,-1455.581446
21850.816958,1850.514855,-8290.306550,-3140.991542
21850.817291,-2886.803174,-12065.356855,-1302.362347
21850.817624,-518.144159,-7772.162391,-383.047749
21850.817957,592.164754,-4811.338623,-76.609550
21850.818291,3256.906145,-10066.800811,4213.525239
21850.818624,-1258.350101,-10658.965565,4213.525239
21850.818957,-2368.659014,-8364.327145,1838.629195
21850.819290,2590.720797,-7550.100608,4826.401637
21850.819623,2886.803174,-3552.988522,-689.485948
21850.819956,-2368.659014,-5403.503377,0.000000
21850.820289,-3627.009116,-12657.521608,-3600.648841
21850.820622,-5773.606348,-14137.933492,-5898.935335
21850.820955,-5329.482782,-10140.821405,-3064.381992
21850.821288,-3775.050304,-11473.192101,-2298.286494
21850.821621,-74.020594,-8586.388927,-229.828649
21850.821954,-4811.338623,-9548.656652,1225.752797
21850.822287,2220.617826,-5551.544565,3600.648841
21850.822620,-296.082377,-8512.368333,6665.030833
21850.822953,1776.494261,-2738.761985,2451.505594
21850.823286,-74.020594,-11251.130318,1762.019645
21850.823619,-1628.453072,-7772.162391,0.000000
21850.823952,-4145.153275,-10732.986159,1762.019645
21850.824286,-3330.926739,-9474.636058,-3140.991542
21850.824619,-5477.523971,-6587.832884,-6741.640382
21850.824952,-9548.656652,-15100.201217,-2987.772442
21850.825285,-2072.576638,-7994.224174,-153.219100
21850.825618,-4219.173869,-6217.729913,612.876398
21850.825951,-74.020594,-5921.647536,2374.896044
21850.826284,1110.308913,-9474.636058,4826.401637
21850.826617,1184.329507,-4811.338623,4903.011187
21850.826950,2368.659014,-8068.244768,5669.106685
21850.827283,2886.803174,-11251.130318,383.047749
21850.827616,3552.988522,-8364.327145,1225.752797
21850.827949,2294.638420,-9548.656652,-766.095498
21850.828282,6513.812290,-8808.450710,-2068.457845
21850.828615,-592.164754,-13101.645173,-3294.210641
21850.828948,3478.967927,-9474.636058,-3753.867940
21850.829281,1702.473667,-11843.295072,-3140.991542
21850.829614,2368.659014,-7179.997637,1225.752797
21850.829947,2738.761985,-13027.624579,1762.019645
21850.830281,5773.606348,-3923.091493,3064.381992
21850.830614,7031.956449,-6217.729913,4826.401637
21850.830947,3997.112087,-7920.203579,3294.210641
21850.831280,7550.100608,-7550.100608,2834.553343
21850.831613,592.164754,-11325.150913,153.219100
21850.831946,4737.318029,-8364.327145,0.000000
21850.832279,1702.473667,-9178.553681,-3677.258390
21850.832612,0.000000,-10732.986159,-1608.800546
21850.832945,-74.020594,-11251.130318,-2834.553343
21850.833278,-1480.411884,-9548.656652,-3677.258390
21850.833611,0.000000,-11917.315666,-1225.752797
21850.833944,518.144159,-8586.388927,995.924147
21850.834277,1924.535449,-7772.162391,1685.410096
21850.834610,1850.514855,-8438.347739,4749.792088
21850.834943,6439.791695,-9326.594869,8503.660028
21850.835276,2072.576638,-6291.750507,6665.030833
21850.835609,2294.638420,-7698.141797,1225.752797
21850.835942,-3256.906145,-9548.656652,-612.876398
21850.836275,-2072.576638,-9844.739029,-76.609550
21850.836608,-3923.091493,-12731.542202,-689.485948
21850.836941,-2516.700203,-8290.306550,-4749.792088
21850.837274,-7328.038826,-11103.089130,-3294.210641
21850.837607,-5329.482782,-8068.244768,-2451.505594
21850.837941,-7550.100608,-8734.430116,-2221.676944
21850.838274,-3404.947333,-8586.388927,1149.143247
21850.838607,-1628.453072,-8586.388927,5286.058936
21850.838940,0.000000,-4737.318029,3907.087040
21850.839273,-814.226536,-9252.574275,4903.011187
21850.839606,-2072.576638,-6217.729913,1532.190996
21850.839939,888.247130,-9030.512492,3294.210641
21850.840272,-1850.514855,-11251.130318,-689.485948
21850.840605,-4145.153275,-10140.821405,0.000000
21850.840938,-4293.194464,-9622.677246,-3983.696590
21850.841271,-1850.514855,-9918.759623,-2145.067394
21850.841604,-4145.153275,-8882.471304,-2221.676944
21850.841937,-3923.091493,-10066.800811,-1762.019645
21850.842270,-2442.679609,-8142.265362,-229.828649
21850.842603,1184.329507,-8364.327145,4903.011187
21850.842936,3552.988522,-8290.306550,7277.907231
21850.843269,0.000000,-4811.338623,3677.258390
21850.843602,3552.988522,-8364.327145,4290.134789
21850.843935,5551.544565,-11547.212695,842.705048
21850.844268,5255.462188,-9474.636058,-1608.800546
21850.844601,1480.411884,-12287.418637,-459.657299
21850.844934,4959.379811,-9844.739029,-3830.477490
21850.845267,592.164754,-13397.727550,-2451.505594
21850.845600,3997.112087,-7031.956449,-2451.505594
21850.845934,666.185348,-8660.409521,0.000000
21850.846267,5551.544565,-10658.965565,1762.019645
21850.846600,5255.462188,-6439.791695,2451.505594
21850.846933,2960.823768,-8512.368333,5898.935335
21850.847266,6291.750507,-6291.750507,612.876398
21850.847599,4811.338623,-7994.224174,1149.143247
21850.847932,1406.391290,-12139.377449,2221.676944
21850.848265,1480.411884,-6661.853478,-1915.238745
21850.848598,1110.308913,-13619.789333,-1915.238745
21850.848931,2368.659014,-11029.068536,842.705048
21850.849264,1702.473667,-11251.130318,-76.609550
21850.849597,-370.102971,-7476.080014,-2145.067394
21850.849930,888.247130,-9474.636058,-1225.752797
21850.850263,1110.308913,-14211.954086,-76.609550
21850.850596,2960.823768,-8956.491898,3677.258390
21850.850929,2960.823768,-8882.471304,5056.230287
21850.851262,2590.720797,-7846.182985,4213.525239
21850.851595,0.000000,-5403.503377,3064.381992
21850.851928,-74.020594,-9474.636058,1149.143247
21850.852261,-2072.576638,-5995.668130,0.000000
21850.852594,-8290.306550,-10732.986159,-2145.067394
21850.852927,-5107.421000,-11843.295072,-2528.115143
21850.853260,-7179.997637,-8142.265362,-4366.744339
21850.853594,-3330.926739,-9400.615463,-1915.238745
21850.853927,-4589.276840,-8142.265362,-153.219100
21850.854260,-3849.070898,-9400.615463,612.876398
21850.854593,-3256.906145,-7476.080014,306.438199
21850.854926,-1258.350101,-9918.759623,536.266849
21850.855259,-592.164754,-9548.656652,1455.581446
21850.855592,444.123565,-9252.574275,3524.039291
21850.855925,1110.308913,-8586.388927,4213.525239
21850.856258,370.102971,-4811.338623,612.876398
21850.856591,-1184.329507,-8290.306550,2374.896044
21850.856924,-3627.009116,-10066.800811,-4673.182538
21850.857257,-4737.318029,-9548.656652,-2451.505594
21850.857590,-3256.906145,-11473.192101,-2145.067394
21850.857923,-3923.091493,-5995.668130,-1838.629195
21850.858256,-2442.679609,-9474.636058,1915.238745
21850.858589,3034.844362,-3552.988522,2681.334243
21850.858922,1776.494261,-10510.924376,536.266849
21850.859255,2960.823768,-7179.997637,612.876398
21850.859588,5847.626942,-13027.624579,2987.772442
21850.859921,3330.926739,-7698.141797,0.000000
21850.860254,2368.659014,-9548.656652,3677.258390
21850.860587,-1850.514855,-12879.583391,-3140.991542
21850.860920,1776.494261,-7772.162391,-1762.019645
21850.861254,222.061783,-10214.842000,-1378.971896
21850.861587,2960.823768,-8216.285956,306.438199
21850.861920,814.226536,-7698.141797,1072.533697
21850.862253,1628.453072,-11843.295072,842.705048
21850.862586,7031.956449,-8290.306550,-76.609550
21850.862919,2368.659014,-9844.739029,3677.258390
21850.863252,8290.306550,-10510.924376,6052.154434
21850.863585,6439.791695,-6513.812290,1302.362347
21850.863918,3552.988522,-11177.109724,-229.828649
21850.864251,3923.091493,-9918.759623,-1685.410096
21850.864584,2072.576638,-12731.542202,-2145.067394
21850.864917,2294.638420,-10658.965565,-2834.553343
21850.865250,-74.020594,-11251.130318,-2068.457845
21850.865583,-1406.391290,-6291.750507,-6128.763984
21850.865916,1184.329507,-10436.903782,2374.896044
21850.866249,4663.297435,-7698.141797,1991.848295
21850.866582,4441.235652,-5995.668130,612.876398
21850.866915,4145.153275,-13027.624579,9116.536426
21850.867248,1480.411884,-6143.709319,2068.457845
21850.867581,-3478.967927,-9844.739029,1455.581446
21850.867914,-1554.432478,-7624.121203,-76.609550
21850.868247,-2146.597232,-7698.141797,-2221.676944
21850.868580,-2812.782580,-9548.656652,-1608.800546
21850.868913,-3701.029710,-8438.347739,-3140.991542
21850.869247,-7105.977043,-9622.677246,-2681.334243
21850.869580,-4737.318029,-10140.821405,-2451.505594
21850.869913,-4737.318029,-10140.821405,-76.609550
21850.870246,-3034.844362,-11251.130318,-842.705048
21850.870579,-1110.308913,-5107.421000,1838.629195
21850.870912,0.000000,-7772.162391,7354.516781
21850.871245,2368.659014,-4219.173869,5822.325785
21850.871578,2368.659014,-6069.688724,4979.620737
21850.871911,666.185348,-9474.636058,2221.676944
21850.872244,-296.082377,-10214.842000,-153.219100
21850.872577,-4811.338623,-13619.789333,-4979.620737
21850.872910,-7698.141797,-9696.697840,-4979.620737
21850.873243,-4811.338623,-8290.306550,-5362.668486
21850.873576,-3256.906145,-8364.327145,612.876398
21850.873909,-2368.659014,-7402.059420,1455.581446
21850.874242,-370.102971,-8586.388927,2221.676944
21850.874575,1036.288319,-8290.306550,3600.648841
21850.874908,1850.514855,-10955.047942,2451.505594
21850.875241,3923.091493,-9178.553681,6358.592633
21850.875574,2886.803174,-9400.615463,3524.039291
21850.875907,7105.977043,-5699.585753,5439.278036
21850.876240,1480.411884,-7476.080014,0.000000
21850.876573,3108.864956,-10362.883188,-1455.581446
21850.876907,-1554.432478,-10214.842000,-6588.421283
21850.877240,-4441.235652,-13841.851115,-7354.516781
21850.877573,1110.308913,-11251.130318,-4060.306139
21850.877906,-1924.535449,-11103.089130,-919.314598
21850.878239,4737.318029,-8734.430116,766.095498
21850.878572,3701.029710,-9104.533087,5975.544884
21850.878905,8216.285956,-5921.647536,4213.525239
21850.879238,2368.659014,-7772.162391,6128.763984
21850.879571,7105.977043,-9474.636058,4826.401637
21850.879904,4663.297435,-10214.842000,0.000000
21850.880237,592.164754,-10140.821405,2451.505594
21850.880570,1110.308913,-8586.388927,-3370.820191
21850.880903,-148.041188,-11251.130318,-3907.087040
21850.881236,740.205942,-10510.924376,-3753.867940
21850.881569,-962.267725,-12287.418637,-2451.505594
21850.881902,0.000000,-8364.327145,-2145.067394
21850.882235,-1184.329507,-10510.924376,2068.457845
21850.882568,1702.473667,-7031.956449,3217.601092
21850.882901,0.000000,-4811.338623,5515.887586
21850.883234,4959.379811,-8290.306550,6511.811733
21850.883567,2146.597232,-6587.832884,4903.011187
21850.883900,518.144159,-7698.141797,229.828649
21850.884233,518.144159,-7994.224174,689.485948
21850.884566,-2220.617826,-10362.883188,-2987.772442
21850.884900,-1258.350101,-9548.656652,-6588.421283
21850.885233,-6513.812290,-12731.542202,-4290.134789
21850.885566,-6809.894666,-13175.665768,-2757.943793
21850.885899,-4959.379811,-7550.100608,-2451.505594
21850.886232,-444.123565,-8290.306550,3294.210641
21850.886565,1702.473667,-8142.265362,4290.134789
21850.886898,4145.153275,-3627.009116,7354.516781
21850.887231,0.000000,-9474.636058,6511.811733
21850.887564,-74.020594,-6143.709319,0.000000
21850.887897,-4737.318029,-10140.821405,1838.629195
21850.888230,-1924.535449,-9104.533087,-2298.286494
21850.888563,-666.185348,-9770.718434,-689.485948
21850.888896,-6957.935855,-10658.965565,-5898.935335
21850.889229,-1258.350101,-9474.636058,-4366.744339
21850.889562,-2442.679609,-8956.491898,-3677.258390
21850.889895,-1776.494261,-14211.954086,1762.019645
21850.890228,-74.020594,-9474.636058,5745.716235
21850.890561,1110.308913,-7920.203579,2374.896044
21850.890894,7031.956449,-7698.141797,9729.412825
21850.891227,2146.597232,-3182.885551,4903.011187
21850.891560,4737.318029,-5921.647536,2528.115143
21850.891893,888.247130,-9548.656652,1838.629195
21850.892226,1184.329507,-8364.327145,-3677.258390
21850.892560,1702.473667,-9622.677246,-4903.011187
21850.892893,-1184.329507,-13619.789333,-4979.620737
21850.893226,2294.638420,-11029.068536,-6435.202183
21850.893559,0.000000,-9844.739029,-1225.752797
21850.893892,4515.256246,-9030.512492,842.705048
21850.894225,3552.988522,-6809.894666,3217.601092
21850.894558,5403.503377,-8956.491898,2451.505594
21850.894891,7698.141797,-8586.388927,6971.469032
21850.895224,5477.523971,-8290.306550,6052.154434
21850.895557,2368.659014,-8956.491898,3064.381992
21850.895890,4663.297435,-9474.636058,-76.609550
21850.896223,1184.329507,-8364.327145,0.000000
21850.896556,5847.626942,-11251.130318,2987.772442
21850.896889,-1998.556043,-11547.212695,-3064.381992
21850.897222,-74.020594,-9030.512492,-7431.126331
21850.897555,-2812.782580,-12583.501014,-2451.505594
21850.897888,-3923.091493,-11103.089130,-4903.011187
21850.898221,2294.638420,-8882.471304,229.828649
21850.898554,-4737.318029,-13249.686362,4519.963438
21850.898887,3478.967927,-4811.338623,766.095498
21850.899220,-3552.988522,-8364.327145,7967.393179
21850.899553,6439.791695,-5921.647536,2987.772442
21850.899886,0.000000,-7179.997637,1225.752797
21850.900220,-2590.720797,-11547.212695,-76.609550
21850.900553,-888.247130,-9252.574275,-1378.971896
21850.900886,-6809.894666,-9696.697840,-3370.820191
21850.901219,1110.308913,-6513.812290,-3753.867940
21850.901552,-6365.771101,-15100.201217,-76.609550
21850.901885,148.041188,-6439.791695,0.000000
21850.902218,-6661.853478,-11917.315666,-306.438199
21850.902551,-3034.844362,-8586.388927,689.485948
21850.902884,1110.308913,-8290.306550,3600.648841
21850.903217,-2368.659014,-9548.656652,6128.763984
21850.903550,4071.132681,-7105.977043,4826.401637
21850.903883,-6513.812290,-8364.327145,2451.505594
21850.904216,0.000000,-4811.338623,2451.505594
21850.904549,-1850.514855,-10066.800811,229.828649
21850.904882,-1258.350101,-7105.977043,-3140.991542
21850.905215,-5921.647536,-12657.521608,-4519.963438
21850.905548,-4071.132681,-8364.327145,-2757.943793
21850.905881,-518.144159,-7328.038826,153.219100
21850.906214,-592.164754,-9474.636058,3600.648841
21850.906547,2886.803174,-11251.130318,-76.609550
21850.906880,0.000000,-4811.338623,0.000000
21850.907213,6143.709319,-14211.954086,4213.525239
21850.907546,3627.009116,-5403.503377,0.000000
21850.907879,3923.091493,-14211.954086,2374.896044
21850.908213,4737.318029,-9548.656652,459.657299
21850.908546,5773.606348,-11103.089130,1378.971896
21850.908879,0.000000,-10436.903782,-3677.258390
21850.909212,9104.533087,-9474.636058,1762.019645
21850.909545,-666.185348,-9548.656652,-2911.162892
21850.909878,3552.988522,-5107.421000,0.000000
21850.910211,-1702.473667,-11843.295072,-76.609550
21850.910544,2368.659014,-9548.656652,2298.286494
21850.910877,1702.473667,-9474.636058,3217.601092
21850.911210,4441.235652,-5329.482782,3677.258390
21850.911543,3997.112087,-9326.594869,2681.334243
21850.911876,4663.297435,-10955.047942,3600.648841
21850.912209,4663.297435,-9474.636058,-2528.115143
21850.912542,-4441.235652,-13397.727550,2451.505594
21850.912875,4663.297435,-8586.388927,-76.609550
21850.913208,-666.185348,-11843.295072,-1302.362347
21850.913541,0.000000,-8660.409521,1072.533697
21850.913874,-74.020594,-5921.647536,-2681.334243
21850.914207,-2516.700203,-11917.315666,1608.800546
21850.914540,1924.535449,-6957.935855,1455.581446
21850.914873,-74.020594,-10510.924376,4519.963438
21850.915206,-1258.350101,-10362.883188,2834.553343
21850.915539,-1036.288319,-9104.533087,306.438199
21850.915873,-3034.844362,-9622.677246,-229.828649
21850.916206,0.000000,-3627.009116,-1225.752797
21850.916539,-4737.318029,-11029.068536,612.876398
21850.916872,2294.638420,-9474.636058,-689.485948
21850.917205,-8290.306550,-9548.656652,-2451.505594
21850.917538,-5773.606348,-7772.162391,-2451.505594
21850.917871,-4219.173869,-9474.636058,-995.924147
21850.918204,-3701.029710,-7179.997637,1072.533697
21850.918537,-1184.329507,-7179.997637,2757.943793
21850.918870,-3330.926739,-8364.327145,2834.553343
21850.919203,1480.411884,-8660.409521,3217.601092
21850.919536,-1258.350101,-9178.553681,1225.752797
21850.919869,2294.638420,-9474.636058,-689.485948
21850.920202,-2442.679609,-9770.718434,-1225.752797
21850.920535,0.000000,-8364.327145,-383.047749
21850.920868,-1184.329507,-10140.821405,-1532.190996
21850.921201,-2368.659014,-9252.574275,-383.047749
21850.921534,2738.761985,-6143.709319,-2834.553343
21850.921867,-1998.556043,-14656.077652,2604.724693
21850.922200,2886.803174,-3552.988522,-689.485948
21850.922533,0.000000,-9548.656652,1838.629195
21850.922866,2664.741391,-8364.327145,0.000000
21850.923199,7105.977043,-8956.491898,7277.907231
21850.923532,-74.020594,-9474.636058,306.438199
21850.923866,7624.121203,-7105.977043,1762.019645
21850.924199,-74.020594,-12879.583391,-76.609550
21850.924532,4293.194464,-6661.853478,-383.047749
21850.924865,74.020594,-10881.027347,-2757.943793
21850.925198,666.185348,-10436.903782,-4596.572988
21850.925531,3108.864956,-11843.295072,2221.676944
21850.925864,-1628.453072,-7179.997637,0.000000
21850.926197,592.164754,-4811.338623,306.438199
21850.926530,3478.967927,-11843.295072,1149.143247
21850.926863,4737.318029,-6587.832884,3064.381992
21850.927196,2886.803174,-10658.965565,2068.457845
21850.927529,4811.338623,-9474.636058,995.924147
21850.927862,3330.926739,-11473.192101,2757.943793
21850.928195,4293.194464,-8068.244768,2221.676944
21850.928528,4663.297435,-8290.306550,-1302.362347
21850.928861,0.000000,-14285.974681,-2757.943793
21850.929194,-74.020594,-13915.871710,-76.609550
21850.929527,-1258.350101,-7698.141797,-3370.820191
21850.929860,-2368.659014,-8364.327145,2451.505594
21850.930193,-4811.338623,-6217.729913,-1149.143247
21850.930526,-4589.276840,-5773.606348,-2528.115143
21850.930859,-1184.329507,-5551.544565,5439.278036
21850.931193,740.205942,-7476.080014,3447.429741
21850.931526,3182.885551,-8882.471304,6052.154434
21850.931859,-1480.411884,-9844.739029,383.047749
21850.932192,-740.205942,-8808.450710,-2298.286494
21850.932525,-4367.215058,-11917.315666,-2911.162892
21850.932858,0.000000,-8956.491898,-2451.505594
21850.933191,-2442.679609,-11547.212695,-2834.553343
21850.933524,-3997.112087,-9178.553681,-3753.867940
21850.933857,-3552.988522,-9548.656652,1378.971896
21850.934190,-1332.370696,-7846.182985,2681.334243
21850.934524,-2294.638420,-3627.009116,1225.752797
21850.934857,-3330.926739,-9252.574275,2528.115143
21850.935190,0.000000,-5995.668130,4519.963438
21850.935523,-2220.617826,-10214.842000,4136.915689
21850.935856,2886.803174,-6513.812290,5439.278036
21850.936189,-74.020594,-7105.977043,1149.143247
21850.936522,0.000000,-5107.421000,-1762.019645
21850.936855,-4145.153275,-10140.821405,0.000000
21850.937188,-3627.009116,-11547.212695,-6511.811733
21850.937521,-2368.659014,-12509.480420,-3370.820191
21850.937855,-1702.473667,-12509.480420,-2911.162892
21850.938188,4145.153275,-10881.027347,-766.095498
21850.938521,1258.350101,-9326.594869,4519.963438
21850.938854,7624.121203,-4441.235652,6052.154434
21850.939187,6439.791695,-9474.636058,4213.525239
21850.939520,4145.153275,-8364.327145,7048.078582
21850.939853,3182.885551,-9474.636058,2068.457845
21850.940186,4071.132681,-10510.924376,383.047749
21850.940519,4663.297435,-7698.141797,-383.047749
21850.940852,-1776.494261,-9548.656652,-2298.286494
21850.941186,222.061783,-7179.997637,-5515.887586
21850.941519,-2516.700203,-12435.459826,-5745.716235
21850.941852,-2368.659014,-11325.150913,-4290.134789
21850.942185,-962.267725,-8512.368333,-3370.820191
21850.942518,-4145.153275,-10140.821405,1225.752797
21850.942851,4663.297435,-7698.141797,2374.896044
21850.943184,2960.823768,-7179.997637,5898.935335
21850.943517,5921.647536,-4811.338623,6281.983084
21850.943850,7624.121203,-6217.729913,4979.620737
21850.944183,5033.400406,-10362.883188,3140.991542
21850.944517,2294.638420,-8586.388927,919.314598
21850.944850,1110.308913,-12879.583391,-1915.238745
21850.945183,0.000000,-10140.821405,-3064.381992
21850.945516,-1258.350101,-11547.212695,-5898.935335
21850.945849,-1554.432478,-10881.027347,-4903.011187
21850.946182,-1776.494261,-10436.903782,-919.314598
21850.946515,-2072.576638,-8808.450710,1149.143247
21850.946848,-888.247130,-6513.812290,1685.410096
21850.947181,-666.185348,-8142.265362,5592.497135
21850.947514,-2072.576638,-6957.935855,3983.696590
21850.947848,3478.967927,-6513.812290,6052.154434
21850.948181,-1184.329507,-7179.997637,3983.696590
21850.948514,-814.226536,-7105.977043,1378.971896
21850.948847,-1628.453072,-9326.594869,-766.095498
21850.949180,-4071.132681,-11177.109724,-3064.381992
21850.949513,-2960.823768,-9400.615463,-4903.011187
21850.949846,-5625.565159,-12509.480420,-4903.011187
21850.950179,0.000000,-12435.459826,1762.019645
21850.950512,-1258.350101,-8142.265362,-1608.800546
21850.950845,74.020594,-8882.471304,919.314598
21850.951179,4071.132681,-8882.471304,6052.154434
21850.951512,2664.741391,-8734.430116,4519.963438
21850.951845,2146.597232,-8586.388927,3217.601092
21850.952178,-222.061783,-10066.800811,1455.581446
21850.952511,-74.020594,-8290.306550,-76.609550
21850.952844,0.000000,-7772.162391,306.438199
21850.953177,-74.020594,-10658.965565,-689.485948
21850.953510,-2442.679609,-7179.997637,-4290.134789
21850.953843,-2368.659014,-8364.327145,0.000000
21850.954176,-1258.350101,-11843.295072,-2145.067394
21850.954510,-814.226536,-8660.409521,229.828649
21850.954843,-74.020594,-9474.636058,612.876398
21850.955176,4589.276840,-6661.853478,2987.772442
21850.955509,2664.741391,-10140.821405,3064.381992
21850.955842,4737.318029,-9252.574275,6971.469032
21850.956175,4367.215058,-8882.471304,1149.143247
21850.956508,1406.391290,-7179.997637,0.000000
21850.956841,4071.132681,-13027.624579,-76.609550
21850.957174,-1258.350101,-9548.656652,-3064.381992
21850.957507,2146.597232,-9326.594869,-1302.362347
21850.957841,1332.370696,-9400.615463,-1225.752797
21850.958174,740.205942,-10436.903782,459.657299
21850.958507,-2072.576638,-8364.327145,0.000000
21850.958840,4663.297435,-11843.295072,-76.609550
21850.959173,0.000000,-7772.162391,1225.752797
21850.959506,2664.741391,-8882.471304,4826.401637
21850.959839,2294.638420,-11843.295072,-76.609550
21850.960172,1480.411884,-9548.656652,4290.134789
21850.960505,1850.514855,-7698.141797,612.876398
21850.960838,1258.350101,-7402.059420,689.485948
21850.961172,-1036.288319,-8364.327145,-2068.457845
21850.961505,-1628.453072,-9992.780217,-3064.381992
21850.961838,-370.102971,-9030.512492,-1532.190996
21850.962171,666.185348,-11843.295072,1149.143247
21850.962504,666.185348,-8068.244768,2068.457845
21850.962837,-74.020594,-9474.636058,-76.609550
21850.963170,1998.556043,-4811.338623,919.314598
21850.963503,592.164754,-11843.295072,3294.210641
21850.963836,4367.215058,-9474.636058,536.266849
21850.964169,-1776.494261,-11473.192101,2528.115143
21850.964503,-666.185348,-8290.306550,-1915.238745
21850.964836,-3108.864956,-9178.553681,-1532.190996
21850.965169,-2442.679609,-8290.306550,-383.047749
21850.965502,-2886.803174,-6587.832884,-1149.143247
21850.965835,-4145.153275,-7179.997637,-1838.629195
21850.966168,-74.020594,-10066.800811,0.000000
21850.966501,-2368.659014,-9992.780217,2987.772442
21850.966834,-74.020594,-8290.306550,1762.019645
21850.967167,-1850.514855,-7920.203579,0.000000
21850.967500,0.000000,-9548.656652,2834.553343
21850.967834,0.000000,-9548.656652,1608.800546
21850.968167,1924.535449,-10881.027347,2757.943793
21850.968500,1924.535449,-7254.018232,919.314598
21850.968833,4589.276840,-6365.771101,2451.505594
21850.969166,-1554.432478,-8364.327145,-2451.505594
21850.969499,-74.020594,-10955.047942,-2528.115143
21850.969832,-4219.173869,-13101.645173,-3370.820191
21850.970165,-1776.494261,-8364.327145,-1838.629195
21850.970498,-2146.597232,-8734.430116,459.657299
21850.970831,-444.123565,-6735.874072,2451.505594
21850.971165,5699.585753,-6069.688724,383.047749
21850.971498,1702.473667,-10510.924376,3600.648841
21850.971831,4071.132681,-10066.800811,1762.019645
21850.972164,592.164754,-9548.656652,3677.258390
21850.972497,3478.967927,-9770.718434,1149.143247
21850.972830,1998.556043,-5995.668130,-2451.505594
21850.973163,2960.823768,-9474.636058,1149.143247
21850.973496,1110.308913,-9474.636058,-3753.867940
21850.973829,2072.576638,-10658.965565,-1302.362347
21850.974162,-1258.350101,-9104.533087,-2451.505594
21850.974496,296.082377,-9104.533087,-2528.115143
21850.974829,-888.247130,-10436.903782,-1991.848295
21850.975162,3108.864956,-13619.789333,4826.401637
21850.975495,3478.967927,-5403.503377,2451.505594
21850.975828,4145.153275,-9400.615463,4903.011187
21850.976161,6439.791695,-9474.636058,1762.019645
21850.976494,2886.803174,-8586.388927,2374.896044
21850.976827,2294.638420,-8882.471304,-76.609550
21850.977160,666.185348,-10807.006753,-1915.238745
21850.977493,0.000000,-9844.739029,-4136.915689
21850.977827,-2220.617826,-12509.480420,-2451.505594
21850.978160,-1554.432478,-11843.295072,995.924147
21850.978493,-1554.432478,-7105.977043,-2528.115143
21850.978826,-518.144159,-11325.150913,4060.306139
21850.979159,296.082377,-5699.585753,2757.943793
21850.979492,74.020594,-5107.421000,2451.505594
21850.979825,888.247130,-8290.306550,4826.401637
21850.980158,2294.638420,-8290.306550,1762.019645
21850.980491,-3552.988522,-10140.821405,3524.039291
21850.980824,-74.020594,-9474.636058,-229.828649
21850.981158,-1258.350101,-10658.965565,-4673.182538
21850.981491,-3997.112087,-11399.171507,-3140.991542
21850.981824,-4145.153275,-9770.718434,-4136.915689
21850.982157,-4737.318029,-9548.656652,-3370.820191
21850.982490,-3552.988522,-9548.656652,-2451.505594
21850.982823,-1480.411884,-12213.398043,4213.525239
21850.983156,1998.556043,-7254.018232,4903.011187
21850.983489,4071.132681,-1554.432478,7354.516781
21850.983822,2146.597232,-9178.553681,6052.154434
21850.984155,296.082377,-4219.173869,1225.752797
21850.984489,370.102971,-10436.903782,1378.971896
21850.984822,148.041188,-9326.594869,-383.047749
21850.985155,-74.020594,-9400.615463,-1762.019645
21850.985488,-4811.338623,-11695.253884,-4366.744339
21850.985821,-74.020594,-13027.624579,-4979.620737
21850.986154,-3256.906145,-12213.398043,-4903.011187
21850.986487,1184.329507,-10658.965565,3064.381992
21850.986820,296.082377,-7476.080014,2681.334243
21850.987153,4737.318029,-8438.347739,6971.469032
21850.987486,1184.329507,-8956.491898,5669.106685
21850.987820,2590.720797,-3923.091493,2987.772442
21850.988153,1406.391290,-8660.409521,2451.505594
21850.988486,3034.844362,-7105.977043,1762.019645
21850.988819,2294.638420,-8734.430116,-1302.362347
21850.989152,-4145.153275,-9548.656652,-2451.505594
21850.989485,1110.308913,-10510.924376,-5592.497135
21850.989818,-962.267725,-12435.459826,-3753.867940
21850.990151,4367.215058,-9474.636058,-76.609550
21850.990484,1924.535449,-10362.883188,612.876398
21850.990817,2220.617826,-9104.533087,0.000000
21850.991151,3108.864956,-10584.944971,1455.581446
21850.991484,3552.988522,-11917.315666,6281.983084
21850.991817,4293.194464,-4811.338623,3677.258390
21850.992150,2442.679609,-11251.130318,5056.230287
21850.992483,4663.297435,-9474.636058,842.705048
21850.992816,0.000000,-8068.244768,919.314598
21850.993149,222.061783,-11251.130318,-1915.238745
21850.993482,222.061783,-9992.780217,-3983.696590
21850.993815,-3775.050304,-12805.562797,76.609550
21850.994148,148.041188,-4959.379811,-2221.676944
21850.994482,-2368.659014,-9548.656652,1838.629195
21850.994815,-518.144159,-7179.997637,919.314598
21850.995148,-370.102971,-5921.647536,0.000000
21850.995481,518.144159,-9548.656652,3447.429741
21850.995814,2664.741391,-7846.182985,1608.800546
21850.996147,0.000000,-10732.986159,306.438199
21850.996480,-814.226536,-9474.636058,-383.047749
21850.996813,-5625.565159,-8660.409521,-1225.752797
21850.997146,1110.308913,-8142.265362,-1302.362347
21850.997479,-74.020594,-10510.924376,-76.609550
21850.997813,-2960.823768,-9844.739029,1149.143247
21850.998146,-2294.638420,-5477.523971,-2145.067394
21850.998479,518.144159,-10584.944971,1302.362347
21850.998812,-1628.453072,-9622.677246,842.705048
21850.999145,2146.597232,-11103.089130,4519.963438
21850.999478,-1184.329507,-8364.327145,1225.752797
21850.999811,0.000000,-8956.491898,2681.334243
21851.000144,-74.020594,-10510.924376,0.000000
21851.000477,0.000000,-6291.750507,1532.190996
21851.000810,3330.926739,-7105.977043,2374.896044
21851.001144,-1480.411884,-8956.491898,1149.143247
21851.001477,-2812.782580,-7698.141797,-766.095498
21851.001810,-3775.050304,-7772.162391,-3064.381992
21851.002143,1702.473667,-7105.977043,-1455.581446
21851.002476,-3552.988522,-9548.656652,306.438199
21851.002809,148.041188,-8364.327145,0.000000
21851.003142,0.000000,-11843.295072,3600.648841
21851.003475,2960.823768,-9252.574275,3064.381992
21851.003808,518.144159,-8512.368333,1225.752797
21851.004141,1110.308913,-10214.842000,-383.047749
21851.004475,2960.823768,-9252.574275,1378.971896
21851.004808,-740.205942,-11843.295072,536.266849
21851.005141,2664.741391,-4811.338623,0.000000
21851.005474,-2368.659014,-10140.821405,2374.896044
21851.005807,2886.803174,-7402.059420,-2221.676944
21851.006140,74.020594,-7179.997637,-2757.943793
21851.006473,0.000000,-11029.068536,766.095498
21851.006806,2146.597232,-9178.553681,-1838.629195
21851.007139,3478.967927,-10288.862594,1302.362347
21851.007472,5329.482782,-9400.615463,3600.648841
21851.007806,3849.070898,-9474.636058,2834.553343
21851.008139,4441.235652,-8438.347739,-1149.143247
21851.008472,1258.350101,-14730.098246,-1072.533697
21851.008805,1332.370696,-9992.780217,0.000000
21851.009138,0.000000,-10066.800811,-689.485948
21851.009471,4441.235652,-8882.471304,2374.896044
21851.009804,-74.020594,-7698.141797,76.609550
21851.010137,-2960.823768,-4811.338623,-612.876398
21851.010470,1480.411884,-7698.141797,2681.334243
21851.010803,-3627.009116,-10066.800811,-3140.991542
21851.011137,2368.659014,-8364.327145,1225.752797
21851.011470,-2146.597232,-9474.636058,2834.553343
21851.011803,1924.535449,-6587.832884,1532.190996
21851.012136,740.205942,-9992.780217,-306.438199
21851.012469,1702.473667,-12435.459826,536.266849
21851.012802,1480.411884,-8882.471304,842.705048
21851.013135,0.000000,-8660.409521,306.438199
21851.013468,370.102971,-13619.789333,-76.609550
21851.013801,-3627.009116,-8882.471304,-4213.525239
21851.014134,-222.061783,-8586.388927,-76.609550
21851.014468,74.020594,-9104.533087,2757.943793
21851.014801,814.226536,-6661.853478,1608.800546
21851.015134,-2442.679609,-9474.636058,1149.143247
21851.015467,-1776.494261,-5403.503377,2451.505594
21851.015800,-74.020594,-9474.636058,842.705048
21851.016133,0.000000,-9548.656652,4826.401637
21851.016466,1406.391290,-8290.306550,689.485948
21851.016799,-3552.988522,-9548.656652,0.000000
21851.017132,0.000000,-5403.503377,-1838.629195
21851.017465,-4145.153275,-11621.233289,-2451.505594
21851.017799,-888.247130,-8438.347739,-2757.943793
21851.018132,-2664.741391,-10436.903782,-689.485948
21851.018465,-74.020594,-11843.295072,2374.896044
21851.018798,-1258.350101,-4219.173869,0.000000
21851.019131,1702.473667,-12435.459826,2374.896044
21851.019464,6439.791695,-7550.100608,3064.381992
21851.019797,2368.659014,-9844.739029,6052.154434
21851.020130,6661.853478,-8734.430116,5515.887586
21851.020463,1850.514855,-10881.027347,1762.019645
21851.020796,3478.967927,-7772.162391,842.705048
21851.021130,592.164754,-8142.265362,-842.705048
21851.021463,-814.226536,-8882.471304,-5132.839837
21851.021796,-3552.988522,-10732.986159,-1225.752797
21851.022129,-2442.679609,-11251.130318,-4290.134789
21851.022462,0.000000,-5995.668130,-3677.258390
21851.022795,-2368.659014,-13027.624579,-76.609550
21851.023128,4367.215058,-9474.636058,2451.505594
21851.023461,888.247130,-9992.780217,4443.353888
21851.023794,1924.535449,-7476.080014,2451.505594
21851.024127,2368.659014,-8586.388927,2681.334243
21851.024461,3775.050304,-9474.636058,2374.896044
21851.024794,5329.482782,-7179.997637,3140.991542
21851.025127,1258.350101,-9548.656652,3217.601092
21851.025460,3404.947333,-5773.606348,-2681.334243
21851.025793,-1184.329507,-11177.109724,-2528.115143
21851.026126,-666.185348,-10658.965565,-4979.620737
21851.026459,-2368.659014,-9696.697840,-4136.915689
21851.026792,-74.020594,-14211.954086,-76.609550
21851.027125,-1554.432478,-9104.533087,-2451.505594
21851.027458,-1036.288319,-10362.883188,3524.039291
21851.027792,1702.473667,-9474.636058,4213.525239
21851.028125,148.041188,-6439.791695,5515.887586
21851.028458,2516.700203,-7105.977043,4136.915689
21851.028791,1998.556043,-7328.038826,1149.143247
21851.029124,-3478.967927,-10214.842000,0.000000
21851.029457,0.000000,-5403.503377,-2145.067394
21851.029790,-1258.350101,-9030.512492,-3524.039291
21851.030123,-3330.926739,-7179.997637,-6128.763984
21851.030456,-518.144159,-11399.171507,-1455.581446
21851.030789,-1554.432478,-11695.253884,-2068.457845
21851.031123,74.020594,-6809.894666,-1608.800546
21851.031456,-1702.473667,-11843.295072,2374.896044
21851.031789,4737.318029,-9474.636058,7890.783629
21851.032122,2368.659014,-6587.832884,6128.763984
21851.032455,0.000000,-7179.997637,8273.831378
21851.032788,2294.638420,-6661.853478,612.876398
21851.033121,-1776.494261,-9548.656652,0.000000
21851.033454,740.205942,-8882.471304,-76.609550
21851.033787,-6809.894666,-6587.832884,-4903.011187
21851.034120,-2442.679609,-9030.512492,-4596.572988
21851.034454,-2516.700203,-8956.491898,-5515.887586
21851.034787,-2738.761985,-11103.089130,-1915.238745
21851.035120,-666.185348,-8142.265362,-2834.553343
21851.035453,2886.803174,-13027.624579,2987.772442
21851.035786,4737.318029,-9992.780217,8580.269578
21851.036119,7920.203579,-9474.636058,8503.660028
21851.036453,2960.823768,-7476.080014,7354.516781
21851.036786,7328.038826,-10658.965565,6052.154434
21851.037119,-370.102971,-8956.491898,612.876398
21851.037452,0.000000,-8068.244768,-2681.334243
21851.037785,-4515.256246,-10807.006753,-6052.154434
21851.038118,-3849.070898,-9696.697840,-7814.174080
21851.038452,-4219.173869,-11251.130318,-5209.449386
21851.038785,-4737.318029,-9548.656652,-4903.011187
21851.039118,0.000000,-5699.585753,-1302.362347
21851.039451,2886.803174,-11251.130318,4213.525239
21851.039784,8216.285956,-4811.338623,7584.345430
21851.040117,2664.741391,-8956.491898,4749.792088
21851.040450,3330.926739,-9548.656652,919.314598
21851.040784,4663.297435,-10955.047942,2451.505594
21851.041117,1850.514855,-9844.739029,0.000000
21851.041450,4663.297435,-9992.780217,1225.752797
21851.041783,222.061783,-9622.677246,-1532.190996
21851.042116,-1480.411884,-10881.027347,-3140.991542
21851.042449,-1480.411884,-6957.935855,-1762.019645
21851.042783,-2516.700203,-9178.553681,-1915.238745
21851.043116,-592.164754,-9992.780217,2374.896044
21851.043449,-3034.844362,-6513.812290,1225.752797
21851.043782,-1184.329507,-6587.832884,-2451.505594
21851.044115,0.000000,-12657.521608,4903.011187
21851.044448,0.000000,-6587.832884,1532.190996
21851.044782,1036.288319,-8512.368333,0.000000
21851.045115,1480.411884,-9474.636058,2987.772442
21851.045448,1702.473667,-8882.471304,-1149.143247
21851.045781,-2368.659014,-9548.656652,-3064.381992
21851.046114,-1258.350101,-9918.759623,-4136.915689
21851.046447,-3034.844362,-8660.409521,-3677.258390
21851.046781,1184.329507,-8364.327145,2834.553343
21851.047114,-74.020594,-10658.965565,2374.896044
21851.047447,592.164754,-9400.615463,3753.867940
21851.047780,1702.473667,-7105.977043,3447.429741
21851.048113,1110.308913,-10140.821405,1225.752797
21851.048446,888.247130,-6513.812290,3217.601092
21851.048779,-370.102971,-11621.233289,2374.896044
21851.049113,3478.967927,-7179.997637,612.876398
21851.049446,296.082377,-7476.080014,0.000000
21851.049779,-3034.844362,-11843.295072,-3753.867940
21851.050112,-962.267725,-6439.791695,-4290.134789
21851.050445,-370.102971,-10955.047942,-3447.429741
21851.050778,0.000000,-11917.315666,689.485948
21851.051112,-1184.329507,-9400.615463,2451.505594
21851.051445,1850.514855,-10436.903782,2451.505594
21851.051778,5847.626942,-7105.977043,4826.401637
21851.052111,0.000000,-6291.750507,2451.505594
21851.052444,4071.132681,-9474.636058,1762.019645
21851.052777,1110.308913,-8882.471304,-1302.362347
21851.053111,-3552.988522,-9844.739029,0.000000
21851.053444,-370.102971,-9474.636058,-1915.238745
21851.053777,-4293.194464,-10362.883188,-3294.210641
21851.054110,-148.041188,-7402.059420,-3140.991542
21851.054443,-740.205942,-8586.388927,-995.924147
21851.054776,1998.556043,-9474.636058,-76.609550
21851.055109,740.205942,-9326.594869,536.266849
21851.055443,-222.061783,-10807.006753,-1302.362347
21851.055776,1184.329507,-10584.944971,2068.457845
21851.056109,0.000000,-8364.327145,1225.752797
21851.056442,5921.647536,-13323.706956,4213.525239
21851.056775,2886.803174,-8956.491898,2757.943793
21851.057108,1184.329507,-7772.162391,3600.648841
21851.057442,2294.638420,-8512.368333,842.705048
21851.057775,0.000000,-4811.338623,-2374.896044
21851.058108,-1850.514855,-9326.594869,-2374.896044
21851.058441,-5551.544565,-9326.594869,-1149.143247
21851.058774,-3775.050304,-9030.512492,-3524.039291
21851.059107,-1554.432478,-10658.965565,-76.609550
21851.059441,2072.576638,-11177.109724,3294.210641
21851.059774,370.102971,-7179.997637,1838.629195
21851.060107,518.144159,-10955.047942,2451.505594
21851.060440,4071.132681,-12435.459826,-76.609550
21851.060773,-2072.576638,-11621.233289,0.000000
21851.061106,2886.803174,-6217.729913,-76.609550
21851.061440,74.020594,-11103.089130,3907.087040
21851.061773,2516.700203,-2738.761985,612.876398
21851.062106,370.102971,-6809.894666,-766.095498
21851.062439,370.102971,-7105.977043,1762.019645
21851.062772,0.000000,-7179.997637,1225.752797
21851.063105,-3849.070898,-11103.089130,-1915.238745
21851.063438,-1850.514855,-15396.283594,-1302.362347
21851.063772,-2738.761985,-11621.233289,-1608.800546
21851.064105,5255.462188,-9548.656652,3524.039291
21851.064438,444.123565,-8142.265362,2145.067394
21851.064771,3849.070898,-9030.512492,766.095498
21851.065104,0.000000,-7179.997637,-1838.629195
21851.065437,5847.626942,-8882.471304,-1302.362347
21851.065771,-1184.329507,-12731.542202,612.876398
21851.066104,2442.679609,-10658.965565,4213.525239
21851.066437,222.061783,-5403.503377,0.000000
21851.066770,0.000000,-5403.503377,2757.943793
21851.067103,-666.185348,-6513.812290,842.705048
21851.067436,-740.205942,-6883.915261,-612.876398
21851.067770,592.164754,-11991.336260,-383.047749
21851.068103,-370.102971,-14211.954086,1149.143247
21851.068436,-2442.679609,-8364.327145,0.000000
21851.068769,666.185348,-11843.295072,-689.485948
21851.069102,1628.453072,-8364.327145,-689.485948
21851.069435,-1776.494261,-6587.832884,689.485948
21851.069769,1332.370696,-9030.512492,-383.047749
21851.070102,0.000000,-7179.997637,-1072.533697
21851.070435,-444.123565,-9696.697840,-1762.019645
21851.070768,-888.247130,-7846.182985,1762.019645
21851.071101,-74.020594,-10658.965565,-76.609550
21851.071434,1554.432478,-7772.162391,612.876398
21851.071767,2220.617826,-11029.068536,2068.457845
21851.072101,3775.050304,-11991.336260,2987.772442
21851.072434,2368.659014,-11843.295072,5439.278036
21851.072767,3849.070898,-9400.615463,2374.896044
21851.073100,518.144159,-10214.842000,2145.067394
21851.073433,-3552.988522,-4811.338623,1608.800546
21851.073766,-1258.350101,-9474.636058,-4673.182538
21851.074100,-3849.070898,-7179.997637,-1838.629195
21851.074433,-4737.318029,-8364.327145,-3447.429741
21851.074766,-3627.009116,-7920.203579,-1072.533697
21851.075099,-370.102971,-7328.038826,0.000000
21851.075432,-2516.700203,-9622.677246,-689.485948
21851.075765,-74.020594,-10510.924376,2374.896044
21851.076099,222.061783,-8364.327145,919.314598
21851.076432,4811.338623,-11251.130318,7354.516781
21851.076765,4663.297435,-9474.636058,5439.278036
21851.077098,3552.988522,-7179.997637,4290.134789
21851.077431,2442.679609,-8290.306550,1762.019645
21851.077764,3256.906145,-8512.368333,0.000000
21851.078098,-2368.659014,-9474.636058,-3370.820191
21851.078431,-4589.276840,-11103.089130,-5056.230287
21851.078764,-4071.132681,-9548.656652,-4903.011187
21851.079097,-8142.265362,-7772.162391,-3677.258390
21851.079430,-666.185348,-8882.471304,-76.609550
21851.079763,-2738.761985,-10658.965565,1149.143247
21851.080096,4737.318029,-5403.503377,5822.325785
21851.080430,5255.462188,-7698.141797,4519.963438
21851.080763,1184.329507,-8364.327145,6435.202183
21851.081096,5107.421000,-7772.162391,3294.210641
21851.081429,814.226536,-12139.377449,2681.334243
21851.081762,4737.318029,-5403.503377,612.876398
21851.082095,-2220.617826,-11843.295072,-76.609550
21851.082429,1702.473667,-4441.235652,-7354.516781
21851.082762,-3256.906145,-10881.027347,-5439.278036
21851.083095,0.000000,-8068.244768,-2834.553343
21851.083428,-74.020594,-11769.274478,-3677.258390
21851.083761,2960.823768,-9474.636058,689.485948
21851.084094,1480.411884,-13397.727550,5132.839837
21851.084428,4959.379811,-6069.688724,4519.963438
21851.084761,3552.988522,-10732.986159,5515.887586
21851.085094,8068.244768,-7105.977043,6358.592633
21851.085427,6587.832884,-7328.038826,4213.525239
21851.085760,-814.226536,-10807.006753,-612.876398
21851.086093,2886.803174,-7105.977043,-3753.867940
21851.086427,-8734.430116,-14211.954086,-7584.345430
21851.086760,0.000000,-7476.080014,-4749.792088
21851.087093,-3923.091493,-15396.283594,-4979.620737
21851.087426,5551.544565,-8882.471304,3600.648841
21851.087759,-666.185348,-4145.153275,1149.143247
21851.088092,1110.308913,-12879.583391,4826.401637
21851.088425,-444.123565,-2368.659014,-153.219100
21851.088759,3849.070898,-10658.965565,5132.839837
21851.089092,-2368.659014,-22354.219448,6281.983084
21851.089425,5847.626942,-2960.823768,4213.525239
21851.089758,0.000000,2294.638420,0.000000
21851.090091,-74.020594,-6513.812290,-2528.115143
