#time,accel_x,accel_y,accel_z
21043.386218,4071.132681,-11251.130318,-4366.744339
21043.386551,3256.906145,-9844.739029,-4903.011187
21043.386885,3108.864956,-10214.842000,-4903.011187
21043.387219,4737.318029,-9918.759623,-2298.286494
21043.387552,8216.285956,-10658.965565,2068.457845
21043.387886,10584.944971,-8290.306550,3447.429741
21043.388220,12435.459826,-9474.636058,6665.030833
21043.388553,11769.274478,-6587.832884,3677.258390
21043.388887,13619.789333,-7920.203579,5898.935335
21043.389221,15322.262999,-10362.883188,4213.525239
21043.389555,11473.192101,-8882.471304,-76.609550
21043.389888,7772.162391,-9770.718434,-3370.820191
21043.390222,6143.709319,-11843.295072,-4903.011187
21043.390556,3627.009116,-11769.274478,-4903.011187
21043.390889,0.000000,-10732.986159,-6128.763984
21043.391223,2294.638420,-12435.459826,-2834.553343
21043.391557,2368.659014,-8364.327145,0.000000
21043.391890,5921.647536,-7179.997637,8503.660028
21043.392224,9400.615463,-4145.153275,7890.783629
21043.392558,9474.636058,-3034.844362,7431.126331
21043.392892,11399.171507,-4589.276840,7277.907231
21043.393225,9770.718434,-5403.503377,3830.477490
21043.393559,9548.656652,-6957.935855,-1302.362347
21043.393893,7920.203579,-10658.965565,-4519.963438
21043.394226,3775.050304,-8660.409521,-11031.775171
21043.394560,4737.318029,-12879.583391,-7431.126331
21043.394894,7031.956449,-15396.283594,-7431.126331
21043.395227,3108.864956,-12509.480420,-4903.011187
21043.395561,5921.647536,-11621.233289,-919.314598
21043.395895,8882.471304,-10584.944971,4979.620737
21043.396229,13545.768739,-7105.977043,8503.660028
21043.396562,16210.510130,-5847.626942,10801.946522
21043.396896,17912.983796,-5921.647536,13253.452115
21043.397230,13249.686362,-4219.173869,7048.078582
21043.397563,10807.006753,-7254.018232,2374.896044
21043.397897,5033.400406,-9622.677246,-3983.696590
21043.398231,1480.411884,-11769.274478,-7967.393179
21043.398564,-1776.494261,-12213.398043,-7967.393179
21043.398898,-74.020594,-11843.295072,-8810.098227
21043.399232,2294.638420,-8364.327145,-6741.640382
21043.399566,9474.636058,-10510.924376,3600.648841
21043.399899,14137.933492,-7105.977043,7277.907231
21043.400233,13027.624579,-5699.585753,8963.317327
21043.400567,13397.727550,-7105.977043,4826.401637
21043.400900,13249.686362,-7105.977043,2987.772442
21043.401234,11251.130318,-7994.224174,1072.533697
21043.401568,10584.944971,-9474.636058,-1302.362347
21043.401901,4663.297435,-11843.295072,-7354.516781
21043.402235,592.164754,-13693.809927,-7048.078582
21043.402569,2368.659014,-11917.315666,-842.705048
21043.402903,6439.791695,-9992.780217,689.485948
21043.403236,9104.533087,-8216.285956,4826.401637
21043.403570,10732.986159,-5921.647536,6052.154434
21043.403904,11843.295072,-4959.379811,6281.983084
21043.404237,11399.171507,-5477.523971,3907.087040
21043.404571,9474.636058,-8882.471304,842.705048
21043.404905,5847.626942,-8364.327145,-6128.763984
21043.405238,-888.247130,-14656.077652,-4979.620737
21043.405572,-74.020594,-15100.201217,-6205.373534
21043.405906,-666.185348,-10140.821405,-5822.325785
21043.406240,4663.297435,-7994.224174,1455.581446
21043.406573,5995.668130,-5551.544565,4596.572988
21043.406907,5477.523971,-6883.915261,4596.572988
21043.407241,5107.421000,-7624.121203,4213.525239
21043.407574,5921.647536,-9548.656652,3983.696590
21043.407908,7105.977043,-7772.162391,2451.505594
21043.408242,5921.647536,-8660.409521,2374.896044
21043.408575,5551.544565,-8882.471304,-2451.505594
21043.408909,5995.668130,-8364.327145,-612.876398
21043.409243,5847.626942,-10066.800811,-2298.286494
21043.409577,4737.318029,-9992.780217,-995.924147
21043.409910,148.041188,-11843.295072,-2145.067394
21043.410244,-1184.329507,-12287.418637,-1532.190996
21043.410578,0.000000,-7179.997637,0.000000
21043.410911,4737.318029,-7105.977043,2374.896044
21043.411245,5033.400406,-7105.977043,4903.011187
21043.411579,6143.709319,-7179.997637,4366.744339
21043.411912,6439.791695,-10362.883188,4826.401637
21043.412246,3182.885551,-9918.759623,3524.039291
21043.412580,1998.556043,-8438.347739,-3370.820191
21043.412914,1184.329507,-8660.409521,-2451.505594
21043.413247,2368.659014,-8142.265362,-2068.457845
21043.413581,4071.132681,-7846.182985,-1302.362347
21043.413915,1184.329507,-9918.759623,-2374.896044
21043.414248,1628.453072,-11473.192101,-1225.752797
21043.414582,-1184.329507,-13175.665768,0.000000
21043.414916,-2442.679609,-12065.356855,-1991.848295
21043.415249,-2960.823768,-10140.821405,383.047749
21043.415583,0.000000,-5403.503377,2757.943793
21043.415917,7031.956449,-6513.812290,5439.278036
21043.416251,4737.318029,-4737.318029,4213.525239
21043.416584,4071.132681,-10658.965565,5132.839837
21043.416918,1406.391290,-11251.130318,2068.457845
21043.417252,-222.061783,-8882.471304,-1072.533697
21043.417585,74.020594,-6957.935855,-2604.724693
21043.417919,-888.247130,-7920.203579,-4443.353888
21043.418253,-74.020594,-9474.636058,-3753.867940
21043.418586,-2368.659014,-11473.192101,-3677.258390
21043.418920,-888.247130,-15988.448347,-76.609550
21043.419254,-4811.338623,-14359.995275,-1225.752797
21043.419588,0.000000,-7772.162391,1838.629195
21043.419921,1406.391290,-5477.523971,2911.162892
21043.420255,5181.441594,-4441.235652,7201.297681
21043.420589,5625.565159,-4219.173869,6818.249932
21043.420922,5403.503377,-8068.244768,6894.859482
21043.421256,2812.782580,-7920.203579,2681.334243
21043.421590,0.000000,-11251.130318,-76.609550
21043.421923,-370.102971,-12287.418637,-2528.115143
21043.422257,-4219.173869,-7772.162391,-9806.022374
21043.422591,-1332.370696,-10066.800811,-4519.963438
21043.422925,-3256.906145,-10584.944971,-4826.401637
21043.423258,-3997.112087,-13323.706956,-1991.848295
21043.423592,-4219.173869,-12657.521608,1302.362347
21043.423926,-74.020594,-9696.697840,3983.696590
21043.424259,1776.494261,-7179.997637,7354.516781
21043.424593,7698.141797,-5773.606348,9729.412825
21043.424927,6439.791695,-4811.338623,6741.640382
21043.425260,3923.091493,-4811.338623,4903.011187
21043.425594,3849.070898,-9918.759623,4060.306139
21043.425928,-2072.576638,-9844.739029,-2757.943793
21043.426262,-1554.432478,-9770.718434,-7431.126331
21043.426595,-4441.235652,-12879.583391,-8197.221829
21043.426929,-2220.617826,-9474.636058,-8044.002729
21043.427263,-5625.565159,-11917.315666,-4596.572988
21043.427596,-2590.720797,-11843.295072,-766.095498
21043.427930,-1776.494261,-9252.574275,2604.724693
21043.428264,1998.556043,-8290.306550,6665.030833
21043.428597,7031.956449,-5921.647536,7890.783629
21043.428931,5255.462188,-4737.318029,4596.572988
21043.429265,5625.565159,-7254.018232,7967.393179
21043.429599,4071.132681,-9474.636058,2068.457845
21043.429932,-2072.576638,-10140.821405,-1532.190996
21043.430266,-2146.597232,-10732.986159,-3140.991542
21043.430600,-5255.462188,-10436.903782,-7814.174080
21043.430933,-2738.761985,-9548.656652,-6894.859482
21043.431267,-2368.659014,-11177.109724,-4060.306139
21043.431601,-1036.288319,-11325.150913,-1762.019645
21043.431934,-1850.514855,-11029.068536,1838.629195
21043.432268,2294.638420,-9474.636058,5745.716235
21043.432602,4663.297435,-7105.977043,5745.716235
21043.432936,4737.318029,-4811.338623,9806.022374
21043.433269,5107.421000,-4737.318029,6971.469032
21043.433603,3108.864956,-7179.997637,3983.696590
21043.433937,-1332.370696,-10955.047942,-1149.143247
21043.434270,-4145.153275,-10288.862594,-4443.353888
21043.434604,-4441.235652,-8660.409521,-5515.887586
21043.434938,-4071.132681,-7179.997637,-9806.022374
21043.435271,-888.247130,-9474.636058,-4979.620737
21043.435605,-370.102971,-10807.006753,-4443.353888
21043.435939,-370.102971,-12065.356855,0.000000
21043.436273,0.000000,-10140.821405,1838.629195
21043.436606,3034.844362,-8882.471304,4213.525239
21043.436940,4737.318029,-8438.347739,6281.983084
21043.437274,6513.812290,-5107.421000,5592.497135
21043.437607,5847.626942,-7105.977043,4826.401637
21043.437941,2368.659014,-8364.327145,2681.334243
21043.438275,-74.020594,-14211.954086,-689.485948
21043.438608,-5107.421000,-9844.739029,-4903.011187
21043.438942,-1776.494261,-8882.471304,-3983.696590
21043.439276,-2442.679609,-10955.047942,-4519.963438
21043.439610,518.144159,-7846.182985,-2987.772442
21043.439943,222.061783,-10362.883188,76.609550
21043.440277,888.247130,-12287.418637,2681.334243
21043.440611,-1702.473667,-10140.821405,1532.190996
21043.440944,740.205942,-10658.965565,2987.772442
21043.441278,2442.679609,-5699.585753,2757.943793
21043.441612,0.000000,-4811.338623,4903.011187
21043.441945,3775.050304,-7105.977043,1149.143247
21043.442279,-74.020594,-8438.347739,1532.190996
21043.442613,-2516.700203,-11695.253884,536.266849
21043.442947,-2738.761985,-9030.512492,-1532.190996
21043.443280,-444.123565,-8068.244768,-2987.772442
21043.443614,-1702.473667,-8512.368333,-4136.915689
21043.443948,2738.761985,-8586.388927,-2681.334243
21043.444281,2368.659014,-11325.150913,153.219100
21043.444615,518.144159,-13767.830521,2068.457845
21043.444949,0.000000,-10214.842000,3524.039291
21043.445282,518.144159,-8290.306550,2374.896044
21043.445616,2368.659014,-4959.379811,1225.752797
21043.445950,2664.741391,-8734.430116,3907.087040
21043.446284,0.000000,-4219.173869,0.000000
21043.446617,0.000000,-11325.150913,2145.067394
21043.446951,-1554.432478,-8882.471304,-1991.848295
21043.447285,-1850.514855,-10955.047942,-1302.362347
21043.447618,-2220.617826,-7772.162391,-3140.991542
21043.447952,296.082377,-9104.533087,-1915.238745
21043.448286,1776.494261,-5403.503377,-2451.505594
21043.448619,2960.823768,-11843.295072,3600.648841
21043.448953,3478.967927,-14211.954086,3600.648841
21043.449287,-1998.556043,-10140.821405,0.000000
21043.449621,1110.308913,-11843.295072,-76.609550
21043.449954,296.082377,-7772.162391,0.000000
21043.450287,148.041188,-7031.956449,-1149.143247
21043.450620,1406.391290,-8586.388927,1991.848295
21043.450954,-1628.453072,-10362.883188,1762.019645
21043.451287,-2960.823768,-10732.986159,1762.019645
21043.451620,-3552.988522,-5995.668130,2604.724693
21043.451953,1702.473667,-8882.471304,-76.609550
21043.452286,1406.391290,-4885.359217,-1762.019645
21043.452619,0.000000,-8364.327145,459.657299
21043.452952,1184.329507,-11843.295072,2987.772442
21043.453285,518.144159,-9474.636058,766.095498
21043.453618,1480.411884,-8660.409521,1225.752797
21043.453952,2072.576638,-9178.553681,689.485948
21043.454285,-1258.350101,-6143.709319,-3064.381992
21043.454618,-74.020594,-9474.636058,-4366.744339
21043.454951,-666.185348,-9548.656652,-2451.505594
21043.455284,-1184.329507,-10140.821405,1915.238745
21043.455617,296.082377,-11917.315666,4826.401637
21043.455950,3478.967927,-8290.306550,2987.772442
21043.456283,3404.947333,-7031.956449,2757.943793
21043.456616,5255.462188,-5773.606348,2911.162892
21043.456950,4811.338623,-9178.553681,2374.896044
21043.457283,1776.494261,-10732.986159,612.876398
21043.457616,-1554.432478,-10732.986159,-2451.505594
21043.457949,-1702.473667,-12435.459826,-76.609550
21043.458282,-74.020594,-9474.636058,-3294.210641
21043.458615,-2368.659014,-8364.327145,-612.876398
21043.458948,1702.473667,-8290.306550,-76.609550
21043.459281,-3256.906145,-9696.697840,1225.752797
21043.459614,-2294.638420,-10658.965565,1991.848295
21043.459948,-3849.070898,-9474.636058,2834.553343
21043.460281,0.000000,-4811.338623,1838.629195
21043.460614,1258.350101,-5995.668130,1838.629195
21043.460947,1036.288319,-6069.688724,229.828649
21043.461280,1480.411884,-8660.409521,0.000000
21043.461613,-2516.700203,-12435.459826,-76.609550
21043.461946,-3552.988522,-9548.656652,-2451.505594
21043.462279,-3775.050304,-13027.624579,-3140.991542
21043.462612,-1184.329507,-7179.997637,-2451.505594
21043.462946,962.267725,-9474.636058,-76.609550
21043.463279,3478.967927,-9178.553681,1762.019645
21043.463612,-1776.494261,-10732.986159,1838.629195
21043.463945,-1332.370696,-11621.233289,2911.162892
21043.464278,888.247130,-8512.368333,4749.792088
21043.464611,1998.556043,-7328.038826,4060.306139
21043.464944,3849.070898,-6735.874072,2757.943793
21043.465277,2294.638420,-4811.338623,0.000000
21043.465610,0.000000,-9548.656652,2911.162892
21043.465944,-74.020594,-11251.130318,-2221.676944
21043.466277,-4515.256246,-9548.656652,-4749.792088
21043.466610,-2442.679609,-11547.212695,-3753.867940
21043.466943,-1406.391290,-9030.512492,-3217.601092
21043.467276,370.102971,-6439.791695,-2451.505594
21043.467609,740.205942,-10362.883188,536.266849
21043.467942,2294.638420,-11251.130318,4519.963438
21043.468275,0.000000,-7772.162391,4903.011187
21043.468608,2368.659014,-8956.491898,4903.011187
21043.468942,5255.462188,-9474.636058,3600.648841
21043.469275,1184.329507,-5995.668130,1225.752797
21043.469608,2886.803174,-7105.977043,229.828649
21043.469941,1554.432478,-9400.615463,-612.876398
21043.470274,-1924.535449,-11991.336260,-1532.190996
21043.470607,-3997.112087,-10066.800811,-3753.867940
21043.470940,-4663.297435,-9030.512492,-5745.716235
21043.471273,0.000000,-7179.997637,-2451.505594
21043.471606,3182.885551,-11843.295072,-2068.457845
21043.471940,2072.576638,-9548.656652,1225.752797
21043.472273,0.000000,-11917.315666,7660.954980
21043.472606,1110.308913,-9474.636058,4749.792088
21043.472939,1406.391290,-8142.265362,4290.134789
21043.473272,2220.617826,-4737.318029,2911.162892
21043.473605,1184.329507,-5403.503377,689.485948
21043.473938,1406.391290,-8290.306550,-76.609550
21043.474271,-2960.823768,-11325.150913,-1532.190996
21043.474604,-5699.585753,-11473.192101,-2604.724693
21043.474938,-4737.318029,-8734.430116,-4213.525239
21043.475271,-4737.318029,-10732.986159,-3064.381992
21043.475604,1110.308913,-9178.553681,-2834.553343
21043.475937,-666.185348,-7179.997637,0.000000
21043.476270,2368.659014,-8364.327145,6741.640382
21043.476603,3478.967927,-11251.130318,6358.592633
21043.476936,296.082377,-10732.986159,4903.011187
21043.477269,3997.112087,-5403.503377,3524.039291
21043.477602,592.164754,-9474.636058,1149.143247
21043.477936,2886.803174,-6513.812290,-919.314598
21043.478269,-666.185348,-9474.636058,-1608.800546
21043.478602,-3552.988522,-13027.624579,-1302.362347
21043.478935,-5921.647536,-8364.327145,-612.876398
21043.479268,-1850.514855,-10362.883188,-995.924147
21043.479601,1998.556043,-8290.306550,-1302.362347
21043.479934,1110.308913,-8882.471304,-76.609550
21043.480267,4071.132681,-6513.812290,0.000000
21043.480600,4663.297435,-11547.212695,4826.401637
21043.480934,5551.544565,-11251.130318,4519.963438
21043.481267,4737.318029,-8364.327145,4903.011187
21043.481600,5551.544565,-10362.883188,1149.143247
21043.481933,2368.659014,-6291.750507,0.000000
21043.482266,1702.473667,-10658.965565,-4979.620737
21043.482599,592.164754,-8364.327145,-4443.353888
21043.482932,-1480.411884,-11917.315666,-842.705048
21043.483265,-2960.823768,-10140.821405,-842.705048
21043.483598,74.020594,-8290.306550,-919.314598
21043.483932,1332.370696,-7772.162391,1762.019645
21043.484265,6513.812290,-6587.832884,6052.154434
21043.484598,5255.462188,-6291.750507,2451.505594
21043.484931,3478.967927,-12435.459826,4826.401637
21043.485264,-74.020594,-10362.883188,1378.971896
21043.485597,-1776.494261,-9104.533087,2374.896044
21043.485930,2812.782580,-8068.244768,0.000000
21043.486263,-1850.514855,-10066.800811,-3294.210641
21043.486596,-2368.659014,-7772.162391,-5745.716235
21043.486930,-5995.668130,-13915.871710,-2528.115143
21043.487263,-6809.894666,-11251.130318,-3140.991542
21043.487596,-7105.977043,-7179.997637,0.000000
21043.487929,-74.020594,-7994.224174,-76.609550
21043.488262,2516.700203,-3034.844362,2451.505594
21043.488595,4737.318029,-8586.388927,8197.221829
21043.488928,3330.926739,-8660.409521,3983.696590
21043.489261,740.205942,-11547.212695,4290.134789
21043.489594,-1480.411884,-9548.656652,1378.971896
21043.489928,-888.247130,-9548.656652,-1762.019645
21043.490261,-3034.844362,-8882.471304,-4519.963438
21043.490594,-5625.565159,-9548.656652,-4903.011187
21043.490927,-3627.009116,-10510.924376,-3217.601092
21043.491260,-2812.782580,-11769.274478,-689.485948
21043.491593,-4811.338623,-12953.603985,229.828649
21043.491926,-1258.350101,-8882.471304,2374.896044
21043.492259,-1184.329507,-5107.421000,2451.505594
21043.492592,3552.988522,-6587.832884,8810.098227
21043.492926,5255.462188,-4145.153275,3753.867940
21043.493259,2516.700203,-9548.656652,5056.230287
21043.493592,3478.967927,-11547.212695,2987.772442
21043.493925,148.041188,-10288.862594,383.047749
21043.494258,-1628.453072,-10288.862594,-4366.744339
21043.494591,-1924.535449,-9770.718434,-6052.154434
21043.494924,-4293.194464,-8956.491898,-7814.174080
21043.495257,-3552.988522,-10732.986159,-3370.820191
21043.495590,-1258.350101,-11547.212695,-2221.676944
21043.495924,-370.102971,-8882.471304,0.000000
21043.496257,1184.329507,-6883.915261,5898.935335
21043.496590,7920.203579,-2146.597232,4673.182538
21043.496923,8956.491898,-6809.894666,6818.249932
21043.497256,9326.594869,-7846.182985,4979.620737
21043.497589,7105.977043,-8660.409521,3447.429741
21043.497922,3552.988522,-13027.624579,3370.820191
21043.498255,1628.453072,-13767.830521,-76.609550
21043.498588,-4737.318029,-8364.327145,-5822.325785
21043.498922,-3552.988522,-10732.986159,-9806.022374
21043.499255,-2072.576638,-8808.450710,-5592.497135
21043.499588,-74.020594,-12731.542202,-689.485948
21043.499921,-2072.576638,-11473.192101,2145.067394
21043.500254,-592.164754,-8586.388927,4443.353888
21043.500587,1184.329507,-6439.791695,6052.154434
21043.500920,3404.947333,-3627.009116,5515.887586
21043.501253,4663.297435,-6513.812290,3907.087040
21043.501586,2368.659014,-3034.844362,3677.258390
21043.501920,3478.967927,-10658.965565,1762.019645
21043.502253,-1850.514855,-12731.542202,-2221.676944
21043.502586,-3627.009116,-11251.130318,-4366.744339
21043.502919,-4293.194464,-11251.130318,-6818.249932
21043.503252,-2220.617826,-10436.903782,-6358.592633
21043.503585,-4589.276840,-12953.603985,-4519.963438
21043.503918,-2368.659014,-11325.150913,-1225.752797
21043.504251,-3404.947333,-10140.821405,2757.943793
21043.504584,1998.556043,-8734.430116,7890.783629
21043.504918,6439.791695,-4737.318029,7277.907231
21043.505251,2368.659014,-4811.338623,7967.393179
21043.505584,4737.318029,-2960.823768,5132.839837
21043.505917,3256.906145,-6587.832884,2298.286494
21043.506250,1776.494261,-10732.986159,0.000000
21043.506583,-2368.659014,-10288.862594,-3370.820191
21043.506916,-1776.494261,-13545.768739,-4443.353888
21043.507249,-2960.823768,-8956.491898,-7660.954980
21043.507582,-3034.844362,-13619.789333,-6281.983084
21043.507916,-74.020594,-9622.677246,-4596.572988
21043.508249,0.000000,-13545.768739,1455.581446
21043.508582,2294.638420,-8956.491898,4290.134789
21043.508915,592.164754,-4811.338623,5515.887586
21043.509248,2368.659014,-4811.338623,7354.516781
21043.509581,7624.121203,-4441.235652,6665.030833
21043.509914,4663.297435,-3108.864956,3983.696590
21043.510247,2960.823768,-6587.832884,1838.629195
21043.510580,-1332.370696,-10362.883188,-2145.067394
21043.510914,-5329.482782,-13841.851115,-5056.230287
21043.511247,-4367.215058,-10362.883188,-7124.688131
21043.511580,-3997.112087,-12065.356855,-5592.497135
21043.511913,-1258.350101,-10658.965565,-7584.345430
21043.512246,-1184.329507,-10732.986159,-2451.505594
21043.512579,296.082377,-12953.603985,4060.306139
21043.512912,-962.267725,-9030.512492,4290.134789
21043.513245,2368.659014,-6883.915261,8503.660028
21043.513578,4737.318029,-5107.421000,7431.126331
21043.513912,5403.503377,-4293.194464,5669.106685
21043.514245,3330.926739,-7105.977043,2068.457845
21043.514578,-1258.350101,-9474.636058,-1915.238745
21043.514911,-3034.844362,-11473.192101,-6128.763984
21043.515244,-4737.318029,-10140.821405,-3524.039291
21043.515577,-1184.329507,-11621.233289,-1608.800546
21043.515910,-2442.679609,-9326.594869,-5669.106685
21043.516243,-74.020594,-9474.636058,-3753.867940
21043.516576,1776.494261,-9992.780217,919.314598
21043.516910,1850.514855,-10658.965565,4060.306139
21043.517243,1554.432478,-10584.944971,5822.325785
21043.517576,592.164754,-5995.668130,5209.449386
21043.517909,1184.329507,-5995.668130,2451.505594
21043.518242,4367.215058,-7105.977043,4826.401637
21043.518575,1998.556043,-4811.338623,0.000000
21043.518908,74.020594,-8364.327145,0.000000
21043.519241,-74.020594,-11547.212695,-995.924147
21043.519574,-4071.132681,-10732.986159,-2681.334243
21043.519908,-2368.659014,-9400.615463,-4213.525239
21043.520241,-222.061783,-9474.636058,-2681.334243
21043.520574,0.000000,-9548.656652,-1838.629195
21043.520907,740.205942,-10584.944971,1455.581446
21043.521240,-370.102971,-12435.459826,2451.505594
21043.521573,-1258.350101,-9918.759623,3907.087040
21043.521906,1702.473667,-7698.141797,6052.154434
21043.522239,4663.297435,-7105.977043,4519.963438
21043.522572,3478.967927,-5625.565159,1838.629195
21043.522905,592.164754,-6439.791695,1225.752797
21043.523239,2294.638420,-11251.130318,-1302.362347
21043.523572,-1776.494261,-11473.192101,-919.314598
21043.523905,-148.041188,-11473.192101,-1915.238745
21043.524238,-148.041188,-10732.986159,-1149.143247
21043.524571,592.164754,-9326.594869,-2451.505594
21043.524904,0.000000,-9474.636058,-3140.991542
21043.525237,0.000000,-11917.315666,1532.190996
21043.525570,0.000000,-7772.162391,2451.505594
21043.525903,-1776.494261,-9326.594869,4826.401637
21043.526237,-74.020594,-8216.285956,2987.772442
21043.526570,-2442.679609,-7105.977043,-76.609550
21043.526903,-74.020594,-4737.318029,-995.924147
21043.527236,1554.432478,-6587.832884,612.876398
21043.527569,-1924.535449,-10066.800811,229.828649
21043.527902,-1332.370696,-10214.842000,229.828649
21043.528235,-74.020594,-11843.295072,1149.143247
21043.528568,2368.659014,-8956.491898,0.000000
21043.528901,3849.070898,-9474.636058,1149.143247
21043.529235,2738.761985,-10584.944971,-1838.629195
21043.529568,1184.329507,-11029.068536,1225.752797
21043.529901,-74.020594,-10732.986159,306.438199
21043.530234,814.226536,-9622.677246,2145.067394
21043.530567,1110.308913,-7402.059420,2374.896044
21043.530900,0.000000,-6957.935855,689.485948
21043.531233,1702.473667,-1776.494261,-383.047749
21043.531566,1184.329507,-9400.615463,2681.334243
21043.531899,2294.638420,-10658.965565,2987.772442
21043.532233,-74.020594,-10732.986159,1225.752797
21043.532566,3849.070898,-7179.997637,3983.696590
21043.532899,1850.514855,-9548.656652,0.000000
21043.533232,4293.194464,-9474.636058,-1608.800546
21043.533565,4515.256246,-11177.109724,-1455.581446
21043.533898,-370.102971,-14582.057057,-919.314598
21043.534231,0.000000,-9548.656652,0.000000
21043.534564,-4441.235652,-12731.542202,-76.609550
21043.534897,518.144159,-6735.874072,-1838.629195
21043.535231,-2368.659014,-5995.668130,1838.629195
21043.535564,2294.638420,-9474.636058,2834.553343
21043.535897,-1184.329507,-6587.832884,2451.505594
21043.536230,-370.102971,-10362.883188,3447.429741
21043.536563,814.226536,-8586.388927,4519.963438
21043.536896,0.000000,-7105.977043,1685.410096
21043.537229,0.000000,-7476.080014,0.000000
21043.537562,222.061783,-8808.450710,-3447.429741
21043.537895,814.226536,-11325.150913,-3064.381992
21043.538229,-2072.576638,-14211.954086,-2298.286494
21043.538562,-5107.421000,-13619.789333,-4136.915689
21043.538895,-4737.318029,-8956.491898,-153.219100
21043.539228,-1924.535449,-9252.574275,3447.429741
21043.539561,2294.638420,-5625.565159,0.000000
21043.539894,0.000000,-6291.750507,3830.477490
21043.540227,0.000000,-9548.656652,4903.011187
21043.540560,-74.020594,-8290.306550,5286.058936
21043.540893,0.000000,-7031.956449,5745.716235
21043.541227,1406.391290,-6883.915261,1838.629195
21043.541560,2146.597232,-5329.482782,-1302.362347
21043.541893,0.000000,-9474.636058,-4979.620737
21043.542226,0.000000,-11029.068536,-1762.019645
21043.542559,-2442.679609,-13915.871710,-3907.087040
21043.542892,-4219.173869,-12805.562797,-5822.325785
21043.543225,-1850.514855,-9474.636058,-1302.362347
21043.543558,-1776.494261,-9548.656652,-1685.410096
21043.543891,2146.597232,-6587.832884,919.314598
21043.544225,3997.112087,-6661.853478,3677.258390
21043.544558,2664.741391,-7772.162391,7354.516781
21043.544891,4663.297435,-9178.553681,7890.783629
21043.545224,2960.823768,-8364.327145,9116.536426
21043.545557,4663.297435,-5329.482782,689.485948
21043.545890,1776.494261,-7772.162391,-2451.505594
21043.546223,2368.659014,-7772.162391,-4903.011187
21043.546556,-2368.659014,-13397.727550,-4903.011187
21043.546889,-4737.318029,-13545.768739,-5898.935335
21043.547223,-6439.791695,-13397.727550,-4136.915689
21043.547556,-1554.432478,-11177.109724,-689.485948
21043.547889,-814.226536,-5551.544565,0.000000
21043.548222,4071.132681,-5921.647536,3600.648841
21043.548555,5847.626942,-6809.894666,4673.182538
21043.548888,4737.318029,-9770.718434,10112.460574
21043.549221,5329.482782,-10658.965565,9039.926876
21043.549554,3923.091493,-7179.997637,4826.401637
21043.549887,3034.844362,-7624.121203,1225.752797
21043.550221,1850.514855,-6883.915261,-3294.210641
21043.550554,-666.185348,-10066.800811,-6205.373534
21043.550887,-4737.318029,-11917.315666,-4290.134789
21043.551220,-4811.338623,-13027.624579,-6511.811733
21043.551553,-5329.482782,-9844.739029,-4596.572988
21043.551886,-3256.906145,-10881.027347,-76.609550
21043.552219,1110.308913,-8290.306550,1608.800546
21043.552552,2294.638420,-6217.729913,3370.820191
21043.552885,3552.988522,-7179.997637,6741.640382
21043.553218,2812.782580,-8290.306550,7890.783629
21043.553551,1258.350101,-8808.450710,7354.516781
21043.553884,0.000000,-4811.338623,3983.696590
21043.554217,1110.308913,-7402.059420,-1072.533697
21043.554550,-1258.350101,-9030.512492,-5286.058936
21043.554883,-2146.597232,-11103.089130,-6894.859482
21043.555216,-3627.009116,-14804.118840,-5745.716235
21043.555549,-5921.647536,-11917.315666,-3983.696590
21043.555883,-3034.844362,-11843.295072,-689.485948
21043.556216,-74.020594,-9474.636058,-1302.362347
21043.556549,1406.391290,-6069.688724,1991.848295
21043.556882,5255.462188,-8216.285956,7277.907231
21043.557215,2368.659014,-8364.327145,7354.516781
21043.557548,2442.679609,-8586.388927,8580.269578
21043.557881,2812.782580,-5625.565159,6665.030833
21043.558214,1184.329507,-3627.009116,1225.752797
21043.558547,-2664.741391,-5403.503377,-3064.381992
21043.558880,-74.020594,-7698.141797,-8963.317327
21043.559213,-4441.235652,-11917.315666,-8963.317327
21043.559546,-5921.647536,-13101.645173,-5822.325785
21043.559879,-6069.688724,-13027.624579,-4979.620737
21043.560212,-3330.926739,-10584.944971,-2681.334243
21043.560545,2442.679609,-8808.450710,1532.190996
21043.560878,5033.400406,-6069.688724,5975.544884
21043.561211,6513.812290,-7328.038826,7354.516781
21043.561545,3552.988522,-8068.244768,9193.145976
21043.561878,4663.297435,-8882.471304,4366.744339
21043.562211,1776.494261,-6883.915261,5362.668486
21043.562544,2368.659014,-8290.306550,766.095498
21043.562877,-1776.494261,-8068.244768,-6128.763984
21043.563210,-2294.638420,-9030.512492,-7354.516781
21043.563543,-2220.617826,-11103.089130,-6588.421283
21043.563876,-4219.173869,-13915.871710,-4060.306139
21043.564209,-1258.350101,-11251.130318,-1302.362347
21043.564542,0.000000,-10510.924376,2911.162892
21043.564875,2960.823768,-6957.935855,2834.553343
21043.565208,3552.988522,-5995.668130,5822.325785
21043.565541,5847.626942,-7698.141797,4213.525239
21043.565874,3478.967927,-10066.800811,4826.401637
21043.566207,962.267725,-10214.842000,3677.258390
21043.566540,-74.020594,-8734.430116,1149.143247
21043.566873,-888.247130,-7179.997637,-2298.286494
21043.567207,-3849.070898,-7179.997637,-5515.887586
21043.567540,-74.020594,-10658.965565,-5592.497135
21043.567873,-3552.988522,-10732.986159,-2451.505594
21043.568206,-5921.647536,-11917.315666,-1072.533697
21043.568539,-74.020594,-10362.883188,842.705048
21043.568872,2294.638420,-8142.265362,2987.772442
21043.569205,3775.050304,-7550.100608,2987.772442
21043.569538,4219.173869,-6809.894666,3753.867940
21043.569871,2812.782580,-8734.430116,3140.991542
21043.570204,0.000000,-9548.656652,2757.943793
21043.570537,-962.267725,-10066.800811,842.705048
21043.570870,-2072.576638,-8068.244768,-1149.143247
21043.571203,-3034.844362,-8882.471304,-3370.820191
21043.571536,-592.164754,-6883.915261,-5209.449386
21043.571869,-1702.473667,-9992.780217,-3983.696590
21043.572202,518.144159,-11843.295072,-76.609550
21043.572535,-666.185348,-9104.533087,0.000000
21043.572869,0.000000,-9400.615463,3600.648841
21043.573202,5033.400406,-9178.553681,3907.087040
21043.573535,2886.803174,-6883.915261,1378.971896
21043.573868,3256.906145,-7105.977043,2528.115143
21043.574201,1406.391290,-9252.574275,2451.505594
21043.574534,-888.247130,-11103.089130,3370.820191
21043.574867,-3552.988522,-8364.327145,0.000000
21043.575200,-370.102971,-8290.306550,-2681.334243
21043.575533,-2368.659014,-6291.750507,-5745.716235
21043.575866,-2960.823768,-10436.903782,-2528.115143
21043.576199,-666.185348,-9474.636058,-3140.991542
21043.576532,-2368.659014,-10140.821405,1225.752797
21043.576865,-888.247130,-9252.574275,2145.067394
21043.577198,2738.761985,-7624.121203,2834.553343
21043.577531,3923.091493,-8438.347739,3140.991542
21043.577864,5847.626942,-9178.553681,3907.087040
21043.578197,7031.956449,-9474.636058,2068.457845
21043.578530,0.000000,-11621.233289,3064.381992
21043.578864,-74.020594,-13027.624579,1762.019645
21043.579197,-4219.173869,-9474.636058,-2221.676944
21043.579530,-2294.638420,-9474.636058,-2528.115143
21043.579863,-1406.391290,-7772.162391,-2834.553343
21043.580196,-1924.535449,-7846.182985,-3294.210641
21043.580529,1258.350101,-8734.430116,0.000000
21043.580862,1110.308913,-9474.636058,4213.525239
21043.581195,296.082377,-5403.503377,306.438199
21043.581528,3849.070898,-10362.883188,4826.401637
21043.581861,4663.297435,-6809.894666,153.219100
21043.582194,2368.659014,-7772.162391,1225.752797
21043.582527,4441.235652,-11547.212695,-76.609550
21043.582860,0.000000,-12509.480420,-153.219100
21043.583193,-2368.659014,-12509.480420,-383.047749
21043.583526,-370.102971,-9474.636058,-153.219100
21043.583859,-1258.350101,-10288.862594,-76.609550
21043.584192,0.000000,-5107.421000,-2068.457845
21043.584526,1776.494261,-5551.544565,0.000000
21043.584859,1480.411884,-9400.615463,2298.286494
21043.585192,2368.659014,-7179.997637,4903.011187
21043.585525,2664.741391,-11843.295072,6665.030833
21043.585858,4367.215058,-6217.729913,1378.971896
21043.586191,1776.494261,-8660.409521,0.000000
21043.586524,3330.926739,-9474.636058,-2528.115143
21043.586857,-1184.329507,-10140.821405,-3677.258390
21043.587190,-4441.235652,-13767.830521,-2528.115143
21043.587523,-3034.844362,-12139.377449,-1915.238745
21043.587856,-2294.638420,-9622.677246,-536.266849
21043.588189,-666.185348,-11251.130318,-383.047749
21043.588522,-1480.411884,-4811.338623,306.438199
21043.588855,1110.308913,-4959.379811,0.000000
21043.589188,0.000000,-9696.697840,4826.401637
21043.589521,-74.020594,-9474.636058,2987.772442
21043.589854,2072.576638,-9030.512492,5515.887586
21043.590188,2368.659014,-6513.812290,3600.648841
21043.590521,1850.514855,-8438.347739,229.828649
21043.590854,-296.082377,-8956.491898,-2528.115143
21043.591187,-2294.638420,-11917.315666,-3677.258390
21043.591520,-4737.318029,-13693.809927,-1608.800546
21043.591853,-4737.318029,-9548.656652,-4290.134789
21043.592186,-2960.823768,-9844.739029,536.266849
21043.592519,2294.638420,-8290.306550,1762.019645
21043.592852,1998.556043,-6513.812290,2221.676944
21043.593185,3923.091493,-7105.977043,2221.676944
21043.593518,518.144159,-10362.883188,4519.963438
21043.593851,1036.288319,-6809.894666,3524.039291
21043.594184,1110.308913,-7550.100608,3370.820191
21043.594517,4071.132681,-8882.471304,1762.019645
21043.594850,592.164754,-8364.327145,-76.609550
21043.595183,2294.638420,-11843.295072,-2528.115143
21043.595516,-1406.391290,-10140.821405,-3677.258390
21043.595850,-4737.318029,-12213.398043,-1838.629195
21043.596183,-2738.761985,-9770.718434,-2451.505594
21043.596516,-370.102971,-9474.636058,-689.485948
21043.596849,3478.967927,-7476.080014,1838.629195
21043.597182,5255.462188,-5847.626942,2451.505594
21043.597515,3108.864956,-8882.471304,1915.238745
21043.597848,2960.823768,-11251.130318,7277.907231
21043.598181,-74.020594,-9030.512492,3524.039291
21043.598514,370.102971,-4811.338623,0.000000
21043.598847,0.000000,-8364.327145,1072.533697
21043.599180,-74.020594,-5995.668130,-4290.134789
21043.599513,-1406.391290,-9992.780217,-3294.210641
21043.599846,-3256.906145,-11399.171507,-3830.477490
21043.600179,-4145.153275,-12139.377449,-842.705048
21043.600512,-2442.679609,-8290.306550,-1532.190996
21043.600845,666.185348,-7105.977043,76.609550
21043.601178,2812.782580,-8142.265362,1072.533697
21043.601512,3849.070898,-8068.244768,1225.752797
21043.601845,5033.400406,-11843.295072,6971.469032
21043.602178,1110.308913,-9474.636058,1915.238745
21043.602511,-2072.576638,-9548.656652,0.000000
21043.602844,-74.020594,-11843.295072,-76.609550
21043.603177,-2072.576638,-6291.750507,-1838.629195
21043.603510,-1776.494261,-5995.668130,-1838.629195
21043.603843,-740.205942,-9400.615463,-2145.067394
21043.604176,-1998.556043,-11991.336260,842.705048
21043.604509,-962.267725,-9918.759623,2221.676944
21043.604842,-74.020594,-9178.553681,2834.553343
21043.605175,2294.638420,-6809.894666,-1762.019645
21043.605508,-1776.494261,-9844.739029,-76.609550
21043.605841,3478.967927,-9474.636058,-689.485948
21043.606174,-444.123565,-10140.821405,306.438199
21043.606507,-666.185348,-11177.109724,3600.648841
21043.606840,-1702.473667,-9104.533087,1685.410096
21043.607174,-1554.432478,-9474.636058,536.266849
21043.607507,3034.844362,-5995.668130,153.219100
21043.607840,1184.329507,-7476.080014,0.000000
21043.608173,2886.803174,-7179.997637,-3370.820191
21043.608506,1480.411884,-12879.583391,4826.401637
21043.608839,2886.803174,-9178.553681,4213.525239
21043.609172,3478.967927,-5403.503377,383.047749
21043.609505,2072.576638,-8586.388927,-76.609550
21043.609838,3997.112087,-8290.306550,-1225.752797
21043.610171,740.205942,-10288.862594,-3677.258390
21043.610504,-444.123565,-11547.212695,-2298.286494
21043.610837,-3849.070898,-12805.562797,-919.314598
21043.611170,148.041188,-5995.668130,0.000000
21043.611503,4663.297435,-11843.295072,3600.648841
21043.611836,6143.709319,-3627.009116,766.095498
21043.612169,5551.544565,-8808.450710,1838.629195
21043.612502,4441.235652,-9400.615463,0.000000
21043.612835,4589.276840,-12435.459826,3524.039291
21043.613169,1480.411884,-9918.759623,1608.800546
21043.613502,3701.029710,-10140.821405,306.438199
21043.613835,1110.308913,-10955.047942,-1915.238745
21043.614168,1184.329507,-10436.903782,-1915.238745
21043.614501,-666.185348,-11917.315666,-2681.334243
21043.614834,-666.185348,-8660.409521,-2451.505594
21043.615167,-3849.070898,-12435.459826,2374.896044
21043.615500,-2664.741391,-7031.956449,1991.848295
21043.615833,-1554.432478,-7105.977043,1302.362347
21043.616166,-1332.370696,-5847.626942,1685.410096
21043.616499,1850.514855,-5551.544565,2068.457845
21043.616832,-74.020594,-10658.965565,4826.401637
21043.617165,-1480.411884,-10658.965565,3447.429741
21043.617498,-2516.700203,-8734.430116,0.000000
21043.617831,-1258.350101,-10214.842000,-1838.629195
21043.618164,222.061783,-7994.224174,-3217.601092
21043.618497,-1258.350101,-14211.954086,-2528.115143
21043.618831,-3552.988522,-10436.903782,-4903.011187
21043.619164,-5255.462188,-15396.283594,-76.609550
21043.619497,-5403.503377,-8364.327145,-1225.752797
21043.619830,-2960.823768,-5995.668130,2451.505594
21043.620163,-1850.514855,-7994.224174,2221.676944
21043.620496,2960.823768,-2738.761985,2987.772442
21043.620829,740.205942,-7402.059420,4136.915689
21043.621162,2738.761985,-7920.203579,5056.230287
21043.621495,222.061783,-7402.059420,2528.115143
21043.621828,1184.329507,-10658.965565,3294.210641
21043.622161,1110.308913,-11251.130318,-3140.991542
21043.622494,-2368.659014,-9548.656652,-4903.011187
21043.622827,888.247130,-12435.459826,-3907.087040
21043.623160,-3627.009116,-12139.377449,-6128.763984
21043.623493,-3330.926739,-12509.480420,-1991.848295
21043.623826,-2146.597232,-9474.636058,-842.705048
21043.624159,888.247130,-8882.471304,3524.039291
21043.624493,2664.741391,-3627.009116,4903.011187
21043.624826,7105.977043,-8290.306550,9729.412825
21043.625159,7031.956449,-5033.400406,6128.763984
21043.625492,1776.494261,-7179.997637,5209.449386
21043.625825,3108.864956,-9474.636058,4213.525239
21043.626158,592.164754,-6883.915261,0.000000
21043.626491,666.185348,-9104.533087,-5209.449386
21043.626824,0.000000,-11473.192101,-7814.174080
21043.627157,-1036.288319,-12879.583391,-7737.564530
21043.627490,-2738.761985,-16284.530724,-4366.744339
21043.627823,-1258.350101,-14211.954086,-3140.991542
21043.628156,-4145.153275,-8660.409521,0.000000
21043.628489,2294.638420,-9474.636058,6052.154434
21043.628822,6439.791695,-4145.153275,5439.278036
21043.629155,5921.647536,-3627.009116,8733.488677
21043.629488,7624.121203,-5847.626942,7354.516781
21043.629821,3627.009116,-9844.739029,7048.078582
21043.630155,2590.720797,-7402.059420,3370.820191
21043.630488,1258.350101,-9622.677246,-153.219100
21043.630821,-2516.700203,-11177.109724,-7507.735880
21043.631154,-5403.503377,-13027.624579,-10955.165621
21043.631487,-5847.626942,-12657.521608,-9499.584175
21043.631820,-5699.585753,-12065.356855,-6894.859482
21043.632153,-7994.224174,-10732.986159,0.000000
21043.632486,-1924.535449,-8734.430116,4213.525239
21043.632819,2294.638420,-9474.636058,7277.907231
21043.633152,4811.338623,-740.205942,7660.954980
21043.633485,6143.709319,-5329.482782,8963.317327
21043.633818,4441.235652,-6365.771101,7124.688131
21043.634151,3478.967927,-8734.430116,5132.839837
21043.634484,1628.453072,-7476.080014,1225.752797
21043.634817,0.000000,-10732.986159,-3064.381992
21043.635150,-2442.679609,-10807.006753,-9193.145976
21043.635483,-1258.350101,-14211.954086,-11108.384721
21043.635817,-4367.215058,-13693.809927,-9499.584175
21043.636150,-3923.091493,-11917.315666,-5515.887586
21043.636483,-5329.482782,-9844.739029,-1532.190996
21043.636816,2368.659014,-7550.100608,6205.373534
21043.637149,6439.791695,-4515.256246,9959.241474
21043.637482,7328.038826,-4071.132681,8810.098227
21043.637815,8808.450710,-4737.318029,7277.907231
21043.638148,2368.659014,-8364.327145,4903.011187
21043.638481,3478.967927,-9474.636058,2374.896044
21043.638814,222.061783,-8660.409521,-3064.381992
21043.639147,-1036.288319,-12213.398043,-4903.011187
21043.639480,-1850.514855,-13027.624579,-8044.002729
21043.639813,-3552.988522,-13471.748144,-8656.879127
21043.640146,-2812.782580,-12953.603985,-4903.011187
21043.640479,-3256.906145,-12509.480420,-689.485948
21043.640812,-444.123565,-8882.471304,3294.210641
21043.641145,1184.329507,-6883.915261,8503.660028
21043.641479,2960.823768,-3034.844362,6435.202183
21043.641812,3552.988522,-3627.009116,8580.269578
21043.642145,5847.626942,-6957.935855,4826.401637
21043.642478,-1036.288319,-8956.491898,3064.381992
21043.642811,-1924.535449,-10362.883188,-842.705048
21043.643144,-3701.029710,-8956.491898,-5209.449386
21043.643477,-4737.318029,-11029.068536,-7660.954980
21043.643810,-814.226536,-10362.883188,-7737.564530
21043.644143,-2442.679609,-15988.448347,-4979.620737
21043.644476,-4737.318029,-10732.986159,-3064.381992
21043.644809,-1628.453072,-13619.789333,4213.525239
21043.645142,-74.020594,-9474.636058,2987.772442
21043.645475,3478.967927,-1480.411884,4519.963438
21043.645808,3182.885551,-7550.100608,6052.154434
21043.646141,7105.977043,-1554.432478,6205.373534
21043.646474,2072.576638,-8956.491898,5286.058936
21043.646807,1332.370696,-9770.718434,2221.676944
21043.647140,-666.185348,-12435.459826,-1302.362347
21043.647474,-4737.318029,-11325.150913,-4596.572988
21043.647807,0.000000,-8512.368333,-4903.011187
21043.648140,-3330.926739,-10658.965565,-5592.497135
21043.648473,0.000000,-9548.656652,-4903.011187
21043.648806,-74.020594,-13027.624579,-76.609550
21043.649139,1702.473667,-7698.141797,995.924147
21043.649472,592.164754,-5403.503377,5515.887586
21043.649805,3256.906145,-8290.306550,5745.716235
21043.650138,4071.132681,-4959.379811,1378.971896
21043.650471,2146.597232,-7846.182985,3140.991542
21043.650804,2886.803174,-7994.224174,1685.410096
21043.651137,-2072.576638,-11843.295072,2987.772442
21043.651470,-1776.494261,-8808.450710,1302.362347
21043.651803,-1258.350101,-9474.636058,-1302.362347
21043.652136,-4145.153275,-8364.327145,-4903.011187
21043.652469,0.000000,-8364.327145,-3753.867940
21043.652802,1110.308913,-11695.253884,-3064.381992
21043.653135,0.000000,-8364.327145,-3677.258390
21043.653469,-1184.329507,-7179.997637,306.438199
21043.653802,1628.453072,-10658.965565,3294.210641
21043.654135,2738.761985,-8068.244768,2911.162892
21043.654468,4663.297435,-9178.553681,4519.963438
21043.654801,1480.411884,-8660.409521,2987.772442
21043.655134,-74.020594,-10362.883188,0.000000
21043.655467,-3256.906145,-10732.986159,2911.162892
21043.655800,0.000000,-8364.327145,3294.210641
21043.656133,-74.020594,-8216.285956,-76.609550
21043.656466,-370.102971,-7254.018232,-2451.505594
21043.656799,-1480.411884,-8808.450710,-2451.505594
21043.657132,1036.288319,-9474.636058,-995.924147
21043.657465,-2294.638420,-9178.553681,-1838.629195
21043.657798,814.226536,-10658.965565,1762.019645
21043.658131,0.000000,-8364.327145,0.000000
21043.658464,2072.576638,-9474.636058,2987.772442
21043.658797,3182.885551,-7179.997637,0.000000
21043.659130,-1258.350101,-11991.336260,76.609550
21043.659463,0.000000,-10140.821405,995.924147
21043.659796,-962.267725,-10658.965565,2604.724693
21043.660130,1036.288319,-6439.791695,2451.505594
21043.660463,1332.370696,-4219.173869,2451.505594
21043.660796,2294.638420,-6957.935855,-2681.334243
21043.661129,2960.823768,-6957.935855,-76.609550
21043.661462,4071.132681,-13619.789333,-76.609550
21043.661795,0.000000,-10140.821405,0.000000
21043.662128,2738.761985,-9474.636058,-76.609550
21043.662461,148.041188,-10288.862594,0.000000
21043.662794,4811.338623,-8882.471304,153.219100
21043.663127,962.267725,-11029.068536,-1532.190996
21043.663460,1184.329507,-10732.986159,0.000000
21043.663793,-74.020594,-11991.336260,76.609550
21043.664126,-1554.432478,-9326.594869,842.705048
21043.664459,518.144159,-7846.182985,3600.648841
21043.664792,1480.411884,-5403.503377,3447.429741
21043.665125,2960.823768,-3627.009116,1838.629195
21043.665458,3478.967927,-6513.812290,1149.143247
21043.665791,1110.308913,-10140.821405,-2451.505594
21043.666124,-1628.453072,-9622.677246,-229.828649
21043.666457,-1554.432478,-12435.459826,-1608.800546
21043.666791,-3256.906145,-9548.656652,-2451.505594
21043.667124,-2442.679609,-12139.377449,-2604.724693
21043.667457,-1480.411884,-9770.718434,-2528.115143
21043.667790,-1480.411884,-11399.171507,1378.971896
21043.668123,-2072.576638,-11029.068536,4826.401637
21043.668456,-2442.679609,-7105.977043,1838.629195
21043.668789,296.082377,-7179.997637,5515.887586
21043.669122,3478.967927,-6513.812290,6052.154434
21043.669455,3182.885551,-3923.091493,1225.752797
21043.669788,592.164754,-9844.739029,2298.286494
21043.670121,0.000000,-9474.636058,-1455.581446
21043.670454,-3478.967927,-11843.295072,-1915.238745
21043.670787,-2442.679609,-10362.883188,-4060.306139
21043.671120,-2738.761985,-13027.624579,-2528.115143
21043.671453,-4811.338623,-8364.327145,-7354.516781
21043.671786,518.144159,-11251.130318,-1302.362347
21043.672119,-1258.350101,-11843.295072,-76.609550
21043.672452,-2368.659014,-8364.327145,3064.381992
21043.672785,2886.803174,-7105.977043,5745.716235
21043.673118,2072.576638,-6217.729913,7048.078582
21043.673452,3256.906145,-4737.318029,3830.477490
21043.673785,3330.926739,-5329.482782,1072.533697
21043.674118,1184.329507,-9548.656652,0.000000
21043.674451,296.082377,-8364.327145,0.000000
21043.674784,1110.308913,-13027.624579,-689.485948
21043.675117,-74.020594,-9178.553681,-4903.011187
21043.675450,-1110.308913,-11917.315666,-3370.820191
21043.675783,1110.308913,-10362.883188,-4060.306139
21043.676116,740.205942,-12065.356855,-1302.362347
21043.676449,-3330.926739,-11399.171507,-383.047749
21043.676782,740.205942,-8586.388927,3677.258390
21043.677115,0.000000,-5107.421000,4290.134789
21043.677448,3256.906145,-3627.009116,5515.887586
21043.677781,4219.173869,-4737.318029,3753.867940
21043.678114,7105.977043,-6291.750507,3677.258390
21043.678447,7402.059420,-10510.924376,4826.401637
21043.678780,2294.638420,-13027.624579,-1915.238745
21043.679113,-1184.329507,-8364.327145,-5822.325785
21043.679446,-1998.556043,-14211.954086,-6205.373534
21043.679779,-74.020594,-11103.089130,-6741.640382
21043.680113,-1184.329507,-12953.603985,-2451.505594
21043.680446,-444.123565,-11473.192101,-1915.238745
21043.680779,-592.164754,-11103.089130,2987.772442
21043.681112,1332.370696,-8660.409521,7660.954980
21043.681445,3923.091493,-4737.318029,8503.660028
21043.681778,2368.659014,-3034.844362,7354.516781
21043.682111,0.000000,-3627.009116,3677.258390
21043.682444,2294.638420,-7994.224174,-689.485948
21043.682777,-1554.432478,-11251.130318,-2528.115143
21043.683110,-4219.173869,-10658.965565,-3753.867940
21043.683443,-3775.050304,-11843.295072,-6205.373534
21043.683776,-4589.276840,-11473.192101,-4903.011187
21043.684109,-2960.823768,-11325.150913,-4290.134789
21043.684442,-1850.514855,-8956.491898,-2451.505594
21043.684775,-74.020594,-14804.118840,2987.772442
21043.685108,1480.411884,-8068.244768,6128.763984
21043.685441,1850.514855,-9252.574275,9729.412825
21043.685774,3478.967927,-3701.029710,5515.887586
21043.686107,3849.070898,-2442.679609,5515.887586
21043.686440,1110.308913,-6513.812290,76.609550
21043.686774,3478.967927,-6291.750507,-1991.848295
21043.687107,-3849.070898,-13693.809927,-5132.839837
21043.687440,-3330.926739,-11399.171507,-5669.106685
21043.687773,-3034.844362,-9474.636058,-5592.497135
21043.688106,0.000000,-13915.871710,-689.485948
21043.688439,3478.967927,-11843.295072,-689.485948
21043.688772,2886.803174,-8512.368333,0.000000
21043.689105,6217.729913,-9400.615463,6894.859482
21043.689438,2516.700203,-9696.697840,6818.249932
21043.689771,4885.359217,-6661.853478,7354.516781
21043.690104,4737.318029,-7105.977043,6588.421283
21043.690437,4219.173869,-7031.956449,2528.115143
21043.690770,592.164754,-5995.668130,-2451.505594
21043.691103,-74.020594,-14211.954086,-3140.991542
21043.691436,-3034.844362,-10214.842000,-6128.763984
21043.691769,-5403.503377,-9548.656652,-4903.011187
21043.692102,-1776.494261,-10140.821405,-2451.505594
21043.692435,-1184.329507,-10288.862594,-1149.143247
21043.692768,1258.350101,-8734.430116,2068.457845
21043.693101,5625.565159,-7105.977043,5132.839837
21043.693435,2442.679609,-9474.636058,4903.011187
21043.693768,-1184.329507,-8364.327145,4290.134789
21043.694101,-74.020594,-8586.388927,2374.896044
21043.694434,0.000000,-7846.182985,995.924147
21043.694767,0.000000,-8216.285956,-1991.848295
21043.695100,1110.308913,-8882.471304,-2528.115143
21043.695433,-5329.482782,-13101.645173,-1225.752797
21043.695766,-4367.215058,-10955.047942,-1915.238745
21043.696099,-4811.338623,-11547.212695,-3370.820191
21043.696432,-3552.988522,-6735.874072,153.219100
21043.696765,3552.988522,-8216.285956,4826.401637
21043.697098,2294.638420,-6291.750507,3447.429741
21043.697431,4367.215058,-7328.038826,4060.306139
21043.697764,296.082377,-10436.903782,3447.429741
21043.698097,2368.659014,-8734.430116,2451.505594
21043.698430,-2368.659014,-7772.162391,612.876398
21043.698763,-74.020594,-9474.636058,-3140.991542
21043.699096,-4145.153275,-9548.656652,-6128.763984
21043.699429,-2072.576638,-10584.944971,-3447.429741
21043.699762,-74.020594,-11843.295072,-689.485948
21043.700096,-3552.988522,-10732.986159,1378.971896
21043.700429,-1924.535449,-7031.956449,536.266849
21043.700762,-444.123565,-8216.285956,2298.286494
21043.701095,3849.070898,-6587.832884,5056.230287
21043.701428,3849.070898,-3923.091493,2451.505594
21043.701761,4663.297435,-11251.130318,1149.143247
21043.702094,296.082377,-9548.656652,2451.505594
21043.702427,0.000000,-10732.986159,2987.772442
21043.702760,592.164754,-7476.080014,-2451.505594
21043.703093,-1850.514855,-12435.459826,-3447.429741
21043.703426,-370.102971,-8956.491898,-4903.011187
21043.703759,-148.041188,-11843.295072,-2221.676944
21043.704092,1110.308913,-11843.295072,-76.609550
21043.704425,-2960.823768,-8660.409521,1378.971896
21043.704758,518.144159,-8290.306550,1149.143247
21043.705091,3182.885551,-6291.750507,3064.381992
21043.705424,4737.318029,-8586.388927,6052.154434
21043.705757,7031.956449,-7105.977043,2757.943793
21043.706090,3108.864956,-10140.821405,1455.581446
21043.706423,1924.535449,-10658.965565,1072.533697
21043.706757,814.226536,-11399.171507,1225.752797
21043.707090,-1628.453072,-8660.409521,-3217.601092
21043.707423,-1258.350101,-11843.295072,-5592.497135
21043.707756,-5921.647536,-10732.986159,-7354.516781
21043.708089,-4737.318029,-10732.986159,-3217.601092
21043.708422,-3034.844362,-10955.047942,-1762.019645
21043.708755,-666.185348,-6439.791695,4366.744339
21043.709088,1406.391290,-5773.606348,5745.716235
21043.709421,4145.153275,-4441.235652,7277.907231
21043.709754,5773.606348,-5329.482782,6358.592633
21043.710087,3923.091493,-6291.750507,2604.724693
21043.710420,3478.967927,-10955.047942,842.705048
21043.710753,0.000000,-11917.315666,-229.828649
21043.711086,-2072.576638,-13027.624579,-2987.772442
21043.711419,-3478.967927,-10881.027347,-6128.763984
21043.711752,-3627.009116,-10658.965565,-7124.688131
21043.712085,-2220.617826,-11251.130318,-2528.115143
21043.712418,-74.020594,-10362.883188,-1915.238745
21043.712751,-2886.803174,-8364.327145,1225.752797
21043.713084,0.000000,-5995.668130,4903.011187
21043.713418,4515.256246,-4071.132681,4903.011187
21043.713751,7846.182985,-5329.482782,7890.783629
21043.714084,7031.956449,-6957.935855,4826.401637
21043.714417,7105.977043,-7179.997637,2528.115143
21043.714750,1184.329507,-10732.986159,0.000000
21043.715083,962.267725,-15988.448347,-2528.115143
21043.715416,-2442.679609,-11251.130318,-6818.249932
21043.715749,-7105.977043,-13397.727550,-6741.640382
21043.716082,-1258.350101,-13027.624579,-4979.620737
21043.716415,-5773.606348,-10140.821405,-4596.572988
21043.716748,-2442.679609,-11621.233289,306.438199
21043.717081,-2146.597232,-7624.121203,4826.401637
21043.717414,1258.350101,-3701.029710,8044.002729
21043.717747,4737.318029,-3627.009116,10572.117872
21043.718080,6439.791695,-7105.977043,7277.907231
21043.718413,2812.782580,-2442.679609,1838.629195
21043.718746,4145.153275,-10140.821405,2374.896044
21043.719079,1406.391290,-13175.665768,-4290.134789
21043.719412,-4145.153275,-15840.407159,-3447.429741
21043.719745,-4737.318029,-12657.521608,-5822.325785
21043.720079,-5033.400406,-13767.830521,-8197.221829
21043.720412,-2516.700203,-11251.130318,-6358.592633
21043.720745,-814.226536,-11843.295072,-1302.362347
21043.721078,0.000000,-6661.853478,1685.410096
21043.721411,0.000000,-4959.379811,9193.145976
21043.721744,4071.132681,-3404.947333,9116.536426
21043.722077,3478.967927,-2590.720797,6128.763984
21043.722410,3849.070898,-3627.009116,6665.030833
21043.722743,2368.659014,-6439.791695,1532.190996
21043.723076,1110.308913,-9622.677246,-1838.629195
21043.723409,-2368.659014,-12583.501014,-4443.353888
21043.723742,-4219.173869,-13323.706956,-5286.058936
21043.724075,-4737.318029,-12509.480420,-7048.078582
21043.724408,-3775.050304,-14211.954086,-6894.859482
21043.724741,-1554.432478,-12361.439231,-4366.744339
21043.725074,0.000000,-9548.656652,0.000000
21043.725407,1480.411884,-7772.162391,8044.002729
21043.725740,3478.967927,-5329.482782,6052.154434
21043.726073,1184.329507,-4811.338623,7354.516781
21043.726406,6365.771101,-3404.947333,9116.536426
21043.726740,3256.906145,-4219.173869,4903.011187
21043.727073,3552.988522,-6661.853478,-76.609550
21043.727406,-962.267725,-11251.130318,-3983.696590
21043.727739,-3701.029710,-13693.809927,-5209.449386
21043.728072,-370.102971,-12731.542202,-3294.210641
21043.728405,-2442.679609,-11325.150913,-5286.058936
21043.728738,-74.020594,-13619.789333,-6511.811733
21043.729071,-1776.494261,-10732.986159,-2451.505594
21043.729404,592.164754,-9844.739029,2604.724693
21043.729737,3997.112087,-8290.306550,5822.325785
21043.730070,3256.906145,-6439.791695,7890.783629
21043.730403,5181.441594,-3404.947333,8656.879127
21043.730736,4145.153275,-5995.668130,7737.564530
21043.731069,4367.215058,-6365.771101,2068.457845
21043.731402,0.000000,-8364.327145,-459.657299
21043.731735,-1998.556043,-8364.327145,-5669.106685
21043.732068,-4737.318029,-12509.480420,-3370.820191
21043.732401,-2738.761985,-12731.542202,-2528.115143
21043.732734,-1850.514855,-10658.965565,-4979.620737
21043.733067,-1554.432478,-11029.068536,-3600.648841
21043.733401,1184.329507,-9844.739029,-1608.800546
21043.733734,0.000000,-9918.759623,1302.362347
21043.734067,1332.370696,-8586.388927,5439.278036
21043.734400,4367.215058,-7105.977043,8503.660028
21043.734733,1184.329507,-4811.338623,8580.269578
21043.735066,592.164754,-5403.503377,6281.983084
21043.735399,-74.020594,-7698.141797,-995.924147
21043.735732,-3552.988522,-7772.162391,-3677.258390
21043.736065,-1406.391290,-11103.089130,-4213.525239
21043.736398,-4145.153275,-12139.377449,-1991.848295
21043.736731,-2886.803174,-10140.821405,-3294.210641
21043.737064,-2368.659014,-11473.192101,-2298.286494
21043.737397,-1554.432478,-9474.636058,-4673.182538
21043.737730,0.000000,-9548.656652,-76.609550
21043.738063,1702.473667,-12139.377449,3600.648841
21043.738396,-74.020594,-5995.668130,1225.752797
21043.738729,0.000000,-5403.503377,5515.887586
21043.739062,2886.803174,-5329.482782,3677.258390
21043.739395,1924.535449,-6439.791695,2451.505594
21043.739728,296.082377,-7846.182985,-76.609550
21043.740062,518.144159,-9030.512492,-1991.848295
21043.740395,-1850.514855,-11843.295072,-3447.429741
21043.740728,-1110.308913,-10510.924376,-1378.971896
21043.741061,-518.144159,-9548.656652,0.000000
21043.741394,1850.514855,-10510.924376,-536.266849
21043.741727,2664.741391,-8808.450710,-612.876398
21043.742060,3775.050304,-11769.274478,-383.047749
21043.742393,296.082377,-8364.327145,0.000000
21043.742726,0.000000,-8364.327145,3217.601092
21043.743059,2294.638420,-8882.471304,2834.553343
21043.743392,0.000000,-6587.832884,2451.505594
21043.743725,1850.514855,-7105.977043,1302.362347
21043.744058,2146.597232,-7105.977043,-536.266849
21043.744391,0.000000,-9474.636058,-153.219100
21043.744724,-666.185348,-11843.295072,-76.609550
21043.745057,-74.020594,-10066.800811,383.047749
21043.745390,0.000000,-8512.368333,4596.572988
21043.745723,0.000000,-8068.244768,1685.410096
21043.746056,4663.297435,-7698.141797,-842.705048
21043.746389,1184.329507,-12213.398043,306.438199
21043.746723,1258.350101,-9474.636058,-842.705048
21043.747056,-1998.556043,-10732.986159,-612.876398
21043.747389,-962.267725,-9770.718434,-689.485948
21043.747722,0.000000,-7772.162391,0.000000
21043.748055,1702.473667,-7624.121203,-3217.601092
21043.748388,2960.823768,-8216.285956,3600.648841
21043.748721,518.144159,-7994.224174,919.314598
21043.749054,0.000000,-8956.491898,4903.011187
21043.749387,2294.638420,-8290.306550,4519.963438
21043.749720,1406.391290,-7994.224174,2298.286494
21043.750053,1110.308913,-8956.491898,-1149.143247
21043.750386,1110.308913,-10066.800811,-2987.772442
21043.750719,-1184.329507,-11917.315666,-1838.629195
21043.751052,-2590.720797,-10288.862594,-3677.258390
21043.751385,-2442.679609,-13027.624579,-1302.362347
21043.751718,-3034.844362,-8438.347739,-2451.505594
21043.752051,-1184.329507,-8142.265362,0.000000
21043.752385,0.000000,-5995.668130,76.609550
21043.752718,2368.659014,-6587.832884,3677.258390
21043.753051,2368.659014,-7698.141797,5132.839837
21043.753384,2442.679609,-8512.368333,6588.421283
21043.753717,3478.967927,-7994.224174,4826.401637
21043.754050,148.041188,-8364.327145,1532.190996
21043.754383,2294.638420,-9474.636058,-3140.991542
21043.754716,-1036.288319,-10140.821405,-6128.763984
21043.755049,-888.247130,-15026.180623,-3064.381992
21043.755382,-1850.514855,-13619.789333,-3140.991542
21043.755715,-3108.864956,-9696.697840,-3294.210641
21043.756048,-1184.329507,-7994.224174,2911.162892
21043.756381,-592.164754,-6069.688724,919.314598
21043.756715,518.144159,-6143.709319,1532.190996
21043.757048,2368.659014,-9030.512492,4519.963438
21043.757381,2664.741391,-8068.244768,5745.716235
21043.757714,2886.803174,-7994.224174,6052.154434
21043.758047,3552.988522,-7920.203579,3677.258390
21043.758380,2590.720797,-7402.059420,0.000000
21043.758713,2368.659014,-11769.274478,-2528.115143
21043.759046,518.144159,-11251.130318,-8656.879127
21043.759379,-3552.988522,-14582.057057,-3600.648841
21043.759712,-2146.597232,-12657.521608,-2528.115143
21043.760045,-1554.432478,-9178.553681,-1072.533697
21043.760378,296.082377,-7846.182985,1762.019645
21043.760711,-1036.288319,-6735.874072,2987.772442
21043.761045,2220.617826,-5033.400406,3983.696590
21043.761378,1776.494261,-4811.338623,4903.011187
21043.761711,1184.329507,-10140.821405,8503.660028
21043.762044,222.061783,-5107.421000,2757.943793
21043.762377,0.000000,-6291.750507,3064.381992
21043.762710,2590.720797,-10066.800811,-1302.362347
21043.763043,222.061783,-8364.327145,-6128.763984
21043.763376,-1258.350101,-14211.954086,-7431.126331
21043.763709,-2368.659014,-14359.995275,-4673.182538
21043.764042,-3627.009116,-12435.459826,-3600.648841
21043.764375,-370.102971,-10658.965565,-76.609550
21043.764708,-74.020594,-10658.965565,4213.525239
21043.765041,2294.638420,-4811.338623,2451.505594
21043.765374,4737.318029,-4811.338623,7967.393179
21043.765708,4663.297435,-8142.265362,8503.660028
21043.766041,1184.329507,-6291.750507,7507.735880
21043.766374,1998.556043,-7698.141797,5286.058936
21043.766707,1998.556043,-7920.203579,689.485948
21043.767040,814.226536,-10066.800811,-2145.067394
21043.767373,-2146.597232,-11843.295072,-7737.564530
21043.767706,-1258.350101,-14211.954086,-8044.002729
21043.768039,-8290.306550,-11917.315666,-5822.325785
21043.768372,-3849.070898,-12731.542202,-3447.429741
21043.768705,-3627.009116,-8290.306550,-2528.115143
21043.769038,518.144159,-9474.636058,2374.896044
21043.769371,2960.823768,-5773.606348,4826.401637
21043.769704,4885.359217,-5995.668130,7354.516781
21043.770038,3923.091493,-7402.059420,8120.612279
21043.770371,0.000000,-7179.997637,5515.887586
21043.770704,2294.638420,-6143.709319,2451.505594
21043.771037,1480.411884,-9252.574275,612.876398
21043.771370,-74.020594,-11843.295072,-3447.429741
21043.771703,-2590.720797,-9548.656652,-8580.269578
21043.772036,-2960.823768,-15248.242405,-5592.497135
21043.772369,-3182.885551,-12361.439231,-3753.867940
21043.772702,-3404.947333,-9474.636058,-2528.115143
21043.773035,-370.102971,-9770.718434,-459.657299
21043.773368,296.082377,-7179.997637,3370.820191
21043.773701,4515.256246,-4811.338623,5669.106685
21043.774034,6069.688724,-6513.812290,7277.907231
21043.774368,4515.256246,-7698.141797,7737.564530
21043.774701,2516.700203,-8734.430116,5592.497135
21043.775034,0.000000,-5995.668130,612.876398
21043.775367,-74.020594,-9474.636058,-4979.620737
21043.775700,-3552.988522,-11325.150913,-5209.449386
21043.776033,-1850.514855,-10658.965565,-7890.783629
21043.776366,-2442.679609,-13619.789333,-6205.373534
21043.776699,-4145.153275,-12213.398043,-2374.896044
21043.777032,-2220.617826,-9844.739029,76.609550
21043.777365,1184.329507,-7402.059420,3524.039291
21043.777698,4367.215058,-7105.977043,5286.058936
21043.778031,5329.482782,-7920.203579,7890.783629
21043.778364,4737.318029,-4811.338623,6128.763984
21043.778697,1184.329507,-8956.491898,8963.317327
21043.779031,4367.215058,-7105.977043,2911.162892
21043.779364,0.000000,-7772.162391,0.000000
21043.779697,-962.267725,-11843.295072,-4979.620737
21043.780030,-2368.659014,-10732.986159,-7507.735880
21043.780363,-3627.009116,-14359.995275,-7737.564530
21043.780696,-4071.132681,-13101.645173,-4290.134789
21043.781029,-2738.761985,-10658.965565,-689.485948
21043.781362,-2368.659014,-5995.668130,3830.477490
21043.781695,4367.215058,-6365.771101,8197.221829
21043.782028,6439.791695,-5921.647536,4826.401637
21043.782361,2960.823768,-4219.173869,4903.011187
21043.782694,1998.556043,-9474.636058,2221.676944
21043.783027,296.082377,-8808.450710,1378.971896
21043.783361,-2812.782580,-10881.027347,0.000000
21043.783694,-1036.288319,-9770.718434,-3447.429741
21043.784027,-1998.556043,-10140.821405,-4596.572988
21043.784360,-3552.988522,-10140.821405,-4290.134789
21043.784693,1110.308913,-12435.459826,-4519.963438
21043.785026,-3552.988522,-10807.006753,-1608.800546
21043.785359,0.000000,-7772.162391,3677.258390
21043.785692,3182.885551,-4737.318029,5362.668486
21043.786025,4885.359217,-5921.647536,5669.106685
21043.786358,4663.297435,-5773.606348,4213.525239
21043.786691,740.205942,-7624.121203,1915.238745
21043.787024,0.000000,-7772.162391,-1608.800546
21043.787357,-3034.844362,-12435.459826,-842.705048
21043.787691,-4145.153275,-9992.780217,-2834.553343
21043.788024,-3923.091493,-10955.047942,-3830.477490
21043.788357,-1258.350101,-11843.295072,-3753.867940
21043.788690,-74.020594,-11103.089130,-3447.429741
21043.789023,0.000000,-8660.409521,1225.752797
21043.789356,0.000000,-8364.327145,5515.887586
21043.789689,2294.638420,-7994.224174,4826.401637
21043.790022,2368.659014,-7772.162391,2604.724693
21043.790355,4663.297435,-8142.265362,2987.772442
21043.790688,3997.112087,-7772.162391,2221.676944
21043.791021,3478.967927,-9178.553681,1149.143247
21043.791354,-1258.350101,-11251.130318,-2221.676944
21043.791687,-3552.988522,-10066.800811,-2834.553343
21043.792020,-4737.318029,-11325.150913,-153.219100
21043.792354,-2368.659014,-11695.253884,-76.609550
21043.792687,-370.102971,-9474.636058,-2834.553343
21043.793020,518.144159,-8290.306550,-76.609550
21043.793353,1998.556043,-9178.553681,2068.457845
21043.793686,1036.288319,-7328.038826,3370.820191
21043.794019,2812.782580,-6661.853478,3447.429741
21043.794352,2294.638420,-5995.668130,2451.505594
21043.794685,4663.297435,-8586.388927,1455.581446
21043.795018,0.000000,-8364.327145,1838.629195
21043.795351,1702.473667,-13915.871710,-1302.362347
21043.795684,-4737.318029,-10732.986159,-4136.915689
21043.796017,-3552.988522,-10732.986159,-1302.362347
21043.796350,-2146.597232,-9770.718434,-2681.334243
21043.796684,-1554.432478,-10066.800811,-1455.581446
21043.797017,518.144159,-9030.512492,2068.457845
21043.797350,3849.070898,-7476.080014,5669.106685
21043.797683,3775.050304,-4959.379811,4903.011187
21043.798016,2590.720797,-7994.224174,4826.401637
21043.798349,2294.638420,-5181.441594,612.876398
21043.798682,1554.432478,-9474.636058,2068.457845
21043.799015,2294.638420,-11251.130318,-689.485948
21043.799348,-222.061783,-10214.842000,-4903.011187
21043.799681,-1776.494261,-11843.295072,-3983.696590
21043.800014,-3256.906145,-12731.542202,-2911.162892
21043.800347,-2886.803174,-11621.233289,-1608.800546
21043.800680,-2072.576638,-9844.739029,2374.896044
21043.801014,-1850.514855,-7994.224174,-1532.190996
21043.801347,0.000000,-5107.421000,0.000000
21043.801680,4663.297435,-8882.471304,3294.210641
21043.802013,4071.132681,-7105.977043,4826.401637
21043.802346,2960.823768,-8882.471304,5745.716235
21043.802679,1998.556043,-7328.038826,2757.943793
21043.803012,1628.453072,-9770.718434,1302.362347
21043.803345,1406.391290,-10362.883188,-4060.306139
21043.803678,-1184.329507,-10955.047942,-4366.744339
21043.804011,-2368.659014,-13175.665768,-3983.696590
21043.804344,-2960.823768,-11325.150913,-2298.286494
21043.804677,-2812.782580,-9548.656652,-842.705048
21043.805010,-2590.720797,-7772.162391,-1915.238745
21043.805343,1184.329507,-8512.368333,3600.648841
21043.805677,5255.462188,-7698.141797,4826.401637
21043.806010,3182.885551,-6735.874072,3677.258390
21043.806343,2368.659014,-9178.553681,4213.525239
21043.806676,1998.556043,-7698.141797,2604.724693
21043.807009,1258.350101,-8956.491898,3600.648841
21043.807342,888.247130,-8808.450710,-1378.971896
21043.807675,518.144159,-8882.471304,-3983.696590
21043.808008,-2960.823768,-10140.821405,-4903.011187
21043.808341,-2368.659014,-11917.315666,-1302.362347
21043.808674,-2442.679609,-11547.212695,-3064.381992
21043.809007,-74.020594,-8586.388927,-2911.162892
21043.809340,1184.329507,-8364.327145,2911.162892
21043.809673,4071.132681,-8808.450710,4826.401637
21043.810007,3849.070898,-6439.791695,3064.381992
21043.810340,3478.967927,-10214.842000,3524.039291
21043.810673,1110.308913,-8438.347739,3294.210641
21043.811006,-74.020594,-8882.471304,4060.306139
21043.811339,3701.029710,-10807.006753,6052.154434
21043.811672,-962.267725,-6735.874072,-1838.629195
21043.812005,-1184.329507,-8956.491898,-4290.134789
21043.812338,-962.267725,-12287.418637,-2834.553343
21043.812671,-4737.318029,-11325.150913,-2451.505594
21043.813004,-1850.514855,-9474.636058,-2298.286494
21043.813337,-2220.617826,-9548.656652,995.924147
21043.813670,-666.185348,-7698.141797,-689.485948
21043.814003,1702.473667,-7402.059420,536.266849
21043.814337,4663.297435,-10658.965565,2374.896044
21043.814670,2072.576638,-6587.832884,4903.011187
21043.815003,1776.494261,-9474.636058,5745.716235
21043.815336,2294.638420,-11251.130318,2987.772442
21043.815669,1110.308913,-10362.883188,1762.019645
21043.816002,0.000000,-8512.368333,-612.876398
21043.816335,1628.453072,-8216.285956,-2374.896044
21043.816668,-740.205942,-9622.677246,-3140.991542
21043.817001,-2960.823768,-10732.986159,-2451.505594
21043.817334,-1850.514855,-8068.244768,0.000000
21043.817667,0.000000,-8438.347739,0.000000
21043.818000,2294.638420,-11251.130318,-76.609550
21043.818333,1628.453072,-6587.832884,1225.752797
21043.818666,2368.659014,-10658.965565,3600.648841
21043.819000,592.164754,-9252.574275,2604.724693
21043.819333,-2220.617826,-9178.553681,383.047749
21043.819666,-1554.432478,-8586.388927,383.047749
21043.819999,0.000000,-7179.997637,612.876398
21043.820332,1110.308913,-7179.997637,-1225.752797
21043.820665,518.144159,-7698.141797,-1838.629195
21043.820998,444.123565,-10140.821405,-1762.019645
21043.821331,370.102971,-11325.150913,1915.238745
21043.821664,-2368.659014,-8364.327145,383.047749
21043.821997,-74.020594,-11843.295072,-76.609550
21043.822330,0.000000,-7476.080014,0.000000
21043.822663,2146.597232,-11251.130318,-76.609550
21043.822996,5255.462188,-8882.471304,3294.210641
21043.823330,-1776.494261,-10732.986159,2528.115143
21043.823663,-3627.009116,-8438.347739,306.438199
21043.823996,-2812.782580,-7846.182985,612.876398
21043.824329,0.000000,-7920.203579,1225.752797
21043.824662,1480.411884,-6587.832884,0.000000
21043.824995,148.041188,-6587.832884,-1532.190996
21043.825328,0.000000,-7772.162391,1838.629195
21043.825661,2738.761985,-9474.636058,2987.772442
21043.825994,1110.308913,-7179.997637,0.000000
21043.826327,2220.617826,-11843.295072,842.705048
21043.826660,592.164754,-9992.780217,-2374.896044
21043.826993,1258.350101,-11917.315666,-2528.115143
21043.827326,0.000000,-12509.480420,-766.095498
21043.827660,-666.185348,-9474.636058,-76.609550
21043.827993,-4219.173869,-7179.997637,0.000000
21043.828326,592.164754,-6883.915261,2451.505594
21043.828659,3478.967927,-7105.977043,2374.896044
21043.828992,592.164754,-3627.009116,1225.752797
21043.829325,4663.297435,-7550.100608,2374.896044
21043.829658,2146.597232,-10066.800811,3294.210641
21043.829991,2886.803174,-7994.224174,2298.286494
21043.830324,370.102971,-10658.965565,0.000000
21043.830657,0.000000,-9104.533087,-4673.182538
21043.830990,-4737.318029,-10732.986159,-3677.258390
21043.831323,1406.391290,-14804.118840,-3753.867940
21043.831656,-3256.906145,-10140.821405,-4290.134789
21043.831990,-7105.977043,-10140.821405,0.000000
21043.832323,-666.185348,-7105.977043,842.705048
21043.832656,-1332.370696,-7105.977043,4826.401637
21043.832989,2072.576638,-3701.029710,4826.401637
21043.833322,1258.350101,-4515.256246,4903.011187
21043.833655,3627.009116,-5921.647536,3600.648841
21043.833988,2368.659014,-7772.162391,2298.286494
21043.834321,0.000000,-11325.150913,2604.724693
21043.834654,962.267725,-9770.718434,-2834.553343
21043.834987,-2368.659014,-13989.892304,-4519.963438
21043.835320,1702.473667,-15248.242405,-8044.002729
21043.835653,-2368.659014,-14878.139434,-3447.429741
21043.835986,-74.020594,-14804.118840,-76.609550
21043.836319,-1554.432478,-8364.327145,1225.752797
21043.836653,-1480.411884,-7179.997637,2757.943793
21043.836986,2294.638420,-5773.606348,7277.907231
21043.837319,3923.091493,-4441.235652,8886.707777
21043.837652,4367.215058,-2442.679609,5822.325785
21043.837985,3478.967927,-6217.729913,4826.401637
21043.838318,592.164754,-11251.130318,2374.896044
21043.838651,0.000000,-7179.997637,612.876398
21043.838984,-74.020594,-12731.542202,-1915.238745
21043.839317,-74.020594,-14211.954086,-8044.002729
21043.839650,-2442.679609,-14211.954086,-9882.631924
21043.839983,-2368.659014,-14508.036463,-5286.058936
21043.840316,-1554.432478,-10881.027347,0.000000
21043.840649,-1258.350101,-7624.121203,2681.334243
21043.840983,-1480.411884,-3034.844362,4903.011187
21043.841316,4663.297435,-5329.482782,7277.907231
21043.841649,3552.988522,-4219.173869,11568.042020
21043.841982,5847.626942,-2960.823768,4443.353888
21043.842315,1480.411884,-9548.656652,2451.505594
21043.842648,2886.803174,-7105.977043,1149.143247
21043.842981,-1480.411884,-10732.986159,-766.095498
21043.843314,-148.041188,-10362.883188,-6435.202183
21043.843647,-2664.741391,-13841.851115,-10265.679673
21043.843980,-3256.906145,-16654.633695,-8273.831378
21043.844313,-1258.350101,-12509.480420,-5515.887586
21043.844646,-3034.844362,-12731.542202,-76.609550
21043.844979,-370.102971,-8882.471304,2374.896044
21043.845313,296.082377,-3923.091493,6128.763984
21043.845646,5329.482782,-3034.844362,10418.898773
21043.845979,6439.791695,-3775.050304,8503.660028
21043.846312,4441.235652,-7105.977043,5745.716235
21043.846645,3256.906145,-7698.141797,2987.772442
21043.846978,1924.535449,-10658.965565,2374.896044
21043.847311,0.000000,-7772.162391,0.000000
21043.847644,-1258.350101,-14211.954086,-7431.126331
21043.847977,-4367.215058,-15396.283594,-11108.384721
21043.848310,-5625.565159,-12509.480420,-8580.269578
21043.848643,-4737.318029,-13693.809927,-2757.943793
21043.848976,-2886.803174,-9474.636058,459.657299
21043.849309,-2072.576638,-7031.956449,4903.011187
21043.849642,2590.720797,-3552.988522,6971.469032
21043.849976,6439.791695,-4145.153275,9116.536426
21043.850309,4145.153275,-3627.009116,8273.831378
21043.850642,6291.750507,-5329.482782,6818.249932
21043.850975,1998.556043,-9474.636058,2528.115143
21043.851308,1850.514855,-9770.718434,-612.876398
21043.851641,-666.185348,-14211.954086,-3140.991542
21043.851974,-3849.070898,-12657.521608,-8580.269578
21043.852307,-666.185348,-15396.283594,-6818.249932
21043.852640,-3775.050304,-11991.336260,-9193.145976
21043.852973,-2960.823768,-11325.150913,-1685.410096
21043.853306,-3108.864956,-10362.883188,1762.019645
21043.853639,1480.411884,-3997.112087,4749.792088
21043.853972,3034.844362,-5625.565159,8503.660028
21043.854305,6439.791695,-3701.029710,8656.879127
21043.854639,5255.462188,-4293.194464,6052.154434
21043.854972,4071.132681,-8882.471304,4213.525239
21043.855305,2294.638420,-8882.471304,-1225.752797
21043.855638,-3552.988522,-11621.233289,-1225.752797
21043.855971,-1184.329507,-12361.439231,-3753.867940
21043.856304,-2738.761985,-12213.398043,-9499.584175
21043.856637,-2368.659014,-11843.295072,-8963.317327
21043.856970,-1924.535449,-12657.521608,-4519.963438
21043.857303,-962.267725,-12731.542202,1149.143247
21043.857636,1184.329507,-6587.832884,6128.763984
21043.857969,2960.823768,-6883.915261,9729.412825
21043.858302,4663.297435,-3849.070898,6741.640382
21043.858635,4293.194464,-4811.338623,5515.887586
21043.858968,3552.988522,-6513.812290,6511.811733
21043.859301,1776.494261,-7179.997637,2451.505594
21043.859634,-2072.576638,-10584.944971,-2451.505594
21043.859968,-3552.988522,-12213.398043,-4903.011187
21043.860301,-2146.597232,-12361.439231,-6665.030833
21043.860634,-2738.761985,-14211.954086,-6818.249932
21043.860967,1110.308913,-13027.624579,-4979.620737
21043.861300,1110.308913,-11473.192101,-2451.505594
21043.861633,2368.659014,-8956.491898,5515.887586
21043.861966,3478.967927,-7105.977043,5745.716235
21043.862299,3478.967927,-7105.977043,6971.469032
21043.862632,4515.256246,-6069.688724,6741.640382
21043.862965,2812.782580,-6809.894666,4290.134789
21043.863298,2442.679609,-7772.162391,2604.724693
21043.863631,-3552.988522,-9548.656652,0.000000
21043.863964,-2442.679609,-9252.574275,-3983.696590
21043.864297,-3552.988522,-10436.903782,-3677.258390
21043.864630,-2960.823768,-12953.603985,-1915.238745
21043.864963,-2738.761985,-9178.553681,-6128.763984
21043.865296,-74.020594,-12287.418637,-1915.238745
21043.865630,2220.617826,-10732.986159,612.876398
21043.865963,592.164754,-8586.388927,3753.867940
21043.866296,1998.556043,-7105.977043,3983.696590
21043.866629,1776.494261,-5403.503377,3677.258390
21043.866962,3478.967927,-6883.915261,3064.381992
21043.867295,1776.494261,-9252.574275,1762.019645
21043.867628,0.000000,-8956.491898,689.485948
21043.867961,-2072.576638,-11843.295072,-306.438199
21043.868294,-3849.070898,-7772.162391,0.000000
21043.868627,-1258.350101,-9474.636058,-2528.115143
21043.868960,-2960.823768,-7476.080014,-3064.381992
21043.869293,1110.308913,-9474.636058,-2298.286494
21043.869626,4219.173869,-10658.965565,-76.609550
21043.869959,2368.659014,-8956.491898,2451.505594
21043.870292,814.226536,-9030.512492,1149.143247
21043.870625,1480.411884,-7994.224174,919.314598
21043.870958,1628.453072,-9104.533087,766.095498
21043.871292,2368.659014,-11029.068536,0.000000
21043.871625,1110.308913,-9104.533087,-2451.505594
21043.871958,-4145.153275,-9548.656652,0.000000
21043.872291,-370.102971,-11547.212695,842.705048
21043.872624,-1554.432478,-7105.977043,1455.581446
21043.872957,1480.411884,-6513.812290,2834.553343
21043.873290,666.185348,-8216.285956,1455.581446
21043.873623,2220.617826,-7179.997637,459.657299
21043.873956,592.164754,-8660.409521,0.000000
21043.874289,1110.308913,-11843.295072,-76.609550
21043.874622,-74.020594,-5403.503377,-2451.505594
21043.874955,592.164754,-12435.459826,3600.648841
21043.875288,2886.803174,-7772.162391,-2451.505594
21043.875621,-3552.988522,-11917.315666,0.000000
21043.875954,-74.020594,-10362.883188,-1991.848295
21043.876287,-518.144159,-10807.006753,1838.629195
21043.876621,0.000000,-9030.512492,2374.896044
21043.876954,1480.411884,-8142.265362,4060.306139
21043.877287,1110.308913,-7105.977043,2987.772442
21043.877620,1184.329507,-4219.173869,2451.505594
21043.877953,3775.050304,-8290.306550,1149.143247
21043.878286,2368.659014,-7179.997637,-1838.629195
21043.878619,-2368.659014,-8364.327145,0.000000
21043.878952,-666.185348,-9474.636058,-3753.867940
21043.879285,-1776.494261,-10066.800811,-3907.087040
21043.879618,-2738.761985,-13397.727550,-2528.115143
21043.879951,-370.102971,-10510.924376,-2068.457845
21043.880284,-1110.308913,-10658.965565,842.705048
21043.880617,-888.247130,-9178.553681,1762.019645
21043.880950,-1702.473667,-8364.327145,3217.601092
21043.881283,1554.432478,-5995.668130,5898.935335
21043.881616,2960.823768,-4811.338623,6894.859482
21043.881949,5847.626942,-7105.977043,2987.772442
21043.882283,2368.659014,-6291.750507,0.000000
21043.882616,2368.659014,-11917.315666,2681.334243
21043.882949,-74.020594,-11251.130318,-2681.334243
21043.883282,-2368.659014,-9548.656652,-6128.763984
21043.883615,-3256.906145,-13915.871710,-4673.182538
21043.883948,-2072.576638,-12879.583391,-3064.381992
21043.884281,-1184.329507,-8956.491898,-1225.752797
21043.884614,-74.020594,-9474.636058,2374.896044
21043.884947,-962.267725,-8290.306550,4826.401637
21043.885280,-2368.659014,-2442.679609,2757.943793
21043.885613,1924.535449,-5847.626942,5515.887586
21043.885946,3478.967927,-8882.471304,4213.525239
21043.886279,2886.803174,-8882.471304,1149.143247
21043.886612,3256.906145,-9844.739029,0.000000
21043.886945,1110.308913,-11843.295072,-1838.629195
21043.887278,1110.308913,-11695.253884,-2298.286494
21043.887612,-3108.864956,-10140.821405,-4290.134789
21043.887945,-74.020594,-13323.706956,-3753.867940
21043.888278,-4145.153275,-10140.821405,0.000000
21043.888611,-74.020594,-10955.047942,-76.609550
21043.888944,-1628.453072,-6661.853478,0.000000
21043.889277,-888.247130,-7105.977043,4519.963438
21043.889610,592.164754,-5107.421000,6128.763984
21043.889943,1776.494261,-4737.318029,5439.278036
21043.890276,1184.329507,-7254.018232,2757.943793
21043.890609,1332.370696,-8512.368333,1225.752797
21043.890942,2294.638420,-8882.471304,-2757.943793
21043.891275,1702.473667,-12435.459826,-76.609550
21043.891608,-666.185348,-11843.295072,-3447.429741
21043.891941,-3404.947333,-9548.656652,-4596.572988
21043.892274,-2368.659014,-11917.315666,-3370.820191
21043.892607,-888.247130,-11473.192101,-2528.115143
21043.892940,74.020594,-9178.553681,-689.485948
21043.893274,1110.308913,-9992.780217,3140.991542
21043.893607,1554.432478,-9178.553681,7277.907231
21043.893940,0.000000,-5995.668130,6128.763984
21043.894273,5847.626942,-5921.647536,4826.401637
21043.894606,4145.153275,-5995.668130,2451.505594
21043.894939,4737.318029,-7105.977043,4213.525239
21043.895272,2368.659014,-9844.739029,-1225.752797
21043.895605,-3182.885551,-12213.398043,-4060.306139
21043.895938,-5625.565159,-11325.150913,-6052.154434
21043.896271,-4737.318029,-11695.253884,-5745.716235
21043.896604,-1258.350101,-12435.459826,-3753.867940
21043.896937,-3849.070898,-9844.739029,-2451.505594
21043.897270,1850.514855,-7698.141797,459.657299
21043.897603,1924.535449,-8142.265362,4596.572988
21043.897936,2516.700203,-8142.265362,7890.783629
21043.898269,5551.544565,-7402.059420,9422.974625
21043.898603,3404.947333,-6587.832884,5515.887586
21043.898936,592.164754,-7772.162391,4826.401637
21043.899269,2294.638420,-7698.141797,-3064.381992
21043.899602,-1924.535449,-11325.150913,-2834.553343
21043.899935,-2368.659014,-12213.398043,-3447.429741
21043.900268,-5625.565159,-11325.150913,-4290.134789
21043.900601,-3034.844362,-9030.512492,-4366.744339
21043.900934,-1110.308913,-10066.800811,-2834.553343
21043.901267,1702.473667,-9474.636058,536.266849
21043.901600,2886.803174,-5699.585753,3677.258390
21043.901933,3701.029710,-9178.553681,7277.907231
21043.902266,4071.132681,-9474.636058,4519.963438
21043.902599,1406.391290,-7772.162391,3677.258390
21043.902932,1110.308913,-10658.965565,2374.896044
21043.903265,2072.576638,-7328.038826,-995.924147
21043.903598,-592.164754,-10955.047942,-2068.457845
21043.903931,222.061783,-10288.862594,-1532.190996
21043.904265,-3997.112087,-9548.656652,-3064.381992
21043.904598,-5921.647536,-6587.832884,-3064.381992
21043.904931,-1554.432478,-11251.130318,-2528.115143
21043.905264,-1258.350101,-10066.800811,-1915.238745
21043.905597,2368.659014,-5995.668130,4213.525239
21043.905930,2886.803174,-7624.121203,2451.505594
21043.906263,3552.988522,-8956.491898,4060.306139
21043.906596,2294.638420,-9178.553681,4826.401637
21043.906929,2590.720797,-9474.636058,3217.601092
21043.907262,1480.411884,-9548.656652,1838.629195
21043.907595,-222.061783,-11251.130318,-1302.362347
21043.907928,-74.020594,-10362.883188,-4443.353888
21043.908261,-3552.988522,-9548.656652,0.000000
21043.908594,-3849.070898,-8364.327145,-612.876398
21043.908927,-2442.679609,-5847.626942,-2145.067394
21043.909260,0.000000,-8956.491898,-612.876398
21043.909594,1406.391290,-9104.533087,2221.676944
21043.909927,2294.638420,-7179.997637,2374.896044
21043.910260,2960.823768,-9548.656652,3064.381992
21043.910593,2516.700203,-9918.759623,4060.306139
21043.910926,888.247130,-8142.265362,2681.334243
21043.911259,2590.720797,-8438.347739,76.609550
21043.911592,-1554.432478,-11547.212695,-2834.553343
21043.911925,-2368.659014,-8364.327145,-6358.592633
21043.912258,-1184.329507,-12657.521608,-689.485948
21043.912591,-2146.597232,-10140.821405,-1532.190996
21043.912924,-3182.885551,-6291.750507,-1838.629195
21043.913257,1110.308913,-8882.471304,1762.019645
21043.913590,4367.215058,-8290.306550,3907.087040
21043.913923,4515.256246,-6439.791695,4903.011187
21043.914256,3775.050304,-7402.059420,3600.648841
21043.914589,3478.967927,-9474.636058,2374.896044
21043.914922,1110.308913,-12435.459826,2374.896044
21043.915256,592.164754,-11029.068536,2987.772442
21043.915589,-1850.514855,-11251.130318,-4826.401637
21043.915922,-4737.318029,-10140.821405,-6052.154434
21043.916255,-4145.153275,-10140.821405,-3983.696590
21043.916588,-1406.391290,-9030.512492,-2374.896044
21043.916921,-3108.864956,-8882.471304,1149.143247
21043.917254,-1924.535449,-7476.080014,2987.772442
21043.917587,1628.453072,-4441.235652,5439.278036
21043.917920,4145.153275,-3627.009116,4060.306139
21043.918253,7920.203579,-7105.977043,4826.401637
21043.918586,4663.297435,-8290.306550,383.047749
21043.918919,1480.411884,-11843.295072,1608.800546
21043.919252,-222.061783,-13619.789333,-1302.362347
21043.919585,-5329.482782,-12509.480420,-5975.544884
21043.919918,-4219.173869,-11325.150913,-6971.469032
21043.920251,-3552.988522,-14211.954086,-3907.087040
21043.920584,222.061783,-7254.018232,-1915.238745
21043.920918,0.000000,-8364.327145,2451.505594
21043.921251,2886.803174,-8142.265362,4519.963438
21043.921584,1776.494261,-666.185348,3983.696590
21043.921917,2960.823768,-4219.173869,7277.907231
21043.922250,5847.626942,-7105.977043,2374.896044
21043.922583,3108.864956,-10140.821405,2068.457845
21043.922916,2294.638420,-10584.944971,-766.095498
21043.923249,592.164754,-13323.706956,-1455.581446
21043.923582,-814.226536,-13397.727550,-2681.334243
21043.923915,-74.020594,-13027.624579,-3140.991542
21043.924248,-1258.350101,-11695.253884,-6511.811733
21043.924581,-2368.659014,-11621.233289,-1762.019645
21043.924914,-74.020594,-10658.965565,-76.609550
21043.925247,-74.020594,-8290.306550,2374.896044
21043.925580,0.000000,-6365.771101,7737.564530
21043.925913,1480.411884,-2738.761985,6435.202183
21043.926247,3330.926739,-3923.091493,4826.401637
21043.926580,3478.967927,-7179.997637,2528.115143
21043.926913,3478.967927,-8660.409521,2374.896044
21043.927246,592.164754,-10807.006753,-612.876398
21043.927579,-1702.473667,-13841.851115,-3140.991542
21043.927912,-3256.906145,-13027.624579,-5209.449386
21043.928245,-4737.318029,-11325.150913,-7354.516781
21043.928578,-3552.988522,-11621.233289,-4903.011187
21043.928911,-74.020594,-10658.965565,-1302.362347
21043.929244,1702.473667,-11251.130318,1455.581446
21043.929577,0.000000,-6291.750507,7354.516781
21043.929910,1554.432478,-6809.894666,7277.907231
21043.930243,2368.659014,-3627.009116,7048.078582
21043.930576,4441.235652,-6069.688724,6511.811733
21043.930909,3256.906145,-7105.977043,2987.772442
21043.931242,1776.494261,-7772.162391,306.438199
21043.931575,-3552.988522,-10732.986159,-1685.410096
21043.931909,-2442.679609,-12287.418637,-7354.516781
21043.932242,-4737.318029,-12213.398043,-7354.516781
21043.932575,-4145.153275,-13323.706956,-5132.839837
21043.932908,-4737.318029,-11029.068536,-7354.516781
21043.933241,-962.267725,-9474.636058,-2528.115143
21043.933574,1332.370696,-9548.656652,4596.572988
21043.933907,2294.638420,-5773.606348,7737.564530
21043.934240,2886.803174,-5329.482782,7277.907231
21043.934573,3552.988522,-4811.338623,8197.221829
21043.934906,5847.626942,-3775.050304,3064.381992
21043.935239,5329.482782,-7624.121203,3907.087040
21043.935572,4663.297435,-11695.253884,-842.705048
21043.935905,1554.432478,-13915.871710,-3447.429741
21043.936238,-3627.009116,-15396.283594,-4979.620737
21043.936571,-2220.617826,-11621.233289,-5898.935335
21043.936904,-3330.926739,-12065.356855,-5822.325785
21043.937238,-3404.947333,-9548.656652,-4903.011187
21043.937571,2294.638420,-9474.636058,2374.896044
21043.937904,1184.329507,-5699.585753,4903.011187
21043.938237,3849.070898,-7105.977043,7277.907231
21043.938570,666.185348,-4219.173869,5209.449386
21043.938903,4737.318029,-3997.112087,4673.182538
21043.939236,3701.029710,-8364.327145,4903.011187
21043.939569,3256.906145,-8438.347739,-76.609550
21043.939902,-222.061783,-10584.944971,-3907.087040
21043.940235,-2960.823768,-14137.933492,-3983.696590
21043.940568,-666.185348,-10658.965565,-6741.640382
21043.940901,-3552.988522,-14285.974681,-1608.800546
21043.941234,-74.020594,-13545.768739,-76.609550
21043.941567,-1776.494261,-7772.162391,0.000000
21043.941900,0.000000,-7698.141797,2221.676944
21043.942233,1702.473667,-5107.421000,4366.744339
21043.942566,814.226536,-6217.729913,5209.449386
21043.942900,962.267725,-5329.482782,4826.401637
21043.943233,592.164754,-7476.080014,4136.915689
21043.943566,-1258.350101,-9030.512492,-1455.581446
21043.943899,-1554.432478,-9400.615463,-2298.286494
21043.944232,-2368.659014,-10658.965565,-2528.115143
21043.944565,-1258.350101,-10658.965565,-2834.553343
21043.944898,-4145.153275,-11917.315666,0.000000
21043.945231,-1850.514855,-11251.130318,-3753.867940
21043.945564,518.144159,-8142.265362,-3294.210641
21043.945897,1184.329507,-11177.109724,2068.457845
21043.946230,4663.297435,-9474.636058,2374.896044
21043.946563,296.082377,-8364.327145,4290.134789
21043.946896,148.041188,-8290.306550,3370.820191
21043.947229,518.144159,-7105.977043,2604.724693
21043.947562,0.000000,-8142.265362,2221.676944
21043.947895,3775.050304,-8808.450710,4826.401637
21043.948229,1702.473667,-7698.141797,-612.876398
21043.948562,592.164754,-9252.574275,0.000000
21043.948895,-2960.823768,-11843.295072,-76.609550
21043.949228,-666.185348,-9178.553681,-2834.553343
21043.949561,888.247130,-11325.150913,-76.609550
21043.949894,74.020594,-11325.150913,-1532.190996
21043.950227,518.144159,-8956.491898,-2757.943793
21043.950560,888.247130,-10658.965565,536.266849
21043.950893,2886.803174,-8882.471304,1762.019645
21043.951226,1110.308913,-6735.874072,0.000000
21043.951559,962.267725,-9474.636058,1608.800546
21043.951892,0.000000,-5995.668130,0.000000
21043.952225,592.164754,-8364.327145,2911.162892
21043.952558,4515.256246,-6809.894666,2068.457845
21043.952891,-1036.288319,-8512.368333,1225.752797
21043.953224,-1258.350101,-9770.718434,536.266849
21043.953557,296.082377,-8512.368333,76.609550
21043.953891,-1480.411884,-10436.903782,-1532.190996
21043.954224,0.000000,-9548.656652,-3677.258390
21043.954557,1554.432478,-11843.295072,-1302.362347
21043.954890,2294.638420,-10140.821405,-1838.629195
21043.955223,0.000000,-10140.821405,4290.134789
21043.955556,-1258.350101,-10658.965565,-383.047749
21043.955889,814.226536,-9474.636058,-689.485948
21043.956222,-740.205942,-9548.656652,1838.629195
21043.956555,1628.453072,-8142.265362,2604.724693
21043.956888,592.164754,-4811.338623,2451.505594
21043.957221,0.000000,-7624.121203,2374.896044
21043.957554,1850.514855,-7476.080014,3217.601092
21043.957887,1258.350101,-8882.471304,3140.991542
21043.958220,2294.638420,-11103.089130,-76.609550
21043.958553,-74.020594,-12879.583391,-1608.800546
21043.958886,-2590.720797,-10288.862594,-5515.887586
21043.959219,-1480.411884,-12435.459826,-1225.752797
21043.959552,-3627.009116,-13027.624579,-1915.238745
21043.959885,-2886.803174,-8068.244768,-919.314598
21043.960219,-2442.679609,-9474.636058,1455.581446
21043.960552,814.226536,-7179.997637,2221.676944
21043.960885,222.061783,-7105.977043,4519.963438
21043.961218,2368.659014,-3849.070898,4213.525239
21043.961551,2368.659014,-5403.503377,5515.887586
21043.961884,0.000000,-7179.997637,3677.258390
21043.962217,5255.462188,-9474.636058,-76.609550
21043.962550,1184.329507,-10658.965565,-3294.210641
21043.962883,2294.638420,-12731.542202,-4366.744339
21043.963216,1554.432478,-13619.789333,-3753.867940
21043.963549,-740.205942,-12213.398043,-4290.134789
21043.963882,-2072.576638,-11177.109724,-3140.991542
21043.964215,-2368.659014,-8956.491898,-1532.190996
21043.964548,4663.297435,-9474.636058,2068.457845
21043.964881,2368.659014,-6883.915261,6128.763984
21043.965214,7031.956449,-5921.647536,3600.648841
21043.965547,2960.823768,-5995.668130,7354.516781
21043.965880,2960.823768,-6587.832884,4903.011187
21043.966214,2886.803174,-8586.388927,1072.533697
21043.966547,3404.947333,-10066.800811,-76.609550
21043.966880,2368.659014,-11917.315666,-2298.286494
21043.967213,1258.350101,-12953.603985,-4443.353888
21043.967546,-222.061783,-11991.336260,-5132.839837
21043.967879,-2072.576638,-13027.624579,-2681.334243
21043.968212,-2368.659014,-11325.150913,-76.609550
21043.968545,-2442.679609,-8142.265362,-3064.381992
21043.968878,0.000000,-8364.327145,4290.134789
21043.969211,-1036.288319,-6587.832884,3983.696590
21043.969544,2516.700203,-4071.132681,7048.078582
21043.969877,1110.308913,-5625.565159,8427.050478
21043.970210,962.267725,-5403.503377,5056.230287
21043.970543,0.000000,-8068.244768,2451.505594
21043.970876,-74.020594,-11251.130318,-689.485948
21043.971209,-1184.329507,-9844.739029,-4596.572988
21043.971542,-6217.729913,-11917.315666,-7354.516781
21043.971875,-74.020594,-13619.789333,-5132.839837
21043.972209,-7402.059420,-14285.974681,-4903.011187
21043.972542,-3997.112087,-10362.883188,-4366.744339
21043.972875,-5921.647536,-9844.739029,-2451.505594
21043.973208,-1628.453072,-9252.574275,1762.019645
21043.973541,2368.659014,-3034.844362,6741.640382
21043.973874,5181.441594,-4071.132681,10648.727422
21043.974207,4589.276840,-4293.194464,8810.098227
21043.974540,1998.556043,-7994.224174,7124.688131
21043.974873,3478.967927,-8290.306550,1762.019645
21043.975206,740.205942,-9696.697840,-2298.286494
21043.975539,-2072.576638,-14508.036463,-3447.429741
21043.975872,-3034.844362,-12435.459826,-11721.261119
21043.976205,-5329.482782,-14878.139434,-7354.516781
21043.976538,-2960.823768,-13101.645173,-3140.991542
21043.976871,-3034.844362,-9918.759623,-1532.190996
21043.977204,0.000000,-8364.327145,2374.896044
21043.977537,4071.132681,-7105.977043,7277.907231
21043.977870,6143.709319,-1924.535449,8350.440928
21043.978203,4145.153275,-2442.679609,9806.022374
21043.978537,4663.297435,-7105.977043,6665.030833
21043.978870,-888.247130,-5773.606348,1149.143247
21043.979203,0.000000,-8068.244768,-1072.533697
21043.979536,-1258.350101,-14211.954086,-4979.620737
21043.979869,-3404.947333,-9696.697840,-9039.926876
21043.980202,-3701.029710,-14137.933492,-8963.317327
21043.980535,-444.123565,-13619.789333,-3753.867940
21043.980868,0.000000,-10732.986159,306.438199
21043.981201,0.000000,-7476.080014,1225.752797
21043.981534,7031.956449,-8290.306550,4213.525239
21043.981867,2368.659014,-7179.997637,5515.887586
21043.982200,5921.647536,-5995.668130,7967.393179
21043.982533,4145.153275,-5403.503377,4903.011187
21043.982866,2590.720797,-9178.553681,4673.182538
21043.983199,1554.432478,-7772.162391,1455.581446
21043.983532,-1258.350101,-11325.150913,-1608.800546
21043.983865,-74.020594,-10658.965565,-5745.716235
21043.984198,-4145.153275,-10140.821405,-6128.763984
21043.984532,-2442.679609,-14211.954086,-7431.126331
21043.984865,-3923.091493,-10140.821405,-4903.011187
21043.985198,-3627.009116,-13027.624579,-76.609550
21043.985531,-74.020594,-7550.100608,1685.410096
21043.985864,1110.308913,-8512.368333,3830.477490
21043.986197,3182.885551,-6587.832884,4136.915689
21043.986530,4145.153275,-7105.977043,6971.469032
21043.986863,1554.432478,-4811.338623,4443.353888
21043.987196,3775.050304,-9474.636058,4519.963438
21043.987529,-2368.659014,-8364.327145,1225.752797
21043.987862,0.000000,-8956.491898,0.000000
21043.988195,-370.102971,-12435.459826,-3753.867940
21043.988528,2294.638420,-9918.759623,-4979.620737
21043.988861,-370.102971,-12435.459826,-2911.162892
21043.989194,-1406.391290,-12657.521608,-1378.971896
21043.989527,-1258.350101,-9548.656652,76.609550
21043.989860,-1184.329507,-5995.668130,536.266849
21043.990193,4663.297435,-7698.141797,2374.896044
21043.990526,5625.565159,-5847.626942,6665.030833
21043.990860,5699.585753,-5181.441594,6052.154434
21043.991193,2664.741391,-7476.080014,3524.039291
21043.991526,-1258.350101,-9178.553681,-1072.533697
21043.991859,-1554.432478,-12435.459826,-76.609550
21043.992192,-666.185348,-10066.800811,-5975.544884
21043.992525,-1184.329507,-13027.624579,-3140.991542
21043.992858,-592.164754,-11769.274478,-3447.429741
21043.993191,-74.020594,-10658.965565,-2068.457845
21043.993524,0.000000,-9252.574275,2911.162892
21043.993857,1924.535449,-6735.874072,3524.039291
21043.994190,2738.761985,-6291.750507,2757.943793
21043.994523,2516.700203,-8364.327145,2451.505594
21043.994856,5255.462188,-8290.306550,2987.772442
21043.995189,0.000000,-7772.162391,0.000000
21043.995522,0.000000,-10362.883188,1149.143247
21043.995855,-2442.679609,-13619.789333,-689.485948
21043.996188,-5329.482782,-9548.656652,-3064.381992
21043.996521,-3330.926739,-11251.130318,-3983.696590
21043.996855,-5551.544565,-11177.109724,-4596.572988
21043.997188,-444.123565,-7994.224174,153.219100
21043.997521,1184.329507,-8364.327145,5056.230287
21043.997854,3478.967927,-9474.636058,4826.401637
21043.998187,0.000000,-4219.173869,2757.943793
21043.998520,592.164754,-10436.903782,4826.401637
21043.998853,2886.803174,-7698.141797,0.000000
21043.999186,2368.659014,-8882.471304,2221.676944
21043.999519,-1258.350101,-11843.295072,-689.485948
21043.999852,-1998.556043,-10510.924376,-2681.334243
21044.000185,-4367.215058,-12657.521608,-1991.848295
21044.000518,-74.020594,-10362.883188,-689.485948
21044.000851,-1554.432478,-7179.997637,-2374.896044
21044.001184,-2368.659014,-8364.327145,1685.410096
21044.001517,4367.215058,-7105.977043,3447.429741
21044.001850,2294.638420,-4885.359217,2451.505594
21044.002183,2664.741391,-7254.018232,4213.525239
21044.002516,1776.494261,-7476.080014,1762.019645
21044.002850,2516.700203,-9326.594869,-536.266849
21044.003183,1554.432478,-11547.212695,-2068.457845
21044.003516,-74.020594,-13027.624579,-1915.238745
21044.003849,-2368.659014,-11177.109724,-3064.381992
21044.004182,-3701.029710,-11547.212695,-1149.143247
21044.004515,-1850.514855,-9252.574275,-459.657299
21044.004848,-2960.823768,-7179.997637,612.876398
21044.005181,-1776.494261,-7476.080014,2145.067394
21044.005514,2294.638420,-6513.812290,3600.648841
21044.005847,518.144159,-5921.647536,1762.019645
21044.006180,2368.659014,-6291.750507,4903.011187
21044.006513,370.102971,-7624.121203,459.657299
21044.006846,1628.453072,-7550.100608,-1455.581446
21044.007179,1998.556043,-11621.233289,-2528.115143
21044.007512,592.164754,-12509.480420,-3064.381992
21044.007845,1702.473667,-13619.789333,-842.705048
21044.008178,-1554.432478,-12065.356855,-76.609550
21044.008511,-74.020594,-10658.965565,-2068.457845
21044.008844,-2960.823768,-8660.409521,612.876398
21044.009178,1184.329507,-8364.327145,5132.839837
21044.009511,2368.659014,-6809.894666,5209.449386
21044.009844,4367.215058,-4737.318029,5286.058936
21044.010177,814.226536,-8364.327145,3217.601092
21044.010510,1184.329507,-7550.100608,2451.505594
21044.010843,-2368.659014,-7994.224174,-1378.971896
21044.011176,-2368.659014,-8956.491898,-2451.505594
21044.011509,-2368.659014,-10140.821405,-5822.325785
21044.011842,-3552.988522,-10732.986159,-3370.820191
21044.012175,-74.020594,-11843.295072,-689.485948
21044.012508,-666.185348,-9474.636058,-1608.800546
21044.012841,-1258.350101,-11843.295072,-76.609550
21044.013174,444.123565,-8438.347739,2374.896044
21044.013507,2368.659014,-8068.244768,4136.915689
21044.013840,2516.700203,-6439.791695,4443.353888
21044.014173,7031.956449,-7698.141797,4826.401637
21044.014506,592.164754,-7179.997637,4290.134789
21044.014839,2664.741391,-9252.574275,4826.401637
21044.015173,-814.226536,-8142.265362,-4903.011187
21044.015506,0.000000,-10140.821405,-4903.011187
21044.015839,1998.556043,-13841.851115,-4596.572988
21044.016172,2886.803174,-11325.150913,0.000000
21044.016505,1258.350101,-9696.697840,919.314598
21044.016838,0.000000,-8512.368333,-1991.848295
21044.017171,-74.020594,-10066.800811,-76.609550
21044.017504,1184.329507,-9400.615463,4826.401637
21044.017837,4071.132681,-5921.647536,2221.676944
21044.018170,0.000000,-5995.668130,3064.381992
21044.018503,3552.988522,-7772.162391,3447.429741
21044.018836,518.144159,-7550.100608,1532.190996
21044.019169,444.123565,-9474.636058,1225.752797
21044.019502,-1554.432478,-9474.636058,-2528.115143
21044.019835,-1036.288319,-10955.047942,-2374.896044
21044.020168,-74.020594,-11547.212695,-3140.991542
21044.020501,-666.185348,-9252.574275,-1149.143247
21044.020834,-444.123565,-8808.450710,229.828649
21044.021167,-1258.350101,-10955.047942,842.705048
21044.021501,740.205942,-7476.080014,4290.134789
21044.021834,-74.020594,-8882.471304,536.266849
21044.022167,-2368.659014,-7179.997637,-4290.134789
21044.022500,2368.659014,-9474.636058,2374.896044
21044.022833,814.226536,-10140.821405,1991.848295
21044.023166,592.164754,-5403.503377,3064.381992
21044.023499,-5699.585753,-11547.212695,-1072.533697
21044.023832,-4441.235652,-9326.594869,-4060.306139
21044.024165,-3627.009116,-9992.780217,-1685.410096
21044.024498,-74.020594,-10362.883188,-689.485948
21044.024831,2294.638420,-7105.977043,-76.609550
21044.025164,-3849.070898,-8364.327145,1225.752797
21044.025497,592.164754,-8364.327145,3600.648841
21044.025830,-666.185348,-9474.636058,766.095498
21044.026163,2368.659014,-8660.409521,1991.848295
21044.026496,444.123565,-10732.986159,0.000000
21044.026829,1110.308913,-10807.006753,-76.609550
21044.027162,592.164754,-9548.656652,306.438199
21044.027496,-2590.720797,-9918.759623,-76.609550
21044.027829,-74.020594,-7105.977043,-3140.991542
21044.028162,-2368.659014,-10881.027347,2987.772442
21044.028495,2294.638420,-8290.306550,2987.772442
21044.028828,1702.473667,-5033.400406,0.000000
21044.029161,3478.967927,-8882.471304,3294.210641
21044.029494,3256.906145,-6587.832884,3294.210641
21044.029827,1702.473667,-10510.924376,1455.581446
21044.030160,962.267725,-9326.594869,-1455.581446
21044.030493,296.082377,-11917.315666,-1225.752797
21044.030826,-666.185348,-10140.821405,-4290.134789
21044.031159,4663.297435,-11843.295072,-76.609550
21044.031492,-1258.350101,-10436.903782,-2451.505594
21044.031825,592.164754,-10140.821405,1225.752797
21044.032158,-1776.494261,-7772.162391,0.000000
21044.032491,1480.411884,-7031.956449,1685.410096
21044.032824,2368.659014,-6587.832884,2911.162892
21044.033157,2664.741391,-7179.997637,1915.238745
21044.033491,4663.297435,-7698.141797,2987.772442
21044.033824,0.000000,-10140.821405,3140.991542
21044.034157,1110.308913,-9400.615463,-2911.162892
21044.034490,1702.473667,-10140.821405,-4903.011187
21044.034823,-1184.329507,-16506.592507,-842.705048
21044.035156,0.000000,-9548.656652,-4290.134789
21044.035489,-1406.391290,-12213.398043,-1455.581446
21044.035822,-222.061783,-8808.450710,1685.410096
21044.036155,-3701.029710,-7846.182985,1608.800546
21044.036488,-1258.350101,-6513.812290,1149.143247
21044.036821,-1776.494261,-5107.421000,1991.848295
21044.037154,-1258.350101,-7920.203579,2374.896044
21044.037487,2072.576638,-4219.173869,4136.915689
21044.037820,-1184.329507,-7031.956449,919.314598
21044.038153,3478.967927,-11251.130318,-76.609550
21044.038486,296.082377,-9548.656652,0.000000
21044.038819,2516.700203,-14211.954086,-76.609550
21044.039152,2294.638420,-11177.109724,-3907.087040
21044.039485,-2072.576638,-11399.171507,-3830.477490
21044.039819,2590.720797,-11695.253884,-995.924147
21044.040152,-592.164754,-8660.409521,1915.238745
21044.040485,370.102971,-6587.832884,919.314598
21044.040818,-1702.473667,-6439.791695,2221.676944
21044.041151,2590.720797,-4737.318029,2374.896044
21044.041484,2368.659014,-6883.915261,7201.297681
21044.041817,5847.626942,-7105.977043,6052.154434
21044.042150,2146.597232,-7179.997637,306.438199
21044.042483,0.000000,-11325.150913,1838.629195
21044.042816,1702.473667,-10214.842000,-3140.991542
21044.043149,0.000000,-11769.274478,-4443.353888
21044.043482,-1258.350101,-13989.892304,-5056.230287
21044.043815,-1258.350101,-12805.562797,-5898.935335
21044.044148,-2960.823768,-11917.315666,-3064.381992
21044.044481,-2368.659014,-9844.739029,2987.772442
21044.044814,-3034.844362,-7105.977043,1149.143247
21044.045147,-370.102971,-4811.338623,0.000000
21044.045480,3478.967927,-7550.100608,6971.469032
21044.045814,3627.009116,-4219.173869,7354.516781
21044.046147,4811.338623,-5699.585753,6281.983084
21044.046480,2886.803174,-9770.718434,3524.039291
21044.046813,962.267725,-10807.006753,689.485948
21044.047146,0.000000,-10881.027347,0.000000
21044.047479,-666.185348,-14211.954086,-4979.620737
21044.047812,-4811.338623,-12287.418637,-9806.022374
21044.048145,-5921.647536,-11325.150913,-8197.221829
21044.048478,-3923.091493,-11251.130318,-2528.115143
21044.048811,-5329.482782,-7772.162391,766.095498
21044.049144,-3552.988522,-7328.038826,2451.505594
21044.049477,1258.350101,-4737.318029,5975.544884
21044.049810,4367.215058,-4737.318029,9346.365076
21044.050143,4885.359217,-4441.235652,7354.516781
21044.050476,4219.173869,-6513.812290,5515.887586
21044.050809,2220.617826,-8216.285956,2374.896044
21044.051142,-444.123565,-10288.862594,-2145.067394
21044.051475,-74.020594,-12435.459826,-6818.249932
21044.051808,-1850.514855,-13101.645173,-9806.022374
21044.052142,-3552.988522,-15322.262999,-6818.249932
21044.052475,-1258.350101,-13619.789333,-6205.373534
21044.052808,-2960.823768,-9844.739029,-2298.286494
21044.053141,-1258.350101,-9474.636058,3294.210641
21044.053474,518.144159,-5255.462188,4366.744339
21044.053807,3034.844362,-4515.256246,7354.516781
21044.054140,5551.544565,-3849.070898,9116.536426
21044.054474,2664.741391,-5403.503377,7660.954980
21044.054807,5847.626942,-5403.503377,2451.505594
21044.055140,2072.576638,-11251.130318,2374.896044
21044.055473,-666.185348,-9622.677246,-6741.640382
21044.055806,-4441.235652,-12509.480420,-7814.174080
21044.056139,-3849.070898,-15174.221811,-9499.584175
21044.056473,-1184.329507,-15174.221811,-4979.620737
21044.056806,-1554.432478,-12509.480420,-4366.744339
21044.057139,444.123565,-9918.759623,1608.800546
21044.057472,1776.494261,-9474.636058,7201.297681
21044.057805,3182.885551,-2590.720797,5515.887586
21044.058138,8216.285956,-7105.977043,9729.412825
21044.058472,5181.441594,-3627.009116,7967.393179
21044.058805,5921.647536,-5403.503377,7354.516781
21044.059138,2368.659014,-8290.306550,3064.381992
21044.059471,-148.041188,-9918.759623,-2528.115143
21044.059804,-3627.009116,-12139.377449,-7584.345430
21044.060137,-3552.988522,-13989.892304,-8733.488677
21044.060471,-3182.885551,-15100.201217,-8810.098227
21044.060804,-4737.318029,-10732.986159,-4903.011187
21044.061137,-1258.350101,-10140.821405,-3524.039291
21044.061470,1110.308913,-8068.244768,1225.752797
21044.061803,1776.494261,-7476.080014,7890.783629
21044.062136,4663.297435,-4737.318029,7277.907231
21044.062470,6217.729913,-5625.565159,9422.974625
21044.062803,3923.091493,-5551.544565,7507.735880
21044.063136,3330.926739,-5921.647536,5132.839837
21044.063469,-1702.473667,-9400.615463,-1072.533697
21044.063802,-3478.967927,-13027.624579,-3753.867940
21044.064135,-6069.688724,-11029.068536,-7967.393179
21044.064469,-4145.153275,-13101.645173,-7354.516781
21044.064802,-3256.906145,-14211.954086,-4979.620737
21044.065135,-1850.514855,-9474.636058,-4979.620737
21044.065468,962.267725,-10066.800811,1149.143247
21044.065801,1036.288319,-7328.038826,4290.134789
21044.066134,2368.659014,-6365.771101,5822.325785
21044.066468,2960.823768,-5329.482782,5439.278036
21044.066801,4663.297435,-9030.512492,6511.811733
21044.067134,3034.844362,-7550.100608,4366.744339
21044.067467,1628.453072,-7994.224174,1762.019645
21044.067800,-1554.432478,-9696.697840,-1991.848295
21044.068133,-4071.132681,-9548.656652,-4749.792088
21044.068467,-2368.659014,-12139.377449,-3447.429741
21044.068800,-74.020594,-13619.789333,-3140.991542
21044.069133,-74.020594,-9696.697840,-4749.792088
21044.069466,1184.329507,-9844.739029,536.266849
21044.069799,2886.803174,-7402.059420,1149.143247
21044.070132,296.082377,-7920.203579,2145.067394
21044.070466,1850.514855,-6661.853478,2374.896044
21044.070799,2516.700203,-7476.080014,1685.410096
21044.071132,1480.411884,-8364.327145,2451.505594
21044.071465,1924.535449,-9474.636058,2374.896044
21044.071798,0.000000,-7179.997637,306.438199
21044.072131,-2368.659014,-10140.821405,2451.505594
21044.072465,-666.185348,-12435.459826,536.266849
21044.072798,-2442.679609,-7772.162391,-1838.629195
21044.073131,-74.020594,-9770.718434,-2834.553343
21044.073464,1850.514855,-9252.574275,153.219100
21044.073797,2664.741391,-8438.347739,842.705048
21044.074131,2886.803174,-9474.636058,2374.896044
21044.074464,2294.638420,-12287.418637,2374.896044
21044.074797,-3256.906145,-8364.327145,-2451.505594
21044.075130,2738.761985,-11547.212695,2374.896044
21044.075463,-74.020594,-8882.471304,-2451.505594
21044.075796,0.000000,-9548.656652,3294.210641
21044.076130,-814.226536,-8068.244768,3064.381992
21044.076463,-370.102971,-8512.368333,2221.676944
21044.076796,-1258.350101,-8068.244768,995.924147
21044.077129,0.000000,-7105.977043,-459.657299
21044.077462,3478.967927,-9474.636058,-76.609550
21044.077795,0.000000,-6587.832884,1225.752797
21044.078129,2886.803174,-10658.965565,-1915.238745
21044.078462,0.000000,-8364.327145,-2298.286494
21044.078795,-370.102971,-10658.965565,-383.047749
21044.079128,-814.226536,-9992.780217,-1455.581446
21044.079461,-962.267725,-11029.068536,-1608.800546
21044.079794,-518.144159,-9178.553681,0.000000
21044.080128,0.000000,-8660.409521,4290.134789
21044.080461,74.020594,-4811.338623,2451.505594
21044.080794,-962.267725,-9474.636058,4596.572988
21044.081127,2294.638420,-7105.977043,-76.609550
21044.081460,0.000000,-8364.327145,2451.505594
21044.081793,814.226536,-9474.636058,1762.019645
21044.082127,2146.597232,-8216.285956,-383.047749
21044.082460,1184.329507,-8734.430116,229.828649
21044.082793,888.247130,-9030.512492,-2068.457845
21044.083126,0.000000,-11325.150913,-2451.505594
21044.083459,-814.226536,-11177.109724,-3677.258390
21044.083792,-592.164754,-11917.315666,-2221.676944
21044.084126,-370.102971,-11547.212695,536.266849
21044.084459,222.061783,-9030.512492,2374.896044
21044.084792,-2368.659014,-5403.503377,1685.410096
21044.085125,-666.185348,-6513.812290,1149.143247
21044.085458,0.000000,-6883.915261,6511.811733
21044.085791,3182.885551,-6883.915261,2451.505594
21044.086125,3478.967927,-9178.553681,4826.401637
21044.086458,2368.659014,-7772.162391,766.095498
21044.086791,2220.617826,-9104.533087,-1762.019645
21044.087124,592.164754,-12213.398043,-1762.019645
21044.087457,-1554.432478,-12435.459826,-4213.525239
21044.087790,-2072.576638,-12657.521608,-3677.258390
21044.088124,-3478.967927,-11029.068536,-3677.258390
21044.088457,-3256.906145,-7476.080014,612.876398
21044.088790,-74.020594,-8290.306550,2834.553343
21044.089123,-2442.679609,-3997.112087,766.095498
21044.089456,1110.308913,-7105.977043,5745.716235
21044.089789,2294.638420,-5477.523971,5439.278036
21044.090123,2664.741391,-6661.853478,3370.820191
21044.090456,1036.288319,-9030.512492,0.000000
21044.090789,3775.050304,-8290.306550,-995.924147
21044.091122,0.000000,-9548.656652,-2451.505594
21044.091455,74.020594,-12879.583391,-2451.505594
21044.091788,-74.020594,-13027.624579,-6511.811733
21044.092122,-2368.659014,-13397.727550,-4903.011187
21044.092455,222.061783,-12435.459826,-1532.190996
21044.092788,-666.185348,-8808.450710,842.705048
21044.093121,1702.473667,-6587.832884,4596.572988
21044.093454,1110.308913,-6217.729913,6818.249932
21044.093788,2516.700203,-4219.173869,5515.887586
21044.094121,2368.659014,-6587.832884,8810.098227
21044.094454,5255.462188,-7550.100608,2068.457845
21044.094787,1776.494261,-7179.997637,0.000000
21044.095120,1184.329507,-12805.562797,-76.609550
21044.095453,-814.226536,-10732.986159,-6665.030833
21044.095787,-5403.503377,-13027.624579,-7354.516781
21044.096120,-4071.132681,-11621.233289,-7201.297681
21044.096453,-3256.906145,-11695.253884,-3524.039291
21044.096786,-1776.494261,-9548.656652,-1685.410096
21044.097119,2368.659014,-6513.812290,4673.182538
21044.097452,2886.803174,-5773.606348,7201.297681
21044.097786,4589.276840,-5773.606348,7737.564530
21044.098119,4663.297435,-9474.636058,7277.907231
21044.098452,4071.132681,-7105.977043,1455.581446
21044.098785,296.082377,-9252.574275,3064.381992
21044.099118,-74.020594,-11547.212695,-76.609550
21044.099451,-3923.091493,-7179.997637,-6741.640382
21044.099785,-7105.977043,-11325.150913,-7354.516781
21044.100118,-4071.132681,-11843.295072,-6205.373534
21044.100451,-4737.318029,-11473.192101,-4443.353888
21044.100784,-2960.823768,-9770.718434,-1838.629195
21044.101117,-222.061783,-9178.553681,1762.019645
21044.101450,0.000000,-6587.832884,5515.887586
21044.101784,2146.597232,-3627.009116,4903.011187
21044.102117,2368.659014,-8512.368333,7890.783629
21044.102450,2294.638420,-8882.471304,4213.525239
21044.102783,2294.638420,-8290.306550,2374.896044
21044.103116,3478.967927,-10362.883188,1149.143247
21044.103449,1184.329507,-10140.821405,-1302.362347
21044.103783,-592.164754,-10510.924376,-3677.258390
21044.104116,-3256.906145,-10140.821405,-4903.011187
21044.104449,-3034.844362,-11843.295072,-5286.058936
21044.104782,-2368.659014,-11325.150913,-2451.505594
21044.105115,518.144159,-12731.542202,1149.143247
21044.105448,1184.329507,-4811.338623,3064.381992
21044.105782,3552.988522,-4811.338623,6741.640382
21044.106115,2886.803174,-6291.750507,3983.696590
21044.106448,3034.844362,-8734.430116,5132.839837
21044.106781,2516.700203,-8586.388927,2221.676944
21044.107114,1628.453072,-11399.171507,76.609550
21044.107447,0.000000,-9548.656652,-3677.258390
21044.107781,2886.803174,-10658.965565,-3753.867940
21044.108114,444.123565,-10658.965565,-1915.238745
21044.108447,-2368.659014,-8660.409521,-1532.190996
21044.108780,-74.020594,-9474.636058,-3140.991542
21044.109113,-74.020594,-11843.295072,-2834.553343
21044.109446,3256.906145,-9178.553681,1149.143247
21044.109780,4367.215058,-9252.574275,4290.134789
21044.110113,4885.359217,-6439.791695,4136.915689
21044.110446,5699.585753,-10658.965565,4826.401637
21044.110779,2294.638420,-7179.997637,612.876398
21044.111112,3256.906145,-10362.883188,2374.896044
21044.111445,-74.020594,-13619.789333,-1302.362347
21044.111779,-74.020594,-10658.965565,-3140.991542
21044.112112,-370.102971,-11843.295072,-2528.115143
21044.112445,-1776.494261,-7772.162391,-1225.752797
21044.112778,-3627.009116,-9474.636058,-1378.971896
21044.113111,-1480.411884,-8586.388927,0.000000
21044.113445,1110.308913,-9178.553681,2374.896044
21044.113778,1554.432478,-7624.121203,4596.572988
21044.114111,888.247130,-7476.080014,1915.238745
21044.114444,-1258.350101,-8586.388927,2068.457845
21044.114777,-3552.988522,-8364.327145,0.000000
21044.115110,-2072.576638,-10658.965565,1762.019645
21044.115444,-2442.679609,-9548.656652,-2451.505594
21044.115777,-7105.977043,-10732.986159,-1532.190996
21044.116110,-3034.844362,-8882.471304,-4366.744339
21044.116443,-3552.988522,-7772.162391,-3677.258390
21044.116776,-1258.350101,-9474.636058,-76.609550
21044.117109,-1480.411884,-6957.935855,229.828649
21044.117443,-962.267725,-8364.327145,766.095498
21044.117776,4663.297435,-8882.471304,4826.401637
21044.118109,2738.761985,-12435.459826,4826.401637
21044.118442,1184.329507,-5107.421000,3677.258390
21044.118775,1998.556043,-10066.800811,2374.896044
21044.119108,-666.185348,-9474.636058,-1608.800546
21044.119442,-888.247130,-11103.089130,-1225.752797
21044.119775,-2442.679609,-11991.336260,-3370.820191
21044.120108,-1110.308913,-10140.821405,-1991.848295
21044.120441,-1924.535449,-9474.636058,-995.924147
21044.120774,-666.185348,-6809.894666,0.000000
21044.121107,-962.267725,-9474.636058,1762.019645
21044.121441,0.000000,-4811.338623,3677.258390
21044.121774,3478.967927,-7994.224174,2987.772442
21044.122107,3108.864956,-7698.141797,1991.848295
21044.122440,3478.967927,-8882.471304,2987.772442
21044.122773,2590.720797,-7772.162391,153.219100
21044.123106,2960.823768,-9030.512492,-459.657299
21044.123440,1406.391290,-11695.253884,-2145.067394
21044.123773,592.164754,-11917.315666,-2911.162892
21044.124106,-74.020594,-13471.748144,-2834.553343
21044.124439,148.041188,-11251.130318,-2451.505594
21044.124772,2294.638420,-10658.965565,-76.609550
21044.125105,-1480.411884,-6735.874072,2451.505594
21044.125439,0.000000,-4811.338623,2834.553343
21044.125772,148.041188,-5551.544565,2987.772442
21044.126105,3330.926739,-7254.018232,2221.676944
21044.126438,2886.803174,-10214.842000,2987.772442
21044.126771,4663.297435,-7994.224174,2068.457845
21044.127104,0.000000,-8364.327145,0.000000
21044.127438,-74.020594,-14211.954086,-2528.115143
21044.127771,-1258.350101,-14211.954086,-4979.620737
21044.128104,-4737.318029,-11325.150913,-5822.325785
21044.128437,-2368.659014,-10732.986159,-1838.629195
21044.128770,-1480.411884,-9548.656652,919.314598
21044.129103,1554.432478,-7328.038826,4366.744339
21044.129437,1628.453072,-5995.668130,6281.983084
21044.129770,2294.638420,-7105.977043,4826.401637
21044.130103,-518.144159,-5995.668130,3140.991542
21044.130436,1850.514855,-9104.533087,3217.601092
21044.130769,1184.329507,-7550.100608,2221.676944
21044.131103,592.164754,-8808.450710,229.828649
21044.131436,296.082377,-9696.697840,-1072.533697
21044.131769,-4071.132681,-11029.068536,-5515.887586
21044.132102,-4737.318029,-10732.986159,-1915.238745
21044.132435,-2442.679609,-12139.377449,-5592.497135
21044.132768,-3552.988522,-11991.336260,-1838.629195
21044.133102,-2072.576638,-8364.327145,1608.800546
21044.133435,1998.556043,-6587.832884,4443.353888
21044.133768,4663.297435,-3478.967927,7277.907231
21044.134101,2664.741391,-4293.194464,6358.592633
21044.134434,4367.215058,-6513.812290,4519.963438
21044.134767,4071.132681,-6735.874072,1838.629195
21044.135101,3701.029710,-12139.377449,2987.772442
21044.135434,4071.132681,-8290.306550,-5439.278036
21044.135767,-2368.659014,-14878.139434,-4826.401637
21044.136100,-74.020594,-13027.624579,-5592.497135
21044.136433,-1850.514855,-13101.645173,-4290.134789
21044.136766,-74.020594,-11843.295072,-3140.991542
21044.137100,0.000000,-11177.109724,-536.266849
21044.137433,0.000000,-6587.832884,612.876398
21044.137766,2960.823768,-3034.844362,6435.202183
21044.138099,2886.803174,-8882.471304,7890.783629
21044.138432,148.041188,-3108.864956,2757.943793
21044.138765,0.000000,-5403.503377,4290.134789
21044.139099,2294.638420,-7624.121203,5439.278036
21044.139432,2294.638420,-7105.977043,0.000000
21044.139765,-1998.556043,-9474.636058,-2681.334243
21044.140098,-4071.132681,-10658.965565,-7048.078582
21044.140431,-6291.750507,-14804.118840,-6052.154434
21044.140764,-4145.153275,-12731.542202,-2834.553343
21044.141098,-2442.679609,-12731.542202,-4366.744339
21044.141431,-1776.494261,-9548.656652,1225.752797
21044.141764,1184.329507,-6587.832884,4749.792088
21044.142097,1184.329507,-7179.997637,7048.078582
21044.142430,3478.967927,-5329.482782,6588.421283
21044.142763,3034.844362,-6661.853478,6281.983084
21044.143097,4367.215058,-6957.935855,4519.963438
21044.143430,2294.638420,-9474.636058,1149.143247
21044.143763,-74.020594,-9474.636058,-2528.115143
21044.144096,-2368.659014,-7179.997637,-6128.763984
21044.144429,-4737.318029,-12509.480420,-4136.915689
21044.144762,-3627.009116,-13027.624579,-5592.497135
21044.145096,-4737.318029,-11917.315666,-3600.648841
21044.145429,-1480.411884,-10288.862594,-1455.581446
21044.145762,814.226536,-7846.182985,2145.067394
21044.146095,2738.761985,-5847.626942,4673.182538
21044.146428,2590.720797,-7402.059420,6358.592633
21044.146761,1110.308913,-6513.812290,3983.696590
21044.147095,0.000000,-6735.874072,3217.601092
21044.147428,2072.576638,-7402.059420,612.876398
21044.147761,1036.288319,-10066.800811,1378.971896
21044.148094,-74.020594,-9474.636058,-1302.362347
21044.148427,1998.556043,-12435.459826,-689.485948
21044.148760,-3552.988522,-10732.986159,-4290.134789
21044.149094,1184.329507,-13619.789333,-2451.505594
21044.149427,2368.659014,-11917.315666,153.219100
21044.149760,2294.638420,-10732.986159,2145.067394
21044.150093,2146.597232,-7994.224174,1685.410096
21044.150426,2738.761985,-7179.997637,3064.381992
21044.150760,592.164754,-6513.812290,3907.087040
21044.151093,-1776.494261,-3034.844362,1225.752797
21044.151426,-370.102971,-6809.894666,-1302.362347
21044.151759,-2442.679609,-7179.997637,-3370.820191
21044.152092,-814.226536,-11251.130318,-76.609550
21044.152425,-74.020594,-8882.471304,-76.609550
21044.152759,-2368.659014,-8660.409521,-1685.410096
21044.153094,-2146.597232,-11325.150913,-3064.381992
21044.153427,-444.123565,-11251.130318,-1225.752797
21044.153761,1998.556043,-11103.089130,-383.047749
21044.154094,2960.823768,-9844.739029,1225.752797
21044.154427,6439.791695,-9474.636058,2374.896044
21044.154760,3552.988522,-7476.080014,4903.011187
21044.155094,2516.700203,-9178.553681,4826.401637
21044.155427,-1554.432478,-7994.224174,-1762.019645
21044.155760,-2368.659014,-11843.295072,-1302.362347
21044.156093,-1480.411884,-8438.347739,306.438199
21044.156427,-740.205942,-7179.997637,459.657299
21044.156760,-1258.350101,-5773.606348,-1302.362347
21044.157093,-74.020594,-8290.306550,1455.581446
21044.157426,-1850.514855,-9326.594869,-1302.362347
21044.157760,1702.473667,-7772.162391,-2451.505594
21044.158093,1480.411884,-11769.274478,1149.143247
21044.158426,2590.720797,-11547.212695,-1302.362347
21044.158759,2886.803174,-7994.224174,-995.924147
21044.159092,2516.700203,-9918.759623,1991.848295
21044.159426,1332.370696,-8660.409521,383.047749
21044.159759,-814.226536,-9104.533087,-1378.971896
21044.160092,-370.102971,-10658.965565,-689.485948
21044.160425,0.000000,-9326.594869,1455.581446
21044.160759,-222.061783,-7328.038826,1378.971896
21044.161092,1850.514855,-7698.141797,2834.553343
21044.161425,0.000000,-7179.997637,3064.381992
21044.161758,3552.988522,-7846.182985,3294.210641
21044.162092,1406.391290,-8956.491898,0.000000
21044.162425,1184.329507,-8364.327145,0.000000
21044.162758,666.185348,-13471.748144,-1991.848295
21044.163091,296.082377,-9548.656652,-3753.867940
21044.163425,518.144159,-11177.109724,-2374.896044
21044.163758,-3701.029710,-11843.295072,-2298.286494
21044.164091,-2220.617826,-9400.615463,-995.924147
21044.164424,-666.185348,-10658.965565,2374.896044
21044.164758,1110.308913,-9770.718434,6052.154434
21044.165091,518.144159,-3182.885551,4903.011187
21044.165424,3404.947333,-6809.894666,9116.536426
21044.165757,4071.132681,-5329.482782,4213.525239
21044.166090,1184.329507,-9104.533087,1838.629195
21044.166424,2294.638420,-9474.636058,-1149.143247
21044.166757,888.247130,-11473.192101,-3064.381992
21044.167090,296.082377,-13175.665768,-4673.182538
21044.167423,-2738.761985,-13915.871710,-6281.983084
21044.167757,-3997.112087,-12879.583391,-4979.620737
21044.168090,-6069.688724,-9548.656652,-2145.067394
21044.168423,-2146.597232,-10362.883188,2374.896044
21044.168756,1406.391290,-5921.647536,4213.525239
21044.169090,-1258.350101,-7402.059420,5745.716235
21044.169423,2960.823768,-1332.370696,6971.469032
21044.169756,444.123565,-5921.647536,6052.154434
21044.170089,592.164754,-6291.750507,1991.848295
21044.170423,592.164754,-8364.327145,0.000000
21044.170756,-74.020594,-13027.624579,-5592.497135
21044.171089,1480.411884,-12065.356855,-4903.011187
21044.171422,-1258.350101,-16284.530724,-5286.058936
21044.171756,518.144159,-10140.821405,-7354.516781
21044.172089,-4145.153275,-11325.150913,-3600.648841
21044.172422,-2220.617826,-11029.068536,-76.609550
21044.172755,-1332.370696,-7772.162391,766.095498
21044.173088,1702.473667,-7698.141797,5056.230287
21044.173422,8808.450710,-6513.812290,12180.918418
21044.173755,4663.297435,-666.185348,8580.269578
21044.174088,4885.359217,-5625.565159,6971.469032
21044.174421,-370.102971,-6883.915261,-1302.362347
21044.174755,0.000000,-10140.821405,-919.314598
21044.175088,0.000000,-9844.739029,-3677.258390
21044.175421,-1702.473667,-14804.118840,-5439.278036
21044.175754,-3404.947333,-11325.150913,-8503.660028
21044.176088,-4071.132681,-12213.398043,-6128.763984
21044.176421,-666.185348,-11843.295072,-1302.362347
21044.176754,-3330.926739,-7179.997637,0.000000
21044.177087,-962.267725,-7254.018232,995.924147
