#time,accel_x,accel_y,accel_z
20893.741720,1776.494261,-8068.244768,-76.609550
20893.742054,1480.411884,-8068.244768,-3294.210641
20893.742388,1554.432478,-9474.636058,-4366.744339
20893.742722,1924.535449,-9844.739029,-3677.258390
20893.743055,3478.967927,-9326.594869,-2604.724693
20893.743389,7624.121203,-9474.636058,-76.609550
20893.743723,5921.647536,-8660.409521,4290.134789
20893.744057,11177.109724,-9474.636058,3600.648841
20893.744390,11177.109724,-7179.997637,2451.505594
20893.744724,11177.109724,-9474.636058,4519.963438
20893.745058,10066.800811,-8068.244768,1685.410096
20893.745392,8956.491898,-9178.553681,-689.485948
20893.745725,8290.306550,-9104.533087,-2451.505594
20893.746059,7105.977043,-9548.656652,-1991.848295
20893.746393,7476.080014,-9030.512492,-4290.134789
20893.746727,5921.647536,-11325.150913,-76.609550
20893.747060,8808.450710,-10214.842000,-1838.629195
20893.747394,7105.977043,-10732.986159,1225.752797
20893.747728,7402.059420,-10140.821405,2911.162892
20893.748062,5699.585753,-10881.027347,3217.601092
20893.748396,5625.565159,-9400.615463,4290.134789
20893.748729,6661.853478,-7624.121203,5209.449386
20893.749063,9400.615463,-6365.771101,5745.716235
20893.749397,4737.318029,-5403.503377,3677.258390
20893.749731,6439.791695,-6513.812290,-995.924147
20893.750064,5847.626942,-4811.338623,-4290.134789
20893.750398,7105.977043,-7920.203579,-2221.676944
20893.750732,7105.977043,-8364.327145,-4519.963438
20893.751066,7846.182985,-10955.047942,-3140.991542
20893.751399,8734.430116,-11843.295072,-2068.457845
20893.751733,9548.656652,-11325.150913,-1532.190996
20893.752067,11769.274478,-13027.624579,2221.676944
20893.752401,9474.636058,-11325.150913,2757.943793
20893.752734,9178.553681,-9918.759623,3370.820191
20893.753068,9844.739029,-7846.182985,3983.696590
20893.753402,10732.986159,-6809.894666,4213.525239
20893.753736,11695.253884,-7550.100608,4596.572988
20893.754070,8290.306550,-3034.844362,0.000000
20893.754403,7105.977043,-7476.080014,306.438199
20893.754737,7031.956449,-10658.965565,-2528.115143
20893.755071,3997.112087,-9178.553681,-4596.572988
20893.755405,5477.523971,-12361.439231,-1302.362347
20893.755738,5403.503377,-11399.171507,-1302.362347
20893.756072,7031.956449,-10955.047942,229.828649
20893.756406,9178.553681,-9548.656652,2757.943793
20893.756740,10584.944971,-10510.924376,4826.401637
20893.757073,7105.977043,-7179.997637,3983.696590
20893.757407,4737.318029,-8364.327145,1225.752797
20893.757741,6439.791695,-8882.471304,-1608.800546
20893.758075,2368.659014,-5995.668130,-1838.629195
20893.758409,4663.297435,-7402.059420,-4213.525239
20893.758742,3034.844362,-10288.862594,-2221.676944
20893.759076,1184.329507,-10955.047942,-76.609550
20893.759410,1998.556043,-11251.130318,2298.286494
20893.759744,3108.864956,-7920.203579,2145.067394
20893.760077,4737.318029,-7179.997637,6588.421283
20893.760411,10881.027347,-4737.318029,7277.907231
20893.760745,11769.274478,-7105.977043,3294.210641
20893.761079,7550.100608,-8660.409521,2681.334243
20893.761412,3552.988522,-8512.368333,-4596.572988
20893.761746,3034.844362,-11695.253884,-6205.373534
20893.762080,148.041188,-11769.274478,-6818.249932
20893.762414,-2516.700203,-13989.892304,-6894.859482
20893.762747,-2368.659014,-10140.821405,-4903.011187
20893.763081,2368.659014,-10436.903782,2987.772442
20893.763415,10584.944971,-7105.977043,6971.469032
20893.763749,11547.212695,-3034.844362,9806.022374
20893.764083,11843.295072,-9030.512492,12793.794817
20893.764416,9178.553681,-6291.750507,4903.011187
20893.764750,8808.450710,-8142.265362,1608.800546
20893.765084,7179.997637,-8216.285956,-1149.143247
20893.765418,2590.720797,-11103.089130,-5592.497135
20893.765751,-2886.803174,-11917.315666,-9806.022374
20893.766085,-1406.391290,-13249.686362,-8044.002729
20893.766419,1110.308913,-10658.965565,-4136.915689
20893.766753,2368.659014,-9918.759623,-229.828649
20893.767086,2294.638420,-10658.965565,2068.457845
20893.767420,4071.132681,-9178.553681,4060.306139
20893.767754,2960.823768,-7179.997637,9806.022374
20893.768088,5329.482782,-5551.544565,11261.603821
20893.768421,7624.121203,-5921.647536,5975.544884
20893.768755,7476.080014,-6809.894666,4826.401637
20893.769089,3478.967927,-7328.038826,0.000000
20893.769423,2220.617826,-7994.224174,-4366.744339
20893.769757,-1850.514855,-10732.986159,-7814.174080
20893.770090,-4737.318029,-10140.821405,-9806.022374
20893.770424,-3034.844362,-11547.212695,-9882.631924
20893.770758,-3552.988522,-11917.315666,-3524.039291
20893.771092,1110.308913,-13915.871710,-76.609550
20893.771425,4663.297435,-10955.047942,4213.525239
20893.771759,6291.750507,-7105.977043,9269.755526
20893.772093,4737.318029,-8068.244768,9499.584175
20893.772427,4367.215058,-5847.626942,5669.106685
20893.772760,1702.473667,-7105.977043,3600.648841
20893.773094,2368.659014,-7031.956449,2145.067394
20893.773428,2886.803174,-5921.647536,-766.095498
20893.773762,2368.659014,-10436.903782,-76.609550
20893.774096,-1554.432478,-11695.253884,-6665.030833
20893.774429,-5921.647536,-12509.480420,-8580.269578
20893.774763,-4441.235652,-11917.315666,-5975.544884
20893.775097,-4737.318029,-11325.150913,-4979.620737
20893.775431,-2072.576638,-11399.171507,-76.609550
20893.775764,296.082377,-8956.491898,5669.106685
20893.776098,2294.638420,-8290.306550,7890.783629
20893.776432,0.000000,-5995.668130,8273.831378
20893.776766,3478.967927,-6809.894666,7584.345430
20893.777099,-74.020594,-5403.503377,2451.505594
20893.777433,-2368.659014,-5995.668130,-76.609550
20893.777767,-3627.009116,-8290.306550,-3753.867940
20893.778101,-3849.070898,-8438.347739,-4213.525239
20893.778434,-1406.391290,-7328.038826,-2451.505594
20893.778768,-1998.556043,-10807.006753,-2834.553343
20893.779102,0.000000,-12213.398043,-2298.286494
20893.779436,-592.164754,-14878.139434,2374.896044
20893.779770,-74.020594,-11251.130318,-995.924147
20893.780103,0.000000,-8660.409521,0.000000
20893.780437,4663.297435,-10658.965565,4213.525239
20893.780771,5255.462188,-7105.977043,4826.401637
20893.781105,4441.235652,-7994.224174,5439.278036
20893.781438,2664.741391,-9252.574275,4290.134789
20893.781772,-666.185348,-8734.430116,766.095498
20893.782106,-2294.638420,-8290.306550,-2221.676944
20893.782440,-1776.494261,-7105.977043,-2987.772442
20893.782773,0.000000,-7031.956449,-3064.381992
20893.783107,2516.700203,-7698.141797,-842.705048
20893.783441,4293.194464,-10288.862594,0.000000
20893.783775,3478.967927,-12139.377449,-689.485948
20893.784108,0.000000,-13693.809927,919.314598
20893.784442,0.000000,-13397.727550,2145.067394
20893.784776,-74.020594,-9474.636058,-1378.971896
20893.785110,1480.411884,-7179.997637,1838.629195
20893.785444,2886.803174,-7105.977043,2068.457845
20893.785777,2220.617826,-4885.359217,2374.896044
20893.786111,1554.432478,-7846.182985,1991.848295
20893.786445,2590.720797,-8734.430116,1762.019645
20893.786779,-3552.988522,-9548.656652,-1838.629195
20893.787112,-4737.318029,-9548.656652,-1838.629195
20893.787446,-2442.679609,-9178.553681,-2757.943793
20893.787780,-666.185348,-7179.997637,-2451.505594
20893.788114,2960.823768,-6587.832884,2298.286494
20893.788447,2886.803174,-9992.780217,2451.505594
20893.788781,1110.308913,-12139.377449,2987.772442
20893.789115,-2072.576638,-9918.759623,1149.143247
20893.789449,-2146.597232,-9696.697840,-1685.410096
20893.789783,666.185348,-7624.121203,306.438199
20893.790116,-1184.329507,-6587.832884,3370.820191
20893.790450,-1480.411884,-3627.009116,-2451.505594
20893.790784,-1776.494261,-10436.903782,0.000000
20893.791118,1702.473667,-11843.295072,1149.143247
20893.791451,-2368.659014,-9548.656652,1838.629195
20893.791785,-222.061783,-9622.677246,689.485948
20893.792119,1480.411884,-6957.935855,842.705048
20893.792453,3182.885551,-8068.244768,2451.505594
20893.792786,7624.121203,-7105.977043,4213.525239
20893.793120,2960.823768,-11251.130318,3600.648841
20893.793454,-74.020594,-13101.645173,-1532.190996
20893.793788,-5921.647536,-13249.686362,-2451.505594
20893.794121,-4885.359217,-13027.624579,-3140.991542
20893.794455,-3256.906145,-5403.503377,-3294.210641
20893.794789,-1036.288319,-5403.503377,-1378.971896
20893.795123,1332.370696,-5625.565159,2681.334243
20893.795457,3182.885551,-6513.812290,4060.306139
20893.795790,2960.823768,-7476.080014,4979.620737
20893.796124,4071.132681,-10584.944971,2834.553343
20893.796458,0.000000,-9548.656652,-2451.505594
20893.796792,592.164754,-8660.409521,842.705048
20893.797125,1998.556043,-8882.471304,-1302.362347
20893.797459,592.164754,-7179.997637,612.876398
20893.797793,0.000000,-10732.986159,-1838.629195
20893.798127,-1258.350101,-13027.624579,-1378.971896
20893.798460,-3997.112087,-12879.583391,-995.924147
20893.798794,-4737.318029,-10066.800811,-4213.525239
20893.799128,-3108.864956,-7624.121203,-383.047749
20893.799462,962.267725,-4071.132681,1302.362347
20893.799796,4589.276840,-4737.318029,5209.449386
20893.800129,4515.256246,-6883.915261,6741.640382
20893.800463,3478.967927,-10658.965565,2374.896044
20893.800797,1332.370696,-12805.562797,5515.887586
20893.801131,-74.020594,-13027.624579,-689.485948
20893.801464,-1924.535449,-8364.327145,-3983.696590
20893.801798,-1776.494261,-8956.491898,-2451.505594
20893.802131,1998.556043,-8882.471304,-2298.286494
20893.802465,1406.391290,-9474.636058,-383.047749
20893.802798,-666.185348,-13027.624579,-995.924147
20893.803131,-2516.700203,-13767.830521,229.828649
20893.803464,-2516.700203,-8364.327145,-1838.629195
20893.803797,1184.329507,-8734.430116,4519.963438
20893.804131,2960.823768,-3034.844362,3064.381992
20893.804464,7624.121203,-4737.318029,4826.401637
20893.804797,5329.482782,-6661.853478,6665.030833
20893.805130,1184.329507,-10732.986159,4826.401637
20893.805463,-74.020594,-11547.212695,-1302.362347
20893.805797,-5329.482782,-13397.727550,-4903.011187
20893.806130,-4737.318029,-10732.986159,-5362.668486
20893.806463,-1258.350101,-9178.553681,-3753.867940
20893.806796,2886.803174,-9474.636058,-76.609550
20893.807129,740.205942,-6587.832884,612.876398
20893.807463,148.041188,-8364.327145,2451.505594
20893.807796,4367.215058,-13619.789333,4519.963438
20893.808129,1184.329507,-8660.409521,1072.533697
20893.808462,888.247130,-9326.594869,2068.457845
20893.808796,1776.494261,-5403.503377,919.314598
20893.809129,2664.741391,-5699.585753,1532.190996
20893.809462,2368.659014,-4737.318029,0.000000
20893.809795,0.000000,-10140.821405,-3677.258390
20893.810128,-2368.659014,-14656.077652,-383.047749
20893.810462,-5403.503377,-13619.789333,-4519.963438
20893.810795,-6217.729913,-8364.327145,-6128.763984
20893.811128,-814.226536,-9474.636058,-2528.115143
20893.811461,2368.659014,-6587.832884,2911.162892
20893.811794,4663.297435,-6143.709319,4903.011187
20893.812128,2368.659014,-8660.409521,3753.867940
20893.812461,666.185348,-11473.192101,2834.553343
20893.812794,444.123565,-11325.150913,2298.286494
20893.813127,-592.164754,-8734.430116,153.219100
20893.813460,-370.102971,-6957.935855,-1608.800546
20893.813794,-1184.329507,-8068.244768,-919.314598
20893.814127,2294.638420,-8882.471304,-76.609550
20893.814460,-74.020594,-9770.718434,-1685.410096
20893.814793,1480.411884,-13027.624579,2451.505594
20893.815127,-2442.679609,-15322.262999,-76.609550
20893.815460,-4145.153275,-10436.903782,-1838.629195
20893.815793,0.000000,-7846.182985,1455.581446
20893.816126,3701.029710,-5551.544565,5056.230287
20893.816459,5995.668130,-4145.153275,6741.640382
20893.816793,3849.070898,-7105.977043,4519.963438
20893.817126,0.000000,-10140.821405,3064.381992
20893.817459,-1850.514855,-7328.038826,-2451.505594
20893.817792,-4145.153275,-11621.233289,-2528.115143
20893.818125,-666.185348,-7105.977043,-3753.867940
20893.818459,-666.185348,-8290.306550,-3294.210641
20893.818792,814.226536,-9474.636058,-1915.238745
20893.819125,-1110.308913,-9918.759623,-2451.505594
20893.819458,740.205942,-13175.665768,536.266849
20893.819791,2072.576638,-11917.315666,3677.258390
20893.820125,3404.947333,-12287.418637,5439.278036
20893.820458,592.164754,-5995.668130,0.000000
20893.820791,2960.823768,-5995.668130,4443.353888
20893.821124,6439.791695,-4293.194464,3140.991542
20893.821458,4737.318029,-5403.503377,3370.820191
20893.821791,2294.638420,-11843.295072,0.000000
20893.822124,-3478.967927,-13545.768739,-4443.353888
20893.822457,-7105.977043,-13175.665768,-7124.688131
20893.822790,-5773.606348,-9030.512492,-7354.516781
20893.823124,-3034.844362,-7105.977043,-4979.620737
20893.823457,0.000000,-9104.533087,2221.676944
20893.823790,2294.638420,-9474.636058,4826.401637
20893.824123,2294.638420,-9178.553681,4443.353888
20893.824456,2368.659014,-10436.903782,6435.202183
20893.824790,0.000000,-9696.697840,4290.134789
20893.825123,888.247130,-6069.688724,2374.896044
20893.825456,1184.329507,-5995.668130,1225.752797
20893.825789,2368.659014,-4885.359217,229.828649
20893.826122,0.000000,-6587.832884,-3677.258390
20893.826456,-296.082377,-14211.954086,-2528.115143
20893.826789,-4811.338623,-14730.098246,-4903.011187
20893.827122,-8586.388927,-11917.315666,-4903.011187
20893.827455,-1850.514855,-13027.624579,-2528.115143
20893.827789,-1480.411884,-5699.585753,1532.190996
20893.828122,3330.926739,-5773.606348,4673.182538
20893.828455,3552.988522,-6439.791695,5822.325785
20893.828788,3997.112087,-9104.533087,6971.469032
20893.829121,2442.679609,-8438.347739,4903.011187
20893.829455,666.185348,-9474.636058,1762.019645
20893.829788,-1998.556043,-8512.368333,-2757.943793
20893.830121,-1776.494261,-7031.956449,-4673.182538
20893.830454,-74.020594,-9178.553681,-2834.553343
20893.830787,1406.391290,-6735.874072,-3677.258390
20893.831121,666.185348,-12657.521608,-76.609550
20893.831454,-1258.350101,-14804.118840,-3600.648841
20893.831787,-1184.329507,-11917.315666,1378.971896
20893.832120,592.164754,-10732.986159,3753.867940
20893.832453,4589.276840,-4515.256246,4443.353888
20893.832787,5847.626942,-4737.318029,5132.839837
20893.833120,3552.988522,-6291.750507,3447.429741
20893.833453,1998.556043,-7402.059420,1762.019645
20893.833786,-1554.432478,-9548.656652,-2298.286494
20893.834120,-74.020594,-12879.583391,-1915.238745
20893.834453,-4367.215058,-11843.295072,-4979.620737
20893.834786,-3552.988522,-5699.585753,-4903.011187
20893.835119,-74.020594,-9474.636058,-1302.362347
20893.835452,1110.308913,-7772.162391,-766.095498
20893.835786,3404.947333,-11029.068536,2221.676944
20893.836119,518.144159,-13249.686362,3064.381992
20893.836452,-2368.659014,-10140.821405,1225.752797
20893.836785,-1258.350101,-10732.986159,0.000000
20893.837118,3478.967927,-8290.306550,2374.896044
20893.837452,444.123565,-3923.091493,2451.505594
20893.837785,0.000000,-4811.338623,2451.505594
20893.838118,0.000000,-8956.491898,0.000000
20893.838451,-2442.679609,-11547.212695,-919.314598
20893.838784,-1702.473667,-10066.800811,-1608.800546
20893.839118,-4589.276840,-10140.821405,-3217.601092
20893.839451,-370.102971,-7994.224174,-2528.115143
20893.839784,1184.329507,-8956.491898,3447.429741
20893.840117,2960.823768,-6809.894666,2681.334243
20893.840451,1184.329507,-7179.997637,2757.943793
20893.840784,2294.638420,-14063.912898,2374.896044
20893.841117,1110.308913,-12139.377449,2374.896044
20893.841450,-1110.308913,-9622.677246,-306.438199
20893.841783,-1554.432478,-8882.471304,-1225.752797
20893.842117,-962.267725,-5699.585753,-1685.410096
20893.842450,-2368.659014,-4811.338623,-1225.752797
20893.842783,3478.967927,-8882.471304,-76.609550
20893.843116,0.000000,-9548.656652,1991.848295
20893.843449,-3552.988522,-10732.986159,1532.190996
20893.843783,-74.020594,-10658.965565,-1455.581446
20893.844116,1702.473667,-8290.306550,-76.609550
20893.844449,3701.029710,-7846.182985,1915.238745
20893.844782,5107.421000,-7698.141797,3524.039291
20893.845115,3775.050304,-9474.636058,1532.190996
20893.845449,0.000000,-10732.986159,1225.752797
20893.845782,-370.102971,-12879.583391,-689.485948
20893.846115,-3182.885551,-11547.212695,-2681.334243
20893.846448,-3997.112087,-8512.368333,-2374.896044
20893.846782,-1628.453072,-5921.647536,-2221.676944
20893.847115,-962.267725,-4219.173869,-1225.752797
20893.847448,-74.020594,-8290.306550,-76.609550
20893.847781,2294.638420,-8734.430116,1685.410096
20893.848114,1480.411884,-10881.027347,6665.030833
20893.848448,2072.576638,-10658.965565,3370.820191
20893.848781,-2368.659014,-8956.491898,-1838.629195
20893.849114,2590.720797,-6587.832884,-536.266849
20893.849447,3923.091493,-8438.347739,1915.238745
20893.849780,4145.153275,-9400.615463,842.705048
20893.850114,0.000000,-13101.645173,0.000000
20893.850447,-2442.679609,-15396.283594,-3753.867940
20893.850780,-4737.318029,-11547.212695,-2834.553343
20893.851113,-6809.894666,-6587.832884,-1991.848295
20893.851446,-74.020594,-7105.977043,-383.047749
20893.851780,592.164754,-1850.514855,3064.381992
20893.852113,3552.988522,-7105.977043,4213.525239
20893.852446,3701.029710,-7772.162391,4596.572988
20893.852779,2738.761985,-11843.295072,3753.867940
20893.853112,2886.803174,-13027.624579,2681.334243
20893.853446,-74.020594,-10658.965565,-1915.238745
20893.853779,0.000000,-6735.874072,-1838.629195
20893.854112,2590.720797,-10510.924376,-76.609550
20893.854445,1702.473667,-7994.224174,-3064.381992
20893.854779,-74.020594,-13767.830521,-689.485948
20893.855112,-2590.720797,-12657.521608,-1838.629195
20893.855445,-3256.906145,-11473.192101,-2221.676944
20893.855778,-1776.494261,-8364.327145,-76.609550
20893.856111,3182.885551,-4737.318029,3294.210641
20893.856445,2960.823768,-2442.679609,1225.752797
20893.856778,3849.070898,-6143.709319,5898.935335
20893.857111,4367.215058,-8882.471304,2681.334243
20893.857444,1702.473667,-10732.986159,0.000000
20893.857777,-1036.288319,-13841.851115,-76.609550
20893.858111,-4589.276840,-10140.821405,-4290.134789
20893.858444,-3997.112087,-9918.759623,-4903.011187
20893.858777,74.020594,-5699.585753,-1915.238745
20893.859110,2960.823768,-7698.141797,-383.047749
20893.859443,1480.411884,-9400.615463,1455.581446
20893.859777,888.247130,-12139.377449,1915.238745
20893.860110,-666.185348,-11177.109724,995.924147
20893.860443,0.000000,-8956.491898,919.314598
20893.860776,0.000000,-7179.997637,2374.896044
20893.861110,4663.297435,-5921.647536,1532.190996
20893.861443,2368.659014,-5403.503377,612.876398
20893.861776,2368.659014,-9474.636058,3907.087040
20893.862109,-1776.494261,-10732.986159,0.000000
20893.862442,-2294.638420,-12509.480420,-1685.410096
20893.862776,-4145.153275,-11103.089130,-3907.087040
20893.863109,-3182.885551,-9696.697840,-3983.696590
20893.863442,1110.308913,-9474.636058,-76.609550
20893.863775,1332.370696,-5995.668130,1838.629195
20893.864108,4663.297435,-6143.709319,306.438199
20893.864442,2368.659014,-11029.068536,5132.839837
20893.864775,4071.132681,-14211.954086,3294.210641
20893.865108,1702.473667,-10436.903782,2221.676944
20893.865441,-296.082377,-9104.533087,-536.266849
20893.865774,0.000000,-7179.997637,-612.876398
20893.866108,222.061783,-7550.100608,766.095498
20893.866441,74.020594,-8512.368333,1378.971896
20893.866774,296.082377,-10140.821405,4213.525239
20893.867107,-4737.318029,-9548.656652,-1838.629195
20893.867441,-7105.977043,-10732.986159,-1072.533697
20893.867774,-2442.679609,-7994.224174,-2528.115143
20893.868107,370.102971,-4737.318029,0.000000
20893.868440,4663.297435,-6069.688724,3600.648841
20893.868773,3478.967927,-7254.018232,1838.629195
20893.869107,2738.761985,-10140.821405,1532.190996
20893.869440,370.102971,-12139.377449,306.438199
20893.869773,-74.020594,-13027.624579,-1302.362347
20893.870106,-4737.318029,-11325.150913,-2221.676944
20893.870439,-1258.350101,-11843.295072,-3140.991542
20893.870773,-1850.514855,-4959.379811,-3064.381992
20893.871106,592.164754,-8364.327145,1225.752797
20893.871439,2146.597232,-8956.491898,3370.820191
20893.871772,1702.473667,-11769.274478,4673.182538
20893.872105,0.000000,-10436.903782,3370.820191
20893.872439,-370.102971,-7105.977043,842.705048
20893.872772,1554.432478,-5699.585753,0.000000
20893.873105,4737.318029,-5699.585753,6052.154434
20893.873438,4663.297435,-6069.688724,612.876398
20893.873772,74.020594,-9548.656652,0.000000
20893.874105,-3552.988522,-14878.139434,-1225.752797
20893.874438,-4515.256246,-12509.480420,-6128.763984
20893.874771,-4663.297435,-11843.295072,-4979.620737
20893.875104,-1628.453072,-9474.636058,-4366.744339
20893.875438,-888.247130,-6439.791695,-1072.533697
20893.875771,1702.473667,-5995.668130,1225.752797
20893.876104,4589.276840,-7846.182985,6818.249932
20893.876437,5625.565159,-8586.388927,8197.221829
20893.876770,4367.215058,-10066.800811,6358.592633
20893.877104,3330.926739,-9474.636058,4519.963438
20893.877437,1998.556043,-6217.729913,-919.314598
20893.877770,2960.823768,-5403.503377,0.000000
20893.878103,4663.297435,-10658.965565,-1608.800546
20893.878436,-1184.329507,-10881.027347,-3370.820191
20893.878770,-5625.565159,-15470.304188,-3983.696590
20893.879103,-5699.585753,-14656.077652,-5898.935335
20893.879436,-5403.503377,-12731.542202,-5209.449386
20893.879769,-2146.597232,-9030.512492,-842.705048
20893.880103,1110.308913,-6513.812290,3907.087040
20893.880436,4663.297435,-1480.411884,4903.011187
20893.880769,4145.153275,-5107.421000,8963.317327
20893.881102,4663.297435,-9474.636058,7277.907231
20893.881435,888.247130,-6735.874072,2451.505594
20893.881769,-74.020594,-11547.212695,1762.019645
20893.882102,-3404.947333,-8956.491898,-4903.011187
20893.882435,-1998.556043,-8808.450710,-6052.154434
20893.882768,-2072.576638,-9992.780217,-4060.306139
20893.883101,-3552.988522,-11029.068536,-4596.572988
20893.883435,-2442.679609,-13101.645173,-6128.763984
20893.883768,-3849.070898,-14211.954086,995.924147
20893.884101,-666.185348,-10066.800811,1762.019645
20893.884434,1110.308913,-4293.194464,2145.067394
20893.884767,3108.864956,-2516.700203,4826.401637
20893.885101,2960.823768,-5551.544565,6052.154434
20893.885434,3182.885551,-4737.318029,4060.306139
20893.885767,0.000000,-10584.944971,2528.115143
20893.886100,-2072.576638,-11843.295072,-919.314598
20893.886434,-7105.977043,-9548.656652,-4903.011187
20893.886767,-3034.844362,-11843.295072,-3753.867940
20893.887100,-74.020594,-6957.935855,-4519.963438
20893.887433,0.000000,-9548.656652,-2451.505594
20893.887766,2664.741391,-10140.821405,0.000000
20893.888100,3108.864956,-12139.377449,2451.505594
20893.888433,2590.720797,-12065.356855,3830.477490
20893.888766,1184.329507,-8956.491898,1532.190996
20893.889099,2294.638420,-8142.265362,1149.143247
20893.889432,3552.988522,-7402.059420,2987.772442
20893.889766,4663.297435,-4515.256246,306.438199
20893.890099,1332.370696,-5995.668130,1225.752797
20893.890432,2072.576638,-11547.212695,1762.019645
20893.890765,-74.020594,-11103.089130,-2451.505594
20893.891098,-1332.370696,-10807.006753,-3370.820191
20893.891432,-888.247130,-10584.944971,-2451.505594
20893.891765,3997.112087,-7698.141797,-76.609550
20893.892098,6143.709319,-8882.471304,2987.772442
20893.892431,7105.977043,-8142.265362,3907.087040
20893.892765,5107.421000,-11325.150913,2757.943793
20893.893098,4367.215058,-11843.295072,2068.457845
20893.893431,2368.659014,-11769.274478,1225.752797
20893.893764,-74.020594,-8882.471304,-689.485948
20893.894097,592.164754,-7698.141797,-76.609550
20893.894431,-74.020594,-5921.647536,-4213.525239
20893.894764,0.000000,-8364.327145,-76.609550
20893.895097,-2072.576638,-9844.739029,0.000000
20893.895430,-1258.350101,-10658.965565,-1915.238745
20893.895763,-4219.173869,-12361.439231,-76.609550
20893.896097,-2294.638420,-7476.080014,0.000000
20893.896430,1110.308913,-8364.327145,2528.115143
20893.896763,962.267725,-5107.421000,2451.505594
20893.897096,3849.070898,-8068.244768,6052.154434
20893.897429,1110.308913,-11843.295072,2374.896044
20893.897763,0.000000,-8364.327145,612.876398
20893.898096,-3404.947333,-14211.954086,-76.609550
20893.898429,-7179.997637,-8512.368333,-6128.763984
20893.898762,-6143.709319,-8438.347739,-5745.716235
20893.899096,-5181.441594,-8512.368333,-3447.429741
20893.899429,-2442.679609,-5773.606348,-1685.410096
20893.899762,-2960.823768,-8956.491898,1225.752797
20893.900095,1406.391290,-13027.624579,4826.401637
20893.900428,-1554.432478,-9252.574275,3753.867940
20893.900762,-2368.659014,-5403.503377,3677.258390
20893.901095,2886.803174,-7105.977043,4213.525239
20893.901428,4145.153275,-4219.173869,5209.449386
20893.901761,2664.741391,-6957.935855,2451.505594
20893.902092,888.247130,-9622.677246,-1072.533697
20893.902425,-2146.597232,-13101.645173,-4136.915689
20893.902758,-4219.173869,-15396.283594,-3753.867940
20893.903092,-3034.844362,-11843.295072,-4979.620737
20893.903425,-5329.482782,-7179.997637,-4903.011187
20893.903758,-1924.535449,-8808.450710,-76.609550
20893.904092,2886.803174,-6513.812290,-76.609550
20893.904425,4145.153275,-6735.874072,7507.735880
20893.904758,4663.297435,-5995.668130,6128.763984
20893.905091,3997.112087,-9474.636058,6511.811733
20893.905425,2294.638420,-8882.471304,2987.772442
20893.905758,2294.638420,-8290.306550,-76.609550
20893.906091,4145.153275,-7105.977043,-766.095498
20893.906425,3182.885551,-8364.327145,-1532.190996
20893.906758,1924.535449,-10436.903782,-3294.210641
20893.907091,-1776.494261,-11917.315666,-5822.325785
20893.907425,-4737.318029,-14285.974681,-3524.039291
20893.907758,-1850.514855,-13915.871710,-4060.306139
20893.908091,0.000000,-6291.750507,-3064.381992
20893.908424,3552.988522,-7179.997637,4903.011187
20893.908758,3478.967927,-5477.523971,6358.592633
20893.909091,4145.153275,-3997.112087,6741.640382
20893.909424,5551.544565,-6809.894666,6511.811733
20893.909758,1776.494261,-9252.574275,3370.820191
20893.910091,0.000000,-10881.027347,0.000000
20893.910424,-3034.844362,-7846.182985,-4979.620737
20893.910758,-666.185348,-8882.471304,-8656.879127
20893.911091,0.000000,-8364.327145,-3370.820191
20893.911424,0.000000,-11325.150913,-1608.800546
20893.911757,-888.247130,-12509.480420,-2298.286494
20893.912091,-3108.864956,-15544.324782,-76.609550
20893.912424,-1850.514855,-11103.089130,536.266849
20893.912757,518.144159,-7994.224174,4290.134789
20893.913091,3182.885551,-7105.977043,6052.154434
20893.913424,296.082377,-3627.009116,6128.763984
20893.913757,-666.185348,-4737.318029,2068.457845
20893.914090,-2368.659014,-6587.832884,2757.943793
20893.914424,-4811.338623,-11547.212695,-76.609550
20893.914757,-5107.421000,-9474.636058,-3753.867940
20893.915090,-6587.832884,-10658.965565,-4366.744339
20893.915424,-4441.235652,-7994.224174,-3217.601092
20893.915757,-370.102971,-7105.977043,-919.314598
20893.916090,962.267725,-8882.471304,1532.190996
20893.916424,4367.215058,-12361.439231,5439.278036
20893.916757,-1184.329507,-10732.986159,3064.381992
20893.917090,-2368.659014,-10732.986159,3983.696590
20893.917423,-74.020594,-8290.306550,-229.828649
20893.917757,888.247130,-3627.009116,0.000000
20893.918090,2886.803174,-5921.647536,689.485948
20893.918423,1776.494261,-6661.853478,612.876398
20893.918757,0.000000,-8438.347739,-306.438199
20893.919090,-1554.432478,-10955.047942,-1302.362347
20893.919423,-2442.679609,-10066.800811,-3140.991542
20893.919757,0.000000,-8364.327145,-76.609550
20893.920090,7031.956449,-8882.471304,1149.143247
20893.920423,9400.615463,-7105.977043,2987.772442
20893.920756,7105.977043,-5403.503377,3064.381992
20893.921090,6439.791695,-13027.624579,1149.143247
20893.921423,6439.791695,-11843.295072,1455.581446
20893.921756,1776.494261,-14285.974681,-995.924147
20893.922090,3108.864956,-9474.636058,-2221.676944
20893.922423,2294.638420,-9474.636058,-3753.867940
20893.922756,1184.329507,-7624.121203,-1762.019645
20893.923090,4071.132681,-5181.441594,459.657299
20893.923423,1332.370696,-10214.842000,1302.362347
20893.923756,1184.329507,-8956.491898,2451.505594
20893.924089,-74.020594,-11843.295072,1149.143247
20893.924423,0.000000,-5995.668130,0.000000
20893.924756,592.164754,-7772.162391,4213.525239
20893.925089,4071.132681,-7698.141797,2451.505594
20893.925423,1998.556043,-7179.997637,2451.505594
20893.925756,370.102971,-9474.636058,1149.143247
20893.926089,-2738.761985,-12731.542202,-2221.676944
20893.926422,-5699.585753,-13101.645173,-3907.087040
20893.926756,-3627.009116,-11843.295072,-2528.115143
20893.927089,-4219.173869,-8882.471304,-3140.991542
20893.927422,-3552.988522,-6587.832884,536.266849
20893.927756,-4737.318029,-7476.080014,2911.162892
20893.928089,-1850.514855,-8586.388927,612.876398
20893.928422,0.000000,-7772.162391,6511.811733
20893.928756,-3701.029710,-10732.986159,2757.943793
20893.929089,-2146.597232,-7179.997637,1072.533697
20893.929422,-1702.473667,-9474.636058,1455.581446
20893.929755,1110.308913,-4737.318029,1762.019645
20893.930089,1110.308913,-9474.636058,-76.609550
20893.930422,-2368.659014,-12139.377449,-76.609550
20893.930755,-3627.009116,-13915.871710,-2834.553343
20893.931089,-5403.503377,-12435.459826,-4903.011187
20893.931422,-2738.761985,-11843.295072,-2528.115143
20893.931755,-2664.741391,-6957.935855,-689.485948
20893.932089,1258.350101,-6365.771101,1991.848295
20893.932422,2812.782580,-4441.235652,4596.572988
20893.932755,3108.864956,-7179.997637,4290.134789
20893.933088,4219.173869,-7328.038826,2604.724693
20893.933422,3552.988522,-10732.986159,6052.154434
20893.933755,1110.308913,-9178.553681,-689.485948
20893.934088,592.164754,-7476.080014,-2987.772442
20893.934422,592.164754,-8364.327145,-3447.429741
20893.934755,3182.885551,-9474.636058,-1455.581446
20893.935088,1924.535449,-9326.594869,-1915.238745
20893.935422,962.267725,-12213.398043,-1685.410096
20893.935755,2886.803174,-12879.583391,-76.609550
20893.936088,0.000000,-9844.739029,612.876398
20893.936421,2886.803174,-7402.059420,842.705048
20893.936755,4663.297435,-3034.844362,612.876398
20893.937088,5921.647536,-7550.100608,6052.154434
20893.937421,6661.853478,-4959.379811,3447.429741
20893.937755,4737.318029,-10214.842000,3753.867940
20893.938088,3182.885551,-10066.800811,536.266849
20893.938421,-1480.411884,-12657.521608,-3064.381992
20893.938754,-666.185348,-11843.295072,-3753.867940
20893.939088,-1776.494261,-9104.533087,-4749.792088
20893.939421,1702.473667,-9696.697840,-2451.505594
20893.939754,2516.700203,-10658.965565,-306.438199
20893.940088,1924.535449,-11473.192101,1762.019645
20893.940421,2664.741391,-11843.295072,4290.134789
20893.940754,-1184.329507,-8660.409521,1225.752797
20893.941088,0.000000,-7476.080014,3983.696590
20893.941421,1110.308913,-5625.565159,2681.334243
20893.941754,-1554.432478,-3627.009116,0.000000
20893.942087,-1332.370696,-7698.141797,842.705048
20893.942421,-5773.606348,-11177.109724,-1991.848295
20893.942754,-5921.647536,-10955.047942,-1838.629195
20893.943087,-9622.677246,-11621.233289,-3140.991542
20893.943421,-6587.832884,-9474.636058,-3753.867940
20893.943754,-6809.894666,-7476.080014,0.000000
20893.944087,-74.020594,-9178.553681,4213.525239
20893.944421,4071.132681,-4441.235652,3524.039291
20893.944754,0.000000,-9548.656652,6128.763984
20893.945087,2294.638420,-9474.636058,2528.115143
20893.945420,-370.102971,-11843.295072,2374.896044
20893.945754,-2960.823768,-9770.718434,-536.266849
20893.946087,-592.164754,-6735.874072,-1915.238745
20893.946420,-1924.535449,-7476.080014,-3370.820191
20893.946754,592.164754,-8364.327145,2374.896044
20893.947087,-666.185348,-10658.965565,-76.609550
20893.947420,2294.638420,-7402.059420,-1532.190996
20893.947753,-2590.720797,-12879.583391,1072.533697
20893.948087,0.000000,-6587.832884,-2145.067394
20893.948420,3849.070898,-7550.100608,1378.971896
20893.948753,8068.244768,-7105.977043,2987.772442
20893.949087,10955.047942,-6957.935855,4826.401637
20893.949420,7698.141797,-9992.780217,4903.011187
20893.949753,10584.944971,-13619.789333,4826.401637
20893.950087,2294.638420,-9844.739029,-3677.258390
20893.950420,1184.329507,-14434.015869,-3677.258390
20893.950753,2294.638420,-11843.295072,-3753.867940
20893.951086,0.000000,-8364.327145,-3677.258390
20893.951420,3923.091493,-8290.306550,-76.609550
20893.951753,2072.576638,-9696.697840,1149.143247
20893.952086,4737.318029,-9030.512492,3370.820191
20893.952420,1776.494261,-9844.739029,4903.011187
20893.952753,2664.741391,-7550.100608,3370.820191
20893.953086,1332.370696,-7772.162391,1685.410096
20893.953420,3034.844362,-7031.956449,1149.143247
20893.953753,4367.215058,-8290.306550,-76.609550
20893.954086,-74.020594,-9548.656652,-1838.629195
20893.954419,-1776.494261,-13027.624579,-1302.362347
20893.954753,-4811.338623,-16580.613101,-3753.867940
20893.955086,-6513.812290,-9548.656652,-4903.011187
20893.955419,-5403.503377,-11843.295072,-2528.115143
20893.955753,-5773.606348,-7179.997637,-2145.067394
20893.956086,-962.267725,-5921.647536,1915.238745
20893.956419,0.000000,-8068.244768,7124.688131
20893.956753,1776.494261,-5107.421000,7967.393179
20893.957086,-74.020594,-10288.862594,3983.696590
20893.957419,-740.205942,-9178.553681,4213.525239
20893.957752,-3034.844362,-7179.997637,-1838.629195
20893.958086,-2664.741391,-4811.338623,-1838.629195
20893.958419,-2664.741391,-9548.656652,-2298.286494
20893.958752,-4737.318029,-10140.821405,-3217.601092
20893.959086,-5403.503377,-12509.480420,-3447.429741
20893.959419,-5995.668130,-14063.912898,-3907.087040
20893.959752,-4145.153275,-10807.006753,-1378.971896
20893.960085,-4219.173869,-7179.997637,-2145.067394
20893.960419,3478.967927,-8290.306550,4213.525239
20893.960752,3478.967927,-3182.885551,4290.134789
20893.961085,5551.544565,-7994.224174,6435.202183
20893.961419,5329.482782,-8364.327145,8120.612279
20893.961752,3775.050304,-9474.636058,5056.230287
20893.962085,444.123565,-9696.697840,0.000000
20893.962419,-2590.720797,-10510.924376,-3907.087040
20893.962752,-962.267725,-10066.800811,-5898.935335
20893.963085,0.000000,-9548.656652,-1838.629195
20893.963418,2886.803174,-7624.121203,-4060.306139
20893.963752,1110.308913,-11251.130318,-3064.381992
20893.964085,-2368.659014,-11917.315666,-995.924147
20893.964418,1110.308913,-12435.459826,-76.609550
20893.964752,1554.432478,-8734.430116,2068.457845
20893.965085,5477.523971,-4663.297435,3753.867940
20893.965418,5551.544565,-7624.121203,6511.811733
20893.965752,6957.935855,-3552.988522,4903.011187
20893.966085,5551.544565,-10658.965565,4826.401637
20893.966418,814.226536,-9548.656652,0.000000
20893.966751,-888.247130,-14211.954086,-2528.115143
20893.967085,-3627.009116,-15396.283594,-6358.592633
20893.967418,-74.020594,-10066.800811,-5898.935335
20893.967751,2072.576638,-9770.718434,-1915.238745
20893.968085,5107.421000,-9104.533087,1838.629195
20893.968418,4811.338623,-10140.821405,4596.572988
20893.968751,2368.659014,-10658.965565,4213.525239
20893.969085,1998.556043,-11695.253884,2834.553343
20893.969418,-370.102971,-9622.677246,2604.724693
20893.969751,962.267725,-5403.503377,1225.752797
20893.970084,296.082377,-5255.462188,2911.162892
20893.970418,-2368.659014,-5995.668130,-2145.067394
20893.970751,-1332.370696,-9326.594869,-76.609550
20893.971084,-6587.832884,-11547.212695,-3140.991542
20893.971418,-7105.977043,-10140.821405,-1072.533697
20893.971751,-7772.162391,-11843.295072,-3753.867940
20893.972084,-3034.844362,-7402.059420,-3140.991542
20893.972417,1036.288319,-7402.059420,4060.306139
20893.972751,3701.029710,-5181.441594,5669.106685
20893.973084,5403.503377,-7994.224174,5822.325785
20893.973417,592.164754,-10732.986159,4903.011187
20893.973751,1480.411884,-13027.624579,2374.896044
20893.974084,-5107.421000,-8068.244768,-1838.629195
20893.974417,-3552.988522,-5403.503377,-2451.505594
20893.974751,-666.185348,-7698.141797,-1608.800546
20893.975084,-962.267725,-5995.668130,0.000000
20893.975417,666.185348,-6661.853478,-229.828649
20893.975750,-1628.453072,-11547.212695,-76.609550
20893.976084,-1702.473667,-9992.780217,-536.266849
20893.976417,-962.267725,-10955.047942,1149.143247
20893.976750,3478.967927,-11251.130318,-76.609550
20893.977084,3552.988522,-5107.421000,1225.752797
20893.977417,7254.018232,-9474.636058,6741.640382
20893.977750,10584.944971,-9178.553681,3600.648841
20893.978084,6217.729913,-11917.315666,4443.353888
20893.978417,1628.453072,-10584.944971,-3217.601092
20893.978750,-1924.535449,-14434.015869,-5592.497135
20893.979083,-2294.638420,-8808.450710,-6588.421283
20893.979417,0.000000,-8882.471304,-3524.039291
20893.979750,1998.556043,-8290.306550,-1455.581446
20893.980083,1554.432478,-6587.832884,1838.629195
20893.980417,592.164754,-11991.336260,5132.839837
20893.980750,2886.803174,-10658.965565,6052.154434
20893.981083,1110.308913,-7698.141797,2987.772442
20893.981417,1628.453072,-8364.327145,3753.867940
20893.981750,3256.906145,-5551.544565,2451.505594
20893.982083,2738.761985,-6809.894666,2374.896044
20893.982416,592.164754,-9548.656652,-1225.752797
20893.982750,-2146.597232,-10140.821405,-4290.134789
20893.983083,-4885.359217,-15914.427753,-4290.134789
20893.983416,-3627.009116,-14211.954086,-4979.620737
20893.983750,-6809.894666,-9548.656652,-4903.011187
20893.984083,-4367.215058,-9474.636058,-1608.800546
20893.984416,2072.576638,-5921.647536,4979.620737
20893.984749,2516.700203,-4959.379811,8733.488677
20893.985083,4737.318029,-5995.668130,7967.393179
20893.985416,592.164754,-9252.574275,6741.640382
20893.985749,-1036.288319,-7772.162391,2451.505594
20893.986083,-2886.803174,-7698.141797,-919.314598
20893.986416,370.102971,-9030.512492,-1302.362347
20893.986749,-222.061783,-8586.388927,-1991.848295
20893.987083,-2368.659014,-8956.491898,-3677.258390
20893.987416,-2738.761985,-8290.306550,-4979.620737
20893.987749,-6513.812290,-12657.521608,-3677.258390
20893.988082,-3627.009116,-12435.459826,-1915.238745
20893.988416,-1850.514855,-10658.965565,-76.609550
20893.988749,296.082377,-6587.832884,2757.943793
20893.989082,2294.638420,-4811.338623,4903.011187
20893.989416,3330.926739,-6513.812290,4979.620737
20893.989749,3849.070898,-6439.791695,4749.792088
20893.990082,3478.967927,-11029.068536,6052.154434
20893.990416,-1184.329507,-9548.656652,0.000000
20893.990749,-4737.318029,-10140.821405,-1302.362347
20893.991082,-666.185348,-10066.800811,-4366.744339
20893.991415,0.000000,-5995.668130,-3370.820191
20893.991749,4663.297435,-8290.306550,-383.047749
20893.992082,2590.720797,-10807.006753,153.219100
20893.992415,1258.350101,-12287.418637,-306.438199
20893.992749,-740.205942,-11917.315666,0.000000
20893.993082,-370.102971,-10066.800811,-689.485948
20893.993415,0.000000,-7179.997637,2451.505594
20893.993748,4071.132681,-6513.812290,4826.401637
20893.994082,4663.297435,-5329.482782,2834.553343
20893.994415,592.164754,-5995.668130,2451.505594
20893.994748,1702.473667,-9474.636058,0.000000
20893.995082,-2072.576638,-11399.171507,-1838.629195
20893.995415,-2738.761985,-11695.253884,-4060.306139
20893.995748,-2590.720797,-9844.739029,-3753.867940
20893.996082,444.123565,-7179.997637,-3524.039291
20893.996415,2368.659014,-7772.162391,4596.572988
20893.996748,5847.626942,-9474.636058,2374.896044
20893.997081,1332.370696,-10732.986159,0.000000
20893.997415,0.000000,-13101.645173,3677.258390
20893.997748,-74.020594,-10510.924376,306.438199
20893.998081,518.144159,-7624.121203,2528.115143
20893.998415,888.247130,-5699.585753,1685.410096
20893.998748,-444.123565,-5551.544565,306.438199
20893.999081,-3108.864956,-7772.162391,-995.924147
20893.999415,-2146.597232,-9474.636058,-995.924147
20893.999748,-5699.585753,-11843.295072,-919.314598
20894.000081,-6069.688724,-8882.471304,-2451.505594
20894.000414,-1258.350101,-10658.965565,1762.019645
20894.000748,3478.967927,-7105.977043,2987.772442
20894.001081,3849.070898,-4959.379811,4903.011187
20894.001414,2368.659014,-8660.409521,6511.811733
20894.001748,4367.215058,-11843.295072,2528.115143
20894.002081,-444.123565,-11621.233289,0.000000
20894.002414,-1258.350101,-11843.295072,-1915.238745
20894.002747,-4071.132681,-9030.512492,-5209.449386
20894.003081,-740.205942,-7772.162391,-2374.896044
20894.003414,1406.391290,-6217.729913,-1455.581446
20894.003747,1850.514855,-8290.306550,1149.143247
20894.004080,0.000000,-8660.409521,2987.772442
20894.004414,1110.308913,-10658.965565,2374.896044
20894.004747,2294.638420,-9178.553681,2068.457845
20894.005080,2294.638420,-5921.647536,1149.143247
20894.005413,4441.235652,-9252.574275,2451.505594
20894.005747,6735.874072,-6143.709319,2451.505594
20894.006080,6513.812290,-10584.944971,3294.210641
20894.006413,2960.823768,-10140.821405,0.000000
20894.006746,1998.556043,-14211.954086,-4060.306139
20894.007080,-3552.988522,-14285.974681,-1915.238745
20894.007413,-666.185348,-9474.636058,-5056.230287
20894.007746,-1628.453072,-7254.018232,-4136.915689
20894.008079,0.000000,-7179.997637,0.000000
20894.008413,3108.864956,-5477.523971,2528.115143
20894.008746,3701.029710,-8956.491898,6052.154434
20894.009079,2368.659014,-7476.080014,4903.011187
20894.009412,-74.020594,-11843.295072,4826.401637
20894.009746,-1554.432478,-6291.750507,0.000000
20894.010079,1998.556043,-8882.471304,-76.609550
20894.010412,1702.473667,-8882.471304,-383.047749
20894.010745,-2072.576638,-8364.327145,-459.657299
20894.011079,-1924.535449,-12435.459826,-2298.286494
20894.011412,-4293.194464,-13841.851115,-2528.115143
20894.011745,-6439.791695,-12731.542202,-3753.867940
20894.012078,-5107.421000,-8438.347739,-2528.115143
20894.012411,-2664.741391,-7772.162391,229.828649
20894.012745,0.000000,-5403.503377,7507.735880
20894.013078,2886.803174,-5329.482782,4366.744339
20894.013411,0.000000,-5995.668130,2451.505594
20894.013744,5255.462188,-9474.636058,6665.030833
20894.014078,-1258.350101,-13619.789333,3447.429741
20894.014411,-1184.329507,-7772.162391,153.219100
20894.014744,-5699.585753,-11991.336260,-2987.772442
20894.015077,-1332.370696,-8586.388927,-3140.991542
20894.015411,-518.144159,-8660.409521,0.000000
20894.015744,-2368.659014,-10140.821405,-153.219100
20894.016077,-370.102971,-9178.553681,-919.314598
20894.016410,-3034.844362,-11991.336260,-689.485948
20894.016744,1776.494261,-8660.409521,2145.067394
20894.017077,2294.638420,-5921.647536,3600.648841
20894.017410,3552.988522,-6291.750507,4290.134789
20894.017743,8216.285956,-9474.636058,4826.401637
20894.018077,1332.370696,-7772.162391,2757.943793
20894.018410,2812.782580,-10807.006753,1455.581446
20894.018743,-1258.350101,-14211.954086,-1915.238745
20894.019076,-2072.576638,-11917.315666,-3907.087040
20894.019410,-1776.494261,-10066.800811,-1838.629195
20894.019743,2812.782580,-7328.038826,-612.876398
20894.020076,3552.988522,-5403.503377,1838.629195
20894.020409,4737.318029,-7476.080014,5209.449386
20894.020743,4367.215058,-8512.368333,1378.971896
20894.021076,814.226536,-8956.491898,0.000000
20894.021409,740.205942,-11103.089130,-76.609550
20894.021742,-74.020594,-8290.306550,-2911.162892
20894.022076,1036.288319,-8290.306550,-689.485948
20894.022409,222.061783,-8068.244768,-842.705048
20894.022742,-518.144159,-7179.997637,-1225.752797
20894.023075,0.000000,-10140.821405,0.000000
20894.023409,-592.164754,-11917.315666,3600.648841
20894.023742,-2442.679609,-9844.739029,-3370.820191
20894.024075,-3256.906145,-9548.656652,-3677.258390
20894.024408,1332.370696,-7476.080014,2145.067394
20894.024742,3108.864956,-5699.585753,4903.011187
20894.025075,5403.503377,-7402.059420,4136.915689
20894.025408,2886.803174,-10658.965565,2145.067394
20894.025741,-592.164754,-13249.686362,1302.362347
20894.026075,-1258.350101,-11251.130318,-689.485948
20894.026408,-3552.988522,-11843.295072,-1608.800546
20894.026741,-4219.173869,-5995.668130,-3677.258390
20894.027074,-2960.823768,-9474.636058,-76.609550
20894.027408,-2442.679609,-8290.306550,-689.485948
20894.027741,-1850.514855,-10214.842000,2987.772442
20894.028074,-5625.565159,-8956.491898,0.000000
20894.028407,-3849.070898,-7550.100608,306.438199
20894.028741,-2590.720797,-7550.100608,1685.410096
20894.029074,1184.329507,-3923.091493,2451.505594
20894.029407,4663.297435,-7698.141797,2834.553343
20894.029740,4737.318029,-6587.832884,2451.505594
20894.030074,3256.906145,-11843.295072,2374.896044
20894.030407,1110.308913,-12731.542202,-1608.800546
20894.030740,-1258.350101,-14063.912898,-2528.115143
20894.031073,-3108.864956,-11177.109724,-3907.087040
20894.031406,-1998.556043,-8882.471304,-3064.381992
20894.031740,1998.556043,-7624.121203,0.000000
20894.032073,2368.659014,-4811.338623,1225.752797
20894.032406,4663.297435,-6957.935855,2681.334243
20894.032739,4071.132681,-8438.347739,4826.401637
20894.033073,2368.659014,-7550.100608,3600.648841
20894.033406,2072.576638,-9474.636058,1532.190996
20894.033739,4515.256246,-6513.812290,-383.047749
20894.034072,8808.450710,-13027.624579,3600.648841
20894.034406,4811.338623,-5995.668130,0.000000
20894.034739,3849.070898,-15692.365970,-919.314598
20894.035072,-592.164754,-14137.933492,-5822.325785
20894.035405,-3552.988522,-15766.386565,-4903.011187
20894.035739,-1258.350101,-10140.821405,-3140.991542
20894.036072,-888.247130,-10066.800811,-1302.362347
20894.036405,1850.514855,-6143.709319,2145.067394
20894.036738,2960.823768,-3627.009116,4903.011187
20894.037072,6439.791695,-5921.647536,5515.887586
20894.037405,2368.659014,-6291.750507,7354.516781
20894.037738,1110.308913,-11251.130318,2374.896044
20894.038071,-1258.350101,-9474.636058,-76.609550
20894.038405,-888.247130,-7624.121203,-1302.362347
20894.038738,-1036.288319,-11473.192101,-2068.457845
20894.039071,-814.226536,-8438.347739,-2987.772442
20894.039404,-4367.215058,-12953.603985,-3447.429741
20894.039738,-4293.194464,-13989.892304,-2068.457845
20894.040071,-4811.338623,-9918.759623,-3677.258390
20894.040404,-5625.565159,-9548.656652,-2451.505594
20894.040737,740.205942,-8142.265362,4826.401637
20894.041071,-1332.370696,-3627.009116,3064.381992
20894.041404,4071.132681,-5329.482782,6052.154434
20894.041737,2072.576638,-5699.585753,5745.716235
20894.042070,1184.329507,-7772.162391,4060.306139
20894.042404,-592.164754,-9770.718434,459.657299
20894.042737,-5995.668130,-12435.459826,-3140.991542
20894.043070,-6809.894666,-7179.997637,-6128.763984
20894.043403,-3552.988522,-11769.274478,-1302.362347
20894.043737,1924.535449,-10658.965565,-76.609550
20894.044070,-1554.432478,-8364.327145,0.000000
20894.044403,-1406.391290,-11695.253884,-689.485948
20894.044736,74.020594,-9622.677246,2528.115143
20894.045070,-1110.308913,-8734.430116,2757.943793
20894.045403,2516.700203,-6809.894666,3140.991542
20894.045736,4663.297435,-7105.977043,4519.963438
20894.046069,3552.988522,-6809.894666,3370.820191
20894.046403,3849.070898,-6587.832884,919.314598
20894.046736,148.041188,-10214.842000,-2221.676944
20894.047069,0.000000,-12509.480420,-2451.505594
20894.047402,-2442.679609,-14211.954086,-4979.620737
20894.047736,-3404.947333,-10881.027347,-4596.572988
20894.048069,-2368.659014,-9548.656652,-459.657299
20894.048402,4663.297435,-7698.141797,995.924147
20894.048735,5329.482782,-4811.338623,3677.258390
20894.049068,5847.626942,-8882.471304,5745.716235
20894.049402,4441.235652,-9178.553681,3753.867940
20894.049735,1110.308913,-10066.800811,1225.752797
20894.050068,2294.638420,-9474.636058,1762.019645
20894.050401,2294.638420,-8882.471304,-76.609550
20894.050735,74.020594,-6587.832884,-1838.629195
20894.051068,1332.370696,-9474.636058,-1302.362347
20894.051401,-666.185348,-13027.624579,-4979.620737
20894.051734,-1406.391290,-11547.212695,-2757.943793
20894.052068,-3627.009116,-12879.583391,-2911.162892
20894.052401,-962.267725,-9696.697840,-306.438199
20894.052734,3849.070898,-7254.018232,4136.915689
20894.053067,4737.318029,-4515.256246,5592.497135
20894.053401,7994.224174,-8290.306550,6052.154434
20894.053734,592.164754,-8364.327145,6281.983084
20894.054067,2886.803174,-11251.130318,-76.609550
20894.054400,-2960.823768,-10732.986159,-2451.505594
20894.054734,-3034.844362,-10955.047942,-3753.867940
20894.055067,-4367.215058,-8808.450710,-4903.011187
20894.055400,-3182.885551,-9104.533087,-2221.676944
20894.055733,-518.144159,-8882.471304,-689.485948
20894.056067,-2960.823768,-10140.821405,1225.752797
20894.056400,-666.185348,-8290.306550,-689.485948
20894.056733,-3701.029710,-12731.542202,3677.258390
20894.057066,-74.020594,-7105.977043,1149.143247
20894.057400,0.000000,-8364.327145,5209.449386
20894.057733,2368.659014,-5403.503377,4903.011187
20894.058066,4737.318029,-5773.606348,5975.544884
20894.058399,518.144159,-8068.244768,919.314598
20894.058733,-518.144159,-11843.295072,-2451.505594
20894.059066,-5995.668130,-13619.789333,-5592.497135
20894.059399,-6957.935855,-10140.821405,-6128.763984
20894.059732,-2738.761985,-11843.295072,-4366.744339
20894.060066,-1850.514855,-10658.965565,-1915.238745
20894.060399,-444.123565,-6291.750507,612.876398
20894.060732,0.000000,-6587.832884,4903.011187
20894.061065,3701.029710,-7105.977043,5132.839837
20894.061399,1036.288319,-7328.038826,4213.525239
20894.061732,518.144159,-7624.121203,1532.190996
20894.062065,2886.803174,-8882.471304,-76.609550
20894.062398,3552.988522,-7772.162391,612.876398
20894.062732,6069.688724,-9326.594869,459.657299
20894.063065,3997.112087,-11325.150913,-1225.752797
20894.063398,814.226536,-12583.501014,-3907.087040
20894.063731,-74.020594,-15396.283594,-2834.553343
20894.064065,-1702.473667,-8956.491898,-6128.763984
20894.064398,-2368.659014,-13101.645173,0.000000
20894.064731,4071.132681,-8882.471304,2374.896044
20894.065064,4145.153275,-4811.338623,5056.230287
20894.065398,5033.400406,-6291.750507,8197.221829
20894.065731,5625.565159,-7105.977043,7048.078582
20894.066064,2294.638420,-8290.306550,4366.744339
20894.066397,-370.102971,-7476.080014,306.438199
20894.066731,-1258.350101,-8882.471304,-3753.867940
20894.067064,-1702.473667,-7772.162391,-4596.572988
20894.067397,1554.432478,-11843.295072,-1302.362347
20894.067730,2294.638420,-9474.636058,-4213.525239
20894.068063,-2960.823768,-13249.686362,-1838.629195
20894.068397,-1258.350101,-13619.789333,-3140.991542
20894.068730,-2220.617826,-10881.027347,459.657299
20894.069063,-1480.411884,-7994.224174,2451.505594
20894.069396,3775.050304,-5699.585753,4596.572988
20894.069730,592.164754,-5995.668130,5669.106685
20894.070063,0.000000,-3034.844362,4903.011187
20894.070396,1702.473667,-8290.306550,2681.334243
20894.070729,-1036.288319,-7179.997637,-1149.143247
20894.071063,-4663.297435,-9844.739029,-1838.629195
20894.071396,-4219.173869,-7550.100608,-5056.230287
20894.071729,-2442.679609,-11695.253884,-4213.525239
20894.072062,-2960.823768,-8586.388927,-3600.648841
20894.072396,-1110.308913,-11325.150913,-1532.190996
20894.072729,-370.102971,-11843.295072,1532.190996
20894.073062,-444.123565,-12287.418637,3600.648841
20894.073395,-1258.350101,-9474.636058,-766.095498
20894.073729,0.000000,-7179.997637,3830.477490
20894.074062,3552.988522,-5995.668130,6358.592633
20894.074395,4071.132681,-4293.194464,3983.696590
20894.074728,2590.720797,-7254.018232,3140.991542
20894.075062,-1110.308913,-9400.615463,-383.047749
20894.075395,-3478.967927,-10288.862594,-3294.210641
20894.075728,-2590.720797,-11695.253884,-3600.648841
20894.076061,-3034.844362,-10362.883188,-4519.963438
20894.076395,222.061783,-9474.636058,-2374.896044
20894.076728,3256.906145,-9104.533087,2298.286494
20894.077061,4663.297435,-7105.977043,2374.896044
20894.077394,2368.659014,-7772.162391,995.924147
20894.077728,0.000000,-10732.986159,3370.820191
20894.078061,3108.864956,-11843.295072,3294.210641
20894.078394,-74.020594,-10658.965565,-76.609550
20894.078727,-222.061783,-6217.729913,-1608.800546
20894.079061,1110.308913,-8142.265362,-536.266849
20894.079394,1776.494261,-6809.894666,-76.609550
20894.079727,1628.453072,-9252.574275,536.266849
20894.080060,370.102971,-9474.636058,-229.828649
20894.080394,-74.020594,-12435.459826,-689.485948
20894.080727,0.000000,-10140.821405,3600.648841
20894.081060,5255.462188,-7402.059420,1149.143247
20894.081393,4885.359217,-6291.750507,2451.505594
20894.081727,5329.482782,-7772.162391,3064.381992
20894.082060,3701.029710,-9548.656652,306.438199
20894.082393,74.020594,-13249.686362,-76.609550
20894.082726,-1184.329507,-11843.295072,-1302.362347
20894.083060,-5033.400406,-10807.006753,-3217.601092
20894.083393,-3108.864956,-5995.668130,-4213.525239
20894.083726,-74.020594,-8882.471304,-76.609550
20894.084059,-74.020594,-6513.812290,-76.609550
20894.084393,0.000000,-7772.162391,2911.162892
20894.084726,-74.020594,-10658.965565,4366.744339
20894.085059,-1184.329507,-8364.327145,3677.258390
20894.085392,-2294.638420,-8660.409521,689.485948
20894.085726,74.020594,-8734.430116,1149.143247
20894.086059,1480.411884,-8956.491898,1915.238745
20894.086392,1184.329507,-8512.368333,1225.752797
20894.086725,3182.885551,-9474.636058,-689.485948
20894.087058,-4737.318029,-11325.150913,-4903.011187
20894.087392,-4737.318029,-9548.656652,-2604.724693
20894.087725,-4811.338623,-11843.295072,-3753.867940
20894.088058,-1332.370696,-7624.121203,-1302.362347
20894.088391,-1184.329507,-7179.997637,1302.362347
20894.088725,1184.329507,-6957.935855,3370.820191
20894.089058,4959.379811,-5625.565159,5669.106685
20894.089391,4071.132681,-9474.636058,6052.154434
20894.089724,2294.638420,-7994.224174,689.485948
20894.090058,-1184.329507,-9326.594869,1762.019645
20894.090391,2294.638420,-11843.295072,-1915.238745
20894.090724,2294.638420,-8956.491898,-3447.429741
20894.091057,3849.070898,-11399.171507,-383.047749
20894.091391,2146.597232,-11547.212695,-1532.190996
20894.091724,1998.556043,-12139.377449,-842.705048
20894.092057,-444.123565,-11029.068536,-2757.943793
20894.092390,-666.185348,-11991.336260,-689.485948
20894.092724,2368.659014,-6217.729913,689.485948
20894.093057,3478.967927,-6735.874072,4366.744339
20894.093390,4737.318029,-6439.791695,6128.763984
20894.093723,2368.659014,-4219.173869,3983.696590
20894.094057,3552.988522,-10066.800811,4826.401637
20894.094390,1702.473667,-10658.965565,-689.485948
20894.094723,-4737.318029,-9844.739029,-919.314598
20894.095056,-3034.844362,-11547.212695,-5592.497135
20894.095390,-3404.947333,-8956.491898,-4979.620737
20894.095723,592.164754,-10066.800811,-1149.143247
20894.096056,518.144159,-9992.780217,0.000000
20894.096389,-2368.659014,-9548.656652,766.095498
20894.096723,-74.020594,-10658.965565,2374.896044
20894.097056,-666.185348,-12435.459826,2987.772442
20894.097389,2146.597232,-5181.441594,1838.629195
20894.097722,1184.329507,-7179.997637,4903.011187
20894.098056,4663.297435,-8290.306550,4213.525239
20894.098389,2886.803174,-7994.224174,3600.648841
20894.098722,-1184.329507,-9844.739029,612.876398
20894.099055,-3330.926739,-11103.089130,-3294.210641
20894.099389,-6069.688724,-10807.006753,-4673.182538
20894.099722,-5921.647536,-10140.821405,-4366.744339
20894.100055,-1258.350101,-9474.636058,-995.924147
20894.100388,0.000000,-7772.162391,3064.381992
20894.100722,4663.297435,-6513.812290,2681.334243
20894.101055,2664.741391,-7994.224174,4519.963438
20894.101388,0.000000,-7476.080014,1225.752797
20894.101721,74.020594,-10140.821405,919.314598
20894.102055,-1998.556043,-9474.636058,-1302.362347
20894.102388,-2368.659014,-8068.244768,-612.876398
20894.102721,2146.597232,-9178.553681,2068.457845
20894.103054,1110.308913,-7476.080014,0.000000
20894.103388,3182.885551,-10658.965565,-76.609550
20894.103721,-74.020594,-12435.459826,-689.485948
20894.104054,-3182.885551,-9548.656652,-2911.162892
20894.104387,-740.205942,-11251.130318,2374.896044
20894.104721,1850.514855,-7698.141797,3294.210641
20894.105054,4885.359217,-5699.585753,4903.011187
20894.105387,4663.297435,-5995.668130,2451.505594
20894.105720,4145.153275,-9104.533087,2298.286494
20894.106053,3627.009116,-11547.212695,1225.752797
20894.106386,2886.803174,-13027.624579,-76.609550
20894.106719,-4441.235652,-11917.315666,-2451.505594
20894.107053,-2368.659014,-11843.295072,-1302.362347
20894.107386,-1258.350101,-10658.965565,-4366.744339
20894.107719,0.000000,-7179.997637,0.000000
20894.108052,1776.494261,-9474.636058,3600.648841
20894.108385,1998.556043,-8290.306550,2374.896044
20894.108718,0.000000,-7772.162391,3370.820191
20894.109052,-1184.329507,-8956.491898,2604.724693
20894.109385,2294.638420,-5995.668130,1455.581446
20894.109718,4441.235652,-9696.697840,3294.210641
20894.110051,7920.203579,-7031.956449,3217.601092
20894.110384,4663.297435,-9178.553681,842.705048
20894.110717,592.164754,-11325.150913,-1072.533697
20894.111050,-1850.514855,-14211.954086,-3753.867940
20894.111384,-4219.173869,-12509.480420,-7354.516781
20894.111717,-4441.235652,-10732.986159,-3524.039291
20894.112050,-1258.350101,-11843.295072,-689.485948
20894.112383,-1184.329507,-7476.080014,1608.800546
20894.112716,148.041188,-5995.668130,4596.572988
20894.113049,2664.741391,-5699.585753,6741.640382
20894.113382,0.000000,-4811.338623,4903.011187
20894.113716,0.000000,-6587.832884,3677.258390
20894.114049,1702.473667,-7994.224174,0.000000
20894.114382,592.164754,-7179.997637,0.000000
20894.114715,2368.659014,-8364.327145,1149.143247
20894.115048,-1628.453072,-10732.986159,-3140.991542
20894.115381,-2220.617826,-12213.398043,-4673.182538
20894.115714,-4811.338623,-15248.242405,-4443.353888
20894.116048,-4663.297435,-12287.418637,-4060.306139
20894.116381,-2664.741391,-9844.739029,-612.876398
20894.116714,-2072.576638,-5995.668130,4366.744339
20894.117047,6439.791695,-4145.153275,6665.030833
20894.117380,2368.659014,-3627.009116,8580.269578
20894.117713,7031.956449,-8142.265362,8503.660028
20894.118047,1184.329507,-6291.750507,1838.629195
20894.118380,-1554.432478,-9696.697840,-1685.410096
20894.118713,592.164754,-6883.915261,-3294.210641
20894.119046,74.020594,-12953.603985,-3677.258390
20894.119379,1702.473667,-10066.800811,-4979.620737
20894.119712,592.164754,-13989.892304,-1302.362347
20894.120045,-1850.514855,-11843.295072,-5745.716235
20894.120379,-2368.659014,-13101.645173,-2451.505594
20894.120712,814.226536,-13027.624579,-76.609550
20894.121045,4663.297435,-7105.977043,4213.525239
20894.121378,4589.276840,-5699.585753,6435.202183
20894.121711,7031.956449,-4811.338623,8120.612279
20894.122044,5625.565159,-5625.565159,7201.297681
20894.122377,2368.659014,-4811.338623,3064.381992
20894.122711,2886.803174,-9474.636058,-1915.238745
20894.123044,-4737.318029,-12509.480420,-3677.258390
20894.123377,-4737.318029,-12509.480420,-3753.867940
20894.123710,-2442.679609,-11251.130318,-4979.620737
20894.124043,518.144159,-9474.636058,-689.485948
20894.124376,814.226536,-9030.512492,0.000000
20894.124709,0.000000,-9844.739029,2298.286494
20894.125043,-666.185348,-9474.636058,1302.362347
20894.125376,-2368.659014,-7476.080014,1532.190996
20894.125709,814.226536,-7698.141797,2221.676944
20894.126042,2294.638420,-6513.812290,4673.182538
20894.126375,1998.556043,-5403.503377,2681.334243
20894.126708,1850.514855,-7402.059420,1455.581446
20894.127042,-2072.576638,-7179.997637,-2145.067394
20894.127375,-1258.350101,-11547.212695,-2528.115143
20894.127708,-4959.379811,-9548.656652,-3677.258390
20894.128041,-4737.318029,-12879.583391,-2528.115143
20894.128374,-1258.350101,-11695.253884,-229.828649
20894.128707,0.000000,-7920.203579,2451.505594
20894.129040,5255.462188,-7105.977043,5286.058936
20894.129374,2960.823768,-7179.997637,4366.744339
20894.129707,1036.288319,-9252.574275,2681.334243
20894.130040,0.000000,-9844.739029,2604.724693
20894.130373,-666.185348,-9474.636058,-1302.362347
20894.130706,-2960.823768,-7179.997637,-3677.258390
20894.131039,-1036.288319,-10658.965565,-383.047749
20894.131372,0.000000,-6661.853478,-2834.553343
20894.131706,-1480.411884,-8660.409521,153.219100
20894.132039,-1776.494261,-10288.862594,-995.924147
20894.132372,-3997.112087,-11547.212695,-1915.238745
20894.132705,-2664.741391,-10214.842000,-766.095498
20894.133038,3182.885551,-9474.636058,4826.401637
20894.133371,7031.956449,-6513.812290,2681.334243
20894.133704,5329.482782,-8438.347739,6511.811733
20894.134038,6439.791695,-9474.636058,3600.648841
20894.134371,2590.720797,-7476.080014,0.000000
20894.134704,1924.535449,-12435.459826,-76.609550
20894.135037,-2812.782580,-11325.150913,-5515.887586
20894.135370,-3552.988522,-11473.192101,-4979.620737
20894.135703,-518.144159,-9844.739029,-3217.601092
20894.136037,740.205942,-8808.450710,-1532.190996
20894.136370,592.164754,-8364.327145,0.000000
20894.136703,1184.329507,-9548.656652,4826.401637
20894.137036,3478.967927,-7846.182985,3524.039291
20894.137369,296.082377,-6291.750507,0.000000
20894.137702,2368.659014,-9030.512492,4519.963438
20894.138035,4071.132681,-6587.832884,2451.505594
20894.138369,6735.874072,-7624.121203,3600.648841
20894.138702,5551.544565,-7698.141797,2145.067394
20894.139035,-666.185348,-11547.212695,-3140.991542
20894.139368,-1850.514855,-13619.789333,-5745.716235
20894.139701,-7105.977043,-11917.315666,-7737.564530
20894.140034,-4737.318029,-10732.986159,-3830.477490
20894.140367,-2442.679609,-8882.471304,-2528.115143
20894.140701,0.000000,-6587.832884,3140.991542
20894.141034,3627.009116,-5921.647536,5898.935335
20894.141367,4219.173869,-6291.750507,7354.516781
20894.141700,2886.803174,-6883.915261,5286.058936
20894.142033,-962.267725,-8882.471304,2681.334243
20894.142366,-370.102971,-9474.636058,842.705048
20894.142699,1110.308913,-9178.553681,1149.143247
20894.143033,1184.329507,-8808.450710,0.000000
20894.143366,-370.102971,-9548.656652,-2757.943793
20894.143699,-3034.844362,-14211.954086,-4366.744339
20894.144032,-3552.988522,-14359.995275,-2528.115143
20894.144365,-5995.668130,-10955.047942,-5362.668486
20894.144698,-6513.812290,-10732.986159,-2451.505594
20894.145032,-1184.329507,-4811.338623,2451.505594
20894.145365,2590.720797,-5995.668130,5209.449386
20894.145698,6587.832884,-2960.823768,7431.126331
20894.146031,3330.926739,-8290.306550,6741.640382
20894.146364,1776.494261,-6513.812290,2604.724693
20894.146697,-2960.823768,-9548.656652,-1225.752797
20894.147030,-4811.338623,-12731.542202,-4979.620737
20894.147364,-1554.432478,-7476.080014,-6741.640382
20894.147697,-2368.659014,-12435.459826,-2221.676944
20894.148030,4071.132681,-10658.965565,-1302.362347
20894.148363,0.000000,-9548.656652,919.314598
20894.148696,962.267725,-9844.739029,-383.047749
20894.149029,1184.329507,-9474.636058,2298.286494
20894.149362,1628.453072,-9770.718434,2681.334243
20894.149696,3552.988522,-7179.997637,3677.258390
20894.150029,5847.626942,-7105.977043,2451.505594
20894.150362,4737.318029,-5403.503377,0.000000
20894.150695,4811.338623,-9474.636058,3294.210641
20894.151028,1110.308913,-9474.636058,-3294.210641
20894.151361,-1776.494261,-13027.624579,-3907.087040
20894.151694,-4811.338623,-12657.521608,-4903.011187
20894.152028,-1110.308913,-9770.718434,-2528.115143
20894.152361,0.000000,-9474.636058,919.314598
20894.152694,5847.626942,-6513.812290,3294.210641
20894.153027,4071.132681,-5403.503377,612.876398
20894.153360,1776.494261,-10436.903782,3600.648841
20894.153693,-222.061783,-9326.594869,-1915.238745
20894.154027,-2368.659014,-9548.656652,0.000000
20894.154360,2146.597232,-10362.883188,1149.143247
20894.154693,1110.308913,-8660.409521,153.219100
20894.155026,1628.453072,-7772.162391,-383.047749
20894.155359,1110.308913,-9400.615463,76.609550
20894.155692,1110.308913,-10658.965565,1762.019645
20894.156025,-1998.556043,-9992.780217,-1455.581446
20894.156359,-5477.523971,-11251.130318,-2528.115143
20894.156692,-1924.535449,-9030.512492,-383.047749
20894.157025,0.000000,-5995.668130,2451.505594
20894.157358,5033.400406,-6957.935855,7277.907231
20894.157691,2146.597232,-6587.832884,3064.381992
20894.158024,0.000000,-8364.327145,3677.258390
20894.158357,-74.020594,-11251.130318,-76.609550
20894.158691,-3034.844362,-10066.800811,-3140.991542
20894.159024,-3923.091493,-11547.212695,-3294.210641
20894.159357,-2960.823768,-9696.697840,-3370.820191
20894.159690,-1184.329507,-10066.800811,-766.095498
20894.160023,296.082377,-8438.347739,1378.971896
20894.160356,-74.020594,-10140.821405,3600.648841
20894.160689,-1258.350101,-7179.997637,0.000000
20894.161023,-888.247130,-9548.656652,1225.752797
20894.161356,740.205942,-8882.471304,3600.648841
20894.161689,2368.659014,-7179.997637,2451.505594
20894.162022,5847.626942,-8216.285956,4826.401637
20894.162355,4441.235652,-8512.368333,4519.963438
20894.162688,592.164754,-10288.862594,-766.095498
20894.163022,-2442.679609,-11843.295072,-3753.867940
20894.163355,-5329.482782,-13175.665768,-3753.867940
20894.163688,-4219.173869,-8364.327145,-5822.325785
20894.164021,-1480.411884,-9178.553681,-76.609550
20894.164354,-74.020594,-8734.430116,1762.019645
20894.164687,1702.473667,-6513.812290,1149.143247
20894.165020,1628.453072,-8290.306550,1532.190996
20894.165354,2146.597232,-9030.512492,3600.648841
20894.165687,1998.556043,-8734.430116,2221.676944
20894.166020,0.000000,-9844.739029,1838.629195
20894.166353,4663.297435,-10658.965565,2221.676944
20894.166686,4145.153275,-8956.491898,1225.752797
20894.167019,4145.153275,-10362.883188,2068.457845
20894.167352,1702.473667,-11103.089130,-3064.381992
20894.167686,-4737.318029,-12509.480420,-4903.011187
20894.168019,-4367.215058,-11917.315666,-3753.867940
20894.168352,-4737.318029,-9474.636058,-3140.991542
20894.168685,-222.061783,-7772.162391,-766.095498
20894.169018,2664.741391,-8734.430116,6818.249932
20894.169351,4071.132681,-2442.679609,3217.601092
20894.169685,4293.194464,-8882.471304,4826.401637
20894.170018,2886.803174,-7105.977043,2374.896044
20894.170351,0.000000,-8364.327145,3064.381992
20894.170684,0.000000,-8364.327145,0.000000
20894.171017,0.000000,-10732.986159,-1225.752797
20894.171350,1554.432478,-9696.697840,-1915.238745
20894.171683,222.061783,-10955.047942,-2068.457845
20894.172017,-1184.329507,-11621.233289,-2145.067394
20894.172350,-3034.844362,-11325.150913,-4596.572988
20894.172683,-2294.638420,-10510.924376,-1455.581446
20894.173016,444.123565,-8216.285956,1532.190996
20894.173349,2590.720797,-7328.038826,4979.620737
20894.173682,3552.988522,-7179.997637,7354.516781
20894.174015,4663.297435,-3923.091493,3677.258390
20894.174349,1480.411884,-4811.338623,3983.696590
20894.174682,2886.803174,-9178.553681,-76.609550
20894.175015,-3552.988522,-10362.883188,-3907.087040
20894.175348,-5921.647536,-11621.233289,-5209.449386
20894.175681,-4811.338623,-11917.315666,-4290.134789
20894.176014,-962.267725,-9992.780217,-2298.286494
20894.176347,0.000000,-8364.327145,-689.485948
20894.176681,2294.638420,-9474.636058,-76.609550
20894.177014,-74.020594,-8660.409521,0.000000
20894.177347,0.000000,-9252.574275,1225.752797
20894.177680,1998.556043,-9474.636058,3600.648841
20894.178013,814.226536,-7179.997637,1838.629195
20894.178346,3552.988522,-9474.636058,4213.525239
20894.178680,2368.659014,-7772.162391,1991.848295
20894.179013,1332.370696,-9474.636058,0.000000
20894.179346,-518.144159,-9548.656652,-3370.820191
20894.179679,-3923.091493,-12287.418637,-4443.353888
20894.180012,-5477.523971,-9548.656652,-4903.011187
20894.180345,-2442.679609,-13027.624579,-2528.115143
20894.180678,1406.391290,-8290.306550,536.266849
20894.181012,2664.741391,-6291.750507,6588.421283
20894.181345,5847.626942,-4737.318029,3140.991542
20894.181678,2516.700203,-9104.533087,2757.943793
20894.182011,666.185348,-9400.615463,919.314598
20894.182344,-888.247130,-9030.512492,-306.438199
20894.182677,-2368.659014,-9548.656652,-2451.505594
20894.183010,-2072.576638,-11325.150913,-919.314598
20894.183344,-74.020594,-9474.636058,-4366.744339
20894.183677,-1924.535449,-9548.656652,-1225.752797
20894.184010,0.000000,-9548.656652,3370.820191
20894.184343,-74.020594,-9178.553681,-842.705048
20894.184676,-1480.411884,-9178.553681,919.314598
20894.185009,0.000000,-8364.327145,2451.505594
20894.185342,4663.297435,-6957.935855,4979.620737
20894.185676,6513.812290,-6587.832884,6435.202183
20894.186009,5699.585753,-7105.977043,4903.011187
20894.186342,1924.535449,-8956.491898,-229.828649
20894.186675,-740.205942,-11399.171507,-2298.286494
20894.187008,-3034.844362,-13619.789333,-4979.620737
20894.187341,-4145.153275,-13027.624579,-4979.620737
20894.187675,-5921.647536,-11325.150913,-1225.752797
20894.188008,-1554.432478,-10362.883188,-76.609550
20894.188341,-74.020594,-7105.977043,536.266849
20894.188674,4663.297435,-6513.812290,5745.716235
20894.189007,3849.070898,-6365.771101,6358.592633
20894.189340,1258.350101,-7105.977043,3983.696590
20894.189673,-222.061783,-9326.594869,1608.800546
20894.190007,-74.020594,-10881.027347,766.095498
20894.190340,4589.276840,-8068.244768,2987.772442
20894.190673,1184.329507,-8364.327145,3983.696590
20894.191006,2294.638420,-10510.924376,-3447.429741
20894.191339,-4737.318029,-11917.315666,-6741.640382
20894.191672,-5551.544565,-12435.459826,-5898.935335
20894.192005,-3034.844362,-10955.047942,-3447.429741
20894.192339,-2590.720797,-10288.862594,229.828649
20894.192672,1702.473667,-7105.977043,3983.696590
20894.193005,814.226536,-6143.709319,4903.011187
20894.193338,4367.215058,-4737.318029,6052.154434
20894.193671,3404.947333,-6513.812290,6128.763984
20894.194004,3478.967927,-9474.636058,1149.143247
20894.194337,-1776.494261,-8364.327145,-2451.505594
20894.194671,-2368.659014,-12657.521608,-1225.752797
20894.195004,518.144159,-10288.862594,-3677.258390
20894.195337,1036.288319,-11695.253884,-2451.505594
20894.195670,740.205942,-11917.315666,-1915.238745
20894.196003,-1036.288319,-13101.645173,-1838.629195
20894.196336,-4441.235652,-9548.656652,-4903.011187
20894.196670,-1258.350101,-12435.459826,-76.609550
20894.197003,1702.473667,-8882.471304,3600.648841
20894.197336,1480.411884,-3923.091493,7354.516781
20894.197669,6735.874072,-6513.812290,9116.536426
20894.198002,3701.029710,-5403.503377,6205.373534
20894.198335,3108.864956,-6291.750507,2987.772442
20894.198668,-814.226536,-9770.718434,-536.266849
20894.199002,-4441.235652,-11843.295072,-5898.935335
20894.199335,-5329.482782,-12509.480420,-6128.763984
20894.199668,-666.185348,-13027.624579,-5898.935335
20894.200001,0.000000,-9548.656652,0.000000
20894.200334,-2368.659014,-8364.327145,1225.752797
20894.200667,-74.020594,-11251.130318,-76.609550
20894.201000,-1184.329507,-8512.368333,1532.190996
20894.201334,1110.308913,-7698.141797,3524.039291
20894.201667,3182.885551,-6957.935855,5056.230287
20894.202000,3923.091493,-7254.018232,6358.592633
20894.202333,2960.823768,-5995.668130,4903.011187
20894.202666,3404.947333,-8216.285956,3600.648841
20894.202999,1406.391290,-9326.594869,-689.485948
20894.203332,-3404.947333,-10807.006753,-5132.839837
20894.203665,-5995.668130,-13323.706956,-6818.249932
20894.203998,-5921.647536,-10881.027347,-4749.792088
20894.204331,-1258.350101,-11843.295072,-689.485948
20894.204665,2294.638420,-6365.771101,0.000000
20894.204998,2368.659014,-7179.997637,4979.620737
20894.205331,4071.132681,-8290.306550,4213.525239
20894.205664,1258.350101,-7402.059420,2068.457845
20894.205997,-74.020594,-9252.574275,1838.629195
20894.206330,3182.885551,-9178.553681,-76.609550
20894.206663,0.000000,-9548.656652,306.438199
20894.206996,0.000000,-8956.491898,0.000000
20894.207329,2886.803174,-8882.471304,-2528.115143
20894.207662,0.000000,-9548.656652,0.000000
20894.207995,-1184.329507,-11621.233289,-766.095498
20894.208328,-3849.070898,-9548.656652,-3983.696590
20894.208662,-2886.803174,-10584.944971,-1991.848295
20894.208995,3330.926739,-8734.430116,3983.696590
20894.209328,5403.503377,-5773.606348,5898.935335
20894.209661,7624.121203,-6513.812290,5745.716235
20894.209994,2960.823768,-7254.018232,4519.963438
20894.210327,1702.473667,-9252.574275,-3064.381992
20894.210660,0.000000,-12657.521608,-76.609550
20894.210993,-3034.844362,-11843.295072,-4366.744339
20894.211326,-2664.741391,-10288.862594,-3064.381992
20894.211659,-2812.782580,-10658.965565,-1838.629195
20894.211992,148.041188,-6883.915261,0.000000
20894.212325,222.061783,-7254.018232,1762.019645
20894.212659,-962.267725,-6513.812290,0.000000
20894.212992,444.123565,-10362.883188,2987.772442
20894.213325,-2368.659014,-7179.997637,153.219100
20894.213658,2368.659014,-7772.162391,4979.620737
20894.213991,4663.297435,-8586.388927,3600.648841
20894.214324,5255.462188,-7402.059420,2528.115143
20894.214657,1628.453072,-9548.656652,0.000000
20894.214990,-1036.288319,-11991.336260,-3753.867940
20894.215323,-3923.091493,-12435.459826,-5209.449386
20894.215656,-5921.647536,-12657.521608,-3677.258390
20894.215989,-1258.350101,-9326.594869,-4519.963438
20894.216323,-2368.659014,-8660.409521,1455.581446
20894.216656,3478.967927,-9474.636058,3600.648841
20894.216989,592.164754,-3034.844362,4903.011187
20894.217322,2294.638420,-6217.729913,4979.620737
20894.217655,0.000000,-7179.997637,2451.505594
20894.217988,-1258.350101,-8882.471304,1072.533697
20894.218321,1110.308913,-9030.512492,-153.219100
20894.218654,2960.823768,-9548.656652,1532.190996
20894.218987,4663.297435,-10658.965565,-536.266849
20894.219320,740.205942,-10436.903782,-2911.162892
20894.219653,-2442.679609,-12805.562797,-5592.497135
20894.219986,-3108.864956,-11991.336260,-5822.325785
20894.220320,-3849.070898,-10732.986159,-3677.258390
20894.220653,-74.020594,-10658.965565,-76.609550
20894.220986,2294.638420,-6143.709319,2451.505594
20894.221319,2516.700203,-7328.038826,7584.345430
20894.221652,6439.791695,-4737.318029,6665.030833
20894.221985,1924.535449,-6291.750507,6128.763984
20894.222318,3775.050304,-6365.771101,2604.724693
20894.222651,-1924.535449,-10732.986159,229.828649
20894.222984,-2368.659014,-10732.986159,-4596.572988
20894.223317,296.082377,-11399.171507,-1608.800546
20894.223650,1110.308913,-11843.295072,-3753.867940
20894.223984,0.000000,-10140.821405,-4290.134789
20894.224317,-3552.988522,-11917.315666,-2374.896044
20894.224650,-2442.679609,-11251.130318,-4443.353888
20894.224983,-1776.494261,-10140.821405,1455.581446
20894.225316,2960.823768,-6661.853478,4979.620737
20894.225649,4737.318029,-6365.771101,7814.174080
20894.225982,5181.441594,-6661.853478,7354.516781
20894.226315,5255.462188,-5773.606348,5745.716235
20894.226648,2294.638420,-5921.647536,0.000000
20894.226981,-1184.329507,-8956.491898,-612.876398
20894.227314,-4145.153275,-12065.356855,-3753.867940
20894.227647,-4811.338623,-11843.295072,-8044.002729
20894.227981,-2146.597232,-12953.603985,-4979.620737
20894.228314,0.000000,-10881.027347,-1762.019645
20894.228647,740.205942,-9622.677246,153.219100
20894.228980,1776.494261,-9178.553681,2068.457845
20894.229313,1184.329507,-6587.832884,3217.601092
20894.229646,592.164754,-7179.997637,2451.505594
20894.229979,4367.215058,-10658.965565,5745.716235
20894.230312,962.267725,-6883.915261,2451.505594
20894.230645,740.205942,-6291.750507,2451.505594
20894.230978,1110.308913,-9474.636058,-76.609550
20894.231311,-1924.535449,-9400.615463,-2298.286494
20894.231645,-3997.112087,-9548.656652,-4290.134789
20894.231978,-4663.297435,-10807.006753,-3600.648841
20894.232311,-4145.153275,-8364.327145,-3524.039291
20894.232644,148.041188,-11177.109724,2528.115143
20894.232977,4663.297435,-8142.265362,5132.839837
20894.233310,5033.400406,-6883.915261,5745.716235
20894.233643,5107.421000,-8882.471304,4826.401637
20894.233976,3478.967927,-11547.212695,2374.896044
20894.234309,0.000000,-8364.327145,0.000000
20894.234642,-370.102971,-11843.295072,-76.609550
20894.234975,-74.020594,-11251.130318,-2528.115143
20894.235308,-1776.494261,-10807.006753,-1532.190996
20894.235642,-2146.597232,-10658.965565,-689.485948
20894.235975,0.000000,-6439.791695,-383.047749
20894.236308,-962.267725,-8512.368333,0.000000
20894.236641,1110.308913,-7105.977043,536.266849
20894.236974,-2368.659014,-8956.491898,3830.477490
20894.237307,1406.391290,-4811.338623,612.876398
20894.237640,4737.318029,-10362.883188,4826.401637
20894.237973,3478.967927,-9474.636058,1149.143247
20894.238306,3923.091493,-8290.306550,842.705048
20894.238639,-666.185348,-12731.542202,-2834.553343
20894.238972,-1924.535449,-11843.295072,-4213.525239
20894.239306,-4367.215058,-11695.253884,-4136.915689
20894.239639,-1110.308913,-9992.780217,-1225.752797
20894.239972,2886.803174,-9474.636058,2068.457845
20894.240305,888.247130,-7920.203579,2451.505594
20894.240638,3627.009116,-7105.977043,4213.525239
20894.240971,444.123565,-6291.750507,3064.381992
20894.241304,592.164754,-6143.709319,1225.752797
20894.241637,814.226536,-8216.285956,-919.314598
20894.241970,2886.803174,-11251.130318,0.000000
20894.242303,4071.132681,-10955.047942,1455.581446
20894.242636,2886.803174,-11843.295072,1225.752797
20894.242969,-666.185348,-10807.006753,-1915.238745
20894.243303,-3552.988522,-11399.171507,-1608.800546
20894.243636,-4737.318029,-10881.027347,-1608.800546
20894.243969,-3330.926739,-6587.832884,-3677.258390
20894.244302,-2368.659014,-6735.874072,1838.629195
20894.244635,-888.247130,-5995.668130,2834.553343
20894.244968,3478.967927,-5625.565159,5515.887586
20894.245301,3034.844362,-6291.750507,5056.230287
20894.245634,1998.556043,-7994.224174,2528.115143
20894.245967,-2072.576638,-9548.656652,0.000000
20894.246300,-74.020594,-14211.954086,-2528.115143
20894.246633,0.000000,-11325.150913,0.000000
20894.246966,0.000000,-10732.986159,1225.752797
20894.247300,4441.235652,-11251.130318,2911.162892
20894.247633,0.000000,-9992.780217,76.609550
20894.247966,370.102971,-10066.800811,-76.609550
20894.248299,-1998.556043,-8882.471304,-1762.019645
20894.248632,-2516.700203,-8512.368333,-1838.629195
20894.248965,-2368.659014,-4811.338623,0.000000
20894.249298,2220.617826,-6439.791695,3600.648841
20894.249631,2442.679609,-6291.750507,3677.258390
20894.249964,740.205942,-7920.203579,2221.676944
20894.250297,1702.473667,-9474.636058,-76.609550
20894.250630,-2146.597232,-9696.697840,-1838.629195
20894.250964,-2072.576638,-11177.109724,0.000000
20894.251297,-666.185348,-10658.965565,-3140.991542
20894.251630,0.000000,-8956.491898,0.000000
20894.251963,2072.576638,-9696.697840,3600.648841
20894.252296,1036.288319,-7698.141797,229.828649
20894.252629,-1258.350101,-9474.636058,-1608.800546
20894.252962,-1036.288319,-8512.368333,-2221.676944
20894.253295,0.000000,-8734.430116,-1685.410096
20894.253628,1702.473667,-5995.668130,0.000000
20894.253961,6291.750507,-9474.636058,3600.648841
20894.254294,3108.864956,-6291.750507,2221.676944
20894.254627,2368.659014,-8364.327145,3983.696590
20894.254961,2146.597232,-11251.130318,-76.609550
20894.255294,-1924.535449,-10214.842000,-1991.848295
20894.255627,-4885.359217,-10658.965565,-4213.525239
20894.255960,-4885.359217,-10066.800811,-4443.353888
20894.256293,-2368.659014,-10436.903782,-1225.752797
20894.256626,1480.411884,-5995.668130,0.000000
20894.256959,5255.462188,-8290.306550,4826.401637
20894.257292,2960.823768,-6143.709319,2451.505594
20894.257625,1776.494261,-7772.162391,3064.381992
20894.257958,2960.823768,-9548.656652,76.609550
20894.258291,2368.659014,-10658.965565,1762.019645
20894.258625,1628.453072,-10140.821405,229.828649
20894.258958,-222.061783,-12139.377449,-919.314598
20894.259291,-74.020594,-10658.965565,-1915.238745
20894.259624,-2368.659014,-9548.656652,-689.485948
20894.259957,-666.185348,-9474.636058,-2528.115143
20894.260290,-4737.318029,-8364.327145,-2298.286494
20894.260623,-3330.926739,-9474.636058,-1302.362347
20894.260956,1110.308913,-8586.388927,4366.744339
20894.261289,5255.462188,-4959.379811,6665.030833
20894.261622,7328.038826,-5625.565159,7584.345430
20894.261955,2960.823768,-7105.977043,3677.258390
20894.262288,148.041188,-7476.080014,0.000000
20894.262622,-1406.391290,-13027.624579,-2834.553343
20894.262955,-5921.647536,-11325.150913,-6741.640382
20894.263288,-5921.647536,-13101.645173,-4136.915689
20894.263621,-3034.844362,-13027.624579,-4673.182538
20894.263954,-1850.514855,-8956.491898,-612.876398
20894.264287,-1258.350101,-7846.182985,229.828649
20894.264620,814.226536,-6291.750507,2604.724693
20894.264953,1036.288319,-6809.894666,5439.278036
20894.265286,1332.370696,-4071.132681,3677.258390
20894.265619,3182.885551,-8586.388927,4826.401637
20894.265952,5033.400406,-7550.100608,5132.839837
20894.266286,5625.565159,-7476.080014,3830.477490
20894.266619,2294.638420,-9844.739029,-766.095498
20894.266952,-666.185348,-11547.212695,-5898.935335
20894.267285,-5847.626942,-14211.954086,-7431.126331
20894.267618,-4811.338623,-12731.542202,-9499.584175
20894.267951,-4737.318029,-11029.068536,-2757.943793
20894.268284,-1184.329507,-10436.903782,2145.067394
20894.268617,3182.885551,-5921.647536,3907.087040
20894.268950,4737.318029,-6217.729913,8044.002729
20894.269283,5403.503377,-3627.009116,6741.640382
20894.269616,2812.782580,-5181.441594,4673.182538
20894.269949,0.000000,-7179.997637,0.000000
20894.270283,2294.638420,-11251.130318,-76.609550
20894.270616,1184.329507,-8586.388927,-1991.848295
20894.270949,592.164754,-10732.986159,536.266849
20894.271282,-370.102971,-12731.542202,-3140.991542
20894.271615,-3849.070898,-11917.315666,-5822.325785
20894.271948,-2812.782580,-12953.603985,-3140.991542
20894.272281,-2368.659014,-10214.842000,-2068.457845
20894.272614,-2664.741391,-10214.842000,536.266849
20894.272947,1776.494261,-7179.997637,5515.887586
20894.273280,7031.956449,-8290.306550,6971.469032
20894.273613,3849.070898,-3182.885551,6741.640382
20894.273947,4737.318029,-7994.224174,7277.907231
20894.274280,1406.391290,-6365.771101,0.000000
20894.274613,-2960.823768,-11473.192101,-229.828649
20894.274946,-2146.597232,-10436.903782,-4060.306139
20894.275279,-1258.350101,-12287.418637,-3294.210641
20894.275612,-888.247130,-11103.089130,-2834.553343
20894.275945,-74.020594,-10955.047942,-1915.238745
20894.276278,-2294.638420,-9622.677246,-3983.696590
20894.276611,-3552.988522,-10140.821405,-612.876398
20894.276944,-74.020594,-9178.553681,1762.019645
20894.277277,1110.308913,-5995.668130,0.000000
20894.277610,4145.153275,-7402.059420,6971.469032
20894.277944,2812.782580,-7105.977043,5822.325785
20894.278277,2960.823768,-4811.338623,3907.087040
20894.278610,1258.350101,-8586.388927,2068.457845
20894.278943,-74.020594,-8290.306550,-2528.115143
20894.279276,-5921.647536,-11769.274478,-5439.278036
20894.279609,-6883.915261,-12361.439231,-5898.935335
20894.279942,-2960.823768,-11029.068536,-2911.162892
20894.280275,-2368.659014,-10732.986159,0.000000
20894.280608,1184.329507,-6587.832884,3370.820191
20894.280941,1554.432478,-9474.636058,2987.772442
20894.281274,1406.391290,-5921.647536,1762.019645
20894.281607,0.000000,-7179.997637,2451.505594
20894.281941,592.164754,-6587.832884,1838.629195
20894.282274,2960.823768,-7179.997637,3907.087040
20894.282607,1628.453072,-8660.409521,1991.848295
20894.282940,2368.659014,-9104.533087,306.438199
20894.283273,-74.020594,-10658.965565,-766.095498
20894.283606,0.000000,-7920.203579,-2528.115143
20894.283939,-1258.350101,-9474.636058,-6741.640382
20894.284272,-4145.153275,-11029.068536,-2757.943793
20894.284605,-2368.659014,-9548.656652,-612.876398
20894.284938,4071.132681,-11547.212695,4060.306139
20894.285271,6735.874072,-7105.977043,5822.325785
20894.285605,5329.482782,-5773.606348,4596.572988
20894.285938,3997.112087,-9474.636058,2911.162892
20894.286271,3182.885551,-7105.977043,-76.609550
20894.286604,0.000000,-9548.656652,612.876398
20894.286937,296.082377,-7179.997637,-4290.134789
20894.287270,1480.411884,-13619.789333,-689.485948
20894.287603,-1036.288319,-9548.656652,-2451.505594
20894.287936,1110.308913,-10066.800811,-1302.362347
20894.288269,-74.020594,-9474.636058,-1608.800546
20894.288602,-2220.617826,-9622.677246,-1762.019645
20894.288935,-2368.659014,-9326.594869,229.828649
20894.289268,1110.308913,-8512.368333,2528.115143
20894.289602,4663.297435,-10658.965565,7277.907231
20894.289935,4145.153275,-5403.503377,7354.516781
20894.290268,6069.688724,-9104.533087,7277.907231
20894.290601,740.205942,-6587.832884,612.876398
20894.290934,-4145.153275,-9548.656652,-4596.572988
20894.291267,-3923.091493,-9992.780217,-6128.763984
20894.291600,-5403.503377,-11843.295072,-5056.230287
20894.291933,-3330.926739,-11843.295072,-2681.334243
20894.292266,-3404.947333,-9548.656652,-766.095498
20894.292599,-2146.597232,-7550.100608,-2221.676944
20894.292932,0.000000,-6735.874072,4826.401637
20894.293266,-74.020594,-7105.977043,2068.457845
20894.293599,0.000000,-3627.009116,3677.258390
20894.293932,-2368.659014,-9548.656652,4290.134789
20894.294265,3478.967927,-4811.338623,1225.752797
20894.294598,2220.617826,-11177.109724,4060.306139
20894.294931,1924.535449,-7624.121203,-689.485948
20894.295264,-592.164754,-10584.944971,-3447.429741
20894.295597,-6587.832884,-12583.501014,-8580.269578
20894.295930,-3330.926739,-11103.089130,-5898.935335
20894.296263,-6957.935855,-11547.212695,-3677.258390
20894.296596,1406.391290,-9178.553681,1302.362347
20894.296929,2664.741391,-8808.450710,8120.612279
20894.297263,4663.297435,-6513.812290,6052.154434
20894.297596,2664.741391,-2442.679609,3677.258390
20894.297929,0.000000,-10140.821405,4826.401637
20894.298262,2146.597232,-6513.812290,0.000000
20894.298595,-2960.823768,-9548.656652,0.000000
20894.298928,1702.473667,-10436.903782,-2451.505594
20894.299261,592.164754,-10214.842000,-2221.676944
20894.299594,-740.205942,-10140.821405,-2757.943793
20894.299927,-74.020594,-10362.883188,-2681.334243
20894.300260,-666.185348,-11843.295072,-4366.744339
20894.300593,-2368.659014,-9844.739029,-995.924147
20894.300927,2368.659014,-10214.842000,3600.648841
20894.301260,4071.132681,-8142.265362,5056.230287
20894.301593,5477.523971,-7698.141797,8503.660028
20894.301926,5107.421000,-7624.121203,5669.106685
20894.302259,4367.215058,-5995.668130,3524.039291
20894.302592,1110.308913,-8882.471304,229.828649
20894.302925,-1184.329507,-7920.203579,-4290.134789
20894.303258,-2442.679609,-10732.986159,-8656.879127
20894.303591,0.000000,-13841.851115,-1302.362347
20894.303924,2294.638420,-10955.047942,-383.047749
20894.304257,1110.308913,-9548.656652,0.000000
20894.304590,888.247130,-8290.306550,-76.609550
20894.304924,888.247130,-9622.677246,1838.629195
20894.305257,962.267725,-8438.347739,2834.553343
20894.305590,0.000000,-6439.791695,2681.334243
20894.305923,592.164754,-9548.656652,4903.011187
20894.306256,1258.350101,-5699.585753,3064.381992
20894.306589,2368.659014,-9252.574275,6052.154434
20894.306922,-1776.494261,-7328.038826,0.000000
20894.307255,-3627.009116,-7698.141797,-6205.373534
20894.307588,-7105.977043,-11917.315666,-3677.258390
20894.307922,-3627.009116,-10066.800811,-4979.620737
20894.308255,-4367.215058,-10584.944971,-3370.820191
20894.308588,-592.164754,-9474.636058,1762.019645
20894.308921,2294.638420,-7105.977043,2987.772442
20894.309254,2960.823768,-9474.636058,5745.716235
20894.309587,1924.535449,-4811.338623,1225.752797
20894.309920,-3552.988522,-10732.986159,2604.724693
20894.310253,-74.020594,-7994.224174,-1762.019645
20894.310586,-2960.823768,-11473.192101,0.000000
20894.310920,814.226536,-9770.718434,-1302.362347
20894.311253,-1110.308913,-8882.471304,-919.314598
20894.311586,-1258.350101,-9400.615463,-1225.752797
20894.311919,814.226536,-6513.812290,-1532.190996
20894.312252,-1332.370696,-9474.636058,-1302.362347
20894.312585,-1554.432478,-8586.388927,-2068.457845
20894.312918,-1110.308913,-8956.491898,153.219100
20894.313251,4441.235652,-7994.224174,2451.505594
20894.313584,7624.121203,-9474.636058,4213.525239
20894.313918,6661.853478,-9548.656652,7277.907231
20894.314251,7624.121203,-8290.306550,-76.609550
20894.314584,2368.659014,-10436.903782,1149.143247
20894.314917,1480.411884,-11917.315666,-3064.381992
20894.315250,1110.308913,-10658.965565,-3753.867940
20894.315583,888.247130,-11695.253884,-1302.362347
20894.315916,2886.803174,-9548.656652,842.705048
20894.316249,1110.308913,-7846.182985,1378.971896
20894.316582,2368.659014,-4811.338623,153.219100
20894.316916,3404.947333,-8290.306550,4213.525239
20894.317249,444.123565,-8290.306550,1455.581446
20894.317582,0.000000,-7179.997637,1838.629195
20894.317915,4367.215058,-11843.295072,3600.648841
20894.318248,3330.926739,-7179.997637,2451.505594
20894.318581,1776.494261,-8586.388927,1149.143247
20894.318914,-296.082377,-11917.315666,-2451.505594
20894.319247,-4219.173869,-11251.130318,-5745.716235
20894.319580,-5921.647536,-11917.315666,-5515.887586
20894.319914,-2516.700203,-14211.954086,-3140.991542
20894.320247,-3997.112087,-9548.656652,0.000000
20894.320580,-3552.988522,-7772.162391,4903.011187
20894.320913,2886.803174,-6513.812290,5439.278036
20894.321246,3552.988522,-4219.173869,8273.831378
20894.321579,1332.370696,-6143.709319,3600.648841
20894.321912,-814.226536,-7624.121203,1455.581446
20894.322245,-5181.441594,-11769.274478,-2221.676944
20894.322578,-1850.514855,-10658.965565,-1302.362347
20894.322912,-3034.844362,-14211.954086,-2528.115143
20894.323245,-3552.988522,-8364.327145,-1302.362347
20894.323578,-3330.926739,-11547.212695,-3140.991542
20894.323911,-4219.173869,-8882.471304,-6511.811733
20894.324244,-4737.318029,-8808.450710,-612.876398
20894.324577,-4663.297435,-9770.718434,-229.828649
20894.324910,1924.535449,-6661.853478,4443.353888
20894.325243,1850.514855,-7476.080014,7124.688131
20894.325576,6735.874072,-5921.647536,7277.907231
20894.325910,3182.885551,-6957.935855,4519.963438
20894.326243,4071.132681,-7105.977043,1072.533697
20894.326576,148.041188,-10436.903782,-995.924147
20894.326909,-3997.112087,-9548.656652,-4903.011187
20894.327242,-2960.823768,-10288.862594,-4290.134789
20894.327575,-74.020594,-14211.954086,-1302.362347
20894.327908,1628.453072,-8882.471304,-1302.362347
20894.328241,-444.123565,-8068.244768,-919.314598
20894.328574,1184.329507,-7846.182985,306.438199
20894.328908,0.000000,-7476.080014,1838.629195
20894.329241,2294.638420,-6957.935855,1915.238745
20894.329574,2886.803174,-6883.915261,2834.553343
20894.329907,2960.823768,-9252.574275,4903.011187
20894.330240,5847.626942,-6069.688724,3677.258390
20894.330573,5847.626942,-9178.553681,1149.143247
20894.330906,1184.329507,-8956.491898,-1072.533697
20894.331239,-2368.659014,-11325.150913,-2834.553343
20894.331572,-3552.988522,-12657.521608,-5822.325785
20894.331906,74.020594,-12361.439231,-1915.238745
20894.332239,1406.391290,-9844.739029,0.000000
20894.332572,4441.235652,-8512.368333,1838.629195
20894.332905,4293.194464,-8290.306550,2987.772442
20894.333238,2960.823768,-7772.162391,2451.505594
20894.333571,1998.556043,-6587.832884,0.000000
20894.333904,0.000000,-11325.150913,2681.334243
20894.334237,518.144159,-7920.203579,229.828649
20894.334570,1110.308913,-10066.800811,2681.334243
20894.334904,1110.308913,-9474.636058,2068.457845
20894.335237,-1776.494261,-6661.853478,-383.047749
20894.335570,-4737.318029,-10658.965565,-2298.286494
20894.335903,-6069.688724,-8512.368333,-4290.134789
20894.336236,-6883.915261,-11843.295072,-1915.238745
20894.336569,-7105.977043,-7179.997637,-1838.629195
20894.336902,0.000000,-7179.997637,6281.983084
20894.337235,3478.967927,-7031.956449,3830.477490
20894.337568,2960.823768,-3627.009116,4290.134789
20894.337902,2886.803174,-8586.388927,1149.143247
20894.338235,1258.350101,-9030.512492,153.219100
20894.338568,-1406.391290,-11103.089130,-1762.019645
20894.338901,-2368.659014,-13175.665768,-2834.553343
20894.339234,-1258.350101,-10658.965565,-3753.867940
20894.339567,-3552.988522,-11325.150913,1455.581446
20894.339900,2294.638420,-7105.977043,2374.896044
20894.340233,-74.020594,-7105.977043,842.705048
20894.340566,-2960.823768,-3627.009116,0.000000
20894.340900,-1850.514855,-7105.977043,995.924147
20894.341233,-1184.329507,-7105.977043,1762.019645
20894.341566,4663.297435,-6587.832884,2911.162892
20894.341899,6069.688724,-8364.327145,4519.963438
20894.342232,7031.956449,-7698.141797,1455.581446
20894.342565,1924.535449,-9696.697840,-1915.238745
20894.342898,-1258.350101,-12065.356855,-7048.078582
20894.343231,-592.164754,-12953.603985,-6894.859482
20894.343564,0.000000,-12805.562797,-2451.505594
20894.343898,2294.638420,-12731.542202,-1608.800546
20894.344231,740.205942,-8438.347739,383.047749
20894.344564,1184.329507,-7179.997637,4903.011187
20894.344897,5699.585753,-6513.812290,5898.935335
20894.345230,3330.926739,-5107.421000,6128.763984
20894.345563,2738.761985,-7105.977043,3600.648841
20894.345896,222.061783,-8734.430116,1455.581446
20894.346229,1850.514855,-7920.203579,1838.629195
20894.346562,5847.626942,-10066.800811,3600.648841
20894.346896,4071.132681,-9474.636058,-229.828649
20894.347229,-2368.659014,-11769.274478,-3753.867940
20894.347562,-5921.647536,-12805.562797,-5592.497135
20894.347895,-5107.421000,-11843.295072,-8350.440928
20894.348228,-4737.318029,-11917.315666,-1608.800546
20894.348561,-1702.473667,-10288.862594,1225.752797
20894.348894,2294.638420,-8290.306550,5592.497135
20894.349227,3108.864956,-6661.853478,8197.221829
20894.349560,2442.679609,-3849.070898,6665.030833
20894.349894,3775.050304,-5181.441594,2987.772442
20894.350227,1776.494261,-6143.709319,5286.058936
20894.350560,1110.308913,-9474.636058,842.705048
20894.350893,-1554.432478,-9548.656652,-3064.381992
20894.351226,-1406.391290,-12435.459826,-2528.115143
20894.351559,-3034.844362,-11325.150913,-4826.401637
20894.351892,-3775.050304,-11769.274478,-5056.230287
20894.352225,-4811.338623,-11843.295072,-5286.058936
20894.352559,-8290.306550,-10140.821405,-6128.763984
20894.352892,-2738.761985,-7179.997637,-2145.067394
20894.353225,0.000000,-8660.409521,7277.907231
20894.353558,6735.874072,-5329.482782,7584.345430
20894.353891,3552.988522,-5403.503377,6741.640382
20894.354224,2960.823768,-4811.338623,6205.373534
20894.354557,2886.803174,-6143.709319,2221.676944
20894.354890,-1776.494261,-10214.842000,-2987.772442
20894.355223,-2960.823768,-11029.068536,-5822.325785
20894.355557,-3034.844362,-15100.201217,-3140.991542
20894.355890,-2368.659014,-11917.315666,-1685.410096
20894.356223,-74.020594,-10658.965565,-1991.848295
20894.356556,-74.020594,-8364.327145,-3064.381992
20894.356889,2368.659014,-9918.759623,3600.648841
20894.357222,296.082377,-7476.080014,3140.991542
20894.357555,2960.823768,-5551.544565,3753.867940
20894.357888,0.000000,-7772.162391,4290.134789
20894.358221,2294.638420,-6291.750507,3600.648841
20894.358555,2886.803174,-9178.553681,3600.648841
20894.358888,-1776.494261,-7920.203579,0.000000
20894.359221,-740.205942,-7105.977043,-3753.867940
20894.359554,-3552.988522,-10732.986159,-3447.429741
20894.359887,-1702.473667,-9696.697840,-4749.792088
20894.360220,-1258.350101,-14211.954086,-1225.752797
20894.360553,1776.494261,-7772.162391,0.000000
20894.360886,5329.482782,-10510.924376,6052.154434
20894.361219,6439.791695,-7994.224174,4366.744339
20894.361553,4219.173869,-6439.791695,612.876398
20894.361886,4293.194464,-11547.212695,2068.457845
20894.362219,2368.659014,-9252.574275,229.828649
20894.362552,1110.308913,-9622.677246,-1378.971896
20894.362885,-444.123565,-10584.944971,-1762.019645
20894.363218,814.226536,-9474.636058,-2528.115143
20894.363551,-2368.659014,-9548.656652,153.219100
20894.363884,-74.020594,-9474.636058,-689.485948
20894.364217,-4219.173869,-8364.327145,-2451.505594
20894.364551,-5921.647536,-8364.327145,0.000000
20894.364884,-1554.432478,-8882.471304,1149.143247
20894.365217,1480.411884,-8364.327145,6665.030833
20894.365550,4293.194464,-5255.462188,6205.373534
20894.365883,3478.967927,-6809.894666,4519.963438
20894.366216,296.082377,-6587.832884,0.000000
20894.366549,-1184.329507,-11695.253884,-76.609550
20894.366882,-4219.173869,-12435.459826,-6511.811733
20894.367215,-4959.379811,-9548.656652,-7967.393179
20894.367549,-1850.514855,-15396.283594,-2528.115143
20894.367882,-888.247130,-9548.656652,0.000000
20894.368215,592.164754,-7476.080014,3370.820191
20894.368548,2368.659014,-6291.750507,3830.477490
20894.368881,2886.803174,-5699.585753,5209.449386
20894.369214,0.000000,-6143.709319,4903.011187
20894.369547,2294.638420,-9474.636058,4826.401637
20894.369880,1702.473667,-6661.853478,1225.752797
20894.370213,3256.906145,-9474.636058,4826.401637
20894.370547,7031.956449,-9474.636058,-76.609550
20894.370880,0.000000,-9548.656652,-3370.820191
20894.371213,-666.185348,-11473.192101,-7431.126331
20894.371546,-3997.112087,-13693.809927,-6665.030833
20894.371879,-2442.679609,-12065.356855,-6052.154434
20894.372212,0.000000,-11325.150913,-1838.629195
20894.372545,1998.556043,-9548.656652,2451.505594
20894.372878,6513.812290,-7920.203579,7277.907231
20894.373211,6439.791695,-4145.153275,7584.345430
20894.373545,5847.626942,-5921.647536,3600.648841
20894.373878,740.205942,-5995.668130,1225.752797
20894.374211,592.164754,-9474.636058,1991.848295
20894.374544,-1776.494261,-9548.656652,-2451.505594
20894.374877,1184.329507,-12213.398043,1149.143247
20894.375210,-74.020594,-10066.800811,-1915.238745
20894.375543,-3256.906145,-11917.315666,-4519.963438
20894.375876,-2072.576638,-10066.800811,-4596.572988
20894.376209,-5625.565159,-11621.233289,-4596.572988
20894.376543,-4737.318029,-8364.327145,-3677.258390
20894.376876,-74.020594,-8660.409521,0.000000
20894.377209,2072.576638,-9474.636058,6665.030833
20894.377542,3478.967927,-5921.647536,6435.202183
20894.377875,1406.391290,-4811.338623,4903.011187
20894.378208,1776.494261,-4811.338623,2145.067394
20894.378541,-1554.432478,-8364.327145,-383.047749
20894.378874,-2072.576638,-11843.295072,-3140.991542
20894.379207,-4885.359217,-11917.315666,-2987.772442
20894.379541,-74.020594,-11843.295072,-76.609550
20894.379874,0.000000,-8956.491898,0.000000
20894.380207,-74.020594,-10658.965565,-76.609550
20894.380540,-666.185348,-8660.409521,-2451.505594
20894.380873,-4145.153275,-10807.006753,0.000000
20894.381206,222.061783,-9030.512492,383.047749
20894.381539,-1332.370696,-9030.512492,1455.581446
20894.381872,2368.659014,-7328.038826,3677.258390
20894.382205,2886.803174,-7476.080014,3753.867940
20894.382539,2294.638420,-8290.306550,2987.772442
20894.382872,0.000000,-5107.421000,1838.629195
20894.383205,-2442.679609,-8956.491898,-3600.648841
20894.383538,-2146.597232,-7772.162391,-4290.134789
20894.383871,-666.185348,-13027.624579,-2528.115143
20894.384204,2294.638420,-10066.800811,536.266849
20894.384537,3330.926739,-9030.512492,2068.457845
20894.384870,2812.782580,-8142.265362,995.924147
20894.385203,3108.864956,-8438.347739,689.485948
20894.385537,666.185348,-10658.965565,-689.485948
20894.385870,3034.844362,-10362.883188,-76.609550
20894.386203,-2960.823768,-9548.656652,0.000000
20894.386536,3034.844362,-10066.800811,3600.648841
20894.386869,1702.473667,-8512.368333,0.000000
20894.387202,1110.308913,-8142.265362,1149.143247
20894.387535,2294.638420,-7550.100608,-76.609550
20894.387868,-1776.494261,-8438.347739,-1608.800546
20894.388201,-2368.659014,-8660.409521,-1991.848295
20894.388535,-3478.967927,-9400.615463,-1838.629195
20894.388868,3108.864956,-11103.089130,2374.896044
20894.389201,4145.153275,-8142.265362,4596.572988
20894.389534,3404.947333,-8956.491898,3294.210641
20894.389867,3330.926739,-8808.450710,1455.581446
20894.390200,0.000000,-9844.739029,0.000000
20894.390533,-592.164754,-12435.459826,-1302.362347
20894.390866,-4515.256246,-13027.624579,-3753.867940
20894.391199,-4071.132681,-10140.821405,-2451.505594
20894.391533,-74.020594,-9474.636058,1149.143247
20894.391866,-74.020594,-6809.894666,0.000000
20894.392199,-74.020594,-5773.606348,1149.143247
20894.392532,-3404.947333,-7550.100608,306.438199
20894.392865,-2368.659014,-7698.141797,-536.266849
20894.393198,-1480.411884,-10288.862594,3447.429741
20894.393531,1998.556043,-11843.295072,2374.896044
20894.393864,3552.988522,-5995.668130,4903.011187
20894.394197,1480.411884,-7772.162391,4596.572988
20894.394531,4663.297435,-9474.636058,-919.314598
20894.394864,0.000000,-9548.656652,-2757.943793
20894.395197,-3404.947333,-13101.645173,-6128.763984
20894.395530,-2442.679609,-10881.027347,-5209.449386
20894.395863,-814.226536,-11843.295072,-1915.238745
20894.396196,1110.308913,-9770.718434,1455.581446
20894.396529,3775.050304,-5477.523971,2221.676944
20894.396862,4737.318029,-8290.306550,8503.660028
20894.397195,4367.215058,-3182.885551,4903.011187
20894.397529,0.000000,-4811.338623,2451.505594
20894.397862,0.000000,-7476.080014,842.705048
20894.398195,814.226536,-8882.471304,383.047749
20894.398528,2812.782580,-9474.636058,-76.609550
20894.398861,2146.597232,-10732.986159,0.000000
20894.399194,888.247130,-11251.130318,-2757.943793
20894.399527,-2812.782580,-10732.986159,-5515.887586
20894.399860,-1554.432478,-15396.283594,-3753.867940
20894.400193,-1554.432478,-8956.491898,-6128.763984
20894.400527,740.205942,-10658.965565,1532.190996
20894.400860,6513.812290,-8808.450710,5515.887586
20894.401193,6809.894666,-6661.853478,9269.755526
20894.401526,4737.318029,-5995.668130,7354.516781
20894.401859,4367.215058,-6439.791695,3140.991542
20894.402192,1110.308913,-8290.306550,-842.705048
20894.402525,-888.247130,-12435.459826,-1302.362347
20894.402858,-3330.926739,-10140.821405,-4749.792088
20894.403191,-4737.318029,-9844.739029,-4290.134789
20894.403525,-666.185348,-12435.459826,-2528.115143
20894.403858,-2442.679609,-11547.212695,-3370.820191
20894.404191,-2812.782580,-9770.718434,-3217.601092
20894.404524,-4811.338623,-11029.068536,-2451.505594
20894.404857,-2220.617826,-7772.162391,766.095498
20894.405190,0.000000,-7254.018232,4366.744339
20894.405523,4367.215058,-6661.853478,6511.811733
20894.405856,3701.029710,-7105.977043,7354.516781
20894.406189,2146.597232,-6661.853478,3600.648841
20894.406522,1184.329507,-8216.285956,766.095498
20894.406855,-6883.915261,-11103.089130,-4903.011187
20894.407188,-6217.729913,-10658.965565,-4366.744339
20894.407521,-7105.977043,-11917.315666,-3370.820191
20894.407854,2294.638420,-8882.471304,536.266849
20894.408187,2294.638420,-9252.574275,2451.505594
20894.408520,0.000000,-4811.338623,2604.724693
20894.408853,2886.803174,-9474.636058,2374.896044
20894.409186,-74.020594,-10066.800811,229.828649
20894.409519,0.000000,-8956.491898,0.000000
20894.409852,1184.329507,-8956.491898,2451.505594
20894.410185,1406.391290,-5995.668130,0.000000
20894.410518,5551.544565,-9474.636058,3600.648841
20894.410851,2590.720797,-5699.585753,0.000000
20894.411184,0.000000,-8364.327145,-1149.143247
20894.411517,-2072.576638,-9548.656652,-2145.067394
20894.411850,-3849.070898,-10732.986159,-4903.011187
20894.412183,-1850.514855,-10362.883188,-2451.505594
20894.412516,2072.576638,-8808.450710,1302.362347
20894.412849,8216.285956,-9474.636058,7584.345430
20894.413182,7031.956449,-6513.812290,3600.648841
20894.413515,4737.318029,-8660.409521,5439.278036
20894.413848,3182.885551,-9474.636058,-1302.362347
20894.414181,-1776.494261,-11325.150913,-306.438199
20894.414515,-74.020594,-11843.295072,-2834.553343
20894.414848,-2368.659014,-12065.356855,-2681.334243
20894.415181,-2072.576638,-10807.006753,-2451.505594
20894.415514,-1702.473667,-9474.636058,-919.314598
20894.415847,-1554.432478,-5995.668130,-2221.676944
20894.416180,-3404.947333,-7179.997637,-3677.258390
20894.416513,-2072.576638,-9178.553681,2374.896044
20894.416846,-74.020594,-6365.771101,1302.362347
20894.417179,1184.329507,-7179.997637,4903.011187
20894.417512,6587.832884,-9474.636058,6052.154434
20894.417845,4145.153275,-8438.347739,3907.087040
20894.418178,2368.659014,-8956.491898,76.609550
20894.418511,-444.123565,-10732.986159,-4060.306139
20894.418844,-5033.400406,-13619.789333,-6511.811733
20894.419177,-5773.606348,-12435.459826,-5592.497135
20894.419510,-4811.338623,-11843.295072,-2681.334243
20894.419843,-2664.741391,-9696.697840,153.219100
20894.420176,0.000000,-7402.059420,5056.230287
20894.420509,2960.823768,-5403.503377,7277.907231
20894.420842,1998.556043,-3552.988522,3677.258390
20894.421175,-1776.494261,-5107.421000,0.000000
20894.421508,-2368.659014,-9770.718434,1532.190996
20894.421841,592.164754,-8364.327145,1532.190996
20894.422174,1184.329507,-10510.924376,1762.019645
20894.422507,2886.803174,-7920.203579,0.000000
20894.422840,-222.061783,-11177.109724,-2068.457845
20894.423173,-1554.432478,-13027.624579,-4979.620737
20894.423506,-4737.318029,-11029.068536,-3370.820191
20894.423839,-2738.761985,-10807.006753,-4903.011187
20894.424172,0.000000,-8660.409521,1072.533697
20894.424505,4515.256246,-11251.130318,6052.154434
20894.424838,5847.626942,-5921.647536,6971.469032
20894.425171,8438.347739,-4737.318029,8503.660028
20894.425504,4737.318029,-6291.750507,5132.839837
20894.425837,4071.132681,-7698.141797,1915.238745
20894.426170,74.020594,-9548.656652,-1225.752797
20894.426503,1628.453072,-11621.233289,-1302.362347
20894.426836,0.000000,-10140.821405,-4903.011187
20894.427169,1776.494261,-12657.521608,-1915.238745
20894.427502,3182.885551,-11103.089130,-3064.381992
20894.427835,1332.370696,-8660.409521,-4903.011187
20894.428168,2146.597232,-12139.377449,-3447.429741
20894.428501,1628.453072,-11695.253884,306.438199
20894.428834,3034.844362,-9474.636058,3600.648841
20894.429167,6143.709319,-6069.688724,6818.249932
20894.429500,5847.626942,-9474.636058,6665.030833
20894.429833,4737.318029,-5699.585753,8120.612279
20894.430166,4663.297435,-9474.636058,4826.401637
20894.430499,-74.020594,-6587.832884,-2451.505594
20894.430832,-4737.318029,-10140.821405,-4290.134789
20894.431165,-5773.606348,-11917.315666,-6205.373534
20894.431498,-2664.741391,-10584.944971,-4519.963438
20894.431831,-1998.556043,-11843.295072,-2068.457845
20894.432164,-1332.370696,-10436.903782,229.828649
20894.432497,-3701.029710,-8364.327145,-2451.505594
20894.432830,-2368.659014,-8956.491898,2681.334243
20894.433163,-666.185348,-7994.224174,1762.019645
20894.433496,-1554.432478,-5403.503377,1225.752797
20894.433829,296.082377,-8956.491898,6281.983084
20894.434162,518.144159,-7179.997637,3370.820191
20894.434496,296.082377,-7179.997637,3294.210641
20894.434829,-3404.947333,-8660.409521,-1149.143247
20894.435162,-4959.379811,-10436.903782,-3524.039291
20894.435495,-8808.450710,-9548.656652,-6435.202183
20894.435828,-6143.709319,-11843.295072,-4979.620737
20894.436161,-4441.235652,-10584.944971,76.609550
20894.436494,-370.102971,-8068.244768,3294.210641
20894.436827,2294.638420,-8882.471304,6665.030833
20894.437160,1554.432478,-5255.462188,1991.848295
20894.437493,962.267725,-8068.244768,0.000000
20894.437826,-74.020594,-11251.130318,1762.019645
20894.438159,-74.020594,-7624.121203,-1072.533697
20894.438492,0.000000,-10436.903782,3294.210641
20894.438825,592.164754,-8660.409521,153.219100
20894.439158,1998.556043,-8586.388927,0.000000
20894.439491,1110.308913,-8808.450710,-459.657299
20894.439824,0.000000,-8438.347739,-2834.553343
20894.440157,-1850.514855,-8956.491898,-4136.915689
20894.440490,888.247130,-12139.377449,-76.609550
20894.440823,5847.626942,-11843.295072,4826.401637
20894.441156,7031.956449,-7179.997637,3830.477490
20894.441489,6365.771101,-9178.553681,4826.401637
20894.441822,5921.647536,-6661.853478,2757.943793
20894.442155,4293.194464,-9104.533087,229.828649
20894.442488,3775.050304,-10362.883188,-2834.553343
20894.442821,-1776.494261,-11029.068536,-4903.011187
20894.443154,-1258.350101,-11029.068536,-6741.640382
20894.443487,2146.597232,-13027.624579,-1302.362347
20894.443820,1258.350101,-7772.162391,306.438199
20894.444153,1554.432478,-5403.503377,2451.505594
20894.444486,1628.453072,-6587.832884,1685.410096
20894.444819,1480.411884,-6143.709319,1838.629195
20894.445152,0.000000,-8586.388927,1225.752797
20894.445485,3034.844362,-9548.656652,2451.505594
20894.445818,5847.626942,-10658.965565,4826.401637
20894.446151,2368.659014,-9548.656652,3064.381992
20894.446484,2294.638420,-10658.965565,-1915.238745
20894.446817,-2146.597232,-8956.491898,-6128.763984
20894.447150,-2960.823768,-12509.480420,-6128.763984
20894.447483,-2516.700203,-12435.459826,-2451.505594
20894.447816,-3627.009116,-11843.295072,-2451.505594
20894.448149,-3034.844362,-10510.924376,1378.971896
20894.448482,444.123565,-6587.832884,5439.278036
20894.448815,1998.556043,-4145.153275,5975.544884
20894.449148,4367.215058,-6513.812290,7890.783629
20894.449481,-3256.906145,-6587.832884,1838.629195
20894.449814,-4737.318029,-10140.821405,2681.334243
20894.450147,-4515.256246,-7920.203579,-3370.820191
20894.450480,-1184.329507,-10436.903782,612.876398
20894.450813,-1554.432478,-10658.965565,-1302.362347
20894.451146,-3404.947333,-9548.656652,-2987.772442
20894.451479,-5181.441594,-10807.006753,-3600.648841
20894.451812,-4959.379811,-9178.553681,-4673.182538
20894.452145,-3701.029710,-11177.109724,-1608.800546
20894.452478,-3330.926739,-9992.780217,153.219100
20894.452811,1702.473667,-6661.853478,4903.011187
20894.453144,2886.803174,-6143.709319,6741.640382
20894.453477,5551.544565,-5329.482782,6971.469032
20894.453810,3997.112087,-6439.791695,6665.030833
20894.454143,2294.638420,-9474.636058,-76.609550
20894.454477,-2072.576638,-8364.327145,-3064.381992
20894.454810,-3552.988522,-11917.315666,-3064.381992
20894.455143,-74.020594,-12139.377449,-4366.744339
20894.455476,2442.679609,-10807.006753,-1608.800546
20894.455809,3478.967927,-9992.780217,-995.924147
20894.456142,3849.070898,-8586.388927,-1455.581446
20894.456475,3552.988522,-9548.656652,-1838.629195
20894.456808,4737.318029,-12731.542202,2374.896044
20894.457141,7031.956449,-9474.636058,3600.648841
20894.457474,3108.864956,-7772.162391,3983.696590
20894.457807,8068.244768,-10658.965565,7277.907231
20894.458140,5847.626942,-4811.338623,3830.477490
20894.458473,3849.070898,-8586.388927,1532.190996
20894.458806,370.102971,-8882.471304,-2834.553343
20894.459139,-2442.679609,-11029.068536,-5669.106685
20894.459472,-3256.906145,-11473.192101,-3294.210641
20894.459805,2146.597232,-13027.624579,-1302.362347
20894.460138,74.020594,-8364.327145,0.000000
20894.460471,1184.329507,-6291.750507,3064.381992
20894.460804,4071.132681,-8290.306550,3600.648841
20894.461137,592.164754,-8956.491898,2374.896044
20894.461470,-1628.453072,-10140.821405,-459.657299
20894.461803,-74.020594,-9770.718434,-995.924147
20894.462136,-814.226536,-11103.089130,1225.752797
20894.462469,2220.617826,-10658.965565,3294.210641
20894.462802,-1850.514855,-9474.636058,-383.047749
20894.463135,-4145.153275,-8364.327145,919.314598
20894.463468,-3034.844362,-10066.800811,-76.609550
20894.463801,-4219.173869,-7105.977043,-4366.744339
20894.464134,-6513.812290,-9696.697840,-229.828649
20894.464467,-3849.070898,-10658.965565,536.266849
20894.464800,888.247130,-8216.285956,4903.011187
20894.465133,518.144159,-8216.285956,5898.935335
20894.465466,4515.256246,-6809.894666,4673.182538
20894.465799,-148.041188,-8660.409521,919.314598
20894.466132,-1702.473667,-10140.821405,-1762.019645
20894.466465,-2886.803174,-10214.842000,-2834.553343
20894.466798,-8290.306550,-11917.315666,-4903.011187
20894.467131,-2368.659014,-9548.656652,612.876398
20894.467464,-1554.432478,-10362.883188,1455.581446
20894.467797,1110.308913,-4737.318029,536.266849
20894.468130,-2960.823768,-5995.668130,2451.505594
20894.468463,-1776.494261,-7179.997637,153.219100
20894.468796,0.000000,-7179.997637,2604.724693
20894.469129,2220.617826,-7846.182985,4136.915689
20894.469462,5847.626942,-8660.409521,4979.620737
20894.469795,5329.482782,-9474.636058,5056.230287
20894.470128,3478.967927,-7772.162391,-536.266849
20894.470461,2886.803174,-11843.295072,-4366.744339
20894.470794,-2368.659014,-10732.986159,-6435.202183
20894.471127,-3552.988522,-13397.727550,-3294.210641
20894.471460,-2072.576638,-11843.295072,-3064.381992
20894.471793,296.082377,-11695.253884,536.266849
20894.472126,1406.391290,-7994.224174,2757.943793
20894.472459,4515.256246,-5773.606348,6052.154434
20894.472792,5255.462188,-4737.318029,6052.154434
20894.473125,2664.741391,-5699.585753,4903.011187
20894.473458,-370.102971,-5995.668130,-3677.258390
20894.473791,2368.659014,-10436.903782,1072.533697
20894.474124,2294.638420,-11325.150913,153.219100
20894.474458,5847.626942,-11251.130318,1455.581446
20894.474791,2738.761985,-12139.377449,-995.924147
20894.475124,-1036.288319,-10881.027347,-4979.620737
20894.475457,-2442.679609,-11769.274478,-5745.716235
20894.475790,-3108.864956,-11843.295072,-3753.867940
20894.476123,-1554.432478,-11843.295072,-76.609550
20894.476456,-2960.823768,-7476.080014,3677.258390
20894.476789,0.000000,-5995.668130,8580.269578
20894.477122,5255.462188,-4441.235652,6971.469032
20894.477455,2664.741391,-1850.514855,3677.258390
20894.477788,1110.308913,-7105.977043,459.657299
20894.478121,-1554.432478,-9770.718434,-1378.971896
20894.478454,-3552.988522,-12509.480420,-2681.334243
20894.478787,-1776.494261,-13101.645173,-1991.848295
20894.479120,-1258.350101,-11843.295072,-2528.115143
20894.479453,0.000000,-10288.862594,1762.019645
20894.479786,-74.020594,-8882.471304,-76.609550
20894.480119,-2442.679609,-8142.265362,-3677.258390
20894.480452,-2368.659014,-7179.997637,0.000000
20894.480785,-1258.350101,-7846.182985,1225.752797
20894.481118,3034.844362,-7031.956449,4826.401637
20894.481451,2516.700203,-6735.874072,5822.325785
20894.481784,3997.112087,-6069.688724,5132.839837
20894.482117,4071.132681,-5773.606348,1455.581446
20894.482450,-222.061783,-9474.636058,-1762.019645
20894.482783,-3997.112087,-11029.068536,-5439.278036
20894.483116,-4811.338623,-12435.459826,-6205.373534
20894.483449,-1776.494261,-10288.862594,-1225.752797
20894.483782,1702.473667,-11547.212695,-536.266849
20894.484115,1184.329507,-5403.503377,0.000000
20894.484448,1776.494261,-9400.615463,2987.772442
20894.484781,3478.967927,-7698.141797,0.000000
20894.485114,1628.453072,-8660.409521,612.876398
20894.485447,2146.597232,-10658.965565,229.828649
20894.485780,4737.318029,-9844.739029,2298.286494
20894.486113,3923.091493,-11029.068536,2528.115143
20894.486446,8808.450710,-10658.965565,5898.935335
20894.486779,4071.132681,-9474.636058,842.705048
20894.487112,-2072.576638,-8660.409521,-2451.505594
20894.487445,-5921.647536,-9844.739029,-2757.943793
20894.487778,-5551.544565,-12361.439231,-4366.744339
20894.488111,-2368.659014,-8660.409521,536.266849
20894.488444,0.000000,-8734.430116,3447.429741
20894.488777,3627.009116,-5403.503377,6052.154434
20894.489110,2220.617826,-4959.379811,4596.572988
20894.489443,0.000000,-6809.894666,-766.095498
20894.489776,1110.308913,-8290.306550,-2834.553343
20894.490109,0.000000,-12065.356855,-76.609550
20894.490442,1998.556043,-11843.295072,-689.485948
20894.490775,-74.020594,-11769.274478,-2451.505594
20894.491108,814.226536,-11251.130318,1149.143247
20894.491441,-740.205942,-8068.244768,229.828649
20894.491774,222.061783,-7994.224174,-842.705048
20894.492107,-3108.864956,-10214.842000,229.828649
20894.492440,-3552.988522,-9548.656652,612.876398
20894.492773,-666.185348,-5995.668130,2451.505594
20894.493106,3552.988522,-8068.244768,9422.974625
20894.493439,5847.626942,-5773.606348,4903.011187
20894.493772,2368.659014,-7476.080014,2451.505594
20894.494105,-1184.329507,-7772.162391,-2451.505594
20894.494439,-2590.720797,-11547.212695,-4826.401637
20894.494772,-3701.029710,-11843.295072,-5822.325785
20894.495105,-4515.256246,-13175.665768,-4749.792088
20894.495438,-2442.679609,-11251.130318,-1915.238745
20894.495771,-2368.659014,-9548.656652,2451.505594
20894.496104,-74.020594,-7105.977043,766.095498
20894.496437,3182.885551,-4441.235652,1838.629195
20894.496770,1184.329507,-8068.244768,5592.497135
20894.497103,1776.494261,-6883.915261,1915.238745
20894.497436,1332.370696,-8808.450710,3524.039291
20894.497769,5477.523971,-9326.594869,4903.011187
20894.498102,4367.215058,-7994.224174,3447.429741
20894.498435,3478.967927,-10362.883188,-76.609550
20894.498768,-1184.329507,-9992.780217,-4673.182538
20894.499101,-4737.318029,-13397.727550,-7584.345430
20894.499434,-3552.988522,-11621.233289,-6741.640382
20894.499767,-3701.029710,-11473.192101,-3294.210641
20894.500100,-74.020594,-11547.212695,2374.896044
20894.500433,0.000000,-5107.421000,1838.629195
20894.500766,3552.988522,-5699.585753,8427.050478
20894.501099,5847.626942,-3330.926739,4903.011187
20894.501432,1776.494261,-4811.338623,2451.505594
20894.501765,2886.803174,-10658.965565,-76.609550
20894.502098,1110.308913,-10658.965565,-536.266849
20894.502431,2146.597232,-12213.398043,383.047749
20894.502764,2294.638420,-11769.274478,0.000000
20894.503097,3182.885551,-9474.636058,-1608.800546
20894.503430,-2368.659014,-11325.150913,-842.705048
20894.503763,-74.020594,-10288.862594,-1915.238745
20894.504096,-3034.844362,-10362.883188,-4903.011187
20894.504429,-2368.659014,-9548.656652,0.000000
20894.504762,-74.020594,-8882.471304,2451.505594
20894.505095,2294.638420,-7105.977043,5592.497135
20894.505428,4367.215058,-5403.503377,6281.983084
20894.505761,3849.070898,-7105.977043,4826.401637
20894.506094,2072.576638,-5107.421000,0.000000
20894.506427,-1628.453072,-11843.295072,-76.609550
20894.506760,-3034.844362,-10881.027347,-5515.887586
20894.507094,-2220.617826,-10140.821405,-4290.134789
20894.507427,1998.556043,-14211.954086,2374.896044
20894.507760,1480.411884,-7179.997637,612.876398
20894.508093,-148.041188,-9474.636058,0.000000
20894.508426,-1776.494261,-9548.656652,-1072.533697
20894.508759,-1258.350101,-9918.759623,766.095498
20894.509092,-1184.329507,-9252.574275,2451.505594
20894.509425,2886.803174,-10658.965565,3600.648841
20894.509758,814.226536,-6587.832884,2451.505594
20894.510091,3256.906145,-7105.977043,7277.907231
20894.510424,2294.638420,-8290.306550,4213.525239
20894.510757,-3404.947333,-7179.997637,-3370.820191
20894.511090,-5551.544565,-12731.542202,-4979.620737
20894.511423,-6143.709319,-11251.130318,-5669.106685
20894.511757,-3552.988522,-12139.377449,-2528.115143
20894.512090,-1776.494261,-10732.986159,612.876398
20894.512423,2442.679609,-6217.729913,3294.210641
20894.512756,296.082377,-6735.874072,3677.258390
20894.513089,3330.926739,-7105.977043,2757.943793
20894.513422,518.144159,-10362.883188,-229.828649
20894.513755,814.226536,-7476.080014,0.000000
20894.514088,1776.494261,-11695.253884,2068.457845
20894.514421,3478.967927,-11843.295072,-76.609550
20894.514754,2368.659014,-8364.327145,919.314598
20894.515087,1998.556043,-9474.636058,1149.143247
20894.515420,-444.123565,-8956.491898,-2298.286494
20894.515753,-3552.988522,-10362.883188,-3753.867940
20894.516086,-4737.318029,-10140.821405,-3677.258390
20894.516420,-3552.988522,-9548.656652,0.000000
20894.516753,4071.132681,-8290.306550,3064.381992
20894.517086,5329.482782,-7698.141797,8197.221829
20894.517419,3923.091493,-5329.482782,3677.258390
20894.517752,0.000000,-5995.668130,1532.190996
20894.518085,-1628.453072,-9548.656652,-3064.381992
20894.518418,-1036.288319,-10881.027347,-3064.381992
20894.518751,-666.185348,-12583.501014,-2528.115143
20894.519084,1850.514855,-10658.965565,-459.657299
20894.519417,2960.823768,-10955.047942,3600.648841
20894.519750,2590.720797,-6291.750507,0.000000
20894.520083,4071.132681,-10658.965565,-76.609550
20894.520416,-666.185348,-8956.491898,-919.314598
20894.520749,1036.288319,-9178.553681,612.876398
20894.521083,1406.391290,-10362.883188,3294.210641
20894.521416,3849.070898,-9474.636058,4213.525239
20894.521749,4737.318029,-7179.997637,5669.106685
20894.522082,3256.906145,-7402.059420,4136.915689
20894.522415,1554.432478,-9178.553681,-383.047749
20894.522748,-4737.318029,-10140.821405,-3370.820191
20894.523081,-3627.009116,-11103.089130,-6665.030833
20894.523414,-3627.009116,-10140.821405,-5975.544884
20894.523747,-2368.659014,-11769.274478,-536.266849
20894.524080,-666.185348,-9474.636058,-76.609550
20894.524413,1110.308913,-7846.182985,1762.019645
20894.524746,2590.720797,-6809.894666,3600.648841
20894.525079,740.205942,-8882.471304,3294.210641
20894.525412,-2368.659014,-9474.636058,842.705048
20894.525746,2886.803174,-10658.965565,3600.648841
20894.526079,2516.700203,-7179.997637,4903.011187
20894.526412,7328.038826,-9178.553681,7277.907231
20894.526745,2886.803174,-9474.636058,-76.609550
20894.527078,-2442.679609,-9474.636058,-5592.497135
20894.527411,-4219.173869,-12879.583391,-6511.811733
20894.527744,-5255.462188,-12583.501014,-5439.278036
20894.528077,-4441.235652,-10510.924376,-3753.867940
20894.528410,-2368.659014,-9918.759623,-229.828649
20894.528743,2812.782580,-9474.636058,4826.401637
20894.529076,4293.194464,-4811.338623,7507.735880
20894.529409,4293.194464,-5033.400406,5898.935335
20894.529742,2368.659014,-6439.791695,3140.991542
20894.530075,-3552.988522,-7476.080014,-2451.505594
20894.530409,-74.020594,-11843.295072,-1915.238745
20894.530742,-1184.329507,-9770.718434,-2221.676944
20894.531075,592.164754,-11029.068536,1915.238745
20894.531408,1554.432478,-9474.636058,0.000000
20894.531741,-74.020594,-9104.533087,-3677.258390
20894.532074,-666.185348,-10955.047942,-1685.410096
20894.532407,-2294.638420,-10955.047942,-536.266849
20894.532740,592.164754,-7772.162391,842.705048
20894.533073,0.000000,-8512.368333,4903.011187
