#time,accel_x,accel_y,accel_z
21124.162232,1480.411884,-9178.553681,-5286.058936
21124.162565,0.000000,-9548.656652,-3677.258390
21124.162899,3256.906145,-8438.347739,-4366.744339
21124.163232,6957.935855,-10510.924376,1455.581446
21124.163566,9178.553681,-8586.388927,3907.087040
21124.163899,11029.068536,-8438.347739,4826.401637
21124.164232,13545.768739,-9474.636058,5745.716235
21124.164566,11251.130318,-7179.997637,5515.887586
21124.164899,13545.768739,-8882.471304,1149.143247
21124.165233,9474.636058,-7772.162391,0.000000
21124.165566,9474.636058,-9992.780217,-1302.362347
21124.165900,7402.059420,-10436.903782,-4903.011187
21124.166233,8216.285956,-10066.800811,-3753.867940
21124.166567,5847.626942,-11547.212695,-3830.477490
21124.166900,3849.070898,-12139.377449,-2681.334243
21124.167234,4367.215058,-12139.377449,229.828649
21124.167567,6513.812290,-10584.944971,6052.154434
21124.167901,8512.368333,-8290.306550,5439.278036
21124.168234,7772.162391,-5995.668130,7967.393179
21124.168567,12065.356855,-5625.565159,8197.221829
21124.168901,9400.615463,-5551.544565,5439.278036
21124.169234,8364.327145,-6143.709319,383.047749
21124.169568,6883.915261,-7105.977043,-3447.429741
21124.169901,6217.729913,-9252.574275,-5439.278036
21124.170235,4737.318029,-7772.162391,-6741.640382
21124.170568,7031.956449,-13027.624579,-8044.002729
21124.170902,4737.318029,-11917.315666,-6435.202183
21124.171235,6217.729913,-11325.150913,-2451.505594
21124.171569,10288.862594,-13915.871710,2068.457845
21124.171902,10584.944971,-11843.295072,4213.525239
21124.172236,9548.656652,-9252.574275,5515.887586
21124.172569,12953.603985,-5329.482782,7737.564530
21124.172902,13989.892304,-4885.359217,9116.536426
21124.173236,11843.295072,-3034.844362,6128.763984
21124.173569,10288.862594,-6513.812290,1455.581446
21124.173903,4737.318029,-9178.553681,-3600.648841
21124.174236,2220.617826,-10955.047942,-6665.030833
21124.174570,-592.164754,-11103.089130,-8197.221829
21124.174903,-888.247130,-10288.862594,-7354.516781
21124.175237,3997.112087,-12731.542202,-76.609550
21124.175570,9400.615463,-8882.471304,2681.334243
21124.175904,9770.718434,-6587.832884,7354.516781
21124.176237,14804.118840,-8290.306550,9729.412825
21124.176571,13545.768739,-4885.359217,4903.011187
21124.176904,12509.480420,-7624.121203,3140.991542
21124.177237,11769.274478,-7402.059420,-995.924147
21124.177571,7772.162391,-9770.718434,-4136.915689
21124.177904,4737.318029,-11029.068536,-5822.325785
21124.178238,5847.626942,-14211.954086,-4979.620737
21124.178571,2590.720797,-11843.295072,-4060.306139
21124.178905,5329.482782,-9548.656652,1225.752797
21124.179238,12065.356855,-9474.636058,6052.154434
21124.179572,13175.665768,-4811.338623,8580.269578
21124.179905,13471.748144,-5551.544565,7124.688131
21124.180239,13027.624579,-7105.977043,4366.744339
21124.180572,10732.986159,-9770.718434,1762.019645
21124.180905,7031.956449,-11547.212695,-1072.533697
21124.181239,4071.132681,-14211.954086,-7737.564530
21124.181572,-2368.659014,-11917.315666,-7354.516781
21124.181906,0.000000,-11325.150913,-1532.190996
21124.182239,7328.038826,-7105.977043,1762.019645
21124.182573,7105.977043,-7402.059420,4213.525239
21124.182906,5477.523971,-6735.874072,3753.867940
21124.183240,6661.853478,-8660.409521,4213.525239
21124.183573,7772.162391,-8216.285956,4826.401637
21124.183907,6069.688724,-10066.800811,2987.772442
21124.184240,4959.379811,-7105.977043,-1915.238745
21124.184574,4737.318029,-8956.491898,1225.752797
21124.184907,6439.791695,-10510.924376,-76.609550
21124.185240,4663.297435,-7476.080014,-6128.763984
21124.185574,1480.411884,-11843.295072,-2528.115143
21124.185907,-370.102971,-11769.274478,-3064.381992
21124.186241,74.020594,-9400.615463,-1762.019645
21124.186574,2960.823768,-7920.203579,1532.190996
21124.186908,6439.791695,-7698.141797,4826.401637
21124.187241,9104.533087,-5995.668130,6281.983084
21124.187575,7476.080014,-7846.182985,5515.887586
21124.187908,5551.544565,-9844.739029,2681.334243
21124.188242,592.164754,-10732.986159,0.000000
21124.188575,0.000000,-10140.821405,-2451.505594
21124.188909,2294.638420,-8882.471304,-3753.867940
21124.189242,0.000000,-5995.668130,-6128.763984
21124.189575,0.000000,-8956.491898,-1915.238745
21124.189909,-1184.329507,-6735.874072,-3677.258390
21124.190242,740.205942,-11399.171507,1225.752797
21124.190576,-740.205942,-10214.842000,1915.238745
21124.190909,-1184.329507,-8956.491898,995.924147
21124.191243,4663.297435,-9474.636058,4213.525239
21124.191576,6143.709319,-6291.750507,5286.058936
21124.191910,8216.285956,-4145.153275,919.314598
21124.192243,3552.988522,-9844.739029,2451.505594
21124.192577,2368.659014,-14137.933492,2987.772442
21124.192910,-1258.350101,-11843.295072,-1302.362347
21124.193244,-1036.288319,-9696.697840,-3600.648841
21124.193577,-1628.453072,-7476.080014,-4136.915689
21124.193910,-1924.535449,-5995.668130,-4903.011187
21124.194244,-444.123565,-9474.636058,-1608.800546
21124.194577,-2368.659014,-11325.150913,2221.676944
21124.194911,-3256.906145,-8364.327145,1225.752797
21124.195244,0.000000,-6587.832884,3677.258390
21124.195578,6143.709319,-8290.306550,7277.907231
21124.195911,4663.297435,-1924.535449,3600.648841
21124.196245,6291.750507,-6809.894666,2451.505594
21124.196578,4737.318029,-10362.883188,3600.648841
21124.196912,1110.308913,-9622.677246,-1532.190996
21124.197245,296.082377,-11769.274478,-1532.190996
21124.197579,-222.061783,-11843.295072,-4979.620737
21124.197912,-4145.153275,-9548.656652,-6741.640382
21124.198245,-3552.988522,-8364.327145,-3830.477490
21124.198579,-666.185348,-11251.130318,-2221.676944
21124.198912,-3552.988522,-8956.491898,0.000000
21124.199246,2886.803174,-9474.636058,4826.401637
21124.199579,3108.864956,-7772.162391,7737.564530
21124.199913,3923.091493,-6069.688724,5515.887586
21124.200246,3478.967927,-8438.347739,4290.134789
21124.200580,4071.132681,-9474.636058,3600.648841
21124.200913,962.267725,-5995.668130,0.000000
21124.201247,2368.659014,-9104.533087,536.266849
21124.201580,-74.020594,-13027.624579,-2528.115143
21124.201914,-5403.503377,-8364.327145,-9806.022374
21124.202247,-4293.194464,-12435.459826,-7584.345430
21124.202580,-5699.585753,-14211.954086,-4443.353888
21124.202914,-5329.482782,-10140.821405,-1838.629195
21124.203247,-1258.350101,-9918.759623,3677.258390
21124.203581,3775.050304,-4737.318029,7277.907231
21124.203914,3849.070898,-7105.977043,8503.660028
21124.204248,3775.050304,-6291.750507,6741.640382
21124.204581,4145.153275,-9178.553681,5745.716235
21124.204915,-1776.494261,-9104.533087,3983.696590
21124.205248,2516.700203,-9474.636058,1149.143247
21124.205582,-4737.318029,-8364.327145,-3064.381992
21124.205915,-2368.659014,-8364.327145,-4596.572988
21124.206249,-3627.009116,-9178.553681,-9269.755526
21124.206582,-4737.318029,-13397.727550,-6741.640382
21124.206915,-3034.844362,-11843.295072,-3064.381992
21124.207249,222.061783,-12509.480420,1762.019645
21124.207582,4589.276840,-9474.636058,7277.907231
21124.207916,3478.967927,-6513.812290,6665.030833
21124.208249,3478.967927,-5921.647536,4826.401637
21124.208583,0.000000,-6587.832884,6741.640382
21124.208916,2886.803174,-8734.430116,4826.401637
21124.209250,3182.885551,-4811.338623,1838.629195
21124.209583,1332.370696,-6587.832884,0.000000
21124.209917,-370.102971,-8290.306550,-4979.620737
21124.210250,-3182.885551,-8660.409521,-7814.174080
21124.210584,-3997.112087,-13249.686362,-8273.831378
21124.210917,-3256.906145,-14063.912898,-5362.668486
21124.211250,-666.185348,-11843.295072,-2757.943793
21124.211584,1184.329507,-10140.821405,6052.154434
21124.211917,5847.626942,-6365.771101,4213.525239
21124.212251,4737.318029,-7772.162391,4903.011187
21124.212584,7105.977043,-7772.162391,8273.831378
21124.212918,4145.153275,-7920.203579,7201.297681
21124.213251,2516.700203,-8438.347739,3370.820191
21124.213585,296.082377,-7328.038826,-383.047749
21124.213918,-1110.308913,-7105.977043,-4979.620737
21124.214252,-3552.988522,-7179.997637,-5822.325785
21124.214585,-1258.350101,-13027.624579,-5592.497135
21124.214919,-3034.844362,-11843.295072,-5898.935335
21124.215252,-5625.565159,-11917.315666,-2451.505594
21124.215585,-74.020594,-11843.295072,2068.457845
21124.215919,1036.288319,-9178.553681,2987.772442
21124.216252,2738.761985,-7328.038826,4290.134789
21124.216586,6143.709319,-9030.512492,7431.126331
21124.216919,4737.318029,-5551.544565,8427.050478
21124.217253,4441.235652,-9844.739029,9729.412825
21124.217586,3478.967927,-5329.482782,383.047749
21124.217920,-2368.659014,-8364.327145,-4903.011187
21124.218253,-2368.659014,-9030.512492,-5592.497135
21124.218587,-2442.679609,-12435.459826,-6205.373534
21124.218920,-5625.565159,-13027.624579,-4979.620737
21124.219254,-2146.597232,-10881.027347,-1072.533697
21124.219587,888.247130,-10214.842000,3753.867940
21124.219920,4219.173869,-6143.709319,4366.744339
21124.220254,2960.823768,-8734.430116,3600.648841
21124.220587,1776.494261,-10288.862594,3370.820191
21124.220921,518.144159,-9918.759623,2068.457845
21124.221254,1332.370696,-10066.800811,4519.963438
21124.221588,3478.967927,-5329.482782,3600.648841
21124.221921,0.000000,-6735.874072,2145.067394
21124.222255,1332.370696,-5921.647536,-76.609550
21124.222588,-3034.844362,-8660.409521,-7048.078582
21124.222922,-4589.276840,-11621.233289,-4060.306139
21124.223255,-2442.679609,-11843.295072,-3753.867940
21124.223589,-888.247130,-10807.006753,842.705048
21124.223922,148.041188,-7624.121203,1532.190996
21124.224255,814.226536,-8216.285956,612.876398
21124.224589,1184.329507,-8364.327145,2451.505594
21124.224922,0.000000,-9548.656652,4903.011187
21124.225256,2294.638420,-8586.388927,2987.772442
21124.225589,1702.473667,-7402.059420,919.314598
21124.225923,0.000000,-7772.162391,612.876398
21124.226256,-74.020594,-4885.359217,-4749.792088
21124.226590,-222.061783,-11843.295072,-2528.115143
21124.226923,-1998.556043,-10584.944971,-1302.362347
21124.227257,-1332.370696,-11251.130318,-153.219100
21124.227590,3552.988522,-10140.821405,4903.011187
21124.227924,4145.153275,-9252.574275,7277.907231
21124.228257,3478.967927,-6365.771101,229.828649
21124.228590,1184.329507,-10140.821405,612.876398
21124.228924,2146.597232,-11547.212695,2068.457845
21124.229257,0.000000,-8956.491898,2451.505594
21124.229591,-74.020594,-8512.368333,0.000000
21124.229924,1110.308913,-7550.100608,-689.485948
21124.230258,-1776.494261,-6957.935855,-1838.629195
21124.230591,814.226536,-8586.388927,-1302.362347
21124.230925,-2368.659014,-8364.327145,-76.609550
21124.231258,-74.020594,-11843.295072,-76.609550
21124.231592,1776.494261,-6587.832884,3677.258390
21124.231925,2368.659014,-7994.224174,4136.915689
21124.232259,2886.803174,-9474.636058,-1302.362347
21124.232592,0.000000,-10732.986159,1378.971896
21124.232925,962.267725,-11103.089130,-383.047749
21124.233259,0.000000,-9992.780217,0.000000
21124.233592,-2368.659014,-11325.150913,919.314598
21124.233925,2294.638420,-9474.636058,-3140.991542
21124.234259,-3552.988522,-12213.398043,1455.581446
21124.234592,0.000000,-7772.162391,2374.896044
21124.234926,-3627.009116,-8956.491898,-1991.848295
21124.235259,-370.102971,-7402.059420,2068.457845
21124.235592,3330.926739,-7031.956449,6588.421283
21124.235926,1702.473667,-5921.647536,3600.648841
21124.236259,3478.967927,-6291.750507,842.705048
21124.236592,0.000000,-10732.986159,0.000000
21124.236926,1110.308913,-11843.295072,-2298.286494
21124.237259,-1480.411884,-11325.150913,-1149.143247
21124.237592,-2960.823768,-11695.253884,-2451.505594
21124.237926,-2368.659014,-8956.491898,-2221.676944
21124.238259,-3256.906145,-6587.832884,-1838.629195
21124.238592,814.226536,-9178.553681,-689.485948
21124.238926,-3182.885551,-7179.997637,2451.505594
21124.239259,3478.967927,-8882.471304,2374.896044
21124.239592,4663.297435,-9474.636058,7277.907231
21124.239926,2960.823768,-7328.038826,6511.811733
21124.240259,2590.720797,-5107.421000,842.705048
21124.240592,4367.215058,-9326.594869,612.876398
21124.240926,1036.288319,-10510.924376,-153.219100
21124.241259,-74.020594,-11547.212695,-1608.800546
21124.241592,-1850.514855,-11473.192101,-4290.134789
21124.241926,-962.267725,-11547.212695,-1991.848295
21124.242259,-74.020594,-9474.636058,-4060.306139
21124.242592,-2368.659014,-9844.739029,-2451.505594
21124.242926,-1850.514855,-11843.295072,-76.609550
21124.243259,-1406.391290,-8290.306550,3294.210641
21124.243592,3552.988522,-6587.832884,7354.516781
21124.243926,4367.215058,-6143.709319,7737.564530
21124.244259,4663.297435,-3552.988522,1762.019645
21124.244593,3478.967927,-5403.503377,0.000000
21124.244926,1036.288319,-11251.130318,-689.485948
21124.245259,-962.267725,-11251.130318,-4673.182538
21124.245593,-1184.329507,-10732.986159,-3064.381992
21124.245926,-666.185348,-12139.377449,-4673.182538
21124.246259,-2294.638420,-10436.903782,-4826.401637
21124.246593,-1850.514855,-12731.542202,-2298.286494
21124.246926,-2442.679609,-11991.336260,766.095498
21124.247259,0.000000,-6587.832884,3064.381992
21124.247593,2960.823768,-7920.203579,9806.022374
21124.247926,7031.956449,-7105.977043,7890.783629
21124.248259,2664.741391,-2442.679609,4290.134789
21124.248593,3552.988522,-7328.038826,6052.154434
21124.248926,2294.638420,-9178.553681,-1991.848295
21124.249259,-1480.411884,-10214.842000,-2145.067394
21124.249593,-3552.988522,-10732.986159,-4903.011187
21124.249926,-3108.864956,-11251.130318,-6971.469032
21124.250259,-4737.318029,-10732.986159,-5975.544884
21124.250593,-2812.782580,-13027.624579,-4519.963438
21124.250926,-4145.153275,-13767.830521,-689.485948
21124.251259,-2368.659014,-9548.656652,2451.505594
21124.251593,4663.297435,-8882.471304,9729.412825
21124.251926,6439.791695,-6513.812290,10955.165621
21124.252259,5847.626942,-666.185348,6128.763984
21124.252593,6143.709319,-7105.977043,6052.154434
21124.252926,3478.967927,-7846.182985,306.438199
21124.253260,1702.473667,-9474.636058,-1302.362347
21124.253593,-2886.803174,-14211.954086,-4060.306139
21124.253926,-4145.153275,-11029.068536,-7048.078582
21124.254260,-5625.565159,-10732.986159,-8044.002729
21124.254593,-2590.720797,-11769.274478,-5898.935335
21124.254926,-2960.823768,-13471.748144,-76.609550
21124.255260,-4441.235652,-9548.656652,2451.505594
21124.255593,2146.597232,-10362.883188,8197.221829
21124.255926,5107.421000,-5921.647536,7277.907231
21124.256260,4367.215058,-2664.741391,6205.373534
21124.256593,6439.791695,-5921.647536,4826.401637
21124.256926,3404.947333,-8364.327145,2834.553343
21124.257260,0.000000,-8068.244768,-1608.800546
21124.257593,-1184.329507,-11029.068536,-2757.943793
21124.257926,-3034.844362,-11843.295072,-6205.373534
21124.258260,-4293.194464,-11843.295072,-6128.763984
21124.258593,-2886.803174,-13619.789333,-5592.497135
21124.258926,-3627.009116,-13101.645173,-3370.820191
21124.259260,-3552.988522,-9548.656652,1838.629195
21124.259593,3330.926739,-8364.327145,5822.325785
21124.259926,7031.956449,-8364.327145,8656.879127
21124.260260,6661.853478,-6217.729913,6665.030833
21124.260593,4219.173869,-6439.791695,5592.497135
21124.260926,2368.659014,-7179.997637,2451.505594
21124.261260,3478.967927,-8290.306550,1762.019645
21124.261593,-1628.453072,-5995.668130,-3677.258390
21124.261926,-2368.659014,-8660.409521,-2528.115143
21124.262260,-3627.009116,-11251.130318,-7431.126331
21124.262593,-5329.482782,-11029.068536,-7967.393179
21124.262927,-4515.256246,-13989.892304,-4213.525239
21124.263260,-2960.823768,-12213.398043,-76.609550
21124.263593,962.267725,-10066.800811,4596.572988
21124.263927,1184.329507,-7179.997637,7660.954980
21124.264260,4663.297435,-6513.812290,3600.648841
21124.264593,3552.988522,-3923.091493,4290.134789
21124.264927,4737.318029,-9696.697840,7277.907231
21124.265260,4663.297435,-9474.636058,3600.648841
21124.265593,0.000000,-7920.203579,153.219100
21124.265927,-1406.391290,-10214.842000,-3064.381992
21124.266260,-1702.473667,-7698.141797,-5592.497135
21124.266593,-2146.597232,-11103.089130,-7124.688131
21124.266927,-4737.318029,-13101.645173,-4290.134789
21124.267260,-3108.864956,-13471.748144,-2068.457845
21124.267593,518.144159,-9474.636058,2681.334243
21124.267927,2664.741391,-9326.594869,7890.783629
21124.268260,5847.626942,-4737.318029,4826.401637
21124.268593,3701.029710,-4811.338623,4290.134789
21124.268927,5181.441594,-8882.471304,4826.401637
21124.269260,3478.967927,-7031.956449,0.000000
21124.269593,0.000000,-9252.574275,1915.238745
21124.269927,3182.885551,-10584.944971,-76.609550
21124.270260,-2590.720797,-9696.697840,-5209.449386
21124.270593,-1998.556043,-10658.965565,-6818.249932
21124.270927,-3404.947333,-12657.521608,-5439.278036
21124.271260,-4145.153275,-11917.315666,-3524.039291
21124.271594,-1332.370696,-8364.327145,2451.505594
21124.271927,4071.132681,-10658.965565,7277.907231
21124.272260,4663.297435,-5921.647536,5286.058936
21124.272594,2960.823768,-5403.503377,7048.078582
21124.272927,2812.782580,-6365.771101,3600.648841
21124.273260,222.061783,-7254.018232,1915.238745
21124.273594,-666.185348,-8216.285956,-1532.190996
21124.273927,-1924.535449,-9844.739029,-2068.457845
21124.274260,-1998.556043,-8882.471304,-5362.668486
21124.274594,-4737.318029,-9844.739029,-6128.763984
21124.274927,-3627.009116,-15100.201217,-6205.373534
21124.275260,-3775.050304,-11917.315666,-3524.039291
21124.275594,-2960.823768,-10140.821405,2451.505594
21124.275927,4145.153275,-7994.224174,5515.887586
21124.276260,4885.359217,-6365.771101,5669.106685
21124.276594,5255.462188,-7105.977043,5592.497135
21124.276927,4071.132681,-8586.388927,4826.401637
21124.277260,2886.803174,-9474.636058,1762.019645
21124.277594,296.082377,-10140.821405,842.705048
21124.277927,-1776.494261,-7179.997637,-4596.572988
21124.278260,-4737.318029,-10140.821405,-3907.087040
21124.278594,-74.020594,-8290.306550,-3753.867940
21124.278927,-666.185348,-13027.624579,-3140.991542
21124.279260,-2812.782580,-12509.480420,-1685.410096
21124.279594,1110.308913,-8216.285956,2374.896044
21124.279927,1702.473667,-9844.739029,5439.278036
21124.280261,3701.029710,-4811.338623,5515.887586
21124.280594,4663.297435,-7105.977043,3600.648841
21124.280927,1184.329507,-7772.162391,3983.696590
21124.281261,2960.823768,-9400.615463,4213.525239
21124.281594,-74.020594,-9178.553681,-2145.067394
21124.281927,-74.020594,-9104.533087,-842.705048
21124.282261,-3034.844362,-9252.574275,-4673.182538
21124.282594,-3997.112087,-9326.594869,-5669.106685
21124.282927,-4071.132681,-12065.356855,-5515.887586
21124.283261,-4737.318029,-10732.986159,-1685.410096
21124.283594,-74.020594,-7402.059420,1378.971896
21124.283927,4367.215058,-10066.800811,6511.811733
21124.284261,2960.823768,-7105.977043,6052.154434
21124.284594,3923.091493,-7698.141797,4519.963438
21124.284927,2368.659014,-6883.915261,2451.505594
21124.285261,3182.885551,-10658.965565,4213.525239
21124.285594,1702.473667,-9474.636058,-2374.896044
21124.285927,0.000000,-9844.739029,-76.609550
21124.286261,-1332.370696,-11177.109724,-2757.943793
21124.286594,-2738.761985,-7179.997637,-7354.516781
21124.286927,-814.226536,-12435.459826,-4136.915689
21124.287261,-2368.659014,-13101.645173,-76.609550
21124.287594,0.000000,-7476.080014,1072.533697
21124.287927,0.000000,-9548.656652,5515.887586
21124.288261,4663.297435,-7105.977043,2068.457845
21124.288594,3256.906145,-5995.668130,1225.752797
21124.288927,3849.070898,-10658.965565,6665.030833
21124.289261,2886.803174,-8882.471304,2374.896044
21124.289594,0.000000,-9548.656652,1532.190996
21124.289928,592.164754,-9030.512492,612.876398
21124.290261,-1406.391290,-6365.771101,-2911.162892
21124.290594,-814.226536,-8586.388927,-5439.278036
21124.290928,-1258.350101,-13027.624579,-4979.620737
21124.291261,-1258.350101,-14211.954086,-4979.620737
21124.291594,-3552.988522,-10732.986159,2374.896044
21124.291928,4367.215058,-10658.965565,4826.401637
21124.292261,3478.967927,-5995.668130,4903.011187
21124.292594,6069.688724,-6957.935855,4826.401637
21124.292928,4589.276840,-6883.915261,3907.087040
21124.293261,1776.494261,-9030.512492,1532.190996
21124.293594,1480.411884,-9400.615463,-919.314598
21124.293928,0.000000,-11547.212695,-536.266849
21124.294261,-1628.453072,-7179.997637,-6741.640382
21124.294594,-888.247130,-11843.295072,-3447.429741
21124.294928,-2442.679609,-11843.295072,-5592.497135
21124.295261,-2516.700203,-9548.656652,-4903.011187
21124.295594,-370.102971,-13619.789333,2374.896044
21124.295928,1554.432478,-7772.162391,4519.963438
21124.296261,2220.617826,-7550.100608,4903.011187
21124.296594,4441.235652,-5329.482782,5745.716235
21124.296928,3478.967927,-7105.977043,3830.477490
21124.297261,2368.659014,-7772.162391,3217.601092
21124.297594,-740.205942,-10214.842000,689.485948
21124.297928,-1258.350101,-9104.533087,-1608.800546
21124.298261,-1184.329507,-8956.491898,-3677.258390
21124.298595,-1480.411884,-9548.656652,-2911.162892
21124.298928,-2442.679609,-12731.542202,-6971.469032
21124.299261,-4737.318029,-9548.656652,-6741.640382
21124.299595,-2960.823768,-12509.480420,1455.581446
21124.299928,592.164754,-8364.327145,3064.381992
21124.300261,3997.112087,-8216.285956,7277.907231
21124.300595,2590.720797,-5847.626942,4443.353888
21124.300928,3923.091493,-6587.832884,3830.477490
21124.301261,2294.638420,-9474.636058,4826.401637
21124.301595,1628.453072,-7179.997637,3600.648841
21124.301928,-74.020594,-7994.224174,-2451.505594
21124.302261,-2368.659014,-10140.821405,-3064.381992
21124.302595,-4441.235652,-10436.903782,-4673.182538
21124.302928,-2442.679609,-11843.295072,-5592.497135
21124.303261,-2590.720797,-12731.542202,-2068.457845
21124.303595,-1776.494261,-10955.047942,3600.648841
21124.303928,2368.659014,-6291.750507,5515.887586
21124.304261,1776.494261,-7550.100608,5209.449386
21124.304595,3849.070898,-5255.462188,5745.716235
21124.304928,0.000000,-7179.997637,0.000000
21124.305261,1184.329507,-8364.327145,2374.896044
21124.305595,-370.102971,-8068.244768,-1685.410096
21124.305928,-2590.720797,-9104.533087,-1762.019645
21124.306261,-74.020594,-9326.594869,-2528.115143
21124.306595,-2294.638420,-8438.347739,-5822.325785
21124.306928,-666.185348,-11769.274478,-5515.887586
21124.307261,-148.041188,-13027.624579,-2451.505594
21124.307595,2294.638420,-12435.459826,1762.019645
21124.307928,1184.329507,-9844.739029,6128.763984
21124.308262,4737.318029,-7920.203579,8503.660028
21124.308595,5551.544565,-6217.729913,3140.991542
21124.308928,3552.988522,-8956.491898,5209.449386
21124.309262,2886.803174,-7476.080014,1532.190996
21124.309595,-1628.453072,-10066.800811,-306.438199
21124.309928,-2072.576638,-8364.327145,-1838.629195
21124.310262,-4145.153275,-9178.553681,-2528.115143
21124.310595,-4515.256246,-7179.997637,-7048.078582
21124.310928,-2368.659014,-9252.574275,-1915.238745
21124.311262,-1554.432478,-11843.295072,-3447.429741
21124.311595,-2368.659014,-8364.327145,2451.505594
21124.311928,592.164754,-9844.739029,5515.887586
21124.312262,2072.576638,-7772.162391,3064.381992
21124.312595,3701.029710,-7105.977043,3294.210641
21124.312928,2886.803174,-9030.512492,1991.848295
21124.313262,2146.597232,-9400.615463,2374.896044
21124.313595,-74.020594,-8364.327145,0.000000
21124.313928,-74.020594,-10881.027347,536.266849
21124.314262,-1258.350101,-8290.306550,0.000000
21124.314595,-148.041188,-7698.141797,-2681.334243
21124.314928,-370.102971,-12287.418637,-1302.362347
21124.315262,-1258.350101,-10807.006753,-3064.381992
21124.315595,-3552.988522,-10140.821405,0.000000
21124.315928,592.164754,-9030.512492,4519.963438
21124.316262,3478.967927,-7994.224174,3600.648841
21124.316595,0.000000,-5995.668130,4290.134789
21124.316929,888.247130,-7179.997637,1072.533697
21124.317262,-1110.308913,-8586.388927,-306.438199
21124.317595,-518.144159,-10658.965565,-689.485948
21124.317929,814.226536,-8882.471304,-689.485948
21124.318262,-74.020594,-9326.594869,-2911.162892
21124.318595,0.000000,-9474.636058,-2528.115143
21124.318929,-1258.350101,-11843.295072,-4979.620737
21124.319262,0.000000,-9548.656652,-1838.629195
21124.319595,1702.473667,-11843.295072,3600.648841
21124.319929,1554.432478,-8586.388927,4903.011187
21124.320262,3404.947333,-6883.915261,3217.601092
21124.320595,3478.967927,-7698.141797,2987.772442
21124.320929,2960.823768,-6291.750507,919.314598
21124.321262,1110.308913,-10140.821405,0.000000
21124.321595,-74.020594,-12435.459826,-76.609550
21124.321929,-1850.514855,-8660.409521,-2451.505594
21124.322262,-4441.235652,-9548.656652,0.000000
21124.322595,-1406.391290,-6069.688724,-3753.867940
21124.322929,-3552.988522,-10066.800811,-4213.525239
21124.323262,-1036.288319,-9770.718434,-1685.410096
21124.323595,0.000000,-9474.636058,2604.724693
21124.323929,3256.906145,-8216.285956,5515.887586
21124.324262,592.164754,-8364.327145,5209.449386
21124.324595,4663.297435,-9474.636058,3294.210641
21124.324929,962.267725,-7179.997637,0.000000
21124.325262,2886.803174,-10658.965565,919.314598
21124.325595,-740.205942,-11991.336260,-2451.505594
21124.325929,-1702.473667,-10658.965565,-2145.067394
21124.326262,-1924.535449,-11399.171507,-536.266849
21124.326596,-1776.494261,-7179.997637,-2374.896044
21124.326929,-74.020594,-9474.636058,-2834.553343
21124.327262,0.000000,-11695.253884,1762.019645
21124.327596,-1110.308913,-8364.327145,612.876398
21124.327929,0.000000,-7179.997637,6128.763984
21124.328262,4663.297435,-7105.977043,3753.867940
21124.328596,2664.741391,-6143.709319,2451.505594
21124.328929,3478.967927,-8290.306550,229.828649
21124.329262,444.123565,-10807.006753,-76.609550
21124.329596,-666.185348,-10436.903782,-1838.629195
21124.329928,-1258.350101,-10955.047942,-1302.362347
21124.330261,-74.020594,-10658.965565,-76.609550
21124.330594,-2294.638420,-8290.306550,-3370.820191
21124.330927,-2738.761985,-8956.491898,-3907.087040
21124.331261,-1406.391290,-9548.656652,-1455.581446
21124.331594,-666.185348,-9474.636058,995.924147
21124.331927,2886.803174,-6809.894666,4213.525239
21124.332261,4663.297435,-7994.224174,3753.867940
21124.332594,3552.988522,-7920.203579,5439.278036
21124.332927,3478.967927,-9474.636058,-76.609550
21124.333260,2294.638420,-8290.306550,-1608.800546
21124.333594,0.000000,-11621.233289,-383.047749
21124.333927,-1702.473667,-11325.150913,-2068.457845
21124.334260,-3034.844362,-11621.233289,-2221.676944
21124.334593,-4441.235652,-8660.409521,-4903.011187
21124.334927,-5921.647536,-11991.336260,-2528.115143
21124.335260,-3627.009116,-8364.327145,-3064.381992
21124.335593,-2368.659014,-7179.997637,3677.258390
21124.335926,2664.741391,-5773.606348,7277.907231
21124.336260,4515.256246,-5107.421000,6435.202183
21124.336593,3478.967927,-6809.894666,3447.429741
21124.336926,3256.906145,-6883.915261,612.876398
21124.337260,1110.308913,-10510.924376,-1225.752797
21124.337593,1406.391290,-12139.377449,-2528.115143
21124.337926,-814.226536,-15396.283594,-1915.238745
21124.338259,-4737.318029,-10140.821405,-3677.258390
21124.338593,-1776.494261,-9696.697840,-3677.258390
21124.338926,-1776.494261,-11103.089130,-689.485948
21124.339259,0.000000,-10436.903782,2145.067394
21124.339592,0.000000,-8660.409521,3217.601092
21124.339926,2516.700203,-5995.668130,6205.373534
21124.340259,4811.338623,-5699.585753,7124.688131
21124.340592,5847.626942,-6217.729913,5439.278036
21124.340925,6143.709319,-7105.977043,2987.772442
21124.341259,0.000000,-7179.997637,306.438199
21124.341592,-888.247130,-11103.089130,-1915.238745
21124.341925,-3627.009116,-11251.130318,-6511.811733
21124.342259,-3330.926739,-12435.459826,-4979.620737
21124.342592,-3108.864956,-9104.533087,-4903.011187
21124.342925,-1406.391290,-10214.842000,-3447.429741
21124.343258,518.144159,-11695.253884,-76.609550
21124.343592,0.000000,-9548.656652,4290.134789
21124.343925,3478.967927,-4885.359217,5515.887586
21124.344258,5921.647536,-6513.812290,10265.679673
21124.344591,6439.791695,-8290.306550,4826.401637
21124.344925,2368.659014,-4219.173869,766.095498
21124.345258,1998.556043,-11547.212695,-689.485948
21124.345591,888.247130,-9548.656652,-2911.162892
21124.345924,-1036.288319,-12657.521608,-2298.286494
21124.346258,-1628.453072,-11621.233289,-2911.162892
21124.346591,-3552.988522,-10732.986159,-3983.696590
21124.346924,-3108.864956,-8956.491898,-4903.011187
21124.347258,-1332.370696,-10658.965565,-1915.238745
21124.347591,-1406.391290,-11843.295072,1455.581446
21124.347924,2590.720797,-7402.059420,6052.154434
21124.348257,2368.659014,-4811.338623,6128.763984
21124.348591,4663.297435,-7105.977043,6052.154434
21124.348924,1776.494261,-4219.173869,4903.011187
21124.349257,-666.185348,-10066.800811,-76.609550
21124.349590,-74.020594,-7105.977043,-3140.991542
21124.349924,-5329.482782,-12509.480420,-2757.943793
21124.350257,-2146.597232,-8956.491898,-4136.915689
21124.350590,-2590.720797,-11473.192101,-3447.429741
21124.350924,-4737.318029,-11473.192101,-5209.449386
21124.351257,-2368.659014,-12509.480420,-2451.505594
21124.351590,-4515.256246,-10140.821405,0.000000
21124.351923,0.000000,-5995.668130,5515.887586
21124.352257,4219.173869,-8290.306550,8197.221829
21124.352590,3478.967927,-3701.029710,5822.325785
21124.352923,5181.441594,-4737.318029,5286.058936
21124.353256,2368.659014,-7994.224174,2757.943793
21124.353590,1110.308913,-8438.347739,-383.047749
21124.353923,-3330.926739,-11103.089130,-4136.915689
21124.354256,-666.185348,-11843.295072,-3753.867940
21124.354589,-4737.318029,-9548.656652,-4903.011187
21124.354923,-1184.329507,-9918.759623,-6128.763984
21124.355256,814.226536,-13619.789333,-689.485948
21124.355589,-2960.823768,-11917.315666,612.876398
21124.355923,-74.020594,-7920.203579,2681.334243
21124.356256,1702.473667,-7031.956449,4979.620737
21124.356589,4663.297435,-5921.647536,5745.716235
21124.356922,4367.215058,-3701.029710,4290.134789
21124.357256,3552.988522,-5033.400406,842.705048
21124.357589,0.000000,-7772.162391,1378.971896
21124.357922,-74.020594,-11251.130318,-3140.991542
21124.358255,-1554.432478,-10658.965565,-5592.497135
21124.358589,-4145.153275,-10140.821405,-4903.011187
21124.358922,-2442.679609,-11843.295072,-6818.249932
21124.359255,-2294.638420,-11917.315666,-4443.353888
21124.359588,-1480.411884,-12287.418637,842.705048
21124.359922,1332.370696,-7328.038826,4290.134789
21124.360255,2368.659014,-7402.059420,6665.030833
21124.360588,4959.379811,-6513.812290,7507.735880
21124.360922,4663.297435,-6513.812290,4826.401637
21124.361255,3182.885551,-7105.977043,2911.162892
21124.361588,1776.494261,-8660.409521,1072.533697
21124.361921,-666.185348,-10362.883188,-4673.182538
21124.362255,-4145.153275,-10140.821405,-2834.553343
21124.362588,-3627.009116,-13027.624579,-6205.373534
21124.362921,-5403.503377,-9844.739029,-7354.516781
21124.363254,-4737.318029,-11917.315666,-4903.011187
21124.363588,-1702.473667,-12213.398043,2374.896044
21124.363921,74.020594,-7402.059420,5439.278036
21124.364254,3478.967927,-6069.688724,8197.221829
21124.364587,3478.967927,-7994.224174,6971.469032
21124.364921,3775.050304,-4737.318029,3600.648841
21124.365254,1184.329507,-7179.997637,5209.449386
21124.365587,-74.020594,-9474.636058,-1302.362347
21124.365921,-1258.350101,-8882.471304,-4366.744339
21124.366254,-2442.679609,-12435.459826,-2528.115143
21124.366587,-1258.350101,-8956.491898,-5362.668486
21124.366920,-1998.556043,-10436.903782,-4443.353888
21124.367254,0.000000,-11177.109724,-2298.286494
21124.367587,0.000000,-9548.656652,1225.752797
21124.367920,2886.803174,-9474.636058,4826.401637
21124.368253,4737.318029,-4811.338623,9729.412825
21124.368587,7031.956449,-6513.812290,6665.030833
21124.368920,3552.988522,-3627.009116,1302.362347
21124.369253,1776.494261,-6291.750507,-1149.143247
21124.369586,814.226536,-10140.821405,-3217.601092
21124.369920,592.164754,-10732.986159,-2834.553343
21124.370253,1776.494261,-11029.068536,-689.485948
21124.370586,4737.318029,-10214.842000,612.876398
21124.370920,1110.308913,-9548.656652,-4903.011187
21124.371253,1998.556043,-11547.212695,-2451.505594
21124.371586,3478.967927,-14211.954086,-76.609550
21124.371919,296.082377,-9548.656652,3983.696590
21124.372253,5625.565159,-7920.203579,6588.421283
21124.372586,2368.659014,-9474.636058,6358.592633
21124.372919,3923.091493,-4589.276840,3524.039291
21124.373252,814.226536,-8216.285956,2374.896044
21124.373586,-74.020594,-8882.471304,-1915.238745
21124.373919,-6513.812290,-9548.656652,-1532.190996
21124.374252,-3034.844362,-8882.471304,-4060.306139
21124.374585,-2960.823768,-6587.832884,-6128.763984
21124.374919,-4145.153275,-11251.130318,-2068.457845
21124.375252,-3034.844362,-11177.109724,-5515.887586
21124.375585,-4145.153275,-13841.851115,-689.485948
21124.375919,-2886.803174,-12139.377449,1149.143247
21124.376252,148.041188,-6513.812290,3907.087040
21124.376585,2072.576638,-9474.636058,6665.030833
21124.376918,2368.659014,-4219.173869,5515.887586
21124.377252,1406.391290,-6883.915261,2911.162892
21124.377585,296.082377,-8660.409521,1762.019645
21124.377918,-1258.350101,-7476.080014,-689.485948
21124.378251,-2442.679609,-12435.459826,-76.609550
21124.378585,-4145.153275,-8660.409521,-3677.258390
21124.378918,-4737.318029,-9104.533087,-3753.867940
21124.379251,-2442.679609,-11843.295072,-5669.106685
21124.379585,-1628.453072,-10288.862594,0.000000
21124.379918,-888.247130,-12731.542202,4826.401637
21124.380251,1110.308913,-6957.935855,5362.668486
21124.380584,2072.576638,-7550.100608,6205.373534
21124.380918,1480.411884,-5255.462188,4519.963438
21124.381251,3182.885551,-4811.338623,1149.143247
21124.381584,0.000000,-8364.327145,1838.629195
21124.381917,-74.020594,-8290.306550,-1608.800546
21124.382251,-1850.514855,-7328.038826,-4290.134789
21124.382584,-1184.329507,-9918.759623,-1608.800546
21124.382917,-1850.514855,-10658.965565,-6205.373534
21124.383250,-2738.761985,-10436.903782,-5209.449386
21124.383584,0.000000,-11843.295072,-1915.238745
21124.383917,-74.020594,-11843.295072,2681.334243
21124.384250,3552.988522,-4219.173869,3677.258390
21124.384584,1184.329507,-9548.656652,9806.022374
21124.384917,8216.285956,-5625.565159,3907.087040
21124.385250,2368.659014,-6587.832884,306.438199
21124.385583,2960.823768,-10214.842000,2374.896044
21124.385917,0.000000,-8364.327145,-2451.505594
21124.386250,-1628.453072,-11177.109724,-2528.115143
21124.386583,1036.288319,-8364.327145,-1991.848295
21124.386916,-2294.638420,-9400.615463,-3907.087040
21124.387250,-666.185348,-10658.965565,-4060.306139
21124.387583,-1184.329507,-13471.748144,-76.609550
21124.387916,1702.473667,-9326.594869,-459.657299
21124.388249,1184.329507,-7920.203579,3983.696590
21124.388583,2960.823768,-9030.512492,7277.907231
21124.388916,2368.659014,-7772.162391,4596.572988
21124.389249,1480.411884,-6143.709319,2451.505594
21124.389583,2960.823768,-7031.956449,2145.067394
21124.389916,-1850.514855,-10436.903782,-1149.143247
21124.390249,518.144159,-8586.388927,-842.705048
21124.390582,-666.185348,-10658.965565,-2528.115143
21124.390916,0.000000,-7179.997637,-5822.325785
21124.391249,1776.494261,-9400.615463,-766.095498
21124.391582,1110.308913,-13619.789333,-1302.362347
21124.391915,0.000000,-8660.409521,3064.381992
21124.392249,740.205942,-7772.162391,1915.238745
21124.392582,2664.741391,-10288.862594,6205.373534
21124.392915,2220.617826,-5847.626942,5745.716235
21124.393248,2368.659014,-4589.276840,766.095498
21124.393582,962.267725,-10066.800811,842.705048
21124.393915,888.247130,-7179.997637,-1072.533697
21124.394248,1110.308913,-8734.430116,919.314598
21124.394582,1628.453072,-8956.491898,0.000000
21124.394915,-666.185348,-11251.130318,-3294.210641
21124.395248,-3552.988522,-11917.315666,-2681.334243
21124.395581,1110.308913,-9918.759623,-4903.011187
21124.395915,-1776.494261,-12287.418637,0.000000
21124.396248,2516.700203,-8364.327145,2834.553343
21124.396581,1480.411884,-8956.491898,5209.449386
21124.396914,4515.256246,-6291.750507,5209.449386
21124.397248,4811.338623,-6809.894666,4903.011187
21124.397581,1036.288319,-9326.594869,2451.505594
21124.397914,-3552.988522,-6587.832884,-2451.505594
21124.398247,-3923.091493,-9474.636058,-2528.115143
21124.398581,-370.102971,-6291.750507,-4290.134789
21124.398914,-2072.576638,-9474.636058,-1302.362347
21124.399247,-74.020594,-11547.212695,-2528.115143
21124.399581,-4737.318029,-11325.150913,-2681.334243
21124.399914,-4663.297435,-11769.274478,-3064.381992
21124.400247,-2072.576638,-9696.697840,689.485948
21124.400580,1850.514855,-7846.182985,4060.306139
21124.400914,1776.494261,-10436.903782,6741.640382
21124.401247,2294.638420,-4737.318029,1378.971896
21124.401580,296.082377,-9548.656652,0.000000
21124.401913,666.185348,-8882.471304,2374.896044
21124.402247,-666.185348,-8882.471304,-689.485948
21124.402580,-1702.473667,-8438.347739,-383.047749
21124.402913,-3034.844362,-9474.636058,-3524.039291
21124.403246,-2294.638420,-8882.471304,-3907.087040
21124.403580,814.226536,-10807.006753,-2221.676944
21124.403913,-74.020594,-13027.624579,1149.143247
21124.404246,-74.020594,-7476.080014,0.000000
21124.404580,1184.329507,-8956.491898,5132.839837
21124.404913,5847.626942,-10658.965565,7890.783629
21124.405246,518.144159,-3627.009116,0.000000
21124.405579,3478.967927,-10066.800811,3447.429741
21124.405913,-1702.473667,-8364.327145,-536.266849
21124.406246,-296.082377,-9178.553681,0.000000
21124.406579,0.000000,-7254.018232,-76.609550
21124.406912,-666.185348,-11251.130318,-1302.362347
21124.407246,-3478.967927,-9252.574275,-4596.572988
21124.407579,-962.267725,-10510.924376,-3447.429741
21124.407912,1110.308913,-11547.212695,1072.533697
21124.408246,1184.329507,-4811.338623,4903.011187
21124.408579,4737.318029,-10807.006753,6052.154434
21124.408912,6143.709319,-8808.450710,4826.401637
21124.409245,3182.885551,-5995.668130,0.000000
21124.409579,3256.906145,-9844.739029,995.924147
21124.409912,-74.020594,-8586.388927,-1915.238745
21124.410245,-740.205942,-11917.315666,-1302.362347
21124.410578,0.000000,-8808.450710,0.000000
21124.410912,-1850.514855,-8734.430116,-1378.971896
21124.411245,-1036.288319,-9326.594869,-2451.505594
21124.411578,444.123565,-10140.821405,2681.334243
21124.411911,-74.020594,-9548.656652,0.000000
21124.412245,0.000000,-6587.832884,1225.752797
21124.412578,888.247130,-11843.295072,4826.401637
21124.412911,0.000000,-6883.915261,1225.752797
21124.413245,1850.514855,-7105.977043,1762.019645
21124.413578,296.082377,-9844.739029,306.438199
21124.413911,-1924.535449,-9400.615463,-2298.286494
21124.414244,-3034.844362,-10658.965565,-1915.238745
21124.414578,-1184.329507,-9992.780217,1149.143247
21124.414911,-2368.659014,-4811.338623,0.000000
21124.415244,-74.020594,-9474.636058,-1915.238745
21124.415577,1184.329507,-7698.141797,-229.828649
21124.415911,2590.720797,-11843.295072,3600.648841
21124.416244,3330.926739,-7402.059420,3064.381992
21124.416577,3108.864956,-8142.265362,5132.839837
21124.416910,2220.617826,-7994.224174,1915.238745
21124.417244,0.000000,-5995.668130,0.000000
21124.417577,1998.556043,-11843.295072,-3140.991542
21124.417910,0.000000,-10732.986159,-2451.505594
21124.418244,-2368.659014,-11399.171507,-689.485948
21124.418577,1702.473667,-9770.718434,-383.047749
21124.418910,0.000000,-7179.997637,612.876398
21124.419243,1554.432478,-7031.956449,229.828649
21124.419577,2368.659014,-8956.491898,842.705048
21124.419910,2072.576638,-9400.615463,2068.457845
21124.420243,3552.988522,-9844.739029,4290.134789
21124.420576,4663.297435,-7179.997637,2757.943793
21124.420910,5847.626942,-10658.965565,4826.401637
21124.421243,1480.411884,-5995.668130,-1532.190996
21124.421576,0.000000,-11621.233289,995.924147
21124.421909,-2664.741391,-9918.759623,-3753.867940
21124.422243,-5329.482782,-10436.903782,-3064.381992
21124.422576,-2072.576638,-7772.162391,-1762.019645
21124.422909,-1924.535449,-9252.574275,383.047749
21124.423243,-3108.864956,-8142.265362,-153.219100
21124.423576,962.267725,-7328.038826,1225.752797
21124.423909,-666.185348,-10288.862594,3600.648841
21124.424242,2368.659014,-5403.503377,3600.648841
21124.424576,370.102971,-9474.636058,3294.210641
21124.424909,2960.823768,-7179.997637,1838.629195
21124.425242,-74.020594,-12139.377449,-842.705048
21124.425575,-4145.153275,-7772.162391,-2451.505594
21124.425909,-3034.844362,-14804.118840,-3294.210641
21124.426242,-4811.338623,-11547.212695,-5286.058936
21124.426575,-1776.494261,-10732.986159,0.000000
21124.426908,-2146.597232,-8290.306550,153.219100
21124.427242,1480.411884,-6439.791695,766.095498
21124.427575,1628.453072,-8438.347739,2987.772442
21124.427908,4071.132681,-9474.636058,4826.401637
21124.428242,1702.473667,-7105.977043,1149.143247
21124.428575,2664.741391,-8660.409521,3677.258390
21124.428908,5551.544565,-9474.636058,3294.210641
21124.429241,592.164754,-7179.997637,0.000000
21124.429575,2072.576638,-10362.883188,-1302.362347
21124.429908,-4145.153275,-11917.315666,-3983.696590
21124.430241,-1776.494261,-11177.109724,-3677.258390
21124.430574,-1628.453072,-10584.944971,-612.876398
21124.430907,-814.226536,-8882.471304,-1302.362347
21124.431241,-3034.844362,-4811.338623,-3677.258390
21124.431574,-74.020594,-10658.965565,1149.143247
21124.431907,2072.576638,-7476.080014,3983.696590
21124.432240,2886.803174,-5403.503377,3677.258390
21124.432573,4663.297435,-3923.091493,5209.449386
21124.432907,5847.626942,-9474.636058,2681.334243
21124.433240,1776.494261,-7179.997637,383.047749
21124.433573,2294.638420,-9622.677246,-2757.943793
21124.433906,-1776.494261,-13323.706956,-4290.134789
21124.434239,-888.247130,-13027.624579,-1915.238745
21124.434573,-666.185348,-11251.130318,-2911.162892
21124.434906,-3404.947333,-10140.821405,-1532.190996
21124.435239,-3552.988522,-8660.409521,1149.143247
21124.435572,-666.185348,-7402.059420,-1225.752797
21124.435905,3478.967927,-8290.306550,5439.278036
21124.436239,1184.329507,-7254.018232,6588.421283
21124.436572,2516.700203,-4441.235652,4596.572988
21124.436905,2072.576638,-7328.038826,5209.449386
21124.437238,-74.020594,-7550.100608,-842.705048
21124.437571,2590.720797,-7772.162391,-1762.019645
21124.437904,-2960.823768,-12435.459826,-4366.744339
21124.438238,-2442.679609,-11251.130318,-6205.373534
21124.438571,-4737.318029,-11103.089130,-4366.744339
21124.438904,-3256.906145,-13397.727550,-229.828649
21124.439237,1554.432478,-8290.306550,-1302.362347
21124.439570,1702.473667,-10362.883188,995.924147
21124.439904,5551.544565,-7105.977043,4519.963438
21124.440237,3478.967927,-7698.141797,5592.497135
21124.440570,5921.647536,-5921.647536,6665.030833
21124.440903,6217.729913,-5995.668130,7354.516781
21124.441236,3108.864956,-6069.688724,2068.457845
21124.441570,5847.626942,-8808.450710,-1608.800546
21124.441903,-4737.318029,-13101.645173,-3370.820191
21124.442236,-74.020594,-11843.295072,-7431.126331
21124.442569,-3330.926739,-13915.871710,-4979.620737
21124.442902,-2368.659014,-11917.315666,-2451.505594
21124.443236,-1258.350101,-9548.656652,-3217.601092
21124.443569,0.000000,-9918.759623,0.000000
21124.443902,3849.070898,-7772.162391,4519.963438
21124.444235,2072.576638,-7624.121203,5822.325785
21124.444568,4145.153275,-4293.194464,6665.030833
21124.444902,7031.956449,-7105.977043,9729.412825
21124.445235,2886.803174,-4737.318029,1455.581446
21124.445568,1184.329507,-6587.832884,0.000000
21124.445901,-1998.556043,-13545.768739,-2145.067394
21124.446234,-4737.318029,-10436.903782,-6128.763984
21124.446568,-4589.276840,-11843.295072,-4826.401637
21124.446901,-4737.318029,-12509.480420,-4826.401637
21124.447234,-2812.782580,-9326.594869,-2911.162892
21124.447567,-3552.988522,-10732.986159,0.000000
21124.447900,3478.967927,-9474.636058,3294.210641
21124.448234,-2072.576638,-5995.668130,2451.505594
21124.448567,2368.659014,-6291.750507,7890.783629
21124.448900,5847.626942,-7105.977043,7277.907231
21124.449233,4145.153275,-4515.256246,5132.839837
21124.449566,2220.617826,-8882.471304,536.266849
21124.449899,-3701.029710,-10436.903782,-5132.839837
21124.450233,-4589.276840,-14063.912898,-5669.106685
21124.450566,-3108.864956,-11843.295072,-4366.744339
21124.450899,-74.020594,-10955.047942,-4596.572988
21124.451232,-5329.482782,-11769.274478,-1302.362347
21124.451565,2294.638420,-12731.542202,2374.896044
21124.451899,-74.020594,-9474.636058,2374.896044
21124.452232,2960.823768,-8512.368333,7277.907231
21124.452565,2294.638420,-5847.626942,6665.030833
21124.452898,2738.761985,-6735.874072,6894.859482
21124.453231,2738.761985,-6661.853478,3140.991542
21124.453565,2072.576638,-6735.874072,1762.019645
21124.453898,518.144159,-9400.615463,-3064.381992
21124.454231,-3330.926739,-10881.027347,-5056.230287
21124.454564,-1036.288319,-12213.398043,-3983.696590
21124.454897,-4737.318029,-10732.986159,-4903.011187
21124.455231,-2960.823768,-10436.903782,-3294.210641
21124.455564,-1258.350101,-12435.459826,-76.609550
21124.455897,2294.638420,-10362.883188,536.266849
21124.456230,0.000000,-8956.491898,3370.820191
21124.456563,4663.297435,-7105.977043,6665.030833
21124.456897,5329.482782,-6439.791695,8886.707777
21124.457230,5699.585753,-5181.441594,7048.078582
21124.457563,4589.276840,-4885.359217,1532.190996
21124.457896,0.000000,-10732.986159,-1838.629195
21124.458229,0.000000,-9548.656652,-2145.067394
21124.458563,-74.020594,-11547.212695,-6205.373534
21124.458896,-2368.659014,-11325.150913,-6128.763984
21124.459229,-4737.318029,-11621.233289,-4443.353888
21124.459562,-2960.823768,-11029.068536,-5515.887586
21124.459895,888.247130,-10584.944971,995.924147
21124.460229,1184.329507,-10140.821405,4290.134789
21124.460562,3552.988522,-6735.874072,7354.516781
21124.460895,5847.626942,-6809.894666,9729.412825
21124.461228,2664.741391,-4811.338623,8503.660028
21124.461561,2886.803174,-3627.009116,0.000000
21124.461894,740.205942,-8660.409521,-76.609550
21124.462228,-666.185348,-11843.295072,-3140.991542
21124.462561,-3330.926739,-11769.274478,-3983.696590
21124.462894,-2516.700203,-11325.150913,-4826.401637
21124.463227,-4737.318029,-11917.315666,-4749.792088
21124.463560,-1332.370696,-10066.800811,-2911.162892
21124.463894,0.000000,-9548.656652,995.924147
21124.464227,1998.556043,-11251.130318,5439.278036
21124.464560,1184.329507,-4811.338623,3677.258390
21124.464893,2368.659014,-7772.162391,9422.974625
21124.465226,4071.132681,-4663.297435,4903.011187
21124.465560,1850.514855,-3849.070898,383.047749
21124.465893,-888.247130,-9844.739029,-2451.505594
21124.466226,-2516.700203,-11177.109724,-4903.011187
21124.466559,-2368.659014,-10288.862594,-4903.011187
21124.466892,0.000000,-11917.315666,-3677.258390
21124.467226,2294.638420,-11547.212695,-5822.325785
21124.467559,0.000000,-13397.727550,-76.609550
21124.467892,4663.297435,-13323.706956,6052.154434
21124.468225,1406.391290,-7179.997637,1225.752797
21124.468558,2368.659014,-8290.306550,5822.325785
21124.468892,4219.173869,-6587.832884,7507.735880
21124.469225,2886.803174,-5329.482782,5286.058936
21124.469558,2590.720797,-6365.771101,2451.505594
21124.469891,0.000000,-8364.327145,0.000000
21124.470224,-2738.761985,-9548.656652,-3983.696590
21124.470558,-2220.617826,-8734.430116,-3753.867940
21124.470891,-2812.782580,-11991.336260,-3140.991542
21124.471224,-2294.638420,-9770.718434,-2911.162892
21124.471557,-2368.659014,-9548.656652,-3370.820191
21124.471890,1110.308913,-11251.130318,-383.047749
21124.472224,-666.185348,-9844.739029,612.876398
21124.472557,592.164754,-9252.574275,5132.839837
21124.472890,5847.626942,-8290.306550,6665.030833
21124.473223,592.164754,-6587.832884,5515.887586
21124.473556,3478.967927,-5033.400406,2451.505594
21124.473889,-3552.988522,-10584.944971,-536.266849
21124.474223,-2072.576638,-7624.121203,-3064.381992
21124.474556,-1776.494261,-10436.903782,-76.609550
21124.474889,-666.185348,-8068.244768,-3370.820191
21124.475222,-222.061783,-10510.924376,-1225.752797
21124.475555,-3627.009116,-13027.624579,-2528.115143
21124.475889,0.000000,-10436.903782,-919.314598
21124.476222,-1480.411884,-10584.944971,2068.457845
21124.476555,1036.288319,-10732.986159,3064.381992
21124.476888,3256.906145,-6883.915261,5745.716235
21124.477221,1998.556043,-9030.512492,4673.182538
21124.477555,4663.297435,-5921.647536,2374.896044
21124.477888,2294.638420,-7994.224174,-2451.505594
21124.478221,0.000000,-9474.636058,-689.485948
21124.478554,-74.020594,-11843.295072,-76.609550
21124.478887,-74.020594,-10362.883188,-2451.505594
21124.479221,-666.185348,-11251.130318,-2221.676944
21124.479554,-814.226536,-9992.780217,-2068.457845
21124.479887,-888.247130,-11769.274478,-459.657299
21124.480220,-1110.308913,-9548.656652,-306.438199
21124.480553,0.000000,-7476.080014,1225.752797
21124.480887,2368.659014,-5995.668130,4903.011187
21124.481220,6513.812290,-7698.141797,9116.536426
21124.481553,4071.132681,-5551.544565,3370.820191
21124.481886,1184.329507,-8956.491898,2757.943793
21124.482219,-74.020594,-11251.130318,-2681.334243
21124.482553,-962.267725,-10658.965565,-2757.943793
21124.482886,-1702.473667,-11251.130318,-3140.991542
21124.483219,-2738.761985,-10955.047942,-3600.648841
21124.483552,-2960.823768,-7550.100608,-4673.182538
21124.483885,-1184.329507,-11769.274478,229.828649
21124.484218,2886.803174,-9030.512492,2068.457845
21124.484552,1332.370696,-10362.883188,5286.058936
21124.484885,4663.297435,-7994.224174,7277.907231
21124.485218,2294.638420,-9474.636058,6358.592633
21124.485551,1110.308913,-6735.874072,0.000000
21124.485884,1184.329507,-7476.080014,0.000000
21124.486218,-2146.597232,-12435.459826,-689.485948
21124.486551,296.082377,-8068.244768,-1685.410096
21124.486884,-1850.514855,-12879.583391,-76.609550
21124.487217,-2368.659014,-10140.821405,-2298.286494
21124.487550,-740.205942,-8808.450710,-2451.505594
21124.487884,518.144159,-10658.965565,-1302.362347
21124.488217,2368.659014,-9548.656652,2451.505594
21124.488550,-74.020594,-8956.491898,1225.752797
21124.488883,4737.318029,-7254.018232,5898.935335
21124.489216,4663.297435,-10658.965565,6052.154434
21124.489550,4663.297435,-4145.153275,2681.334243
21124.489883,3478.967927,-8290.306550,-995.924147
21124.490216,-1184.329507,-11843.295072,-2451.505594
21124.490549,148.041188,-8142.265362,-4443.353888
21124.490882,-1628.453072,-12583.501014,-1608.800546
21124.491216,4071.132681,-11547.212695,-383.047749
21124.491549,0.000000,-11325.150913,0.000000
21124.491882,2812.782580,-11843.295072,1762.019645
21124.492215,2294.638420,-8660.409521,459.657299
21124.492548,0.000000,-9548.656652,1838.629195
21124.492882,4367.215058,-6217.729913,3983.696590
21124.493215,1776.494261,-8512.368333,5975.544884
21124.493548,2220.617826,-5625.565159,1838.629195
21124.493881,-1258.350101,-9548.656652,0.000000
21124.494214,-2738.761985,-7328.038826,-3217.601092
21124.494548,-2516.700203,-11547.212695,-689.485948
21124.494881,-2146.597232,-10658.965565,-1915.238745
21124.495214,-2442.679609,-8956.491898,-2451.505594
21124.495547,-962.267725,-10955.047942,-383.047749
21124.495880,0.000000,-9548.656652,0.000000
21124.496213,-370.102971,-10584.944971,459.657299
21124.496547,0.000000,-9844.739029,1838.629195
21124.496880,1924.535449,-8290.306550,3753.867940
21124.497213,1480.411884,-9844.739029,5056.230287
21124.497546,4663.297435,-7698.141797,1762.019645
21124.497879,-2960.823768,-8364.327145,0.000000
21124.498213,-3552.988522,-8364.327145,0.000000
21124.498546,-74.020594,-11251.130318,-689.485948
21124.498879,0.000000,-7772.162391,612.876398
21124.499212,0.000000,-10732.986159,1455.581446
21124.499545,-1184.329507,-8364.327145,-2145.067394
21124.499879,518.144159,-10658.965565,-766.095498
21124.500212,-1776.494261,-10436.903782,766.095498
21124.500545,444.123565,-9622.677246,0.000000
21124.500878,1258.350101,-9918.759623,2911.162892
21124.501211,2146.597232,-9326.594869,3217.601092
21124.501545,1110.308913,-6957.935855,1149.143247
21124.501878,296.082377,-7476.080014,2374.896044
21124.502211,-74.020594,-9474.636058,-995.924147
21124.502544,-666.185348,-5403.503377,-2451.505594
21124.502877,592.164754,-9992.780217,766.095498
21124.503211,-74.020594,-9474.636058,842.705048
21124.503544,0.000000,-8660.409521,-1532.190996
21124.503877,148.041188,-9696.697840,-689.485948
21124.504210,1924.535449,-10658.965565,-76.609550
21124.504543,-2072.576638,-11917.315666,0.000000
21124.504877,592.164754,-7772.162391,3677.258390
21124.505210,4071.132681,-9474.636058,2987.772442
21124.505543,2368.659014,-5403.503377,1225.752797
21124.505876,1480.411884,-8808.450710,2068.457845
21124.506209,0.000000,-8660.409521,-1149.143247
21124.506543,-370.102971,-8882.471304,-1608.800546
21124.506876,-592.164754,-9326.594869,-1225.752797
21124.507209,0.000000,-8956.491898,76.609550
21124.507542,-74.020594,-9474.636058,-689.485948
21124.507875,592.164754,-7772.162391,-76.609550
21124.508208,-74.020594,-9918.759623,-2451.505594
21124.508542,0.000000,-11029.068536,1149.143247
21124.508875,5551.544565,-11843.295072,4826.401637
21124.509208,1184.329507,-8364.327145,3677.258390
21124.509541,3034.844362,-10658.965565,2068.457845
21124.509874,-1110.308913,-9104.533087,-766.095498
21124.510208,-814.226536,-9696.697840,-1685.410096
21124.510541,-1258.350101,-8882.471304,-1608.800546
21124.510874,0.000000,-8364.327145,2911.162892
21124.511207,-1850.514855,-9104.533087,0.000000
21124.511540,-4737.318029,-4811.338623,0.000000
21124.511874,2220.617826,-8882.471304,842.705048
21124.512207,2294.638420,-9474.636058,2987.772442
21124.512540,-148.041188,-10362.883188,1762.019645
21124.512873,-1258.350101,-8882.471304,1072.533697
21124.513206,-1776.494261,-10140.821405,153.219100
21124.513540,-74.020594,-8068.244768,536.266849
21124.513873,2664.741391,-9474.636058,-76.609550
21124.514206,-666.185348,-8956.491898,-1838.629195
21124.514539,-1184.329507,-10436.903782,-2451.505594
21124.514872,-74.020594,-10658.965565,-1302.362347
21124.515206,1110.308913,-6809.894666,-76.609550
21124.515539,2220.617826,-9474.636058,-76.609550
21124.515872,2664.741391,-9548.656652,2145.067394
21124.516205,1332.370696,-10214.842000,2145.067394
21124.516538,592.164754,-9252.574275,1149.143247
21124.516872,3256.906145,-9474.636058,2987.772442
21124.517205,2664.741391,-8586.388927,2987.772442
21124.517538,2368.659014,-7920.203579,842.705048
21124.517871,-1702.473667,-9252.574275,-2834.553343
21124.518204,-3552.988522,-7772.162391,-4903.011187
21124.518538,-3849.070898,-11103.089130,-2528.115143
21124.518871,962.267725,-9474.636058,-1915.238745
21124.519204,0.000000,-8364.327145,3064.381992
21124.519537,1998.556043,-7402.059420,536.266849
21124.519870,2294.638420,-8142.265362,-383.047749
21124.520203,1776.494261,-10288.862594,2374.896044
21124.520537,2072.576638,-9696.697840,2681.334243
21124.520870,3182.885551,-8586.388927,2834.553343
21124.521203,3552.988522,-10140.821405,3983.696590
21124.521536,2368.659014,-10066.800811,3600.648841
21124.521869,-1406.391290,-7772.162391,-3064.381992
21124.522203,-3552.988522,-9548.656652,-1991.848295
21124.522536,-3256.906145,-12879.583391,-3753.867940
21124.522869,-3330.926739,-7179.997637,-2451.505594
21124.523202,-2590.720797,-9474.636058,76.609550
21124.523535,-74.020594,-7402.059420,1455.581446
21124.523869,0.000000,-7254.018232,2987.772442
21124.524202,4071.132681,-7698.141797,4826.401637
21124.524535,4071.132681,-13027.624579,4213.525239
21124.524868,0.000000,-6587.832884,1838.629195
21124.525201,1628.453072,-9696.697840,1225.752797
21124.525535,-1036.288319,-11547.212695,-76.609550
21124.525868,-148.041188,-10881.027347,-766.095498
21124.526201,-2886.803174,-11399.171507,-3983.696590
21124.526534,-2738.761985,-11621.233289,-3370.820191
21124.526867,-2072.576638,-10066.800811,-689.485948
21124.527201,-1480.411884,-7846.182985,766.095498
21124.527534,2886.803174,-5921.647536,1608.800546
21124.527867,0.000000,-5403.503377,4903.011187
21124.528200,5255.462188,-7698.141797,3600.648841
21124.528533,-1036.288319,-5995.668130,-1685.410096
21124.528867,1554.432478,-10658.965565,2374.896044
21124.529200,1332.370696,-9992.780217,1915.238745
21124.529533,1406.391290,-9992.780217,-612.876398
21124.529866,0.000000,-11177.109724,-4519.963438
21124.530199,-2368.659014,-12805.562797,-3064.381992
21124.530532,-2442.679609,-10140.821405,-3677.258390
21124.530865,2220.617826,-10362.883188,1838.629195
21124.531198,3478.967927,-10658.965565,2987.772442
21124.531531,0.000000,-6587.832884,3064.381992
21124.531864,1258.350101,-6809.894666,3600.648841
21124.532197,592.164754,-7772.162391,4213.525239
21124.532530,1776.494261,-8142.265362,2911.162892
21124.532863,1110.308913,-8438.347739,3370.820191
21124.533196,1776.494261,-8734.430116,2757.943793
21124.533529,-74.020594,-9770.718434,-1838.629195
21124.533862,-2072.576638,-10510.924376,-4443.353888
21124.534196,-1406.391290,-11843.295072,-4519.963438
21124.534529,-1184.329507,-10584.944971,-2987.772442
21124.534862,0.000000,-10732.986159,0.000000
21124.535195,-962.267725,-8438.347739,-1608.800546
21124.535528,-370.102971,-7179.997637,0.000000
21124.535861,2664.741391,-7698.141797,2374.896044
21124.536194,3923.091493,-9326.594869,4519.963438
21124.536527,1332.370696,-7772.162391,4290.134789
21124.536860,2368.659014,-8956.491898,3983.696590
21124.537193,1924.535449,-7994.224174,2374.896044
21124.537526,1480.411884,-9844.739029,1072.533697
21124.537859,1702.473667,-10510.924376,-383.047749
21124.538192,-74.020594,-9548.656652,-4903.011187
21124.538525,-3256.906145,-12731.542202,-4903.011187
21124.538858,-1480.411884,-12287.418637,-1608.800546
21124.539191,-666.185348,-11843.295072,-1302.362347
21124.539524,0.000000,-8364.327145,1608.800546
21124.539857,1110.308913,-7105.977043,1149.143247
21124.540190,1628.453072,-8808.450710,2604.724693
21124.540523,2368.659014,-7920.203579,2681.334243
21124.540856,1998.556043,-7179.997637,2451.505594
21124.541189,2886.803174,-7179.997637,4903.011187
21124.541522,3182.885551,-10658.965565,4826.401637
21124.541855,-1480.411884,-7105.977043,-2528.115143
21124.542189,-4737.318029,-8660.409521,-4136.915689
21124.542522,-3627.009116,-10066.800811,-6128.763984
21124.542855,-2294.638420,-8438.347739,-3753.867940
21124.543188,-2368.659014,-9326.594869,-1225.752797
21124.543521,-888.247130,-10436.903782,-229.828649
21124.543854,-1480.411884,-7179.997637,612.876398
21124.544187,1776.494261,-9474.636058,3600.648841
21124.544520,2886.803174,-10658.965565,842.705048
21124.544853,1480.411884,-7772.162391,5592.497135
21124.545186,4293.194464,-9104.533087,7277.907231
21124.545519,4663.297435,-5921.647536,1225.752797
21124.545852,1554.432478,-9326.594869,-383.047749
21124.546185,-148.041188,-11177.109724,-2145.067394
21124.546518,-1850.514855,-10288.862594,-3370.820191
21124.546851,-3404.947333,-11621.233289,-4290.134789
21124.547184,-1406.391290,-9474.636058,-2068.457845
21124.547517,-2368.659014,-8956.491898,-1838.629195
21124.547850,962.267725,-8216.285956,459.657299
21124.548183,888.247130,-9474.636058,2374.896044
21124.548516,0.000000,-7698.141797,536.266849
21124.548849,0.000000,-9548.656652,5362.668486
21124.549182,3923.091493,-6513.812290,3600.648841
21124.549515,4663.297435,-7476.080014,3064.381992
21124.549849,5847.626942,-6809.894666,3600.648841
21124.550182,2294.638420,-11843.295072,-1915.238745
21124.550515,-1702.473667,-9918.759623,-4443.353888
21124.550848,-1702.473667,-12731.542202,-4749.792088
21124.551181,-3108.864956,-11843.295072,-4979.620737
21124.551514,1110.308913,-11399.171507,1149.143247
21124.551847,-4071.132681,-7179.997637,0.000000
21124.552180,4515.256246,-8290.306550,3600.648841
21124.552513,370.102971,-6217.729913,1608.800546
21124.552846,2368.659014,-5995.668130,4213.525239
21124.553179,2294.638420,-6513.812290,2911.162892
21124.553512,2812.782580,-10066.800811,3600.648841
21124.553845,1850.514855,-8068.244768,-1072.533697
21124.554178,-1332.370696,-11769.274478,-2834.553343
21124.554511,-1850.514855,-9474.636058,-4366.744339
21124.554844,-74.020594,-12731.542202,-76.609550
21124.555177,1702.473667,-9474.636058,-383.047749
21124.555510,0.000000,-7328.038826,0.000000
21124.555843,0.000000,-10807.006753,1378.971896
21124.556176,-740.205942,-8364.327145,612.876398
21124.556509,-1184.329507,-9992.780217,2145.067394
21124.556842,-370.102971,-7772.162391,2604.724693
21124.557175,888.247130,-7402.059420,3600.648841
21124.557508,296.082377,-5107.421000,1225.752797
21124.557842,-74.020594,-9474.636058,-1302.362347
21124.558175,-2664.741391,-7105.977043,-3753.867940
21124.558508,-4145.153275,-8956.491898,-1838.629195
21124.558841,-74.020594,-12731.542202,-1302.362347
21124.559174,0.000000,-10436.903782,0.000000
21124.559507,-1184.329507,-9696.697840,-1532.190996
21124.559840,296.082377,-8956.491898,-919.314598
21124.560173,1924.535449,-9474.636058,842.705048
21124.560506,2960.823768,-11769.274478,3600.648841
21124.560839,2294.638420,-9178.553681,1455.581446
21124.561172,1184.329507,-7476.080014,4903.011187
21124.561505,3997.112087,-10066.800811,7277.907231
21124.561838,3182.885551,-6513.812290,1149.143247
21124.562171,296.082377,-8364.327145,-76.609550
21124.562504,-2442.679609,-10362.883188,-2604.724693
21124.562837,-2220.617826,-9474.636058,-4136.915689
21124.563170,-3923.091493,-11399.171507,-2221.676944
21124.563503,0.000000,-8956.491898,766.095498
21124.563836,-74.020594,-8956.491898,229.828649
21124.564169,1332.370696,-8068.244768,383.047749
21124.564502,1184.329507,-10732.986159,766.095498
21124.564835,814.226536,-8438.347739,766.095498
21124.565168,2368.659014,-8364.327145,4443.353888
21124.565501,4663.297435,-9178.553681,4213.525239
21124.565835,666.185348,-5995.668130,612.876398
21124.566168,-888.247130,-10658.965565,-383.047749
21124.566501,-1258.350101,-11251.130318,-3140.991542
21124.566834,-2960.823768,-10732.986159,-3140.991542
21124.567167,-1480.411884,-7772.162391,-842.705048
21124.567500,-74.020594,-8734.430116,-153.219100
21124.567833,1184.329507,-5995.668130,612.876398
21124.568166,0.000000,-7179.997637,1225.752797
21124.568499,3478.967927,-10658.965565,-383.047749
21124.568832,1776.494261,-7179.997637,0.000000
21124.569165,1776.494261,-10140.821405,3447.429741
21124.569498,2664.741391,-7772.162391,1838.629195
21124.569831,-1036.288319,-10288.862594,-536.266849
21124.570164,-592.164754,-10066.800811,-1762.019645
21124.570497,-1406.391290,-8956.491898,-2451.505594
21124.570830,1998.556043,-11843.295072,995.924147
21124.571163,0.000000,-6587.832884,4519.963438
21124.571496,1702.473667,-8882.471304,-76.609550
21124.571829,-1776.494261,-5995.668130,0.000000
21124.572162,0.000000,-8068.244768,2068.457845
21124.572495,1702.473667,-10658.965565,0.000000
21124.572828,296.082377,-10066.800811,1762.019645
21124.573161,296.082377,-8364.327145,1762.019645
21124.573495,518.144159,-8364.327145,2298.286494
21124.573828,370.102971,-9474.636058,-306.438199
21124.574161,592.164754,-10362.883188,-76.609550
21124.574494,-3182.885551,-10658.965565,-2528.115143
21124.574827,-3552.988522,-9548.656652,-1225.752797
21124.575160,-74.020594,-9474.636058,-76.609550
21124.575493,-74.020594,-8586.388927,536.266849
21124.575826,592.164754,-6291.750507,0.000000
21124.576159,-1776.494261,-8956.491898,-612.876398
21124.576492,296.082377,-10807.006753,-689.485948
21124.576825,-2072.576638,-9844.739029,1608.800546
21124.577158,1702.473667,-7994.224174,229.828649
21124.577491,2368.659014,-8364.327145,5439.278036
21124.577824,2294.638420,-11251.130318,4213.525239
21124.578157,0.000000,-4811.338623,-2451.505594
21124.578490,-1850.514855,-10807.006753,-2221.676944
21124.578823,-1258.350101,-9918.759623,-3677.258390
21124.579156,-1480.411884,-10807.006753,-1915.238745
21124.579489,-666.185348,-10807.006753,0.000000
21124.579822,1184.329507,-8068.244768,1225.752797
21124.580155,2294.638420,-8290.306550,0.000000
21124.580488,4663.297435,-9844.739029,2221.676944
21124.580821,1480.411884,-9696.697840,2528.115143
21124.581154,1776.494261,-9252.574275,2987.772442
21124.581488,1184.329507,-7179.997637,4290.134789
21124.581821,1110.308913,-9178.553681,-76.609550
21124.582154,1702.473667,-5699.585753,-3677.258390
21124.582487,-1776.494261,-11769.274478,-76.609550
21124.582820,-74.020594,-10658.965565,-689.485948
21124.583153,-4293.194464,-8364.327145,-1532.190996
21124.583486,-666.185348,-8734.430116,-1072.533697
21124.583819,-74.020594,-7179.997637,-919.314598
21124.584152,1258.350101,-7550.100608,0.000000
21124.584485,2368.659014,-10807.006753,2757.943793
21124.584818,-74.020594,-11547.212695,-383.047749
21124.585151,888.247130,-10955.047942,3064.381992
21124.585484,3182.885551,-10658.965565,2987.772442
21124.585817,1184.329507,-7772.162391,2451.505594
21124.586150,592.164754,-8364.327145,2068.457845
21124.586483,-1036.288319,-10288.862594,-919.314598
21124.586816,-1702.473667,-8586.388927,-1532.190996
21124.587149,-1924.535449,-9770.718434,-1532.190996
21124.587482,-74.020594,-11547.212695,1149.143247
21124.587815,-74.020594,-5921.647536,-2451.505594
21124.588148,0.000000,-7179.997637,-76.609550
21124.588481,3701.029710,-11473.192101,2374.896044
21124.588814,1110.308913,-11547.212695,842.705048
21124.589147,2886.803174,-9474.636058,2374.896044
21124.589481,2072.576638,-9548.656652,3600.648841
21124.589814,0.000000,-11177.109724,153.219100
21124.590147,444.123565,-8882.471304,-1149.143247
21124.590480,-3256.906145,-8956.491898,-1225.752797
21124.590813,-1480.411884,-7179.997637,-3677.258390
21124.591146,-2368.659014,-8956.491898,1762.019645
21124.591479,2294.638420,-7105.977043,2374.896044
21124.591812,1850.514855,-4811.338623,612.876398
21124.592145,2738.761985,-9474.636058,842.705048
21124.592478,2220.617826,-10436.903782,76.609550
21124.592811,-740.205942,-11177.109724,-1378.971896
21124.593144,74.020594,-9844.739029,0.000000
21124.593477,-888.247130,-9252.574275,612.876398
21124.593810,-2072.576638,-11177.109724,689.485948
21124.594143,-1036.288319,-7328.038826,-612.876398
21124.594476,-740.205942,-9326.594869,-383.047749
21124.594809,148.041188,-8586.388927,2145.067394
21124.595142,-74.020594,-9474.636058,2374.896044
21124.595475,518.144159,-5403.503377,1225.752797
21124.595808,1628.453072,-9474.636058,4213.525239
21124.596141,1110.308913,-7105.977043,-1915.238745
21124.596474,0.000000,-10436.903782,-1225.752797
21124.596807,-74.020594,-12731.542202,-1302.362347
21124.597140,370.102971,-10362.883188,-383.047749
21124.597474,222.061783,-10732.986159,1608.800546
21124.597807,1110.308913,-10658.965565,-383.047749
21124.598140,0.000000,-8956.491898,536.266849
21124.598473,-2664.741391,-7772.162391,0.000000
21124.598806,1924.535449,-7698.141797,2374.896044
21124.599139,444.123565,-7105.977043,689.485948
21124.599472,3478.967927,-8216.285956,3600.648841
21124.599805,2886.803174,-8290.306550,2681.334243
21124.600138,592.164754,-6883.915261,-766.095498
21124.600471,1924.535449,-10288.862594,-1608.800546
21124.600804,-962.267725,-12657.521608,-1915.238745
21124.601137,-74.020594,-11843.295072,-383.047749
21124.601470,0.000000,-10732.986159,1225.752797
21124.601803,1628.453072,-11843.295072,1149.143247
21124.602136,-296.082377,-7179.997637,306.438199
21124.602469,-1776.494261,-7476.080014,612.876398
21124.602802,-74.020594,-7105.977043,-3370.820191
21124.603135,-3330.926739,-9326.594869,-612.876398
21124.603468,1110.308913,-7179.997637,842.705048
21124.603801,1998.556043,-8808.450710,3907.087040
21124.604134,4071.132681,-5921.647536,2068.457845
21124.604467,2368.659014,-10732.986159,2987.772442
21124.604800,1702.473667,-12435.459826,2987.772442
21124.605134,-74.020594,-8956.491898,-2451.505594
21124.605467,0.000000,-11029.068536,1225.752797
21124.605800,0.000000,-10140.821405,306.438199
21124.606133,-1850.514855,-8882.471304,-1532.190996
21124.606466,-962.267725,-8956.491898,-995.924147
21124.606799,-1924.535449,-8586.388927,-1072.533697
21124.607132,-2368.659014,-5403.503377,0.000000
21124.607465,1554.432478,-10658.965565,2374.896044
21124.607798,0.000000,-6883.915261,1608.800546
21124.608131,0.000000,-5403.503377,1225.752797
21124.608464,3256.906145,-11843.295072,2298.286494
21124.608797,1184.329507,-8660.409521,612.876398
21124.609130,222.061783,-10732.986159,0.000000
21124.609463,1850.514855,-9918.759623,229.828649
21124.609796,0.000000,-12583.501014,0.000000
21124.610129,-888.247130,-8364.327145,-3064.381992
21124.610462,-1332.370696,-11325.150913,-1608.800546
21124.610795,-740.205942,-9030.512492,-1532.190996
21124.611128,-1850.514855,-8364.327145,-306.438199
21124.611461,2294.638420,-7698.141797,4213.525239
21124.611794,3923.091493,-5699.585753,4903.011187
21124.612127,2664.741391,-5995.668130,6741.640382
21124.612460,4663.297435,-8882.471304,-229.828649
21124.612793,-2368.659014,-10140.821405,153.219100
21124.613127,-592.164754,-8956.491898,-76.609550
21124.613460,-74.020594,-10955.047942,76.609550
21124.613793,148.041188,-9252.574275,-1072.533697
21124.614126,-3775.050304,-11843.295072,-4136.915689
21124.614459,-2960.823768,-7994.224174,-4673.182538
21124.614792,-2442.679609,-7772.162391,-4290.134789
21124.615125,-74.020594,-10658.965565,-76.609550
21124.615458,3775.050304,-5921.647536,2374.896044
21124.615791,592.164754,-8956.491898,6128.763984
21124.616124,4663.297435,-6513.812290,3294.210641
21124.616457,666.185348,-9992.780217,2068.457845
21124.616790,2812.782580,-9548.656652,919.314598
21124.617123,888.247130,-9400.615463,383.047749
21124.617456,740.205942,-10732.986159,1225.752797
21124.617789,-2442.679609,-9844.739029,-2451.505594
21124.618122,-1850.514855,-11843.295072,-4979.620737
21124.618455,-4367.215058,-10140.821405,-3677.258390
21124.618788,-4737.318029,-8364.327145,0.000000
21124.619121,0.000000,-5699.585753,-919.314598
21124.619454,1184.329507,-8290.306550,4213.525239
21124.619787,3701.029710,-6587.832884,5209.449386
21124.620120,2294.638420,-6661.853478,3140.991542
21124.620453,5847.626942,-9474.636058,3600.648841
21124.620786,1184.329507,-9548.656652,1225.752797
21124.621120,2294.638420,-14211.954086,-76.609550
21124.621453,1110.308913,-7772.162391,0.000000
21124.621786,-962.267725,-13915.871710,-2298.286494
21124.622119,-74.020594,-10362.883188,-2757.943793
21124.622452,-518.144159,-10955.047942,-2145.067394
21124.622785,-518.144159,-9844.739029,-612.876398
21124.623118,-1480.411884,-8364.327145,1838.629195
21124.623451,-962.267725,-5625.565159,842.705048
21124.623784,4071.132681,-7105.977043,4826.401637
21124.624117,888.247130,-3627.009116,2451.505594
21124.624450,0.000000,-5995.668130,4290.134789
21124.624783,-74.020594,-9178.553681,-459.657299
21124.625116,-222.061783,-9622.677246,-1225.752797
21124.625449,-1036.288319,-11473.192101,-1608.800546
21124.625782,-666.185348,-11325.150913,-3064.381992
21124.626115,-74.020594,-10881.027347,-2681.334243
21124.626448,-2368.659014,-11325.150913,-2451.505594
21124.626781,1702.473667,-11251.130318,-1302.362347
21124.627114,-2738.761985,-9474.636058,-459.657299
21124.627447,2072.576638,-8290.306550,3217.601092
21124.627780,3627.009116,-6957.935855,6052.154434
21124.628113,3775.050304,-5625.565159,2987.772442
21124.628446,3552.988522,-7846.182985,5515.887586
21124.628779,3478.967927,-9474.636058,1455.581446
21124.629113,0.000000,-8364.327145,1378.971896
21124.629446,0.000000,-9696.697840,383.047749
21124.629779,-666.185348,-10362.883188,-5209.449386
21124.630112,-2812.782580,-11769.274478,-4673.182538
21124.630445,-3330.926739,-11621.233289,-4903.011187
21124.630778,-1998.556043,-10140.821405,-4290.134789
21124.631111,-3256.906145,-9844.739029,-2145.067394
21124.631444,3478.967927,-9474.636058,4213.525239
21124.631777,3478.967927,-7698.141797,4826.401637
21124.632110,592.164754,-4811.338623,5515.887586
21124.632443,4367.215058,-7105.977043,3600.648841
21124.632776,2664.741391,-11843.295072,4519.963438
21124.633109,0.000000,-6291.750507,1838.629195
21124.633442,0.000000,-10288.862594,459.657299
21124.633775,0.000000,-11251.130318,-1532.190996
21124.634108,-666.185348,-11251.130318,-2528.115143
21124.634441,-1258.350101,-12435.459826,-5592.497135
21124.634774,-2368.659014,-8956.491898,-3370.820191
21124.635107,-5921.647536,-9548.656652,-2451.505594
21124.635440,1110.308913,-8882.471304,1608.800546
21124.635773,2738.761985,-8882.471304,5898.935335
21124.636106,2368.659014,-5033.400406,4290.134789
21124.636439,2886.803174,-6365.771101,3140.991542
21124.636772,1628.453072,-10658.965565,3600.648841
21124.637105,444.123565,-8586.388927,689.485948
21124.637438,0.000000,-7179.997637,-2451.505594
21124.637771,2738.761985,-13027.624579,-76.609550
21124.638104,-666.185348,-8956.491898,-3524.039291
21124.638437,-962.267725,-8364.327145,-4903.011187
21124.638770,740.205942,-11843.295072,-842.705048
21124.639103,-2294.638420,-9252.574275,-2374.896044
21124.639436,-74.020594,-9178.553681,-919.314598
21124.639769,1110.308913,-9622.677246,3140.991542
21124.640102,1110.308913,-5773.606348,1149.143247
21124.640435,592.164754,-7476.080014,1685.410096
21124.640768,2590.720797,-8142.265362,1762.019645
21124.641101,1110.308913,-9178.553681,2834.553343
21124.641434,2368.659014,-8364.327145,3370.820191
21124.641767,2368.659014,-10881.027347,2987.772442
21124.642100,1110.308913,-9474.636058,-2834.553343
21124.642432,-1480.411884,-11325.150913,-2451.505594
21124.642765,-1480.411884,-11399.171507,-2221.676944
21124.643098,-3849.070898,-10140.821405,-4136.915689
21124.643431,-1702.473667,-10436.903782,689.485948
21124.643764,1554.432478,-7476.080014,2145.067394
21124.644097,1998.556043,-7920.203579,4136.915689
21124.644430,2886.803174,-9178.553681,4213.525239
21124.644763,370.102971,-7179.997637,3064.381992
21124.645096,-74.020594,-6587.832884,0.000000
21124.645429,1776.494261,-8734.430116,3294.210641
21124.645762,1110.308913,-11251.130318,-76.609550
21124.646095,-1258.350101,-9918.759623,-2068.457845
21124.646428,-2368.659014,-10066.800811,-3753.867940
21124.646761,-1924.535449,-11251.130318,-3140.991542
21124.647094,-2294.638420,-9918.759623,-1608.800546
21124.647427,-2368.659014,-10140.821405,-383.047749
21124.647760,1184.329507,-9252.574275,4213.525239
21124.648093,-1776.494261,-5403.503377,229.828649
21124.648426,0.000000,-6587.832884,1225.752797
21124.648759,4663.297435,-9474.636058,4213.525239
21124.649092,222.061783,-6809.894666,1532.190996
21124.649425,3330.926739,-8734.430116,2528.115143
21124.649758,1406.391290,-9326.594869,1762.019645
21124.650091,0.000000,-8660.409521,-1762.019645
21124.650424,148.041188,-8882.471304,-2374.896044
21124.650757,-74.020594,-11843.295072,-3753.867940
21124.651090,-3552.988522,-11325.150913,-2221.676944
21124.651423,-1184.329507,-11029.068536,1149.143247
21124.651756,2294.638420,-9474.636058,1455.581446
21124.652089,592.164754,-7772.162391,3677.258390
21124.652422,1702.473667,-6883.915261,1532.190996
21124.652755,2146.597232,-8956.491898,2834.553343
21124.653088,0.000000,-8956.491898,2451.505594
21124.653421,1184.329507,-7105.977043,2145.067394
21124.653754,0.000000,-7476.080014,0.000000
21124.654087,0.000000,-9474.636058,2374.896044
21124.654420,-1258.350101,-7254.018232,-4903.011187
21124.654753,-3849.070898,-9548.656652,-4903.011187
21124.655086,-2368.659014,-11029.068536,-1532.190996
21124.655419,-222.061783,-10288.862594,-2451.505594
21124.655752,2516.700203,-10807.006753,3140.991542
21124.656085,1702.473667,-9474.636058,2604.724693
21124.656418,1406.391290,-9252.574275,1149.143247
21124.656751,2294.638420,-8364.327145,1838.629195
21124.657084,1554.432478,-9770.718434,2451.505594
21124.657417,3034.844362,-7105.977043,4519.963438
21124.657750,0.000000,-8068.244768,1838.629195
21124.658083,1110.308913,-9474.636058,-76.609550
21124.658416,-2442.679609,-8364.327145,-3524.039291
21124.658749,0.000000,-9474.636058,-1302.362347
21124.659082,-3034.844362,-8660.409521,-5822.325785
21124.659415,-2368.659014,-10436.903782,-2298.286494
21124.659748,0.000000,-9548.656652,1225.752797
21124.660081,1110.308913,-7846.182985,612.876398
21124.660414,3552.988522,-9474.636058,2068.457845
21124.660747,2368.659014,-9548.656652,2757.943793
21124.661080,1110.308913,-11547.212695,1149.143247
21124.661413,-74.020594,-7994.224174,0.000000
21124.661746,3701.029710,-8882.471304,2374.896044
21124.662079,1554.432478,-8290.306550,-1302.362347
21124.662412,0.000000,-9548.656652,2221.676944
21124.662745,1702.473667,-9474.636058,-76.609550
21124.663078,-3256.906145,-10140.821405,-383.047749
21124.663411,-74.020594,-8438.347739,0.000000
21124.663744,-444.123565,-8512.368333,995.924147
21124.664077,592.164754,-7179.997637,612.876398
21124.664410,-666.185348,-7402.059420,-4290.134789
21124.664743,2294.638420,-13027.624579,-76.609550
21124.665076,-2368.659014,-9548.656652,1225.752797
21124.665409,-2368.659014,-8956.491898,1532.190996
21124.665742,-740.205942,-8142.265362,-1915.238745
21124.666075,0.000000,-9770.718434,995.924147
21124.666408,518.144159,-7698.141797,0.000000
21124.666741,740.205942,-8142.265362,-306.438199
21124.667074,1184.329507,-9252.574275,-153.219100
21124.667407,-1184.329507,-9548.656652,0.000000
21124.667740,4663.297435,-12435.459826,3600.648841
21124.668073,518.144159,-7772.162391,1225.752797
21124.668406,-592.164754,-10955.047942,-76.609550
21124.668739,1184.329507,-9474.636058,0.000000
21124.669072,-1554.432478,-11325.150913,536.266849
21124.669405,666.185348,-7920.203579,842.705048
21124.669738,-592.164754,-8142.265362,1455.581446
21124.670071,-666.185348,-8290.306550,-995.924147
21124.670404,-1776.494261,-9696.697840,1149.143247
21124.670737,-1258.350101,-7476.080014,-3064.381992
21124.671070,-3552.988522,-9548.656652,536.266849
21124.671403,1110.308913,-9178.553681,-1072.533697
21124.671736,1776.494261,-7772.162391,1225.752797
21124.672069,2294.638420,-9474.636058,1762.019645
21124.672402,1998.556043,-8290.306550,0.000000
21124.672735,444.123565,-11547.212695,842.705048
21124.673068,-1258.350101,-11547.212695,-76.609550
21124.673401,1406.391290,-8290.306550,2221.676944
21124.673734,444.123565,-9918.759623,2068.457845
21124.674067,2738.761985,-7772.162391,612.876398
21124.674400,-2072.576638,-8364.327145,0.000000
21124.674733,-74.020594,-9474.636058,-76.609550
21124.675066,-2072.576638,-7179.997637,-2451.505594
21124.675399,-2368.659014,-11103.089130,-76.609550
21124.675732,1110.308913,-6291.750507,-1838.629195
21124.676065,0.000000,-7772.162391,1225.752797
21124.676398,2294.638420,-9178.553681,-1915.238745
21124.676731,1628.453072,-11621.233289,1838.629195
21124.677064,148.041188,-9918.759623,842.705048
21124.677397,0.000000,-9400.615463,1225.752797
21124.677730,0.000000,-6883.915261,306.438199
21124.678063,1776.494261,-8660.409521,2987.772442
21124.678396,2294.638420,-9474.636058,-76.609550
21124.678729,0.000000,-4811.338623,-1225.752797
21124.679062,-74.020594,-11843.295072,-76.609550
21124.679395,1998.556043,-8956.491898,0.000000
21124.679728,4071.132681,-9104.533087,2145.067394
21124.680061,4959.379811,-10436.903782,2374.896044
21124.680394,2442.679609,-11547.212695,-689.485948
21124.680727,2960.823768,-8364.327145,0.000000
21124.681060,3552.988522,-13027.624579,-76.609550
21124.681393,814.226536,-9548.656652,-1608.800546
21124.681726,0.000000,-11029.068536,3907.087040
21124.682059,-666.185348,-10066.800811,-1608.800546
21124.682392,-2960.823768,-8364.327145,1838.629195
21124.682725,962.267725,-6661.853478,229.828649
21124.683058,296.082377,-6365.771101,1302.362347
21124.683391,1036.288319,-8068.244768,1685.410096
21124.683724,2886.803174,-10658.965565,4826.401637
21124.684057,-370.102971,-9474.636058,-1302.362347
21124.684390,-2368.659014,-7772.162391,-2451.505594
21124.684723,-222.061783,-13027.624579,-1302.362347
21124.685056,-74.020594,-11843.295072,-1608.800546
21124.685389,-3552.988522,-8956.491898,459.657299
21124.685722,-2886.803174,-8808.450710,-689.485948
21124.686055,-222.061783,-8882.471304,1455.581446
21124.686388,-592.164754,-7772.162391,2528.115143
21124.686721,1110.308913,-8882.471304,3294.210641
21124.687054,-1850.514855,-5551.544565,0.000000
21124.687387,-2960.823768,-10436.903782,919.314598
21124.687720,1554.432478,-6291.750507,3064.381992
21124.688053,740.205942,-4811.338623,2451.505594
21124.688386,-3552.988522,-7772.162391,-919.314598
21124.688719,2220.617826,-12435.459826,-1608.800546
21124.689052,-4145.153275,-11843.295072,-4213.525239
21124.689385,-1184.329507,-10881.027347,0.000000
21124.689718,-2442.679609,-10362.883188,-1302.362347
21124.690051,148.041188,-9844.739029,459.657299
21124.690384,74.020594,-8512.368333,689.485948
21124.690717,1702.473667,-7476.080014,1608.800546
21124.691050,0.000000,-6587.832884,1225.752797
21124.691383,-666.185348,-8364.327145,0.000000
21124.691716,4663.297435,-8290.306550,2987.772442
21124.692049,1776.494261,-6587.832884,3064.381992
21124.692382,2368.659014,-7179.997637,2451.505594
21124.692715,296.082377,-10732.986159,0.000000
21124.693048,-1628.453072,-11473.192101,-2298.286494
21124.693381,-1998.556043,-12213.398043,-3140.991542
21124.693714,-2294.638420,-11991.336260,-1225.752797
21124.694047,814.226536,-9474.636058,-1302.362347
21124.694380,-2368.659014,-8660.409521,612.876398
21124.694713,2294.638420,-8290.306550,-689.485948
21124.695046,0.000000,-7179.997637,1838.629195
21124.695379,4663.297435,-7105.977043,4826.401637
21124.695712,6439.791695,-7698.141797,5439.278036
21124.696045,4441.235652,-9474.636058,5439.278036
21124.696378,1036.288319,-8734.430116,-76.609550
21124.696711,1332.370696,-8808.450710,-2298.286494
21124.697044,740.205942,-11843.295072,-2221.676944
21124.697377,296.082377,-13397.727550,-76.609550
21124.697710,-2738.761985,-9548.656652,-3064.381992
21124.698043,-3627.009116,-9548.656652,-3677.258390
21124.698376,-2072.576638,-10584.944971,-76.609550
21124.698709,-1850.514855,-6809.894666,-3370.820191
21124.699042,1406.391290,-6661.853478,689.485948
21124.699375,1184.329507,-7846.182985,3447.429741
21124.699708,3849.070898,-6735.874072,5439.278036
21124.700041,4219.173869,-7698.141797,6971.469032
21124.700374,3478.967927,-9474.636058,2374.896044
21124.700707,2368.659014,-7179.997637,1225.752797
21124.701040,-74.020594,-14211.954086,-76.609550
21124.701373,2294.638420,-10066.800811,-4519.963438
21124.701706,-4293.194464,-10732.986159,-3064.381992
21124.702039,-1258.350101,-12361.439231,-2374.896044
21124.702372,-1480.411884,-7698.141797,536.266849
21124.702705,-2146.597232,-7105.977043,-1608.800546
21124.703038,296.082377,-6735.874072,0.000000
21124.703371,-74.020594,-8290.306550,2681.334243
21124.703704,4219.173869,-5329.482782,5132.839837
21124.704037,3849.070898,-6735.874072,6741.640382
21124.704370,4071.132681,-7624.121203,1838.629195
21124.704703,1184.329507,-9548.656652,0.000000
21124.705036,1628.453072,-13619.789333,-1302.362347
21124.705369,-2368.659014,-9548.656652,-9193.145976
21124.705702,-2664.741391,-16284.530724,-2528.115143
21124.706035,-962.267725,-11473.192101,-2757.943793
21124.706368,-2442.679609,-9548.656652,-1838.629195
21124.706701,962.267725,-7402.059420,1149.143247
21124.707034,222.061783,-7698.141797,2911.162892
21124.707367,666.185348,-5995.668130,3907.087040
21124.707700,5033.400406,-6587.832884,7890.783629
21124.708033,4071.132681,-9178.553681,4826.401637
21124.708366,592.164754,-5995.668130,2451.505594
21124.708699,2368.659014,-10881.027347,2374.896044
21124.709032,-74.020594,-10807.006753,-4136.915689
21124.709365,-4737.318029,-13101.645173,-4290.134789
21124.709698,-5699.585753,-12287.418637,-5822.325785
21124.710031,-3256.906145,-12139.377449,-3677.258390
21124.710364,-1332.370696,-10807.006753,-306.438199
21124.710697,1702.473667,-7698.141797,1149.143247
21124.711030,-74.020594,-9474.636058,1149.143247
21124.711363,0.000000,-4811.338623,4443.353888
21124.711696,4663.297435,-7698.141797,7277.907231
21124.712029,4663.297435,-6513.812290,6511.811733
21124.712362,3923.091493,-7994.224174,4826.401637
21124.712695,888.247130,-9252.574275,-2068.457845
21124.713028,-1406.391290,-12805.562797,-3600.648841
21124.713361,-2516.700203,-13027.624579,-2834.553343
21124.713694,-2960.823768,-10436.903782,-2145.067394
21124.714027,-1258.350101,-10140.821405,-2451.505594
21124.714360,-4145.153275,-8364.327145,1378.971896
21124.714693,-74.020594,-8882.471304,1149.143247
21124.715026,-2368.659014,-4811.338623,0.000000
21124.715359,0.000000,-5699.585753,3294.210641
21124.715692,1776.494261,-6365.771101,5132.839837
21124.716025,2146.597232,-6883.915261,4903.011187
21124.716358,1776.494261,-6883.915261,1225.752797
21124.716691,2960.823768,-9474.636058,-1225.752797
21124.717024,-2368.659014,-11917.315666,-1225.752797
21124.717357,-74.020594,-11843.295072,-2528.115143
21124.717690,-666.185348,-14211.954086,-2834.553343
21124.718023,-2960.823768,-10140.821405,0.000000
21124.718356,0.000000,-8068.244768,-1608.800546
21124.718689,666.185348,-9622.677246,383.047749
21124.719022,2664.741391,-6661.853478,1225.752797
21124.719355,148.041188,-8808.450710,2681.334243
21124.719688,6513.812290,-5625.565159,5515.887586
21124.720021,2812.782580,-7772.162391,5209.449386
21124.720354,3034.844362,-8808.450710,3140.991542
21124.720687,2812.782580,-8068.244768,153.219100
21124.721020,-1258.350101,-12361.439231,-2604.724693
21124.721353,0.000000,-11399.171507,-3677.258390
21124.721686,-4219.173869,-10732.986159,-4903.011187
21124.722019,0.000000,-11769.274478,-76.609550
21124.722352,-1850.514855,-8882.471304,-1608.800546
21124.722685,-2442.679609,-7994.224174,-995.924147
21124.723018,-1036.288319,-7846.182985,-76.609550
21124.723351,296.082377,-7254.018232,3370.820191
21124.723684,3330.926739,-5995.668130,4136.915689
21124.724017,2738.761985,-8660.409521,5669.106685
21124.724350,4071.132681,-8290.306550,4826.401637
21124.724683,296.082377,-7476.080014,1838.629195
21124.725016,1776.494261,-11325.150913,2374.896044
21124.725349,-74.020594,-10658.965565,-3447.429741
21124.725682,-4737.318029,-10732.986159,-2451.505594
21124.726015,-1554.432478,-11547.212695,-2528.115143
21124.726348,-1998.556043,-8734.430116,-1685.410096
21124.726681,-3108.864956,-8068.244768,-459.657299
21124.727014,-1110.308913,-5329.482782,-2145.067394
21124.727347,-370.102971,-8512.368333,-536.266849
21124.727680,1184.329507,-5995.668130,5669.106685
21124.728013,5847.626942,-7105.977043,4826.401637
21124.728346,4663.297435,-7920.203579,1532.190996
21124.728679,7105.977043,-9474.636058,4826.401637
21124.729012,2886.803174,-11695.253884,0.000000
21124.729345,3627.009116,-11695.253884,-1302.362347
21124.729678,-1776.494261,-13101.645173,-2911.162892
21124.730011,-1110.308913,-13545.768739,-3064.381992
21124.730344,-2368.659014,-8364.327145,-1838.629195
21124.730677,296.082377,-10732.986159,2987.772442
21124.731011,2886.803174,-4737.318029,153.219100
21124.731344,-1184.329507,-7179.997637,1225.752797
21124.731677,3552.988522,-6291.750507,6665.030833
21124.732010,1554.432478,-6217.729913,4903.011187
21124.732343,1924.535449,-8068.244768,3064.381992
21124.732676,1110.308913,-5403.503377,0.000000
21124.733009,-2146.597232,-13545.768739,-1532.190996
21124.733342,0.000000,-8364.327145,-4903.011187
21124.733675,-5403.503377,-15100.201217,-3140.991542
21124.734009,-962.267725,-10288.862594,-2221.676944
21124.734342,-2368.659014,-9548.656652,-689.485948
21124.734675,-74.020594,-10362.883188,-76.609550
21124.735008,1110.308913,-7105.977043,-536.266849
21124.735341,-3552.988522,-7772.162391,2451.505594
21124.735674,0.000000,-6587.832884,5209.449386
21124.736007,3182.885551,-6809.894666,5669.106685
21124.736340,3182.885551,-9474.636058,5132.839837
21124.736673,2294.638420,-7402.059420,919.314598
21124.737007,-962.267725,-12435.459826,-2528.115143
21124.737340,-2738.761985,-12879.583391,-2451.505594
21124.737673,-4737.318029,-8660.409521,-3064.381992
21124.738006,-148.041188,-11103.089130,-995.924147
21124.738339,0.000000,-9030.512492,3600.648841
21124.738672,-666.185348,-8586.388927,-76.609550
21124.739005,-666.185348,-5995.668130,-1225.752797
21124.739338,-814.226536,-6809.894666,-76.609550
21124.739671,1332.370696,-6883.915261,2451.505594
21124.740005,2220.617826,-7846.182985,2374.896044
21124.740338,1480.411884,-9104.533087,1762.019645
21124.740671,740.205942,-9548.656652,-612.876398
21124.741004,1702.473667,-11177.109724,-2374.896044
21124.741337,3478.967927,-13915.871710,-76.609550
21124.741670,-1850.514855,-9992.780217,-1532.190996
21124.742003,592.164754,-9548.656652,0.000000
21124.742336,888.247130,-9400.615463,2145.067394
21124.742670,0.000000,-6735.874072,689.485948
21124.743003,2294.638420,-6217.729913,-306.438199
21124.743336,740.205942,-9696.697840,1149.143247
21124.743669,2886.803174,-9474.636058,3600.648841
21124.744002,0.000000,-5995.668130,3677.258390
21124.744335,3478.967927,-10066.800811,1762.019645
21124.744668,2294.638420,-7920.203579,-2145.067394
21124.745001,0.000000,-10288.862594,306.438199
21124.745334,1702.473667,-11843.295072,-76.609550
21124.745668,-3775.050304,-11547.212695,-1608.800546
21124.746001,-1184.329507,-10214.842000,-306.438199
21124.746334,-74.020594,-8364.327145,919.314598
21124.746667,-518.144159,-7105.977043,459.657299
21124.747000,148.041188,-7920.203579,2374.896044
21124.747333,518.144159,-5699.585753,0.000000
21124.747666,888.247130,-8364.327145,0.000000
21124.747999,4663.297435,-11843.295072,2374.896044
21124.748332,2886.803174,-11547.212695,3294.210641
21124.748666,2368.659014,-10214.842000,1149.143247
21124.748999,888.247130,-10140.821405,-612.876398
21124.749332,-1036.288319,-10732.986159,-2451.505594
21124.749665,-1406.391290,-9474.636058,-1762.019645
21124.749998,-2590.720797,-11695.253884,1149.143247
21124.750331,-592.164754,-8216.285956,995.924147
21124.750664,-2368.659014,-7624.121203,459.657299
21124.750997,296.082377,-5033.400406,612.876398
21124.751330,814.226536,-5033.400406,0.000000
21124.751664,1776.494261,-9696.697840,3294.210641
21124.751997,4071.132681,-8882.471304,1149.143247
21124.752330,2368.659014,-10732.986159,3907.087040
21124.752663,5255.462188,-10510.924376,-76.609550
21124.752996,2886.803174,-11843.295072,-1915.238745
21124.753329,2590.720797,-12287.418637,-1455.581446
21124.753662,-962.267725,-10510.924376,-1149.143247
21124.753995,74.020594,-11399.171507,76.609550
21124.754328,0.000000,-7179.997637,1838.629195
21124.754662,0.000000,-7772.162391,4213.525239
21124.754995,1110.308913,-2738.761985,306.438199
21124.755328,0.000000,-4811.338623,3830.477490
21124.755661,3182.885551,-7698.141797,2374.896044
21124.755994,1110.308913,-4811.338623,306.438199
21124.756327,666.185348,-11325.150913,995.924147
21124.756660,518.144159,-8734.430116,-1302.362347
21124.756993,-2368.659014,-11917.315666,-3677.258390
21124.757327,-518.144159,-12435.459826,-2451.505594
21124.757660,-3997.112087,-14582.057057,-76.609550
21124.757993,-2442.679609,-9770.718434,-2911.162892
21124.758326,-1184.329507,-8364.327145,2451.505594
21124.758659,-296.082377,-8586.388927,2987.772442
21124.758992,0.000000,-4219.173869,2757.943793
21124.759325,518.144159,-7550.100608,2451.505594
21124.759658,1480.411884,-7920.203579,2145.067394
21124.759991,2146.597232,-7402.059420,2221.676944
21124.760325,2886.803174,-9474.636058,1762.019645
21124.760658,2590.720797,-10362.883188,-689.485948
21124.760991,-370.102971,-10140.821405,-4596.572988
21124.761324,-2220.617826,-13249.686362,-3907.087040
21124.761657,-2442.679609,-16580.613101,-4366.744339
21124.761990,-1554.432478,-13323.706956,1762.019645
21124.762323,-888.247130,-7846.182985,2451.505594
21124.762656,222.061783,-6957.935855,3907.087040
21124.762989,1776.494261,-2738.761985,3983.696590
21124.763323,1480.411884,-4219.173869,3677.258390
21124.763656,3478.967927,-4293.194464,3064.381992
21124.763989,1332.370696,-8142.265362,4290.134789
21124.764322,1702.473667,-11251.130318,-1302.362347
21124.764655,-518.144159,-8660.409521,-3064.381992
21124.764988,-1258.350101,-12361.439231,-3753.867940
21124.765321,-1332.370696,-12657.521608,-4979.620737
21124.765654,-4515.256246,-12435.459826,-3600.648841
21124.765987,-1850.514855,-10510.924376,-689.485948
21124.766321,0.000000,-7920.203579,2604.724693
21124.766654,1110.308913,-5551.544565,3677.258390
21124.766987,444.123565,-5255.462188,2451.505594
21124.767320,4367.215058,-5551.544565,4826.401637
21124.767653,4515.256246,-7031.956449,5209.449386
21124.767986,2072.576638,-6291.750507,3140.991542
21124.768319,3478.967927,-9474.636058,-76.609550
21124.768652,-1628.453072,-10140.821405,-3064.381992
21124.768985,-74.020594,-13397.727550,-4903.011187
21124.769319,-592.164754,-14211.954086,-4366.744339
21124.769652,-5329.482782,-11325.150913,-4903.011187
21124.769985,-3108.864956,-11399.171507,-842.705048
21124.770318,888.247130,-8734.430116,2374.896044
21124.770651,370.102971,-7105.977043,4366.744339
21124.770984,1184.329507,-4811.338623,3064.381992
21124.771317,518.144159,-5403.503377,1838.629195
21124.771650,0.000000,-4811.338623,4903.011187
21124.771983,4663.297435,-8882.471304,3600.648841
21124.772317,1702.473667,-9918.759623,0.000000
21124.772650,888.247130,-9918.759623,-1608.800546
21124.772983,-1554.432478,-12287.418637,-4060.306139
21124.773316,962.267725,-11547.212695,-4366.744339
21124.773649,-2442.679609,-12731.542202,-2681.334243
21124.773982,-1258.350101,-12879.583391,-76.609550
21124.774315,-1628.453072,-7179.997637,1225.752797
21124.774648,592.164754,-9104.533087,4903.011187
21124.774982,4663.297435,-4737.318029,2374.896044
21124.775315,0.000000,-3627.009116,3677.258390
21124.775648,5847.626942,-6513.812290,1149.143247
21124.775981,3108.864956,-10288.862594,1608.800546
21124.776314,4293.194464,-11399.171507,2757.943793
21124.776647,4219.173869,-9178.553681,842.705048
21124.776980,3182.885551,-10658.965565,-2528.115143
21124.777313,-2368.659014,-11917.315666,-3064.381992
21124.777646,-2812.782580,-12435.459826,-4366.744339
21124.777980,-1258.350101,-14211.954086,-2528.115143
21124.778313,-3552.988522,-7179.997637,0.000000
21124.778646,1110.308913,-8882.471304,1762.019645
21124.778979,888.247130,-5403.503377,5439.278036
21124.779312,2220.617826,-3034.844362,4826.401637
21124.779645,2146.597232,-5921.647536,4749.792088
21124.779978,3923.091493,-5921.647536,4213.525239
21124.780311,1998.556043,-11621.233289,2681.334243
21124.780644,1554.432478,-8808.450710,-766.095498
21124.780978,-1480.411884,-11991.336260,-3907.087040
21124.781311,-1776.494261,-13915.871710,-4903.011187
21124.781644,-1850.514855,-14211.954086,-4366.744339
21124.781977,-4515.256246,-12213.398043,-3677.258390
21124.782310,-3552.988522,-8364.327145,306.438199
21124.782643,-2442.679609,-10510.924376,1762.019645
21124.782976,-2072.576638,-5107.421000,1838.629195
21124.783309,2294.638420,-3552.988522,6971.469032
21124.783642,1184.329507,-5995.668130,5669.106685
21124.783976,2516.700203,-4293.194464,3830.477490
21124.784309,1702.473667,-11843.295072,4826.401637
21124.784642,0.000000,-10658.965565,-76.609550
21124.784975,-3552.988522,-9548.656652,-3064.381992
21124.785308,-4145.153275,-14508.036463,-5209.449386
21124.785641,-3701.029710,-13915.871710,-6205.373534
21124.785974,-4811.338623,-13619.789333,-2681.334243
21124.786307,-1702.473667,-9252.574275,-612.876398
21124.786640,-1850.514855,-8142.265362,2834.553343
21124.786974,518.144159,-6513.812290,3907.087040
21124.787307,1776.494261,-2442.679609,4903.011187
21124.787640,4663.297435,-5921.647536,6052.154434
21124.787973,0.000000,-5403.503377,6128.763984
21124.788306,4663.297435,-9474.636058,2374.896044
21124.788639,1850.514855,-7476.080014,-1608.800546
21124.788972,0.000000,-9770.718434,-4366.744339
21124.789305,0.000000,-12953.603985,-6435.202183
21124.789639,-4737.318029,-14137.933492,-8273.831378
21124.789972,-3627.009116,-13397.727550,-3524.039291
21124.790305,0.000000,-10140.821405,1378.971896
21124.790638,1702.473667,-7846.182985,2451.505594
21124.790971,3627.009116,-5329.482782,7277.907231
21124.791304,5847.626942,-4737.318029,4213.525239
21124.791637,4145.153275,-5477.523971,7277.907231
21124.791970,4293.194464,-8882.471304,4213.525239
21124.792303,2960.823768,-9622.677246,2528.115143
21124.792637,1332.370696,-10140.821405,-689.485948
21124.792970,592.164754,-9844.739029,-3983.696590
21124.793303,814.226536,-14211.954086,-5286.058936
21124.793636,-4737.318029,-10732.986159,-6128.763984
21124.793969,-74.020594,-13619.789333,-4060.306139
21124.794302,-1628.453072,-8956.491898,-995.924147
21124.794635,0.000000,-8660.409521,5286.058936
21124.794968,3478.967927,-7105.977043,5745.716235
21124.795301,2368.659014,-5995.668130,5515.887586
21124.795635,1998.556043,-4811.338623,4366.744339
21124.795968,2368.659014,-3627.009116,2757.943793
21124.796301,2368.659014,-9030.512492,3447.429741
21124.796634,1184.329507,-8364.327145,1455.581446
21124.796967,-1776.494261,-11251.130318,-4136.915689
21124.797300,-2368.659014,-13397.727550,-5975.544884
21124.797633,-3182.885551,-13027.624579,-6818.249932
21124.797966,-3627.009116,-13027.624579,-3753.867940
21124.798299,-2368.659014,-8956.491898,0.000000
21124.798633,-74.020594,-11399.171507,3600.648841
21124.798966,814.226536,-5625.565159,3217.601092
21124.799299,2368.659014,-4811.338623,6128.763984
21124.799632,7031.956449,-2960.823768,3600.648841
21124.799965,5107.421000,-7402.059420,5669.106685
21124.800298,3775.050304,-9104.533087,3064.381992
21124.800631,3256.906145,-10436.903782,459.657299
21124.800964,1776.494261,-10436.903782,-3370.820191
21124.801297,592.164754,-15988.448347,-3753.867940
21124.801631,-3923.091493,-13101.645173,-7354.516781
21124.801964,-7105.977043,-9548.656652,-3677.258390
21124.802297,-1924.535449,-11843.295072,-1302.362347
21124.802630,-666.185348,-7698.141797,0.000000
21124.802963,1480.411884,-6661.853478,5745.716235
21124.803296,1480.411884,-3330.926739,6665.030833
21124.803629,3552.988522,-2960.823768,7354.516781
21124.803962,2886.803174,-6809.894666,7277.907231
21124.804296,1702.473667,-9474.636058,3600.648841
21124.804629,-1628.453072,-7772.162391,153.219100
21124.804962,-370.102971,-10658.965565,-2528.115143
21124.805295,-370.102971,-13619.789333,-7737.564530
21124.805628,-5921.647536,-13693.809927,-6128.763984
21124.805961,-7179.997637,-14285.974681,-5822.325785
21124.806294,-2516.700203,-10658.965565,-1378.971896
21124.806627,-74.020594,-9474.636058,2374.896044
21124.806960,-1184.329507,-6143.709319,3907.087040
21124.807294,2886.803174,-2960.823768,4903.011187
21124.807627,0.000000,-3627.009116,7354.516781
21124.807960,4663.297435,-7105.977043,4213.525239
21124.808293,1184.329507,-5995.668130,2451.505594
21124.808626,296.082377,-10066.800811,-76.609550
21124.808959,-518.144159,-10288.862594,-4060.306139
21124.809292,-2590.720797,-14804.118840,-5745.716235
21124.809625,-3478.967927,-13767.830521,-6818.249932
21124.809958,-4737.318029,-12953.603985,-5515.887586
21124.810292,-3552.988522,-9844.739029,-2145.067394
21124.810625,1998.556043,-9474.636058,1149.143247
21124.810958,2146.597232,-5995.668130,2451.505594
21124.811291,3552.988522,-6069.688724,6665.030833
21124.811624,3478.967927,-4737.318029,4826.401637
21124.811957,3849.070898,-6217.729913,4749.792088
21124.812290,4515.256246,-9474.636058,5209.449386
21124.812623,3404.947333,-9104.533087,2145.067394
21124.812956,3552.988522,-10584.944971,-306.438199
21124.813290,-1776.494261,-12805.562797,-4443.353888
21124.813623,-1850.514855,-11547.212695,-6894.859482
21124.813956,-3627.009116,-13175.665768,-4903.011187
21124.814289,-592.164754,-10584.944971,-1378.971896
21124.814622,0.000000,-9104.533087,1838.629195
21124.814955,1406.391290,-5329.482782,1762.019645
21124.815288,0.000000,-6883.915261,6741.640382
21124.815621,2886.803174,-2960.823768,3600.648841
21124.815954,2294.638420,-6513.812290,2987.772442
21124.816288,3849.070898,-7698.141797,4826.401637
21124.816621,1258.350101,-9548.656652,1608.800546
21124.816954,740.205942,-8068.244768,-2604.724693
21124.817287,-222.061783,-11769.274478,-5439.278036
21124.817620,-2442.679609,-15396.283594,-5286.058936
21124.817953,-4737.318029,-11917.315666,-4290.134789
21124.818286,-4737.318029,-10732.986159,-2451.505594
21124.818619,1998.556043,-11251.130318,-76.609550
21124.818953,-2294.638420,-5995.668130,1225.752797
21124.819286,5847.626942,-7105.977043,5439.278036
21124.819619,3108.864956,-3923.091493,5822.325785
21124.819952,2960.823768,-7179.997637,4826.401637
21124.820285,2368.659014,-8216.285956,4136.915689
21124.820618,1554.432478,-9474.636058,1762.019645
21124.820951,0.000000,-8364.327145,153.219100
21124.821284,-74.020594,-11843.295072,-3140.991542
21124.821617,-1554.432478,-11843.295072,-6818.249932
21124.821951,-7105.977043,-13101.645173,-3064.381992
21124.822284,-4071.132681,-8956.491898,-4749.792088
21124.822617,-2146.597232,-9770.718434,-536.266849
21124.822950,-814.226536,-8734.430116,3600.648841
21124.823283,1406.391290,-3627.009116,4443.353888
21124.823616,592.164754,-4811.338623,3064.381992
21124.823949,592.164754,-5995.668130,6052.154434
21124.824282,2294.638420,-9178.553681,1455.581446
21124.824615,2368.659014,-8364.327145,2451.505594
21124.824949,3182.885551,-11843.295072,-76.609550
21124.825282,-1258.350101,-10732.986159,-4903.011187
21124.825615,-1332.370696,-11251.130318,-4443.353888
21124.825948,-4811.338623,-13323.706956,-4366.744339
21124.826281,-1776.494261,-9252.574275,-2298.286494
21124.826614,-2960.823768,-8660.409521,0.000000
21124.826947,888.247130,-7994.224174,1225.752797
21124.827280,1924.535449,-6883.915261,3983.696590
21124.827613,1406.391290,-5625.565159,3830.477490
21124.827947,4071.132681,-6809.894666,4213.525239
21124.828280,3478.967927,-8882.471304,2068.457845
21124.828613,592.164754,-8956.491898,2451.505594
21124.828946,4663.297435,-11547.212695,-76.609550
21124.829279,-222.061783,-9548.656652,-4903.011187
21124.829612,1036.288319,-12731.542202,-3677.258390
21124.829945,-1406.391290,-12583.501014,-2451.505594
21124.830278,814.226536,-10584.944971,-995.924147
21124.830611,888.247130,-10214.842000,1302.362347
21124.830944,740.205942,-7624.121203,612.876398
21124.831277,5847.626942,-6069.688724,3907.087040
21124.831610,2368.659014,-5995.668130,7660.954980
21124.831943,4663.297435,-5625.565159,2834.553343
21124.832276,-74.020594,-9770.718434,1225.752797
21124.832609,1702.473667,-7105.977043,-76.609550
21124.832942,740.205942,-11029.068536,-1072.533697
21124.833275,-74.020594,-11843.295072,-4673.182538
21124.833608,-1406.391290,-12361.439231,-3294.210641
21124.833941,-7031.956449,-10288.862594,-6128.763984
21124.834274,-74.020594,-9918.759623,-2374.896044
21124.834607,-1776.494261,-11325.150913,4673.182538
21124.834940,3775.050304,-8882.471304,3447.429741
21124.835273,592.164754,-5329.482782,3140.991542
21124.835606,1184.329507,-6587.832884,2757.943793
21124.835939,2294.638420,-7698.141797,1762.019645
21124.836273,1184.329507,-9252.574275,3064.381992
21124.836606,1776.494261,-9178.553681,1455.581446
21124.836939,-74.020594,-12731.542202,-383.047749
21124.837272,-5329.482782,-10140.821405,-4903.011187
21124.837605,-3627.009116,-11251.130318,-7124.688131
21124.837938,-3034.844362,-12435.459826,-4903.011187
21124.838271,-2368.659014,-10140.821405,2145.067394
21124.838604,2294.638420,-9474.636058,6052.154434
21124.838937,2442.679609,-6217.729913,5439.278036
21124.839270,1702.473667,-6735.874072,3370.820191
21124.839603,1702.473667,-6365.771101,2987.772442
21124.839936,74.020594,-7105.977043,153.219100
21124.840269,2072.576638,-11991.336260,3600.648841
21124.840602,-74.020594,-7476.080014,-2451.505594
21124.840935,-592.164754,-12213.398043,-2145.067394
21124.841268,-666.185348,-13027.624579,-5592.497135
21124.841601,-666.185348,-13027.624579,-4366.744339
21124.841934,-1184.329507,-11547.212695,-76.609550
21124.842267,518.144159,-8290.306550,1991.848295
21124.842600,1850.514855,-7402.059420,4060.306139
21124.842933,3330.926739,-7698.141797,4060.306139
21124.843266,3849.070898,-7105.977043,5439.278036
21124.843599,3849.070898,-6661.853478,3217.601092
21124.843932,1332.370696,-8660.409521,76.609550
21124.844265,1850.514855,-10288.862594,306.438199
21124.844598,-74.020594,-9622.677246,-1762.019645
21124.844931,296.082377,-10732.986159,-1149.143247
21124.845264,-74.020594,-14211.954086,-2528.115143
21124.845597,-2146.597232,-8808.450710,-4903.011187
21124.845930,-2812.782580,-9696.697840,-76.609550
21124.846263,-666.185348,-10066.800811,-689.485948
21124.846596,148.041188,-6883.915261,2374.896044
21124.846929,1184.329507,-7179.997637,3983.696590
21124.847262,3701.029710,-5403.503377,3370.820191
21124.847595,2368.659014,-7179.997637,2451.505594
21124.847928,0.000000,-11695.253884,1762.019645
21124.848261,1036.288319,-9622.677246,-1838.629195
21124.848594,0.000000,-10732.986159,612.876398
21124.848927,3034.844362,-11843.295072,-842.705048
21124.849260,0.000000,-9844.739029,-3677.258390
21124.849593,1406.391290,-11399.171507,-1915.238745
21124.849926,-1258.350101,-10510.924376,-842.705048
21124.850260,148.041188,-9400.615463,2068.457845
21124.850593,1036.288319,-7105.977043,4596.572988
21124.850926,3404.947333,-9474.636058,6052.154434
21124.851259,222.061783,-5995.668130,1225.752797
21124.851592,1184.329507,-5995.668130,4290.134789
21124.851925,-814.226536,-10066.800811,-76.609550
21124.852258,-2960.823768,-8364.327145,3217.601092
21124.852591,-814.226536,-9474.636058,-383.047749
21124.852924,-1924.535449,-10955.047942,-1915.238745
21124.853257,-1702.473667,-10362.883188,-4443.353888
21124.853590,-2738.761985,-11843.295072,-3140.991542
21124.853923,-1850.514855,-10658.965565,-1915.238745
21124.854256,-2590.720797,-7772.162391,-1838.629195
21124.854589,-1184.329507,-10288.862594,4519.963438
21124.854922,2886.803174,-7698.141797,4213.525239
21124.855255,4663.297435,-7698.141797,6971.469032
21124.855588,3701.029710,-6513.812290,4903.011187
21124.855921,1998.556043,-8290.306550,2681.334243
21124.856254,1184.329507,-9844.739029,1685.410096
21124.856587,0.000000,-7772.162391,0.000000
21124.856920,-74.020594,-10436.903782,-2834.553343
21124.857253,-2368.659014,-11029.068536,-4903.011187
21124.857586,-2516.700203,-13915.871710,-4979.620737
21124.857919,-4219.173869,-10584.944971,-5209.449386
21124.858252,-1850.514855,-10658.965565,-76.609550
21124.858585,-2072.576638,-8364.327145,2145.067394
21124.858918,2590.720797,-6217.729913,3907.087040
21124.859251,4145.153275,-4367.215058,5822.325785
21124.859584,3552.988522,-5995.668130,4290.134789
21124.859917,4515.256246,-6661.853478,2757.943793
21124.860250,3775.050304,-9770.718434,2145.067394
21124.860583,4367.215058,-11251.130318,1532.190996
21124.860916,4441.235652,-10807.006753,-612.876398
21124.861249,0.000000,-11917.315666,-5592.497135
21124.861582,-370.102971,-13027.624579,-6205.373534
21124.861915,-4145.153275,-10732.986159,-4290.134789
21124.862248,-740.205942,-11843.295072,-229.828649
21124.862581,-74.020594,-9178.553681,2374.896044
21124.862914,296.082377,-7179.997637,3983.696590
21124.863247,3034.844362,-5551.544565,4903.011187
21124.863580,5329.482782,-7254.018232,7277.907231
21124.863913,4441.235652,-5773.606348,5592.497135
21124.864246,4737.318029,-7772.162391,4903.011187
21124.864580,2294.638420,-7179.997637,153.219100
21124.864913,-3552.988522,-10140.821405,-1532.190996
21124.865246,-3627.009116,-12731.542202,-8044.002729
21124.865579,-5995.668130,-13027.624579,-9729.412825
21124.865912,-5551.544565,-13545.768739,-4366.744339
21124.866245,-5329.482782,-10436.903782,-1838.629195
21124.866578,-2442.679609,-7328.038826,1225.752797
21124.866911,888.247130,-6513.812290,4136.915689
21124.867244,4663.297435,-7105.977043,8503.660028
21124.867577,3034.844362,-3034.844362,6128.763984
21124.867910,3775.050304,-8290.306550,6665.030833
21124.868243,3478.967927,-8882.471304,919.314598
21124.868576,0.000000,-10732.986159,612.876398
21124.868909,-74.020594,-11547.212695,-3140.991542
21124.869242,-1998.556043,-11621.233289,-6205.373534
21124.869575,-3404.947333,-13175.665768,-5975.544884
21124.869908,-3627.009116,-10881.027347,-3753.867940
21124.870241,-4811.338623,-10658.965565,-2528.115143
21124.870574,-4737.318029,-7179.997637,3064.381992
21124.870907,1628.453072,-8290.306550,5439.278036
21124.871240,1480.411884,-3034.844362,4903.011187
21124.871573,2368.659014,-3034.844362,5209.449386
21124.871906,1998.556043,-5921.647536,2068.457845
21124.872239,4071.132681,-8882.471304,-76.609550
21124.872572,888.247130,-11177.109724,306.438199
21124.872905,1998.556043,-11843.295072,-2221.676944
21124.873238,-1332.370696,-11843.295072,-5898.935335
21124.873571,-1702.473667,-13841.851115,-6588.421283
21124.873904,-1554.432478,-13323.706956,-4979.620737
21124.874237,-888.247130,-12657.521608,-1378.971896
21124.874570,1184.329507,-11325.150913,5898.935335
21124.874903,5255.462188,-6513.812290,6971.469032
21124.875236,4737.318029,-3627.009116,7967.393179
21124.875569,2960.823768,-4811.338623,10342.289223
21124.875902,2590.720797,-3552.988522,1455.581446
21124.876235,0.000000,-8364.327145,0.000000
21124.876568,-666.185348,-10362.883188,-1149.143247
21124.876901,-1110.308913,-11177.109724,-3370.820191
21124.877234,-4811.338623,-11399.171507,-6971.469032
21124.877567,-2738.761985,-11843.295072,-9882.631924
21124.877900,-4515.256246,-16580.613101,-4979.620737
21124.878233,-4441.235652,-10732.986159,0.000000
21124.878567,-888.247130,-8956.491898,2451.505594
21124.878900,3552.988522,-8882.471304,7277.907231
21124.879233,7624.121203,-5773.606348,9729.412825
21124.879566,6439.791695,-6217.729913,8580.269578
21124.879899,6069.688724,-3923.091493,5822.325785
21124.880232,2812.782580,-8734.430116,2221.676944
21124.880565,296.082377,-8364.327145,-1532.190996
21124.880898,3182.885551,-11843.295072,-1915.238745
21124.881231,-5921.647536,-11917.315666,-4826.401637
21124.881564,-2738.761985,-12435.459826,-8350.440928
21124.881897,-7179.997637,-14211.954086,-6818.249932
21124.882230,-4737.318029,-9548.656652,-2911.162892
21124.882563,-4293.194464,-8068.244768,1991.848295
21124.882896,-1036.288319,-6513.812290,4826.401637
21124.883229,2368.659014,-4441.235652,7507.735880
21124.883562,2368.659014,-5625.565159,7354.516781
21124.883895,4663.297435,-3849.070898,3064.381992
21124.884228,2516.700203,-9474.636058,4826.401637
21124.884561,4663.297435,-9474.636058,-689.485948
21124.884894,0.000000,-10140.821405,-1838.629195
21124.885227,-1184.329507,-13841.851115,-4903.011187
21124.885560,-296.082377,-12361.439231,-5286.058936
21124.885893,-3034.844362,-12805.562797,-4136.915689
21124.886226,-1998.556043,-10658.965565,-2374.896044
21124.886559,-1924.535449,-9474.636058,-76.609550
21124.886892,0.000000,-7179.997637,3677.258390
21124.887225,5551.544565,-6809.894666,6665.030833
21124.887558,4145.153275,-3034.844362,3677.258390
21124.887891,6587.832884,-8290.306550,6665.030833
21124.888224,2812.782580,-6809.894666,3217.601092
21124.888557,2960.823768,-9548.656652,1149.143247
21124.888890,2442.679609,-11547.212695,-3140.991542
21124.889223,-1258.350101,-14211.954086,-7124.688131
21124.889556,-962.267725,-15396.283594,-6511.811733
21124.889889,-3552.988522,-11325.150913,-4903.011187
21124.890222,-370.102971,-10436.903782,-2145.067394
21124.890555,-740.205942,-8734.430116,1608.800546
21124.890888,1554.432478,-7254.018232,5132.839837
21124.891221,4663.297435,-7698.141797,7890.783629
21124.891554,1184.329507,-4219.173869,6281.983084
21124.891887,4737.318029,-6291.750507,6665.030833
21124.892220,1406.391290,-7179.997637,766.095498
21124.892553,0.000000,-9548.656652,459.657299
21124.892887,-888.247130,-12953.603985,-1455.581446
21124.893220,-2812.782580,-11325.150913,-5515.887586
21124.893553,-1554.432478,-12953.603985,-6281.983084
21124.893886,-1628.453072,-12657.521608,-3600.648841
21124.894219,-4737.318029,-10140.821405,-2451.505594
21124.894552,-3552.988522,-10436.903782,3600.648841
21124.894885,814.226536,-8290.306550,4213.525239
21124.895218,3182.885551,-5699.585753,6128.763984
21124.895551,2368.659014,-4811.338623,8733.488677
21124.895884,3478.967927,-6513.812290,5745.716235
21124.896217,1184.329507,-6069.688724,2911.162892
21124.896550,814.226536,-9844.739029,1762.019645
21124.896883,2664.741391,-8808.450710,76.609550
21124.897216,-2960.823768,-12509.480420,-3677.258390
21124.897549,-4737.318029,-13101.645173,-4366.744339
21124.897882,-4219.173869,-13027.624579,-7584.345430
21124.898215,-5699.585753,-11251.130318,-6205.373534
21124.898548,-4145.153275,-9548.656652,-1072.533697
21124.898881,0.000000,-7179.997637,5209.449386
21124.899214,3478.967927,-5699.585753,7277.907231
21124.899547,3552.988522,-5181.441594,7507.735880
21124.899880,4663.297435,-5255.462188,5132.839837
21124.900213,2886.803174,-7698.141797,3600.648841
21124.900546,2886.803174,-10066.800811,2987.772442
21124.900879,1406.391290,-8660.409521,0.000000
21124.901212,0.000000,-11769.274478,-2374.896044
21124.901545,-1628.453072,-13323.706956,-3907.087040
21124.901878,-3034.844362,-11547.212695,-6205.373534
21124.902211,-4589.276840,-12213.398043,-5745.716235
21124.902544,-2368.659014,-11621.233289,-612.876398
21124.902877,1110.308913,-9178.553681,4136.915689
21124.903210,1184.329507,-4811.338623,5515.887586
21124.903543,5255.462188,-4737.318029,4903.011187
21124.903876,3108.864956,-5699.585753,4903.011187
21124.904209,6439.791695,-9474.636058,4826.401637
21124.904542,2664.741391,-7179.997637,2451.505594
21124.904875,4663.297435,-10584.944971,1762.019645
21124.905208,1406.391290,-11917.315666,-2757.943793
21124.905541,-1036.288319,-13323.706956,-4673.182538
21124.905874,-2664.741391,-10140.821405,-5439.278036
21124.906207,-5921.647536,-10140.821405,-6128.763984
21124.906540,-3627.009116,-8956.491898,-4213.525239
21124.906874,-1924.535449,-9252.574275,0.000000
21124.907207,1628.453072,-7550.100608,5132.839837
21124.907540,2812.782580,-5403.503377,6358.592633
21124.907873,1924.535449,-3256.906145,3907.087040
21124.908206,4663.297435,-9474.636058,4826.401637
21124.908539,1406.391290,-6291.750507,2451.505594
21124.908872,5255.462188,-9474.636058,1762.019645
21124.909205,888.247130,-12509.480420,-2451.505594
21124.909538,0.000000,-11177.109724,-3677.258390
21124.909871,-1332.370696,-11399.171507,-3830.477490
21124.910204,-1184.329507,-10066.800811,-2681.334243
21124.910537,-296.082377,-9844.739029,-612.876398
21124.910870,1184.329507,-8364.327145,1532.190996
21124.911203,4663.297435,-6439.791695,1838.629195
21124.911536,2738.761985,-5107.421000,3677.258390
21124.911869,5255.462188,-8882.471304,4213.525239
21124.912202,2294.638420,-6513.812290,2681.334243
21124.912535,2368.659014,-9770.718434,3907.087040
21124.912868,2146.597232,-9622.677246,1072.533697
21124.913201,-1628.453072,-11547.212695,-2681.334243
21124.913534,-2220.617826,-9696.697840,-5362.668486
21124.913867,-2442.679609,-13323.706956,-2528.115143
21124.914200,-2442.679609,-7179.997637,-4903.011187
21124.914533,-3552.988522,-10436.903782,612.876398
21124.914866,-74.020594,-9474.636058,-76.609550
21124.915199,0.000000,-6587.832884,2451.505594
21124.915532,2294.638420,-8882.471304,4826.401637
21124.915865,2368.659014,-6069.688724,3753.867940
21124.916198,0.000000,-8438.347739,2681.334243
21124.916531,-740.205942,-8808.450710,1762.019645
21124.916864,1110.308913,-9178.553681,842.705048
21124.917197,-3108.864956,-8364.327145,0.000000
21124.917530,-888.247130,-10362.883188,-2528.115143
21124.917863,-2442.679609,-13027.624579,-3753.867940
21124.918196,-7105.977043,-8364.327145,-4903.011187
21124.918529,-3627.009116,-11547.212695,-2528.115143
21124.918862,-2812.782580,-9622.677246,459.657299
21124.919195,2442.679609,-6661.853478,2757.943793
21124.919528,2294.638420,-8882.471304,6358.592633
21124.919861,3478.967927,-7105.977043,4826.401637
21124.920194,1036.288319,-8068.244768,4749.792088
21124.920527,1036.288319,-7105.977043,3217.601092
21124.920860,3330.926739,-6809.894666,1685.410096
21124.921194,0.000000,-10140.821405,0.000000
21124.921527,814.226536,-9474.636058,-4366.744339
21124.921860,-4959.379811,-11029.068536,-7048.078582
21124.922193,-5921.647536,-11621.233289,-4366.744339
21124.922526,-3627.009116,-11251.130318,-5132.839837
21124.922859,-1628.453072,-9548.656652,0.000000
21124.923192,4737.318029,-7179.997637,4749.792088
21124.923525,4441.235652,-7994.224174,5745.716235
21124.923858,5551.544565,-7328.038826,4903.011187
21124.924191,7031.956449,-7698.141797,6052.154434
21124.924524,5255.462188,-9474.636058,4826.401637
21124.924857,2960.823768,-7179.997637,1532.190996
21124.925190,2294.638420,-11843.295072,-1302.362347
21124.925523,-666.185348,-11177.109724,-4903.011187
21124.925856,-148.041188,-10881.027347,-3064.381992
21124.926189,-1850.514855,-11843.295072,-3907.087040
21124.926522,-2146.597232,-10362.883188,-2451.505594
21124.926855,296.082377,-9844.739029,1685.410096
21124.927188,1332.370696,-7105.977043,2451.505594
21124.927521,4515.256246,-8290.306550,5745.716235
21124.927854,0.000000,-5995.668130,6281.983084
21124.928187,4663.297435,-6513.812290,2987.772442
21124.928520,1184.329507,-5403.503377,612.876398
21124.928853,740.205942,-10362.883188,1149.143247
21124.929186,-2220.617826,-7476.080014,-4596.572988
21124.929519,-2738.761985,-13175.665768,-5362.668486
21124.929852,-2664.741391,-11251.130318,-4979.620737
21124.930185,-4737.318029,-10732.986159,-3370.820191
21124.930518,-2442.679609,-10658.965565,-2068.457845
21124.930851,2368.659014,-9400.615463,2451.505594
21124.931184,5255.462188,-11547.212695,8197.221829
21124.931517,5033.400406,-4811.338623,6128.763984
21124.931850,2368.659014,-7179.997637,5515.887586
21124.932183,888.247130,-7179.997637,1838.629195
21124.932516,-1184.329507,-10510.924376,842.705048
21124.932849,-2368.659014,-10807.006753,-1685.410096
21124.933182,-2590.720797,-11843.295072,-2834.553343
21124.933515,-7031.956449,-9548.656652,-4903.011187
21124.933848,-1258.350101,-9474.636058,-5286.058936
21124.934182,-6217.729913,-9548.656652,-1072.533697
21124.934515,-2368.659014,-7772.162391,3600.648841
21124.934848,-2960.823768,-8660.409521,3677.258390
21124.935181,2368.659014,-7476.080014,4903.011187
21124.935514,3701.029710,-6809.894666,6971.469032
21124.935847,3478.967927,-6883.915261,3983.696590
21124.936180,3182.885551,-7105.977043,2068.457845
21124.936513,0.000000,-10140.821405,1378.971896
21124.936846,1998.556043,-11695.253884,-76.609550
21124.937179,-1110.308913,-10436.903782,-3217.601092
21124.937512,-2146.597232,-10955.047942,-4903.011187
21124.937845,-370.102971,-11251.130318,-4366.744339
21124.938178,-2368.659014,-10140.821405,-1762.019645
21124.938511,-1184.329507,-8956.491898,1762.019645
21124.938844,1702.473667,-9178.553681,2757.943793
21124.939177,2960.823768,-6587.832884,5515.887586
21124.939510,7624.121203,-8882.471304,7277.907231
21124.939843,4885.359217,-6883.915261,3983.696590
21124.940176,3701.029710,-7994.224174,1149.143247
21124.940509,3478.967927,-7624.121203,153.219100
21124.940842,3478.967927,-9178.553681,-1762.019645
21124.941175,592.164754,-10140.821405,-2451.505594
21124.941508,-74.020594,-12731.542202,-4979.620737
21124.941841,-2442.679609,-10658.965565,-7890.783629
21124.942174,-2368.659014,-11103.089130,-2911.162892
21124.942507,-2442.679609,-9474.636058,-995.924147
21124.942840,1628.453072,-8290.306550,4903.011187
21124.943174,4663.297435,-6439.791695,6052.154434
21124.943507,6069.688724,-5921.647536,7048.078582
21124.943840,4737.318029,-5699.585753,4903.011187
21124.944173,0.000000,-5995.668130,6128.763984
21124.944506,1702.473667,-8586.388927,-3217.601092
21124.944839,-2368.659014,-11917.315666,-4903.011187
21124.945172,-1776.494261,-13693.809927,-2221.676944
21124.945505,-4737.318029,-10732.986159,-5515.887586
21124.945838,-1554.432478,-9104.533087,-3370.820191
21124.946171,-4145.153275,-9770.718434,-1915.238745
21124.946504,-4589.276840,-8882.471304,766.095498
21124.946837,-666.185348,-7698.141797,5439.278036
21124.947170,1480.411884,-6883.915261,8503.660028
21124.947503,2294.638420,-5181.441594,2451.505594
21124.947836,1776.494261,-6661.853478,4826.401637
21124.948169,2294.638420,-8882.471304,-76.609550
21124.948502,0.000000,-8364.327145,229.828649
21124.948835,-1184.329507,-11473.192101,-2757.943793
21124.949168,-3182.885551,-13101.645173,-5286.058936
21124.949501,-2368.659014,-12731.542202,-4979.620737
21124.949834,-3404.947333,-11251.130318,-4903.011187
21124.950167,-1258.350101,-10658.965565,-2221.676944
21124.950500,-3256.906145,-4811.338623,0.000000
21124.950833,0.000000,-7179.997637,7124.688131
21124.951166,5847.626942,-4737.318029,7124.688131
21124.951499,4737.318029,-5995.668130,9346.365076
21124.951833,4663.297435,-5699.585753,3370.820191
21124.952166,1628.453072,-7476.080014,459.657299
21124.952499,-1628.453072,-9770.718434,-2298.286494
21124.952832,-1258.350101,-11547.212695,-2451.505594
21124.953165,-2442.679609,-12435.459826,-5209.449386
21124.953498,-3034.844362,-13323.706956,-4979.620737
21124.953831,-1702.473667,-8364.327145,-4443.353888
21124.954164,-1702.473667,-10362.883188,-2757.943793
21124.954497,-1258.350101,-9474.636058,1608.800546
