#time,accel_x,accel_y,accel_z
20728.939737,8216.285956,-8512.368333,1378.971896
20728.940071,6143.709319,-9474.636058,-1838.629195
20728.940405,4367.215058,-9844.739029,-3524.039291
20728.940738,4663.297435,-11251.130318,-2834.553343
20728.941072,4737.318029,-10214.842000,-1302.362347
20728.941406,6439.791695,-7920.203579,-4290.134789
20728.941739,7402.059420,-8956.491898,1991.848295
20728.942073,13545.768739,-11547.212695,4826.401637
20728.942407,13545.768739,-8290.306550,6588.421283
20728.942740,12361.439231,-7772.162391,4290.134789
20728.943074,12805.562797,-9474.636058,3907.087040
20728.943407,11843.295072,-9252.574275,2451.505594
20728.943741,8882.471304,-8364.327145,0.000000
20728.944075,6439.791695,-14211.954086,-2834.553343
20728.944408,-888.247130,-10732.986159,-7814.174080
20728.944742,-2368.659014,-12213.398043,-4290.134789
20728.945076,1850.514855,-10362.883188,-689.485948
20728.945409,3182.885551,-6513.812290,76.609550
20728.945743,6217.729913,-6069.688724,5745.716235
20728.946077,10066.800811,-5181.441594,8503.660028
20728.946410,12731.542202,-4071.132681,7967.393179
20728.946744,13323.706956,-6143.709319,6128.763984
20728.947077,13841.851115,-7105.977043,0.000000
20728.947411,10214.842000,-8660.409521,-919.314598
20728.947745,10584.944971,-13027.624579,-4979.620737
20728.948078,6735.874072,-12287.418637,-9422.974625
20728.948412,3404.947333,-12065.356855,-9039.926876
20728.948746,3997.112087,-13841.851115,-5669.106685
20728.949079,6291.750507,-11547.212695,-2757.943793
20728.949413,6143.709319,-10584.944971,612.876398
20728.949747,8586.388927,-7179.997637,3830.477490
20728.950080,14137.933492,-5033.400406,8580.269578
20728.950414,16654.633695,-3997.112087,12027.699319
20728.950747,13915.871710,-5181.441594,9499.584175
20728.951081,10288.862594,-8364.327145,4673.182538
20728.951415,4737.318029,-9548.656652,0.000000
20728.951748,1998.556043,-12435.459826,-4979.620737
20728.952082,-2442.679609,-11103.089130,-9806.022374
20728.952416,-5921.647536,-11621.233289,-7814.174080
20728.952749,-2442.679609,-11547.212695,-3753.867940
20728.953083,0.000000,-7476.080014,0.000000
20728.953417,5773.606348,-7550.100608,3600.648841
20728.953750,5921.647536,-7031.956449,5056.230287
20728.954084,7772.162391,-6439.791695,5209.449386
20728.954418,9844.739029,-7624.121203,6511.811733
20728.954751,8808.450710,-8290.306550,536.266849
20728.955085,5033.400406,-8364.327145,-2451.505594
20728.955418,3552.988522,-12213.398043,-76.609550
20728.955752,1702.473667,-13027.624579,-3217.601092
20728.956086,-1184.329507,-14211.954086,-1915.238745
20728.956419,-1406.391290,-11029.068536,-2451.505594
20728.956753,740.205942,-8290.306550,459.657299
20728.957087,4663.297435,-4885.359217,3524.039291
20728.957420,9104.533087,-3256.906145,4826.401637
20728.957754,11177.109724,-3701.029710,1302.362347
20728.958088,10362.883188,-8216.285956,4826.401637
20728.958421,10584.944971,-10658.965565,-76.609550
20728.958755,4959.379811,-8364.327145,-4290.134789
20728.959088,3478.967927,-14211.954086,-5286.058936
20728.959422,-740.205942,-14211.954086,-5669.106685
20728.959756,-148.041188,-11399.171507,-4443.353888
20728.960089,3404.947333,-10807.006753,1072.533697
20728.960423,7105.977043,-6587.832884,4903.011187
20728.960757,7698.141797,-7179.997637,4903.011187
20728.961090,8734.430116,-8882.471304,6971.469032
20728.961424,5847.626942,-5625.565159,306.438199
20728.961758,5255.462188,-6587.832884,0.000000
20728.962091,5847.626942,-8882.471304,-76.609550
20728.962425,1776.494261,-9918.759623,-2298.286494
20728.962758,148.041188,-11843.295072,-3830.477490
20728.963092,1110.308913,-12287.418637,-1302.362347
20728.963426,1184.329507,-8660.409521,689.485948
20728.963759,3256.906145,-7550.100608,3294.210641
20728.964093,2368.659014,-8364.327145,2528.115143
20728.964427,1554.432478,-7328.038826,1532.190996
20728.964760,1110.308913,-9474.636058,3294.210641
20728.965094,-74.020594,-9400.615463,1149.143247
20728.965428,-3627.009116,-9622.677246,-4749.792088
20728.965761,-3997.112087,-10140.821405,-3677.258390
20728.966095,3923.091493,-9474.636058,-76.609550
20728.966429,2960.823768,-6883.915261,2451.505594
20728.966762,5107.421000,-6513.812290,1608.800546
20728.967096,4441.235652,-7179.997637,1225.752797
20728.967429,2664.741391,-10362.883188,306.438199
20728.967763,3478.967927,-10658.965565,-76.609550
20728.968097,-2368.659014,-11917.315666,229.828649
20728.968430,-1258.350101,-9696.697840,-4903.011187
20728.968764,-2072.576638,-11917.315666,76.609550
20728.969098,2294.638420,-11843.295072,1149.143247
20728.969431,814.226536,-9178.553681,1608.800546
20728.969765,-222.061783,-8290.306550,842.705048
20728.970099,-1776.494261,-10288.862594,1685.410096
20728.970432,-2812.782580,-7624.121203,1378.971896
20728.970766,-1184.329507,-6957.935855,1608.800546
20728.971099,1998.556043,-7698.141797,4826.401637
20728.971433,2664.741391,-5995.668130,4903.011187
20728.971767,5255.462188,-8290.306550,4519.963438
20728.972100,0.000000,-8364.327145,0.000000
20728.972434,-4145.153275,-9548.656652,-4903.011187
20728.972768,-5921.647536,-13249.686362,-4443.353888
20728.973101,-4515.256246,-12435.459826,-5592.497135
20728.973435,-5921.647536,-11029.068536,-4060.306139
20728.973769,-4663.297435,-10362.883188,-2987.772442
20728.974102,222.061783,-8586.388927,2374.896044
20728.974436,3552.988522,-7179.997637,9116.536426
20728.974769,8216.285956,-6735.874072,10955.165621
20728.975103,4663.297435,-2590.720797,4903.011187
20728.975437,4737.318029,-7476.080014,5669.106685
20728.975770,296.082377,-6883.915261,0.000000
20728.976104,-666.185348,-9992.780217,-2757.943793
20728.976438,-2294.638420,-11547.212695,-4060.306139
20728.976771,-2146.597232,-13323.706956,-4213.525239
20728.977105,-2960.823768,-11325.150913,-4903.011187
20728.977439,-2072.576638,-13619.789333,-3140.991542
20728.977772,-1554.432478,-9548.656652,-4136.915689
20728.978106,0.000000,-8364.327145,3677.258390
20728.978440,6069.688724,-9252.574275,7048.078582
20728.978773,2960.823768,-5995.668130,6741.640382
20728.979107,4219.173869,-7698.141797,5822.325785
20728.979440,4811.338623,-7846.182985,5592.497135
20728.979774,3775.050304,-6291.750507,2757.943793
20728.980108,2368.659014,-5995.668130,306.438199
20728.980441,-1110.308913,-7105.977043,-3830.477490
20728.980775,-4071.132681,-10362.883188,-8427.050478
20728.981109,-5921.647536,-13027.624579,-7201.297681
20728.981442,-3627.009116,-13915.871710,-3753.867940
20728.981776,-1258.350101,-12287.418637,-995.924147
20728.982110,1184.329507,-10140.821405,3677.258390
20728.982443,5329.482782,-9696.697840,10955.165621
20728.982777,6439.791695,-5107.421000,6971.469032
20728.983110,5921.647536,-5403.503377,8044.002729
20728.983444,3775.050304,-7254.018232,3447.429741
20728.983778,592.164754,-7698.141797,0.000000
20728.984111,-1850.514855,-9326.594869,-3140.991542
20728.984445,-5699.585753,-8290.306550,-6435.202183
20728.984779,-2442.679609,-9770.718434,-6741.640382
20728.985112,-296.082377,-11251.130318,-689.485948
20728.985446,-74.020594,-11843.295072,-1302.362347
20728.985780,-666.185348,-7698.141797,-2987.772442
20728.986113,814.226536,-11843.295072,1762.019645
20728.986447,592.164754,-10214.842000,2681.334243
20728.986780,0.000000,-10807.006753,3600.648841
20728.987114,1258.350101,-8808.450710,2911.162892
20728.987448,2368.659014,-8956.491898,5209.449386
20728.987781,1702.473667,-5699.585753,0.000000
20728.988115,2590.720797,-8290.306550,-76.609550
20728.988449,-3256.906145,-5699.585753,-3677.258390
20728.988782,-4737.318029,-8956.491898,-3217.601092
20728.989116,-4441.235652,-8660.409521,-5286.058936
20728.989450,-4441.235652,-12287.418637,-2221.676944
20728.989783,-3478.967927,-10436.903782,-1225.752797
20728.990117,0.000000,-12213.398043,3064.381992
20728.990451,7031.956449,-8734.430116,6665.030833
20728.990784,3849.070898,-6587.832884,8120.612279
20728.991118,5847.626942,-9178.553681,6052.154434
20728.991451,2886.803174,-7031.956449,919.314598
20728.991785,-2072.576638,-10584.944971,0.000000
20728.992119,-222.061783,-8882.471304,-2451.505594
20728.992452,-4145.153275,-8364.327145,-3983.696590
20728.992786,0.000000,-9252.574275,-1915.238745
20728.993120,1924.535449,-7846.182985,-919.314598
20728.993453,1036.288319,-8808.450710,-1455.581446
20728.993787,2960.823768,-11251.130318,-76.609550
20728.994121,-74.020594,-11103.089130,0.000000
20728.994454,0.000000,-8364.327145,3370.820191
20728.994788,-74.020594,-11547.212695,1455.581446
20728.995121,2886.803174,-8586.388927,1838.629195
20728.995455,3034.844362,-8364.327145,3064.381992
20728.995789,4071.132681,-7328.038826,3753.867940
20728.996122,5255.462188,-5255.462188,2604.724693
20728.996456,814.226536,-6365.771101,-3140.991542
20728.996790,-814.226536,-11547.212695,-3753.867940
20728.997123,-5551.544565,-9622.677246,-6281.983084
20728.997457,-5847.626942,-13027.624579,-6358.592633
20728.997791,-3182.885551,-10658.965565,-2528.115143
20728.998124,1702.473667,-11843.295072,2987.772442
20728.998458,4885.359217,-8956.491898,7967.393179
20728.998791,7031.956449,-9474.636058,7277.907231
20728.999125,3182.885551,-5699.585753,4290.134789
20728.999459,2368.659014,-7772.162391,4903.011187
20728.999792,-74.020594,-9326.594869,-612.876398
20729.000126,-1554.432478,-8808.450710,-1991.848295
20729.000460,-4071.132681,-9770.718434,-3907.087040
20729.000793,-1924.535449,-10732.986159,-1915.238745
20729.001127,-2368.659014,-6587.832884,-2451.505594
20729.001461,-888.247130,-10140.821405,1149.143247
20729.001794,-1258.350101,-10658.965565,-76.609550
20729.002128,-2442.679609,-6587.832884,-3064.381992
20729.002462,-740.205942,-12287.418637,3600.648841
20729.002795,-592.164754,-6291.750507,2451.505594
20729.003129,1258.350101,-10214.842000,3447.429741
20729.003462,2812.782580,-8216.285956,5515.887586
20729.003796,3182.885551,-8290.306550,3830.477490
20729.004130,1184.329507,-7772.162391,1838.629195
20729.004463,1628.453072,-11251.130318,-689.485948
20729.004797,-3330.926739,-8956.491898,-5745.716235
20729.005131,-4219.173869,-7179.997637,-7354.516781
20729.005464,-4441.235652,-11029.068536,-3524.039291
20729.005798,-1036.288319,-10881.027347,383.047749
20729.006132,1998.556043,-10955.047942,2451.505594
20729.006465,5773.606348,-8586.388927,5592.497135
20729.006798,4737.318029,-7328.038826,5515.887586
20729.007131,5847.626942,-8290.306550,4826.401637
20729.007464,5847.626942,-9474.636058,1762.019645
20729.007798,0.000000,-9548.656652,1225.752797
20729.008131,1036.288319,-10955.047942,1225.752797
20729.008464,-1850.514855,-10658.965565,-3140.991542
20729.008797,0.000000,-10140.821405,-229.828649
20729.009130,-592.164754,-8068.244768,-612.876398
20729.009464,592.164754,-7624.121203,-1915.238745
20729.009797,444.123565,-8364.327145,-76.609550
20729.010130,2294.638420,-9474.636058,-76.609550
20729.010463,666.185348,-10362.883188,1302.362347
20729.010796,0.000000,-10362.883188,2298.286494
20729.011130,1998.556043,-10510.924376,2451.505594
20729.011463,1776.494261,-7772.162391,4903.011187
20729.011796,2368.659014,-7179.997637,5515.887586
20729.012129,4663.297435,-7105.977043,2374.896044
20729.012462,0.000000,-5995.668130,0.000000
20729.012796,-1702.473667,-11103.089130,-2528.115143
20729.013129,-6069.688724,-9844.739029,-4903.011187
20729.013462,-6513.812290,-10288.862594,-5515.887586
20729.013795,-5625.565159,-10732.986159,-2987.772442
20729.014128,-1184.329507,-9622.677246,995.924147
20729.014462,4145.153275,-8290.306550,7277.907231
20729.014795,4071.132681,-5551.544565,7277.907231
20729.015128,4071.132681,-6217.729913,1608.800546
20729.015461,592.164754,-8956.491898,3294.210641
20729.015794,-74.020594,-11843.295072,-76.609550
20729.016128,-2960.823768,-9844.739029,0.000000
20729.016461,-3923.091493,-11251.130318,-2528.115143
20729.016794,-3182.885551,-11843.295072,-1915.238745
20729.017127,-3182.885551,-7550.100608,-1991.848295
20729.017460,-666.185348,-9474.636058,-1915.238745
20729.017794,0.000000,-5995.668130,612.876398
20729.018127,-148.041188,-8882.471304,-689.485948
20729.018460,-1776.494261,-8068.244768,1532.190996
20729.018793,1702.473667,-9474.636058,3600.648841
20729.019126,2886.803174,-10658.965565,2374.896044
20729.019460,5551.544565,-10362.883188,4826.401637
20729.019793,4663.297435,-9178.553681,4213.525239
20729.020126,3108.864956,-7550.100608,1915.238745
20729.020459,0.000000,-8142.265362,-2298.286494
20729.020792,-74.020594,-11843.295072,-1915.238745
20729.021126,-4737.318029,-9548.656652,-3677.258390
20729.021459,-4737.318029,-10140.821405,-1991.848295
20729.021792,-2442.679609,-9474.636058,-3907.087040
20729.022125,0.000000,-7179.997637,0.000000
20729.022458,6291.750507,-6957.935855,5286.058936
20729.022792,6883.915261,-6513.812290,7737.564530
20729.023125,5773.606348,-6735.874072,4443.353888
20729.023458,4145.153275,-9400.615463,2374.896044
20729.023791,-74.020594,-9918.759623,-2528.115143
20729.024124,-2368.659014,-11325.150913,-1302.362347
20729.024458,-2146.597232,-10658.965565,-3753.867940
20729.024791,-1110.308913,-9548.656652,-3677.258390
20729.025124,0.000000,-9548.656652,306.438199
20729.025457,1702.473667,-8808.450710,-1532.190996
20729.025790,444.123565,-9178.553681,-536.266849
20729.026124,-518.144159,-9770.718434,-306.438199
20729.026457,148.041188,-8956.491898,1225.752797
20729.026790,814.226536,-8290.306550,1608.800546
20729.027123,888.247130,-9104.533087,3370.820191
20729.027456,1776.494261,-8660.409521,3830.477490
20729.027790,2368.659014,-8068.244768,3524.039291
20729.028123,2368.659014,-7476.080014,3677.258390
20729.028456,-74.020594,-7994.224174,-995.924147
20729.028789,-4737.318029,-9548.656652,-6128.763984
20729.029122,-6513.812290,-11991.336260,-3447.429741
20729.029456,-5699.585753,-10658.965565,-6665.030833
20729.029789,-6513.812290,-9548.656652,-2451.505594
20729.030122,-592.164754,-9326.594869,1762.019645
20729.030455,2220.617826,-8882.471304,5439.278036
20729.030788,1554.432478,-6587.832884,4903.011187
20729.031122,4071.132681,-8290.306550,4443.353888
20729.031455,3478.967927,-8290.306550,2374.896044
20729.031788,0.000000,-7772.162391,2451.505594
20729.032121,2294.638420,-11251.130318,1762.019645
20729.032455,-3330.926739,-9474.636058,-3217.601092
20729.032788,-2368.659014,-12065.356855,-76.609550
20729.033121,-2368.659014,-9548.656652,0.000000
20729.033454,222.061783,-8216.285956,-1685.410096
20729.033787,148.041188,-8142.265362,-1608.800546
20729.034121,-370.102971,-8290.306550,-2528.115143
20729.034454,1110.308913,-9178.553681,-1608.800546
20729.034787,0.000000,-10140.821405,3600.648841
20729.035120,3478.967927,-10362.883188,2374.896044
20729.035453,3108.864956,-7179.997637,3677.258390
20729.035787,5847.626942,-8882.471304,4519.963438
20729.036120,3849.070898,-7179.997637,2911.162892
20729.036453,1332.370696,-7550.100608,-1915.238745
20729.036786,-1332.370696,-10066.800811,-4826.401637
20729.037119,-3552.988522,-11325.150913,-4596.572988
20729.037453,-3923.091493,-10732.986159,-4903.011187
20729.037786,-1776.494261,-11769.274478,-76.609550
20729.038119,2294.638420,-9992.780217,0.000000
20729.038452,4145.153275,-7772.162391,3064.381992
20729.038785,5329.482782,-6291.750507,5286.058936
20729.039119,6069.688724,-6069.688724,4519.963438
20729.039452,3997.112087,-8364.327145,2681.334243
20729.039785,1258.350101,-7846.182985,-229.828649
20729.040118,-74.020594,-11103.089130,-1302.362347
20729.040451,-3552.988522,-10732.986159,-1225.752797
20729.040785,-74.020594,-10658.965565,-2528.115143
20729.041118,-74.020594,-9104.533087,-2911.162892
20729.041451,0.000000,-9104.533087,306.438199
20729.041784,-1628.453072,-7476.080014,-3370.820191
20729.042117,-1850.514855,-10807.006753,-383.047749
20729.042451,-1184.329507,-8956.491898,459.657299
20729.042784,-666.185348,-9252.574275,2987.772442
20729.043117,1702.473667,-9474.636058,4826.401637
20729.043450,1776.494261,-9400.615463,6052.154434
20729.043783,2146.597232,-7402.059420,3983.696590
20729.044117,2220.617826,-5847.626942,2528.115143
20729.044450,666.185348,-6069.688724,-1378.971896
20729.044783,-74.020594,-11251.130318,-2221.676944
20729.045116,-5921.647536,-10732.986159,-7354.516781
20729.045449,-5329.482782,-13397.727550,-3753.867940
20729.045783,-4367.215058,-11251.130318,-4136.915689
20729.046116,0.000000,-8364.327145,0.000000
20729.046449,5847.626942,-8882.471304,6052.154434
20729.046782,4145.153275,-5847.626942,6588.421283
20729.047115,3552.988522,-7179.997637,3907.087040
20729.047449,1924.535449,-9104.533087,3064.381992
20729.047782,-74.020594,-8290.306550,-689.485948
20729.048115,-2368.659014,-8660.409521,766.095498
20729.048448,-1258.350101,-11843.295072,-1302.362347
20729.048781,-2442.679609,-9252.574275,-4596.572988
20729.049115,-3552.988522,-9844.739029,-1225.752797
20729.049448,814.226536,-7402.059420,-2451.505594
20729.049781,-74.020594,-7698.141797,-1149.143247
20729.050114,518.144159,-9178.553681,306.438199
20729.050447,370.102971,-10436.903782,536.266849
20729.050781,-1184.329507,-7772.162391,0.000000
20729.051114,2368.659014,-11177.109724,4213.525239
20729.051447,4663.297435,-10955.047942,3064.381992
20729.051780,2960.823768,-5995.668130,6128.763984
20729.052113,5255.462188,-9474.636058,3600.648841
20729.052447,888.247130,-6291.750507,0.000000
20729.052780,-666.185348,-9252.574275,-3677.258390
20729.053113,-3034.844362,-11695.253884,-4060.306139
20729.053446,-3330.926739,-10658.965565,-3830.477490
20729.053779,-5329.482782,-10732.986159,-2451.505594
20729.054113,-74.020594,-13027.624579,-1302.362347
20729.054446,888.247130,-6587.832884,3064.381992
20729.054779,4959.379811,-7105.977043,7277.907231
20729.055112,6439.791695,-6513.812290,4213.525239
20729.055445,2368.659014,-8364.327145,4903.011187
20729.055779,1406.391290,-9474.636058,383.047749
20729.056112,-2072.576638,-10362.883188,-1685.410096
20729.056445,-1998.556043,-10214.842000,-3217.601092
20729.056778,74.020594,-10881.027347,-1838.629195
20729.057111,740.205942,-9918.759623,-459.657299
20729.057445,740.205942,-8364.327145,-459.657299
20729.057778,-1184.329507,-9696.697840,-1685.410096
20729.058111,-1554.432478,-9474.636058,-2604.724693
20729.058444,-666.185348,-7772.162391,0.000000
20729.058777,1184.329507,-9918.759623,4213.525239
20729.059111,3478.967927,-9474.636058,3600.648841
20729.059444,2294.638420,-9104.533087,3677.258390
20729.059777,5255.462188,-7994.224174,4213.525239
20729.060110,2368.659014,-7179.997637,3677.258390
20729.060444,1776.494261,-6957.935855,-919.314598
20729.060777,-1850.514855,-11103.089130,-4519.963438
20729.061110,-7698.141797,-11917.315666,-6128.763984
20729.061443,-4811.338623,-10658.965565,-8273.831378
20729.061776,-4145.153275,-11473.192101,-1915.238745
20729.062110,1554.432478,-9030.512492,0.000000
20729.062443,2590.720797,-7179.997637,4903.011187
20729.062776,3701.029710,-5403.503377,5822.325785
20729.063109,2664.741391,-6291.750507,4443.353888
20729.063442,2738.761985,-9474.636058,2834.553343
20729.063776,2146.597232,-7846.182985,383.047749
20729.064109,-74.020594,-11843.295072,1762.019645
20729.064442,-2886.803174,-8068.244768,-2451.505594
20729.064775,-2442.679609,-11843.295072,-3140.991542
20729.065108,-2368.659014,-7179.997637,-2145.067394
20729.065442,1110.308913,-10362.883188,0.000000
20729.065775,-74.020594,-8142.265362,-459.657299
20729.066108,-1776.494261,-10288.862594,-842.705048
20729.066441,-1480.411884,-9548.656652,-612.876398
20729.066774,-444.123565,-10362.883188,2068.457845
20729.067108,444.123565,-8438.347739,3294.210641
20729.067441,2368.659014,-8956.491898,6281.983084
20729.067774,4071.132681,-5995.668130,1838.629195
20729.068107,148.041188,-5403.503377,2451.505594
20729.068440,1850.514855,-8734.430116,-76.609550
20729.068774,-1258.350101,-10362.883188,-4979.620737
20729.069107,-2960.823768,-11029.068536,-4749.792088
20729.069440,-4441.235652,-11621.233289,-3064.381992
20729.069773,-3256.906145,-9252.574275,-3140.991542
20729.070106,-1998.556043,-11473.192101,0.000000
20729.070440,4071.132681,-10658.965565,4213.525239
20729.070773,1776.494261,-5995.668130,5515.887586
20729.071106,6143.709319,-5921.647536,7277.907231
20729.071439,4663.297435,-7254.018232,2451.505594
20729.071772,1554.432478,-8512.368333,2528.115143
20729.072106,1258.350101,-10066.800811,842.705048
20729.072439,-1702.473667,-10955.047942,-1991.848295
20729.072772,-2072.576638,-9548.656652,-1225.752797
20729.073105,-1850.514855,-11399.171507,-2528.115143
20729.073438,2886.803174,-7698.141797,-1915.238745
20729.073772,-1998.556043,-10066.800811,-1302.362347
20729.074105,-370.102971,-9178.553681,-2298.286494
20729.074438,-148.041188,-9474.636058,383.047749
20729.074771,-2368.659014,-9844.739029,306.438199
20729.075104,3552.988522,-7698.141797,4826.401637
20729.075438,1332.370696,-9474.636058,3600.648841
20729.075771,4737.318029,-5995.668130,7277.907231
20729.076104,2590.720797,-7994.224174,3907.087040
20729.076437,2294.638420,-4589.276840,-1838.629195
20729.076770,-1554.432478,-9770.718434,-4290.134789
20729.077104,-3701.029710,-12731.542202,-5132.839837
20729.077437,-3552.988522,-11621.233289,-4290.134789
20729.077770,-4737.318029,-12657.521608,-3217.601092
20729.078103,3404.947333,-10658.965565,-76.609550
20729.078436,1924.535449,-7772.162391,3830.477490
20729.078770,5329.482782,-4811.338623,7354.516781
20729.079103,7624.121203,-6809.894666,5132.839837
20729.079436,2368.659014,-9548.656652,2757.943793
20729.079769,2590.720797,-8068.244768,-383.047749
20729.080102,-1628.453072,-11251.130318,-1378.971896
20729.080436,222.061783,-9770.718434,-2145.067394
20729.080769,-1258.350101,-11843.295072,-689.485948
20729.081102,814.226536,-11251.130318,-1302.362347
20729.081435,-2368.659014,-7179.997637,1838.629195
20729.081768,148.041188,-8142.265362,1991.848295
20729.082102,-74.020594,-9474.636058,-383.047749
20729.082435,-74.020594,-9326.594869,2834.553343
20729.082768,-1924.535449,-9696.697840,383.047749
20729.083101,-1036.288319,-9178.553681,1915.238745
20729.083434,1332.370696,-9474.636058,2757.943793
20729.083768,2072.576638,-7772.162391,3677.258390
20729.084101,3478.967927,-5921.647536,2757.943793
20729.084434,-2368.659014,-5995.668130,0.000000
20729.084767,-74.020594,-11251.130318,-3140.991542
20729.085100,-5107.421000,-11843.295072,-5592.497135
20729.085434,-6883.915261,-10955.047942,-4979.620737
20729.085767,-5107.421000,-10436.903782,-3907.087040
20729.086100,-1702.473667,-10881.027347,-459.657299
20729.086433,1924.535449,-8956.491898,4749.792088
20729.086766,4737.318029,-6365.771101,7660.954980
20729.087100,2368.659014,-4219.173869,5209.449386
20729.087433,4367.215058,-10066.800811,4213.525239
20729.087766,962.267725,-6587.832884,0.000000
20729.088099,-1110.308913,-13027.624579,-76.609550
20729.088432,-1110.308913,-9474.636058,-1608.800546
20729.088766,-1776.494261,-11177.109724,-995.924147
20729.089099,1554.432478,-8882.471304,-1455.581446
20729.089432,0.000000,-7920.203579,-612.876398
20729.089765,-296.082377,-10140.821405,-1838.629195
20729.090099,-2368.659014,-8364.327145,-2451.505594
20729.090432,-1258.350101,-9326.594869,-1378.971896
20729.090765,0.000000,-9178.553681,1532.190996
20729.091098,888.247130,-8142.265362,3294.210641
20729.091431,2368.659014,-9548.656652,3677.258390
20729.091765,4515.256246,-5403.503377,2451.505594
20729.092098,4737.318029,-8142.265362,4826.401637
20729.092431,4663.297435,-6513.812290,536.266849
20729.092764,-74.020594,-9400.615463,-2834.553343
20729.093097,-3256.906145,-11325.150913,-4979.620737
20729.093431,-4811.338623,-11769.274478,-5132.839837
20729.093764,-3701.029710,-10807.006753,-4213.525239
20729.094097,-814.226536,-10658.965565,-76.609550
20729.094430,3478.967927,-11251.130318,4519.963438
20729.094763,2368.659014,-5107.421000,5209.449386
20729.095097,1776.494261,-5995.668130,5515.887586
20729.095430,3478.967927,-9178.553681,2374.896044
20729.095763,0.000000,-6291.750507,1838.629195
20729.096096,1110.308913,-11547.212695,1608.800546
20729.096429,0.000000,-9326.594869,-76.609550
20729.096763,-2960.823768,-11917.315666,-1225.752797
20729.097096,0.000000,-7698.141797,-1225.752797
20729.097429,1110.308913,-8586.388927,-1455.581446
20729.097762,-2368.659014,-7179.997637,0.000000
20729.098095,-74.020594,-10658.965565,-1915.238745
20729.098429,-1258.350101,-11843.295072,-2528.115143
20729.098762,-1184.329507,-10288.862594,2145.067394
20729.099095,1110.308913,-9474.636058,1915.238745
20729.099428,4219.173869,-8882.471304,5822.325785
20729.099761,5477.523971,-6957.935855,5975.544884
20729.100095,2960.823768,-5995.668130,4443.353888
20729.100428,1184.329507,-6587.832884,0.000000
20729.100761,-2368.659014,-11917.315666,-76.609550
20729.101094,-1554.432478,-11251.130318,-4060.306139
20729.101427,-5921.647536,-10732.986159,-4903.011187
20729.101761,-2072.576638,-10584.944971,-153.219100
20729.102094,-1554.432478,-11251.130318,-1838.629195
20729.102427,1110.308913,-9474.636058,2068.457845
20729.102760,2368.659014,-8142.265362,3753.867940
20729.103093,1702.473667,-6439.791695,3217.601092
20729.103427,888.247130,-7772.162391,1915.238745
20729.103760,-296.082377,-9252.574275,2374.896044
20729.104093,-1184.329507,-9548.656652,2374.896044
20729.104426,-2368.659014,-9178.553681,383.047749
20729.104759,-74.020594,-10362.883188,-76.609550
20729.105093,-74.020594,-6143.709319,-3370.820191
20729.105426,0.000000,-9030.512492,-76.609550
20729.105759,-1850.514855,-10658.965565,-4979.620737
20729.106092,-2812.782580,-8364.327145,-3677.258390
20729.106425,888.247130,-11769.274478,-76.609550
20729.106758,0.000000,-10732.986159,1532.190996
20729.107091,1850.514855,-9326.594869,2987.772442
20729.107424,2738.761985,-10362.883188,4213.525239
20729.107757,4737.318029,-5995.668130,4903.011187
20729.108090,6883.915261,-5403.503377,2068.457845
20729.108423,5329.482782,-6291.750507,4826.401637
20729.108756,1406.391290,-7476.080014,-2451.505594
20729.109089,-3997.112087,-11029.068536,-4903.011187
20729.109422,-4071.132681,-11251.130318,-5898.935335
20729.109755,-3404.947333,-11029.068536,-4749.792088
20729.110088,74.020594,-10066.800811,-766.095498
20729.110421,3627.009116,-8438.347739,2681.334243
20729.110754,6513.812290,-7476.080014,7354.516781
20729.111087,9400.615463,-8290.306550,4826.401637
20729.111420,4737.318029,-8364.327145,3064.381992
20729.111753,4663.297435,-11251.130318,3600.648841
20729.112086,2294.638420,-11251.130318,-1302.362347
20729.112419,-2368.659014,-9548.656652,-3370.820191
20729.112752,-1184.329507,-11991.336260,-536.266849
20729.113085,296.082377,-9178.553681,-459.657299
20729.113418,222.061783,-7476.080014,153.219100
20729.113751,1924.535449,-7994.224174,1149.143247
20729.114084,-1258.350101,-7772.162391,-2451.505594
20729.114417,-74.020594,-9474.636058,-76.609550
20729.114750,-1850.514855,-13027.624579,-76.609550
20729.115083,-4737.318029,-7476.080014,2145.067394
20729.115416,3775.050304,-10658.965565,4673.182538
20729.115749,5107.421000,-6957.935855,6894.859482
20729.116082,3330.926739,-7476.080014,4519.963438
20729.116415,296.082377,-6883.915261,76.609550
20729.116748,-4811.338623,-10955.047942,-5592.497135
20729.117081,-8290.306550,-10140.821405,-4749.792088
20729.117414,-6587.832884,-10658.965565,-7354.516781
20729.117747,-4737.318029,-10288.862594,-4903.011187
20729.118080,-666.185348,-14211.954086,-76.609550
20729.118413,-74.020594,-10066.800811,2757.943793
20729.118746,4441.235652,-7105.977043,7277.907231
20729.119079,4293.194464,-5181.441594,7507.735880
20729.119412,4515.256246,-7846.182985,6511.811733
20729.119745,-1406.391290,-7402.059420,1455.581446
20729.120078,-4145.153275,-10584.944971,-76.609550
20729.120410,-3552.988522,-8586.388927,-2451.505594
20729.120743,-3108.864956,-11769.274478,-1838.629195
20729.121076,-370.102971,-8586.388927,-1378.971896
20729.121409,-3627.009116,-10658.965565,-2528.115143
20729.121742,-3552.988522,-7179.997637,-3983.696590
20729.122075,-666.185348,-13027.624579,-1302.362347
20729.122408,-2220.617826,-7179.997637,-1838.629195
20729.122741,1480.411884,-9474.636058,4060.306139
20729.123074,4367.215058,-9474.636058,4519.963438
20729.123407,4885.359217,-9252.574275,6128.763984
20729.123740,4737.318029,-7772.162391,5209.449386
20729.124073,7031.956449,-7179.997637,4519.963438
20729.124406,4145.153275,-4293.194464,0.000000
20729.124739,1184.329507,-9548.656652,-842.705048
20729.125072,-370.102971,-10658.965565,-5286.058936
20729.125405,-4219.173869,-13027.624579,-7967.393179
20729.125738,-4145.153275,-11325.150913,-4903.011187
20729.126071,-74.020594,-11547.212695,-2528.115143
20729.126404,3701.029710,-8956.491898,2145.067394
20729.126737,4219.173869,-7476.080014,4136.915689
20729.127070,5477.523971,-5033.400406,3753.867940
20729.127403,4145.153275,-9548.656652,3677.258390
20729.127736,3552.988522,-7772.162391,7277.907231
20729.128069,1110.308913,-10066.800811,0.000000
20729.128402,592.164754,-9474.636058,612.876398
20729.128735,-74.020594,-14211.954086,-1915.238745
20729.129068,-2368.659014,-8364.327145,-2145.067394
20729.129401,1332.370696,-6513.812290,-995.924147
20729.129734,592.164754,-8364.327145,-2298.286494
20729.130067,370.102971,-10214.842000,-76.609550
20729.130400,-3034.844362,-11695.253884,-2221.676944
20729.130733,-1258.350101,-12435.459826,-76.609550
20729.131066,-2368.659014,-7476.080014,612.876398
20729.131399,3627.009116,-11251.130318,5439.278036
20729.131732,3552.988522,-4811.338623,4903.011187
20729.132065,2886.803174,-7772.162391,5132.839837
20729.132398,-148.041188,-5403.503377,0.000000
20729.132731,-4885.359217,-11843.295072,-1608.800546
20729.133064,-4663.297435,-6883.915261,-3677.258390
20729.133397,-9474.636058,-11325.150913,-4596.572988
20729.133730,-5551.544565,-6957.935855,-5822.325785
20729.134063,-5921.647536,-11917.315666,0.000000
20729.134396,-1924.535449,-11251.130318,2374.896044
20729.134729,1258.350101,-4811.338623,2451.505594
20729.135062,-370.102971,-7402.059420,4519.963438
20729.135395,2294.638420,-7698.141797,2068.457845
20729.135728,-1776.494261,-8956.491898,1225.752797
20729.136061,370.102971,-9474.636058,1455.581446
20729.136394,-1776.494261,-9548.656652,689.485948
20729.136727,-1850.514855,-10510.924376,-1072.533697
20729.137060,-1036.288319,-8734.430116,-1532.190996
20729.137393,-1258.350101,-9252.574275,-1838.629195
20729.137726,740.205942,-8142.265362,-2451.505594
20729.138059,-2368.659014,-7772.162391,-2757.943793
20729.138392,1702.473667,-12731.542202,-383.047749
20729.138725,-1554.432478,-9548.656652,1225.752797
20729.139058,3108.864956,-7402.059420,4290.134789
20729.139391,7031.956449,-9474.636058,5745.716235
20729.139724,5329.482782,-6587.832884,6128.763984
20729.140056,5255.462188,-6513.812290,2987.772442
20729.140389,4663.297435,-5921.647536,459.657299
20729.140722,3330.926739,-10658.965565,-2068.457845
20729.141055,0.000000,-10140.821405,-4903.011187
20729.141388,-2146.597232,-12731.542202,-7277.907231
20729.141721,-814.226536,-8364.327145,-7354.516781
20729.142054,1924.535449,-13249.686362,-76.609550
20729.142387,9400.615463,-7105.977043,3600.648841
20729.142720,11251.130318,-9326.594869,8503.660028
20729.143053,10881.027347,-4293.194464,5439.278036
20729.143386,9918.759623,-9918.759623,4290.134789
20729.143719,6735.874072,-9030.512492,995.924147
20729.144052,6143.709319,-13027.624579,1762.019645
20729.144385,0.000000,-8660.409521,-3677.258390
20729.144718,1332.370696,-13619.789333,-76.609550
20729.145051,1702.473667,-10362.883188,-4213.525239
20729.145384,0.000000,-7179.997637,0.000000
20729.145717,1110.308913,-8290.306550,-1149.143247
20729.146050,-1406.391290,-8808.450710,-612.876398
20729.146383,-4071.132681,-9844.739029,-229.828649
20729.146716,-4737.318029,-9844.739029,1225.752797
20729.147049,-1850.514855,-5921.647536,2374.896044
20729.147382,-4441.235652,-7179.997637,5515.887586
20729.147715,2886.803174,-8882.471304,4826.401637
20729.148048,-1998.556043,-5403.503377,0.000000
20729.148381,-4737.318029,-5995.668130,0.000000
20729.148714,-4811.338623,-11547.212695,-4749.792088
20729.149047,-8956.491898,-11769.274478,-5362.668486
20729.149380,-10066.800811,-11177.109724,-4673.182538
20729.149713,-9178.553681,-10140.821405,-3370.820191
20729.150046,-7550.100608,-11547.212695,-995.924147
20729.150379,-3627.009116,-7920.203579,2221.676944
20729.150712,-1258.350101,-6143.709319,4903.011187
20729.151045,888.247130,-3256.906145,4826.401637
20729.151378,-1184.329507,-9252.574275,5056.230287
20729.151711,-1850.514855,-8882.471304,1455.581446
20729.152044,-5995.668130,-9548.656652,-1225.752797
20729.152377,-4737.318029,-10584.944971,-76.609550
20729.152710,-962.267725,-9474.636058,-995.924147
20729.153043,-3552.988522,-7772.162391,0.000000
20729.153376,-666.185348,-9474.636058,-766.095498
20729.153709,-2738.761985,-8068.244768,-3447.429741
20729.154042,-1702.473667,-9696.697840,-2451.505594
20729.154375,-74.020594,-9474.636058,-76.609550
20729.154708,1776.494261,-9474.636058,2987.772442
20729.155041,1776.494261,-6587.832884,2451.505594
20729.155374,4737.318029,-8808.450710,6128.763984
20729.155707,8808.450710,-9474.636058,4826.401637
20729.156040,9400.615463,-6365.771101,4519.963438
20729.156373,9400.615463,-6217.729913,1838.629195
20729.156706,5107.421000,-9400.615463,-1838.629195
20729.157039,1332.370696,-10436.903782,-4749.792088
20729.157372,-3256.906145,-11325.150913,-7354.516781
20729.157705,2294.638420,-13027.624579,-4979.620737
20729.158038,1184.329507,-10732.986159,1072.533697
20729.158371,7624.121203,-11695.253884,2068.457845
20729.158704,5625.565159,-5995.668130,1225.752797
20729.159037,7550.100608,-6069.688724,3600.648841
20729.159370,7105.977043,-7179.997637,2757.943793
20729.159702,6365.771101,-9326.594869,2451.505594
20729.160035,2294.638420,-10510.924376,1762.019645
20729.160368,0.000000,-10214.842000,919.314598
20729.160701,-74.020594,-11177.109724,-2451.505594
20729.161034,2294.638420,-9474.636058,-76.609550
20729.161367,1998.556043,-11251.130318,-383.047749
20729.161700,0.000000,-5995.668130,-1685.410096
20729.162033,-2368.659014,-10140.821405,-3064.381992
20729.162366,-4367.215058,-12583.501014,-2528.115143
20729.162699,-4293.194464,-11251.130318,-383.047749
20729.163032,-3627.009116,-10066.800811,689.485948
20729.163365,1332.370696,-9178.553681,4826.401637
20729.163698,0.000000,-5995.668130,6741.640382
20729.164031,3478.967927,-7105.977043,4826.401637
20729.164364,-2368.659014,-5107.421000,612.876398
20729.164697,-2664.741391,-13619.789333,-76.609550
20729.165030,-6143.709319,-8660.409521,-3983.696590
20729.165363,-7772.162391,-11843.295072,-3140.991542
20729.165696,-6809.894666,-8734.430116,-3677.258390
20729.166029,-6587.832884,-11843.295072,-1455.581446
20729.166362,-3330.926739,-9474.636058,-76.609550
20729.166695,-2960.823768,-6291.750507,3677.258390
20729.167028,-1036.288319,-4737.318029,2681.334243
20729.167361,148.041188,-7328.038826,2451.505594
20729.167694,-1850.514855,-8364.327145,2374.896044
20729.168027,-74.020594,-9474.636058,2374.896044
20729.168360,-2072.576638,-7476.080014,1378.971896
20729.168693,2664.741391,-10732.986159,4826.401637
20729.169026,1998.556043,-6883.915261,0.000000
20729.169359,74.020594,-9622.677246,-1149.143247
20729.169692,666.185348,-10658.965565,-4366.744339
20729.170025,-1554.432478,-10881.027347,-4290.134789
20729.170358,-962.267725,-12139.377449,-3140.991542
20729.170691,814.226536,-10066.800811,1225.752797
20729.171024,2294.638420,-8142.265362,2757.943793
20729.171357,4737.318029,-6587.832884,6128.763984
20729.171690,8216.285956,-6513.812290,6052.154434
20729.172023,8216.285956,-3034.844362,2451.505594
20729.172356,8438.347739,-6513.812290,3907.087040
20729.172689,4663.297435,-9178.553681,-1838.629195
20729.173022,0.000000,-9844.739029,-6741.640382
20729.173355,-2738.761985,-14285.974681,-7967.393179
20729.173688,-888.247130,-13249.686362,-5822.325785
20729.174021,296.082377,-11917.315666,-3677.258390
20729.174354,2368.659014,-8364.327145,3677.258390
20729.174687,10288.862594,-8290.306550,4826.401637
20729.175020,9104.533087,-4737.318029,4213.525239
20729.175353,7994.224174,-6883.915261,6128.763984
20729.175686,4367.215058,-8438.347739,2604.724693
20729.176019,3701.029710,-9252.574275,1302.362347
20729.176352,-518.144159,-10658.965565,-153.219100
20729.176685,592.164754,-11103.089130,-2068.457845
20729.177018,-962.267725,-10807.006753,-1378.971896
20729.177351,-1776.494261,-10066.800811,-76.609550
20729.177684,-74.020594,-7105.977043,-3140.991542
20729.178017,-4145.153275,-8364.327145,-2298.286494
20729.178350,-4441.235652,-11621.233289,536.266849
20729.178683,-4737.318029,-10140.821405,1455.581446
20729.179016,-1924.535449,-8734.430116,2757.943793
20729.179348,-74.020594,-9474.636058,4826.401637
20729.179681,1776.494261,-6883.915261,6205.373534
20729.180014,814.226536,-6217.729913,4136.915689
20729.180347,-666.185348,-8290.306550,-76.609550
20729.180680,-4145.153275,-6587.832884,-3677.258390
20729.181013,-8586.388927,-10732.986159,-3064.381992
20729.181346,-6291.750507,-11843.295072,-3140.991542
20729.181679,-7105.977043,-9844.739029,-1608.800546
20729.182012,-6069.688724,-10881.027347,-1608.800546
20729.182345,-2220.617826,-8290.306550,2068.457845
20729.182678,-592.164754,-6439.791695,3907.087040
20729.183011,444.123565,-4737.318029,3677.258390
20729.183344,-74.020594,-7624.121203,2987.772442
20729.183677,-3256.906145,-9548.656652,919.314598
20729.184010,-3478.967927,-9252.574275,0.000000
20729.184343,-2960.823768,-9918.759623,-383.047749
20729.184676,1110.308913,-9474.636058,1149.143247
20729.185009,592.164754,-10214.842000,3600.648841
20729.185342,814.226536,-7179.997637,-2451.505594
20729.185675,-1184.329507,-5403.503377,-4903.011187
20729.186008,0.000000,-11325.150913,-2298.286494
20729.186341,74.020594,-9622.677246,-1915.238745
20729.186674,-74.020594,-10436.903782,-766.095498
20729.187007,2368.659014,-9918.759623,1378.971896
20729.187340,3997.112087,-8512.368333,3753.867940
20729.187673,4737.318029,-7772.162391,3064.381992
20729.188006,9104.533087,-7105.977043,3600.648841
20729.188339,5847.626942,-3627.009116,1225.752797
20729.188672,4737.318029,-8956.491898,766.095498
20729.189005,2294.638420,-11251.130318,-2834.553343
20729.189338,-1184.329507,-11621.233289,-3294.210641
20729.189671,-518.144159,-11843.295072,-2681.334243
20729.190004,2220.617826,-10881.027347,-995.924147
20729.190337,4589.276840,-9474.636058,1762.019645
20729.190670,4737.318029,-8364.327145,3677.258390
20729.191003,6439.791695,-4737.318029,0.000000
20729.191336,4145.153275,-7179.997637,0.000000
20729.191669,4145.153275,-11399.171507,3600.648841
20729.192002,1110.308913,-8882.471304,536.266849
20729.192335,740.205942,-10584.944971,1149.143247
20729.192668,1480.411884,-9992.780217,919.314598
20729.193001,148.041188,-8364.327145,689.485948
20729.193334,-444.123565,-7994.224174,-1149.143247
20729.193667,-74.020594,-8290.306550,-1302.362347
20729.194000,-2442.679609,-9104.533087,-6128.763984
20729.194333,-4737.318029,-12213.398043,-1302.362347
20729.194666,-4811.338623,-10066.800811,-2528.115143
20729.194999,-3552.988522,-7772.162391,1532.190996
20729.195332,2294.638420,-9474.636058,5745.716235
20729.195665,2368.659014,-7179.997637,7354.516781
20729.195998,2738.761985,-5847.626942,5209.449386
20729.196331,-1480.411884,-6587.832884,1302.362347
20729.196664,-1554.432478,-11843.295072,-383.047749
20729.196997,-7105.977043,-10584.944971,-3907.087040
20729.197330,-6957.935855,-11547.212695,-4443.353888
20729.197663,-7550.100608,-9474.636058,-3294.210641
20729.197996,-7698.141797,-11029.068536,-2451.505594
20729.198329,-4145.153275,-8882.471304,1762.019645
20729.198662,-3182.885551,-7031.956449,1225.752797
20729.198994,0.000000,-1850.514855,3677.258390
20729.199327,1184.329507,-8586.388927,5975.544884
20729.199660,-814.226536,-6587.832884,2681.334243
20729.199993,-74.020594,-8882.471304,1915.238745
20729.200326,-74.020594,-9030.512492,1149.143247
20729.200659,2294.638420,-10066.800811,766.095498
20729.200992,2664.741391,-8512.368333,459.657299
20729.201325,-592.164754,-12509.480420,-689.485948
20729.201658,-74.020594,-6957.935855,-7967.393179
20729.201991,-1184.329507,-9844.739029,-6741.640382
20729.202324,-74.020594,-12435.459826,-1915.238745
20729.202657,2812.782580,-9548.656652,0.000000
20729.202990,4515.256246,-9178.553681,4213.525239
20729.203323,8216.285956,-7994.224174,5515.887586
20729.203656,9400.615463,-7105.977043,7277.907231
20729.203989,10288.862594,-7105.977043,6052.154434
20729.204322,9474.636058,-6439.791695,6052.154434
20729.204655,6735.874072,-4811.338623,0.000000
20729.204988,2294.638420,-13619.789333,-5592.497135
20729.205321,-3330.926739,-14211.954086,-8350.440928
20729.205654,-1258.350101,-11843.295072,-7431.126331
20729.205987,888.247130,-13323.706956,-3064.381992
20729.206320,6143.709319,-9252.574275,1608.800546
20729.206653,7179.997637,-9104.533087,4903.011187
20729.206986,7105.977043,-4219.173869,5515.887586
20729.207319,8808.450710,-9178.553681,4826.401637
20729.207652,4737.318029,-7772.162391,2451.505594
20729.207985,4663.297435,-13027.624579,2987.772442
20729.208318,-518.144159,-8364.327145,0.000000
20729.208651,-2368.659014,-9548.656652,-1685.410096
20729.208984,-1998.556043,-10881.027347,-153.219100
20729.209317,-444.123565,-7550.100608,-1225.752797
20729.209650,-2664.741391,-8068.244768,-1608.800546
20729.209983,-3330.926739,-10658.965565,-1302.362347
20729.210316,-7920.203579,-8364.327145,-4903.011187
20729.210649,-8142.265362,-13249.686362,-689.485948
20729.210983,-5403.503377,-9474.636058,-76.609550
20729.211316,-2368.659014,-8364.327145,7354.516781
20729.211649,1850.514855,-6365.771101,7354.516781
20729.211982,2294.638420,-7105.977043,6665.030833
20729.212315,-2812.782580,-5921.647536,995.924147
20729.212648,-3849.070898,-9474.636058,-995.924147
20729.212981,-5995.668130,-11843.295072,-4366.744339
20729.213314,-10066.800811,-11917.315666,-5822.325785
20729.213647,-9548.656652,-11177.109724,-5745.716235
20729.213981,-6809.894666,-11769.274478,-2145.067394
20729.214314,-2664.741391,-8512.368333,2145.067394
20729.214647,2294.638420,-9474.636058,6971.469032
20729.214980,2220.617826,-3849.070898,4749.792088
20729.215313,0.000000,-5403.503377,4903.011187
20729.215646,-74.020594,-9178.553681,2374.896044
20729.215979,-666.185348,-10066.800811,995.924147
20729.216312,-1776.494261,-9104.533087,1378.971896
20729.216646,1406.391290,-10066.800811,689.485948
20729.216979,0.000000,-8364.327145,-1685.410096
20729.217312,888.247130,-9030.512492,-2374.896044
20729.217645,-370.102971,-9178.553681,-4979.620737
20729.217978,666.185348,-8512.368333,-4903.011187
20729.218311,2146.597232,-11843.295072,-612.876398
20729.218644,3923.091493,-11843.295072,-76.609550
20729.218977,3108.864956,-7476.080014,1838.629195
20729.219311,8216.285956,-9474.636058,3600.648841
20729.219644,9030.512492,-9252.574275,5132.839837
20729.219977,8586.388927,-7772.162391,6281.983084
20729.220310,8882.471304,-5477.523971,3600.648841
20729.220643,4885.359217,-6587.832884,-1225.752797
20729.220976,0.000000,-9548.656652,-2451.505594
20729.221309,1110.308913,-13027.624579,-5592.497135
20729.221642,-1776.494261,-10732.986159,-6128.763984
20729.221975,592.164754,-11473.192101,-1762.019645
20729.222309,2886.803174,-11177.109724,-842.705048
20729.222642,4885.359217,-7179.997637,2528.115143
20729.222975,5107.421000,-6069.688724,3753.867940
20729.223308,5625.565159,-7476.080014,4749.792088
20729.223641,3923.091493,-9622.677246,3677.258390
20729.223974,1258.350101,-10658.965565,4826.401637
20729.224307,-666.185348,-8142.265362,-1838.629195
20729.224640,-4145.153275,-11325.150913,0.000000
20729.224974,-1776.494261,-9400.615463,1149.143247
20729.225307,-2442.679609,-6735.874072,-4290.134789
20729.225640,-1998.556043,-6809.894666,-1455.581446
20729.225973,-2738.761985,-9844.739029,-2145.067394
20729.226306,-5107.421000,-11843.295072,-1915.238745
20729.226639,-5181.441594,-11695.253884,-612.876398
20729.226972,-3923.091493,-11325.150913,1072.533697
20729.227305,296.082377,-8586.388927,4213.525239
20729.227638,1850.514855,-7920.203579,6665.030833
20729.227972,962.267725,-6365.771101,4826.401637
20729.228305,-2960.823768,-4811.338623,1149.143247
20729.228638,-4737.318029,-8956.491898,612.876398
20729.228971,-4811.338623,-10658.965565,-2528.115143
20729.229304,-6587.832884,-10362.883188,-3830.477490
20729.229637,-7179.997637,-8734.430116,-3753.867940
20729.229970,-6143.709319,-9474.636058,-3447.429741
20729.230303,-4515.256246,-8142.265362,-919.314598
20729.230637,-1406.391290,-8216.285956,1302.362347
20729.230970,666.185348,-5773.606348,2374.896044
20729.231303,2294.638420,-10955.047942,4213.525239
20729.231636,-2368.659014,-10140.821405,4136.915689
20729.231969,-74.020594,-8882.471304,229.828649
20729.232302,0.000000,-8364.327145,0.000000
20729.232635,2960.823768,-9622.677246,2145.067394
20729.232968,4367.215058,-6291.750507,612.876398
20729.233301,1776.494261,-10066.800811,-995.924147
20729.233635,1850.514855,-6513.812290,-3753.867940
20729.233968,444.123565,-11843.295072,-4519.963438
20729.234301,592.164754,-7476.080014,-5132.839837
20729.234634,4071.132681,-11843.295072,-76.609550
20729.234967,4663.297435,-11251.130318,1149.143247
20729.235300,6513.812290,-8364.327145,4903.011187
20729.235633,10362.883188,-10510.924376,8503.660028
20729.235966,10362.883188,-6069.688724,6205.373534
20729.236300,9918.759623,-5033.400406,3907.087040
20729.236633,8216.285956,-9474.636058,1608.800546
20729.236966,2072.576638,-11251.130318,-2911.162892
20729.237299,0.000000,-11325.150913,-6128.763984
20729.237632,-74.020594,-14211.954086,-5286.058936
20729.237965,1998.556043,-9474.636058,-3753.867940
20729.238298,2368.659014,-8956.491898,1225.752797
20729.238631,6735.874072,-8290.306550,2987.772442
20729.238964,5329.482782,-7402.059420,3600.648841
20729.239298,5551.544565,-6439.791695,3064.381992
20729.239631,3849.070898,-10288.862594,1838.629195
20729.239964,1924.535449,-9844.739029,1378.971896
20729.240297,1406.391290,-11843.295072,2374.896044
20729.240630,-666.185348,-9474.636058,-3677.258390
20729.240963,0.000000,-10436.903782,995.924147
20729.241296,-74.020594,-12435.459826,-76.609550
20729.241629,-2442.679609,-6513.812290,-2834.553343
20729.241963,-4145.153275,-10066.800811,-1915.238745
20729.242296,-6883.915261,-10214.842000,-3294.210641
20729.242629,-7254.018232,-10362.883188,-1225.752797
20729.242962,-5921.647536,-9992.780217,1838.629195
20729.243295,-2220.617826,-9252.574275,5592.497135
20729.243628,-2220.617826,-7846.182985,4290.134789
20729.243961,0.000000,-5255.462188,4596.572988
20729.244294,-2072.576638,-5921.647536,2068.457845
20729.244627,-3849.070898,-6587.832884,-2374.896044
20729.244961,-8882.471304,-11029.068536,-2757.943793
20729.245294,-8068.244768,-13027.624579,-4979.620737
20729.245627,-8956.491898,-9548.656652,-6741.640382
20729.245960,-7550.100608,-11399.171507,-2604.724693
20729.246293,-2738.761985,-9474.636058,-76.609550
20729.246626,-1924.535449,-7328.038826,2681.334243
20729.246959,2886.803174,-4219.173869,4290.134789
20729.247292,1184.329507,-7920.203579,6358.592633
20729.247626,1184.329507,-7179.997637,3677.258390
20729.247959,-592.164754,-10140.821405,4826.401637
20729.248292,-74.020594,-8586.388927,-2298.286494
20729.248625,1184.329507,-9548.656652,0.000000
20729.248958,296.082377,-9104.533087,-76.609550
20729.249291,2664.741391,-7328.038826,-3064.381992
20729.249624,-1554.432478,-10732.986159,-2757.943793
20729.249957,2072.576638,-8956.491898,-4136.915689
20729.250290,0.000000,-10436.903782,-3064.381992
20729.250624,1702.473667,-11843.295072,-76.609550
20729.250957,4737.318029,-8364.327145,3447.429741
20729.251290,5847.626942,-8512.368333,1838.629195
20729.251623,9474.636058,-7920.203579,7890.783629
20729.251956,9400.615463,-9474.636058,6665.030833
20729.252289,10584.944971,-5625.565159,4826.401637
20729.252622,6883.915261,-8216.285956,383.047749
20729.252955,2812.782580,-10881.027347,-3217.601092
20729.253289,-592.164754,-12805.562797,-4979.620737
20729.253622,-2960.823768,-11917.315666,-5822.325785
20729.253955,4071.132681,-13027.624579,-1915.238745
20729.254288,1184.329507,-9844.739029,0.000000
20729.254621,4737.318029,-8660.409521,3600.648841
20729.254954,4515.256246,-5773.606348,2145.067394
20729.255287,3552.988522,-5477.523971,2451.505594
20729.255620,2960.823768,-8956.491898,3830.477490
20729.255954,-370.102971,-9918.759623,1455.581446
20729.256287,-2368.659014,-8956.491898,536.266849
20729.256620,-1628.453072,-10584.944971,0.000000
20729.256953,-74.020594,-8882.471304,-1532.190996
20729.257286,-1776.494261,-8068.244768,1149.143247
20729.257619,-666.185348,-9326.594869,-76.609550
20729.257952,-3627.009116,-7179.997637,-4596.572988
20729.258285,-6957.935855,-11251.130318,-3677.258390
20729.258618,-7476.080014,-11325.150913,-2451.505594
20729.258952,-5403.503377,-11029.068536,-689.485948
20729.259285,-2072.576638,-8956.491898,2451.505594
20729.259618,1184.329507,-8068.244768,7048.078582
20729.259951,2294.638420,-4737.318029,4903.011187
20729.260284,-518.144159,-4663.297435,2451.505594
20729.260617,-2368.659014,-9326.594869,-153.219100
20729.260950,-5773.606348,-11399.171507,-2451.505594
20729.261283,-8882.471304,-10732.986159,-3370.820191
20729.261617,-7179.997637,-9992.780217,-4903.011187
20729.261950,-6217.729913,-8068.244768,-2451.505594
20729.262283,-1850.514855,-10510.924376,2068.457845
20729.262616,-74.020594,-7105.977043,1762.019645
20729.262949,0.000000,-4811.338623,2451.505594
20729.263282,814.226536,-8068.244768,1225.752797
20729.263615,-370.102971,-9918.759623,1072.533697
20729.263948,0.000000,-8734.430116,1149.143247
20729.264281,962.267725,-10658.965565,2681.334243
20729.264615,3478.967927,-8808.450710,0.000000
20729.264948,4293.194464,-10066.800811,3907.087040
20729.265281,3478.967927,-8882.471304,-2298.286494
20729.265614,74.020594,-7772.162391,-2757.943793
20729.265947,0.000000,-12435.459826,-3140.991542
20729.266280,1184.329507,-8808.450710,-2451.505594
20729.266613,0.000000,-11103.089130,-383.047749
20729.266946,4145.153275,-8290.306550,1455.581446
20729.267280,5847.626942,-9326.594869,3294.210641
20729.267613,8216.285956,-5551.544565,2757.943793
20729.267946,11325.150913,-8290.306550,7277.907231
20729.268279,8216.285956,-5921.647536,1762.019645
20729.268612,6661.853478,-7179.997637,766.095498
20729.268945,2294.638420,-13027.624579,-3140.991542
20729.269278,-592.164754,-11473.192101,-6128.763984
20729.269611,-1850.514855,-13545.768739,-5286.058936
20729.269944,2072.576638,-12139.377449,-2757.943793
20729.270278,3701.029710,-8660.409521,612.876398
20729.270611,5329.482782,-9400.615463,4903.011187
20729.270944,10584.944971,-5921.647536,4213.525239
20729.271277,3701.029710,-7179.997637,5515.887586
20729.271610,3552.988522,-6291.750507,4903.011187
20729.271943,1406.391290,-13027.624579,1455.581446
20729.272276,-1554.432478,-8956.491898,-1149.143247
20729.272609,-666.185348,-9844.739029,-842.705048
20729.272943,-1258.350101,-11251.130318,-1532.190996
20729.273276,0.000000,-6291.750507,-1225.752797
20729.273609,-3775.050304,-7698.141797,-2757.943793
20729.273942,-1850.514855,-8808.450710,-3753.867940
20729.274275,-5921.647536,-11325.150913,-2528.115143
20729.274608,-5995.668130,-13027.624579,-76.609550
20729.274941,-4811.338623,-10658.965565,1762.019645
20729.275274,-1258.350101,-7254.018232,2757.943793
20729.275607,2368.659014,-7402.059420,9193.145976
20729.275941,2886.803174,-7105.977043,5745.716235
20729.276274,2294.638420,-5921.647536,3907.087040
20729.276607,-1998.556043,-9992.780217,842.705048
20729.276940,-4737.318029,-11029.068536,-2834.553343
20729.277273,-8734.430116,-11843.295072,-5209.449386
20729.277606,-10140.821405,-12213.398043,-6358.592633
20729.277939,-7105.977043,-10436.903782,-2221.676944
20729.278272,-8290.306550,-9548.656652,1225.752797
20729.278606,-740.205942,-7105.977043,2987.772442
20729.278939,1110.308913,-4737.318029,2987.772442
20729.279272,1998.556043,-4737.318029,4673.182538
20729.279605,1998.556043,-8882.471304,4519.963438
20729.279938,-1258.350101,-9030.512492,2528.115143
20729.280271,-1480.411884,-9400.615463,229.828649
20729.280604,0.000000,-9548.656652,-459.657299
20729.280937,4071.132681,-10658.965565,-76.609550
20729.281270,0.000000,-10140.821405,-1225.752797
20729.281604,1110.308913,-10510.924376,-2528.115143
20729.281937,-962.267725,-10214.842000,-5515.887586
20729.282270,0.000000,-9548.656652,-1838.629195
20729.282603,962.267725,-9548.656652,0.000000
20729.282936,2072.576638,-10066.800811,2528.115143
20729.283269,5847.626942,-7698.141797,3524.039291
20729.283602,5921.647536,-7698.141797,5286.058936
20729.283935,6883.915261,-5107.421000,3064.381992
20729.284269,8808.450710,-7105.977043,4826.401637
20729.284602,7031.956449,-8290.306550,-689.485948
20729.284935,592.164754,-10140.821405,-2145.067394
20729.285268,-74.020594,-13619.789333,-3753.867940
20729.285601,-2368.659014,-12509.480420,-5975.544884
20729.285934,1036.288319,-12583.501014,-2681.334243
20729.286267,3923.091493,-10362.883188,689.485948
20729.286600,4145.153275,-8364.327145,1838.629195
20729.286933,4737.318029,-6587.832884,4290.134789
20729.287267,7624.121203,-8290.306550,2987.772442
20729.287600,3552.988522,-7476.080014,3064.381992
20729.287933,0.000000,-9548.656652,5439.278036
20729.288266,-74.020594,-11547.212695,2374.896044
20729.288599,-2072.576638,-9548.656652,-612.876398
20729.288932,-888.247130,-10732.986159,-766.095498
20729.289265,-1110.308913,-8290.306550,-536.266849
20729.289598,-592.164754,-5847.626942,-919.314598
20729.289932,-2960.823768,-7772.162391,-306.438199
20729.290265,-3330.926739,-10288.862594,-2604.724693
20729.290598,-7402.059420,-12287.418637,-2451.505594
20729.290931,-5255.462188,-10288.862594,-536.266849
20729.291264,-962.267725,-9474.636058,2068.457845
20729.291597,740.205942,-6587.832884,4903.011187
20729.291930,2220.617826,-7994.224174,8503.660028
20729.292263,-74.020594,-3552.988522,0.000000
20729.292596,-2960.823768,-8364.327145,306.438199
20729.292930,-3034.844362,-12435.459826,-76.609550
20729.293263,-6513.812290,-10436.903782,-2911.162892
20729.293596,-7179.997637,-11029.068536,-3294.210641
20729.293929,-5625.565159,-10214.842000,-2374.896044
20729.294262,-5329.482782,-8364.327145,-1225.752797
20729.294595,-3552.988522,-5995.668130,1225.752797
20729.294928,-74.020594,-7105.977043,2374.896044
20729.295261,1702.473667,-8290.306550,2374.896044
20729.295595,-1480.411884,-8660.409521,1838.629195
20729.295928,-888.247130,-8438.347739,2068.457845
20729.296261,-814.226536,-8364.327145,1149.143247
20729.296594,1184.329507,-8808.450710,1532.190996
20729.296927,4811.338623,-7550.100608,1915.238745
20729.297260,2368.659014,-9844.739029,-306.438199
20729.297593,0.000000,-7920.203579,-1838.629195
20729.297926,2294.638420,-9474.636058,-5592.497135
20729.298260,-444.123565,-12213.398043,-3677.258390
20729.298593,0.000000,-9548.656652,0.000000
20729.298926,3108.864956,-10658.965565,0.000000
20729.299259,5403.503377,-9326.594869,4060.306139
20729.299592,7624.121203,-6513.812290,5822.325785
20729.299925,8142.265362,-7328.038826,6205.373534
20729.300258,10584.944971,-4737.318029,4213.525239
20729.300591,7105.977043,-7772.162391,4673.182538
20729.300924,3330.926739,-8734.430116,-2987.772442
20729.301258,-2960.823768,-11029.068536,-4903.011187
20729.301591,-1258.350101,-12731.542202,-8656.879127
20729.301924,1554.432478,-13471.748144,-3753.867940
20729.302257,4441.235652,-11769.274478,0.000000
20729.302590,6143.709319,-8660.409521,1378.971896
20729.302923,4959.379811,-8660.409521,3600.648841
20729.303256,5329.482782,-5403.503377,4903.011187
20729.303589,7031.956449,-9474.636058,4060.306139
20729.303923,2368.659014,-8068.244768,4903.011187
20729.304256,0.000000,-9548.656652,4673.182538
20729.304589,-74.020594,-11251.130318,842.705048
20729.304922,-74.020594,-8882.471304,-383.047749
20729.305255,-1258.350101,-9178.553681,-1149.143247
20729.305588,-1554.432478,-7105.977043,-3217.601092
20729.305921,-3923.091493,-9400.615463,-4290.134789
20729.306254,-8290.306550,-10732.986159,-4903.011187
20729.306587,-8364.327145,-11843.295072,-4826.401637
20729.306921,-7402.059420,-11103.089130,-306.438199
20729.307254,-2146.597232,-8882.471304,4903.011187
20729.307587,2146.597232,-6809.894666,8810.098227
20729.307920,740.205942,-3182.885551,6128.763984
20729.308253,1702.473667,-5773.606348,4826.401637
20729.308586,-2738.761985,-4811.338623,0.000000
20729.308919,-4441.235652,-12435.459826,-689.485948
20729.309252,-6587.832884,-12435.459826,-3447.429741
20729.309586,-9548.656652,-10732.986159,-6741.640382
20729.309919,-8068.244768,-12361.439231,-4673.182538
20729.310252,-5699.585753,-11103.089130,-1149.143247
20729.310585,-2886.803174,-7105.977043,919.314598
20729.310918,-1184.329507,-6291.750507,4903.011187
20729.311251,4663.297435,-4737.318029,3600.648841
20729.311584,0.000000,-7179.997637,2451.505594
20729.311917,0.000000,-9252.574275,4826.401637
20729.312250,-370.102971,-9474.636058,536.266849
20729.312584,592.164754,-9030.512492,1762.019645
20729.312917,1184.329507,-8512.368333,76.609550
20729.313250,2220.617826,-8660.409521,-995.924147
20729.313583,296.082377,-8512.368333,-3294.210641
20729.313916,1702.473667,-11547.212695,-4060.306139
20729.314249,4071.132681,-9474.636058,-4979.620737
20729.314582,0.000000,-11917.315666,306.438199
20729.314915,6217.729913,-9992.780217,4519.963438
20729.315249,4663.297435,-8364.327145,2451.505594
20729.315582,8216.285956,-10066.800811,6052.154434
20729.315915,8364.327145,-6661.853478,5286.058936
20729.316248,8808.450710,-5773.606348,3677.258390
20729.316581,7328.038826,-8216.285956,1455.581446
20729.316914,4293.194464,-8882.471304,-2068.457845
20729.317247,-1184.329507,-10732.986159,-7354.516781
20729.317580,-1184.329507,-13841.851115,-3140.991542
20729.317913,2294.638420,-11843.295072,-3753.867940
20729.318247,2442.679609,-8956.491898,0.000000
20729.318580,5625.565159,-10362.883188,2374.896044
20729.318913,2960.823768,-6661.853478,2451.505594
20729.319246,3701.029710,-7772.162391,3600.648841
20729.319579,3256.906145,-8364.327145,3140.991542
20729.319912,666.185348,-9474.636058,2987.772442
20729.320245,-1480.411884,-9548.656652,3677.258390
20729.320578,-666.185348,-9030.512492,1302.362347
20729.320912,-962.267725,-10288.862594,995.924147
20729.321245,-2368.659014,-8364.327145,-1838.629195
20729.321578,-3256.906145,-9548.656652,-689.485948
20729.321911,-2442.679609,-7105.977043,-4136.915689
20729.322244,-4737.318029,-11325.150913,-2451.505594
20729.322577,-5625.565159,-12435.459826,-76.609550
20729.322910,-5921.647536,-9844.739029,612.876398
20729.323243,-1776.494261,-8290.306550,4213.525239
20729.323576,1850.514855,-7254.018232,6665.030833
20729.323910,148.041188,-7105.977043,5286.058936
20729.324243,-666.185348,-7105.977043,2374.896044
20729.324576,-4737.318029,-6587.832884,-919.314598
20729.324909,-4811.338623,-9548.656652,-4903.011187
20729.325242,-7105.977043,-11399.171507,-2528.115143
20729.325575,-7698.141797,-10436.903782,-2681.334243
20729.325908,-3923.091493,-10658.965565,-2528.115143
20729.326241,-1850.514855,-11547.212695,1762.019645
20729.326575,-1258.350101,-7328.038826,919.314598
20729.326908,888.247130,-6217.729913,2987.772442
20729.327241,1110.308913,-7624.121203,2681.334243
20729.327574,3849.070898,-9474.636058,5439.278036
20729.327907,-2072.576638,-10140.821405,612.876398
20729.328240,1776.494261,-10584.944971,3294.210641
20729.328573,2294.638420,-8364.327145,612.876398
20729.328906,2960.823768,-7772.162391,2604.724693
20729.329239,3478.967927,-7550.100608,-1302.362347
20729.329573,0.000000,-7846.182985,-3140.991542
20729.329906,444.123565,-9844.739029,-4596.572988
20729.330239,666.185348,-10955.047942,-3140.991542
20729.330572,1702.473667,-11843.295072,-1915.238745
20729.330905,592.164754,-9548.656652,1455.581446
20729.331238,7105.977043,-9844.739029,6052.154434
20729.331571,7031.956449,-7772.162391,3983.696590
20729.331904,8290.306550,-7179.997637,6741.640382
20729.332238,8364.327145,-5033.400406,3983.696590
20729.332571,6143.709319,-8290.306550,1455.581446
20729.332904,4589.276840,-9326.594869,-766.095498
20729.333237,-814.226536,-11917.315666,-2451.505594
20729.333570,-2294.638420,-9696.697840,-7354.516781
20729.333903,1628.453072,-14211.954086,-1608.800546
20729.334236,2886.803174,-10140.821405,-1378.971896
20729.334569,3478.967927,-6143.709319,0.000000
20729.334902,2960.823768,-7476.080014,2451.505594
20729.335236,4071.132681,-6883.915261,1838.629195
20729.335569,4071.132681,-10362.883188,2987.772442
20729.335902,3330.926739,-10658.965565,2374.896044
20729.336235,1406.391290,-11843.295072,2451.505594
20729.336568,-1406.391290,-9548.656652,1225.752797
20729.336901,1110.308913,-8586.388927,1838.629195
20729.337234,-1406.391290,-8586.388927,536.266849
20729.337567,-1776.494261,-7105.977043,-1225.752797
20729.337901,-2590.720797,-7994.224174,-995.924147
20729.338234,-7105.977043,-9622.677246,-3983.696590
20729.338567,-8290.306550,-11325.150913,-3677.258390
20729.338900,-6735.874072,-13027.624579,-689.485948
20729.339233,-3034.844362,-7476.080014,919.314598
20729.339566,0.000000,-7772.162391,7124.688131
20729.339899,296.082377,-6661.853478,4903.011187
20729.340232,592.164754,-5921.647536,3140.991542
20729.340565,-1110.308913,-8438.347739,536.266849
20729.340899,-666.185348,-11547.212695,-76.609550
20729.341232,-4811.338623,-10658.965565,-4673.182538
20729.341565,-5625.565159,-12583.501014,-2528.115143
20729.341898,-5403.503377,-13027.624579,-3753.867940
20729.342231,-3627.009116,-8660.409521,-2145.067394
20729.342564,-74.020594,-8290.306550,2374.896044
20729.342897,-370.102971,-6513.812290,1455.581446
20729.343230,2294.638420,-5255.462188,2834.553343
20729.343564,-592.164754,-9104.533087,3217.601092
20729.343897,-1184.329507,-7772.162391,1991.848295
20729.344230,-74.020594,-7846.182985,0.000000
20729.344563,2294.638420,-13027.624579,-76.609550
20729.344896,3256.906145,-5403.503377,1532.190996
20729.345229,0.000000,-10732.986159,1225.752797
20729.345562,1850.514855,-5699.585753,-4213.525239
20729.345895,0.000000,-10436.903782,-2604.724693
20729.346228,-1036.288319,-11547.212695,-4060.306139
20729.346562,-444.123565,-9992.780217,-2298.286494
20729.346895,1850.514855,-11251.130318,-76.609550
20729.347228,3849.070898,-7772.162391,3830.477490
20729.347561,8216.285956,-11251.130318,7277.907231
20729.347894,7624.121203,-5995.668130,4290.134789
20729.348227,9178.553681,-7105.977043,7277.907231
20729.348560,8512.368333,-7698.141797,2451.505594
20729.348893,4071.132681,-10362.883188,229.828649
20729.349227,-1924.535449,-12361.439231,-3983.696590
20729.349560,-1850.514855,-12213.398043,-5822.325785
20729.349893,-1850.514855,-11251.130318,-4136.915689
20729.350226,3849.070898,-11843.295072,-76.609550
20729.350559,518.144159,-7772.162391,0.000000
20729.350892,1110.308913,-5107.421000,0.000000
20729.351225,3923.091493,-9474.636058,3294.210641
20729.351558,4515.256246,-8882.471304,3677.258390
20729.351891,2294.638420,-9030.512492,3217.601092
20729.352225,0.000000,-8956.491898,2298.286494
20729.352558,666.185348,-9474.636058,2068.457845
20729.352891,962.267725,-7994.224174,612.876398
20729.353224,222.061783,-10362.883188,-76.609550
20729.353557,-2368.659014,-7846.182985,-2068.457845
20729.353890,-2960.823768,-8512.368333,-4060.306139
20729.354223,-3478.967927,-12657.521608,-2221.676944
20729.354556,-3627.009116,-10658.965565,-1302.362347
20729.354890,-4737.318029,-10140.821405,0.000000
20729.355223,1702.473667,-9474.636058,4213.525239
20729.355556,592.164754,-7179.997637,6281.983084
20729.355889,296.082377,-6587.832884,5515.887586
20729.356222,1110.308913,-5033.400406,1608.800546
20729.356555,-1850.514855,-8586.388927,-76.609550
20729.356888,-4145.153275,-10955.047942,-1455.581446
20729.357221,-6143.709319,-10140.821405,-3370.820191
20729.357554,-7698.141797,-8364.327145,-5515.887586
20729.357888,-4441.235652,-12583.501014,-1302.362347
20729.358221,-3849.070898,-9474.636058,-1302.362347
20729.358554,-2664.741391,-5995.668130,0.000000
20729.358887,1998.556043,-8882.471304,3600.648841
20729.359220,444.123565,-5551.544565,1532.190996
20729.359553,740.205942,-9252.574275,2987.772442
20729.359886,0.000000,-10362.883188,2221.676944
20729.360219,222.061783,-9992.780217,1838.629195
20729.360553,1184.329507,-9548.656652,2451.505594
20729.360886,7031.956449,-10658.965565,2374.896044
20729.361219,444.123565,-7328.038826,0.000000
20729.361552,-1184.329507,-6587.832884,-3677.258390
20729.361885,-2072.576638,-11251.130318,-4060.306139
20729.362218,-1628.453072,-10288.862594,-2911.162892
20729.362551,-1036.288319,-11621.233289,-1072.533697
20729.362884,814.226536,-8586.388927,0.000000
20729.363217,3256.906145,-8882.471304,2298.286494
20729.363551,5551.544565,-9474.636058,6052.154434
20729.363884,8216.285956,-5329.482782,3600.648841
20729.364217,5921.647536,-5107.421000,6128.763984
20729.364550,7031.956449,-6217.729913,842.705048
20729.364883,1406.391290,-7772.162391,-2451.505594
20729.365216,0.000000,-11769.274478,-2528.115143
20729.365549,-1406.391290,-11917.315666,-6052.154434
20729.365882,222.061783,-13027.624579,-3753.867940
20729.366216,3182.885551,-10955.047942,-76.609550
20729.366549,3330.926739,-10955.047942,1149.143247
20729.366882,4367.215058,-6513.812290,383.047749
20729.367215,5107.421000,-8364.327145,3830.477490
20729.367548,5403.503377,-8216.285956,4596.572988
20729.367881,2960.823768,-7179.997637,2451.505594
20729.368214,148.041188,-9548.656652,3677.258390
20729.368547,2886.803174,-9474.636058,1149.143247
20729.368880,296.082377,-7476.080014,0.000000
20729.369214,-1184.329507,-9918.759623,-76.609550
20729.369547,-2812.782580,-7179.997637,-2987.772442
20729.369880,-4737.318029,-8512.368333,-4366.744339
20729.370213,-6217.729913,-11029.068536,-4366.744339
20729.370546,-8142.265362,-11547.212695,-3447.429741
20729.370879,-6809.894666,-11251.130318,-153.219100
20729.371212,-1554.432478,-6587.832884,2451.505594
20729.371545,4071.132681,-7698.141797,5439.278036
20729.371879,1184.329507,-5403.503377,6741.640382
20729.372212,2664.741391,-7105.977043,6665.030833
20729.372545,0.000000,-7179.997637,306.438199
20729.372878,-370.102971,-10658.965565,-995.924147
20729.373211,-4663.297435,-12805.562797,-2451.505594
20729.373544,-6661.853478,-11473.192101,-5362.668486
20729.373877,-6587.832884,-13027.624579,-4979.620737
20729.374210,-4737.318029,-10732.986159,-612.876398
20729.374543,-2738.761985,-7105.977043,-995.924147
20729.374877,-1776.494261,-4811.338623,1838.629195
20729.375210,1406.391290,-6883.915261,2757.943793
20729.375543,1702.473667,-9474.636058,4826.401637
20729.375876,-74.020594,-8290.306550,2528.115143
20729.376209,-740.205942,-9400.615463,2374.896044
20729.376542,740.205942,-9252.574275,1685.410096
20729.376875,2368.659014,-8216.285956,1378.971896
20729.377208,2294.638420,-11029.068536,-76.609550
20729.377542,-1776.494261,-7772.162391,-3677.258390
20729.377875,-4145.153275,-10140.821405,-4136.915689
20729.378208,-74.020594,-13027.624579,-4366.744339
20729.378541,-2072.576638,-9844.739029,-3064.381992
20729.378874,-74.020594,-10362.883188,-1455.581446
20729.379207,2368.659014,-9326.594869,3907.087040
20729.379540,7105.977043,-7476.080014,6665.030833
20729.379873,9030.512492,-5329.482782,7737.564530
20729.380206,9400.615463,-4441.235652,4826.401637
20729.380540,5921.647536,-5403.503377,3983.696590
20729.380873,4663.297435,-10658.965565,-1608.800546
20729.381206,-1406.391290,-10732.986159,-6741.640382
20729.381539,-3552.988522,-11917.315666,-6741.640382
20729.381872,-666.185348,-12731.542202,-5439.278036
20729.382205,2294.638420,-11917.315666,-1302.362347
20729.382538,1776.494261,-8660.409521,306.438199
20729.382871,2886.803174,-6809.894666,1455.581446
20729.383205,4663.297435,-6957.935855,3294.210641
20729.383538,4811.338623,-8586.388927,5439.278036
20729.383871,3404.947333,-8290.306550,4519.963438
20729.384204,1850.514855,-8142.265362,2451.505594
20729.384537,592.164754,-7920.203579,2451.505594
20729.384870,3478.967927,-10066.800811,842.705048
20729.385203,0.000000,-8364.327145,-3064.381992
20729.385536,-592.164754,-10955.047942,-1608.800546
20729.385869,-3034.844362,-10214.842000,-5362.668486
20729.386203,-5033.400406,-11029.068536,-4903.011187
20729.386536,-6735.874072,-12657.521608,-3370.820191
20729.386869,-5551.544565,-10658.965565,-1072.533697
20729.387202,-2368.659014,-8364.327145,2604.724693
20729.387535,4663.297435,-8142.265362,9116.536426
20729.387868,4663.297435,-4737.318029,6971.469032
20729.388201,592.164754,-4811.338623,6818.249932
20729.388534,2220.617826,-8290.306550,2987.772442
20729.388868,-3034.844362,-9548.656652,-3064.381992
20729.389201,-6513.812290,-11917.315666,-2911.162892
20729.389534,-8364.327145,-11621.233289,-7354.516781
20729.389867,-7179.997637,-13027.624579,-6511.811733
20729.390200,-3108.864956,-12065.356855,-1455.581446
20729.390533,-1702.473667,-7698.141797,459.657299
20729.390866,1110.308913,-5551.544565,76.609550
20729.391199,1184.329507,-5995.668130,5439.278036
20729.391532,2294.638420,-8290.306550,4826.401637
20729.391866,1110.308913,-7179.997637,2451.505594
20729.392199,0.000000,-8882.471304,3294.210641
20729.392532,1924.535449,-9252.574275,1532.190996
20729.392865,3330.926739,-9474.636058,1532.190996
20729.393198,1480.411884,-9548.656652,-76.609550
20729.393531,0.000000,-9992.780217,-3677.258390
20729.393864,-2738.761985,-9548.656652,-5822.325785
20729.394197,-74.020594,-13915.871710,-2528.115143
20729.394531,-74.020594,-11251.130318,-2528.115143
20729.394864,0.000000,-9844.739029,0.000000
20729.395197,4145.153275,-9770.718434,3830.477490
20729.395530,6439.791695,-7698.141797,7201.297681
20729.395863,7550.100608,-5403.503377,6741.640382
20729.396196,8216.285956,-4885.359217,3907.087040
20729.396529,5847.626942,-6513.812290,1149.143247
20729.396862,2960.823768,-11547.212695,-76.609550
20729.397195,-1998.556043,-11325.150913,-5515.887586
20729.397529,-3552.988522,-11917.315666,-3677.258390
20729.397862,-74.020594,-13619.789333,-3753.867940
20729.398195,2072.576638,-10732.986159,0.000000
20729.398528,1702.473667,-9474.636058,-76.609550
20729.398861,1480.411884,-7105.977043,0.000000
20729.399194,2368.659014,-7179.997637,2145.067394
20729.399527,4071.132681,-8290.306550,3907.087040
20729.399860,1480.411884,-9474.636058,4213.525239
20729.400194,888.247130,-8290.306550,1991.848295
20729.400527,1184.329507,-9622.677246,2298.286494
20729.400860,1776.494261,-7846.182985,1149.143247
20729.401193,1110.308913,-9474.636058,-1302.362347
20729.401526,-1702.473667,-9474.636058,-1915.238745
20729.401859,-666.185348,-11547.212695,-4979.620737
20729.402192,-5921.647536,-11029.068536,-3370.820191
20729.402525,-5329.482782,-13397.727550,-1225.752797
20729.402858,-5995.668130,-10288.862594,-1991.848295
20729.403192,-2220.617826,-9030.512492,3600.648841
20729.403525,1924.535449,-5551.544565,7048.078582
20729.403858,4663.297435,-4441.235652,7967.393179
20729.404191,2368.659014,-4811.338623,6128.763984
20729.404524,2294.638420,-7698.141797,-76.609550
20729.404857,-1776.494261,-9548.656652,-3677.258390
20729.405190,-1850.514855,-15988.448347,-2528.115143
20729.405523,-4811.338623,-11251.130318,-6205.373534
20729.405857,-6513.812290,-12213.398043,-4136.915689
20729.406190,-74.020594,-9474.636058,-3140.991542
20729.406523,296.082377,-7698.141797,1915.238745
20729.406856,518.144159,-6439.791695,2451.505594
20729.407189,3775.050304,-7105.977043,3600.648841
20729.407522,2294.638420,-9474.636058,842.705048
20729.407855,-1628.453072,-7179.997637,1225.752797
20729.408188,888.247130,-11473.192101,4826.401637
20729.408521,1406.391290,-6883.915261,76.609550
20729.408855,4145.153275,-10066.800811,4213.525239
20729.409188,2072.576638,-8808.450710,0.000000
20729.409521,444.123565,-7476.080014,-2451.505594
20729.409854,-2368.659014,-10584.944971,-5056.230287
20729.410187,222.061783,-11251.130318,-4519.963438
20729.410520,-3552.988522,-10140.821405,-4903.011187
20729.410853,-962.267725,-13027.624579,-76.609550
20729.411186,0.000000,-7179.997637,1225.752797
20729.411519,3849.070898,-7772.162391,4903.011187
20729.411852,9104.533087,-7105.977043,7277.907231
20729.412185,5921.647536,-5995.668130,5515.887586
20729.412518,4737.318029,-5921.647536,1149.143247
20729.412851,2294.638420,-8956.491898,-2451.505594
20729.413184,-1480.411884,-11843.295072,-3753.867940
20729.413518,-3108.864956,-11695.253884,-4213.525239
20729.413851,-2516.700203,-11917.315666,-3294.210641
20729.414184,296.082377,-10436.903782,-1302.362347
20729.414517,0.000000,-9548.656652,306.438199
20729.414850,2960.823768,-7920.203579,1762.019645
20729.415183,1702.473667,-6291.750507,0.000000
20729.415516,2368.659014,-7179.997637,1532.190996
20729.415849,2886.803174,-10658.965565,4826.401637
20729.416182,592.164754,-8364.327145,2451.505594
20729.416515,1406.391290,-9474.636058,1762.019645
20729.416848,2220.617826,-10362.883188,2987.772442
20729.417181,1628.453072,-9326.594869,842.705048
20729.417514,-74.020594,-9474.636058,-689.485948
20729.417847,-2960.823768,-7179.997637,-3064.381992
20729.418180,-3627.009116,-9548.656652,-6128.763984
20729.418513,-5329.482782,-11399.171507,-2068.457845
20729.418846,-3552.988522,-12287.418637,-76.609550
20729.419180,-74.020594,-8586.388927,2834.553343
20729.419513,4663.297435,-7698.141797,7277.907231
20729.419846,4145.153275,-6217.729913,6971.469032
20729.420179,1924.535449,-5033.400406,3983.696590
20729.420512,1480.411884,-7402.059420,995.924147
20729.420845,1480.411884,-11325.150913,1762.019645
20729.421178,-4145.153275,-11917.315666,-2451.505594
20729.421511,-4441.235652,-13619.789333,-3753.867940
20729.421844,-7105.977043,-10140.821405,-6128.763984
20729.422177,-2960.823768,-9696.697840,-2451.505594
20729.422510,-370.102971,-8290.306550,-383.047749
20729.422843,1998.556043,-6439.791695,1685.410096
20729.423176,3256.906145,-6291.750507,3370.820191
20729.423509,1628.453072,-8512.368333,4060.306139
20729.423842,2294.638420,-9474.636058,2374.896044
20729.424175,296.082377,-11399.171507,4826.401637
20729.424509,3478.967927,-11547.212695,3294.210641
20729.424842,2886.803174,-7920.203579,612.876398
20729.425175,1184.329507,-9548.656652,612.876398
20729.425508,-1850.514855,-7846.182985,-4596.572988
20729.425841,-2516.700203,-10140.821405,-5439.278036
20729.426174,-2146.597232,-11547.212695,-4136.915689
20729.426507,-2368.659014,-11843.295072,-2528.115143
20729.426840,-4367.215058,-8956.491898,-2451.505594
20729.427173,-296.082377,-10658.965565,3600.648841
20729.427506,4663.297435,-6809.894666,4596.572988
20729.427839,3552.988522,-5995.668130,10572.117872
20729.428172,6809.894666,-5995.668130,7354.516781
20729.428505,4367.215058,-4219.173869,2451.505594
20729.428838,2590.720797,-11103.089130,536.266849
20729.429171,-962.267725,-12435.459826,-2374.896044
20729.429504,-4367.215058,-11917.315666,-5056.230287
20729.429838,-2442.679609,-10807.006753,-6128.763984
20729.430171,-74.020594,-10658.965565,-2298.286494
20729.430504,1110.308913,-9030.512492,536.266849
20729.430837,222.061783,-6883.915261,612.876398
20729.431170,2886.803174,-7105.977043,3907.087040
20729.431503,2886.803174,-7179.997637,2145.067394
20729.431836,1184.329507,-8364.327145,4903.011187
20729.432169,2886.803174,-10658.965565,3600.648841
20729.432502,2590.720797,-8290.306550,1608.800546
20729.432835,1184.329507,-8364.327145,3064.381992
20729.433168,2294.638420,-8364.327145,0.000000
20729.433501,222.061783,-7920.203579,-2757.943793
20729.433834,-1480.411884,-9696.697840,-5975.544884
20729.434167,-2294.638420,-9548.656652,-6435.202183
20729.434500,-4737.318029,-11029.068536,-4290.134789
20729.434833,-1554.432478,-13027.624579,-1915.238745
20729.435166,-2368.659014,-9548.656652,0.000000
20729.435500,2368.659014,-7179.997637,7431.126331
20729.435833,4663.297435,-5329.482782,6665.030833
20729.436166,3849.070898,-6513.812290,8503.660028
20729.436499,2664.741391,-4515.256246,3677.258390
20729.436832,-1110.308913,-9548.656652,76.609550
20729.437165,-2812.782580,-11769.274478,-3064.381992
20729.437498,-7105.977043,-11029.068536,-4903.011187
20729.437831,-3034.844362,-11251.130318,-7048.078582
20729.438164,-2960.823768,-12065.356855,-1838.629195
20729.438497,-2368.659014,-10140.821405,-76.609550
20729.438830,0.000000,-5699.585753,0.000000
20729.439163,3034.844362,-7105.977043,2374.896044
20729.439496,3034.844362,-8660.409521,4366.744339
20729.439829,666.185348,-8438.347739,3447.429741
20729.440162,-74.020594,-10658.965565,2987.772442
20729.440495,0.000000,-8512.368333,2987.772442
20729.440829,2886.803174,-9474.636058,1762.019645
20729.441162,1628.453072,-5995.668130,0.000000
20729.441495,-296.082377,-9326.594869,-2451.505594
20729.441828,-2442.679609,-11251.130318,-4979.620737
20729.442161,-4663.297435,-11251.130318,-5975.544884
20729.442494,-4219.173869,-11251.130318,-3753.867940
20729.442827,-2886.803174,-9622.677246,-1072.533697
20729.443160,0.000000,-7179.997637,1532.190996
20729.443493,7031.956449,-8290.306550,7277.907231
20729.443826,3849.070898,-4811.338623,7354.516781
20729.444159,3552.988522,-5403.503377,7660.954980
20729.444492,5847.626942,-5329.482782,842.705048
20729.444825,2294.638420,-10288.862594,-76.609550
20729.445158,-814.226536,-12731.542202,-3370.820191
20729.445491,-3923.091493,-12805.562797,-4673.182538
20729.445824,-3775.050304,-12065.356855,-4903.011187
20729.446158,0.000000,-9548.656652,-1225.752797
20729.446491,2294.638420,-8290.306550,-536.266849
20729.446824,1628.453072,-7550.100608,842.705048
20729.447157,2590.720797,-6291.750507,1685.410096
20729.447490,3256.906145,-8068.244768,3830.477490
20729.447823,2886.803174,-6069.688724,3677.258390
20729.448156,2294.638420,-9474.636058,4213.525239
20729.448489,1110.308913,-5995.668130,0.000000
20729.448822,2294.638420,-11843.295072,2374.896044
20729.449155,1776.494261,-10658.965565,-153.219100
20729.449488,-962.267725,-6735.874072,-4903.011187
20729.449821,-666.185348,-9992.780217,-4060.306139
20729.450154,-1332.370696,-11695.253884,-2681.334243
20729.450487,-4293.194464,-11769.274478,-2757.943793
20729.450820,-5329.482782,-9548.656652,-2451.505594
20729.451153,-74.020594,-10658.965565,842.705048
20729.451487,2516.700203,-5403.503377,3677.258390
20729.451820,4737.318029,-5847.626942,9116.536426
20729.452153,2294.638420,-7105.977043,2987.772442
20729.452486,0.000000,-5107.421000,1225.752797
20729.452819,222.061783,-10584.944971,306.438199
20729.453152,814.226536,-9252.574275,-306.438199
20729.453485,-3923.091493,-12583.501014,-3064.381992
20729.453818,-2664.741391,-10658.965565,-2834.553343
20729.454151,-1258.350101,-13619.789333,-3753.867940
20729.454484,-3256.906145,-7476.080014,0.000000
20729.454817,-3256.906145,-6291.750507,612.876398
20729.455150,-74.020594,-8586.388927,-76.609550
20729.455483,1184.329507,-10066.800811,2681.334243
20729.455816,-1480.411884,-9178.553681,2298.286494
20729.456149,2442.679609,-8956.491898,3907.087040
20729.456482,3478.967927,-7550.100608,4826.401637
20729.456815,6735.874072,-9474.636058,6052.154434
20729.457149,1998.556043,-5995.668130,0.000000
20729.457482,0.000000,-9770.718434,-76.609550
20729.457815,-2442.679609,-9474.636058,-5898.935335
20729.458148,-2738.761985,-11029.068536,-7354.516781
20729.458481,-2960.823768,-13619.789333,-2834.553343
20729.458814,-5107.421000,-10436.903782,-1838.629195
20729.459147,-666.185348,-7550.100608,-383.047749
20729.459480,2294.638420,-8512.368333,4673.182538
20729.459813,5847.626942,-5329.482782,7584.345430
20729.460146,5033.400406,-5625.565159,6894.859482
20729.460479,4663.297435,-4959.379811,2528.115143
20729.460812,2886.803174,-10510.924376,1302.362347
20729.461145,0.000000,-11917.315666,0.000000
20729.461478,-2368.659014,-12213.398043,-2221.676944
20729.461811,-1554.432478,-12435.459826,-5745.716235
20729.462144,0.000000,-11621.233289,-2451.505594
20729.462478,1850.514855,-11251.130318,1149.143247
20729.462811,0.000000,-6587.832884,0.000000
20729.463144,1406.391290,-7105.977043,1762.019645
20729.463477,2590.720797,-7476.080014,3370.820191
20729.463810,2738.761985,-7698.141797,3294.210641
20729.464143,3478.967927,-10658.965565,4213.525239
20729.464476,1332.370696,-7179.997637,2451.505594
20729.464809,1702.473667,-9770.718434,153.219100
20729.465142,1184.329507,-8660.409521,2451.505594
20729.465475,-74.020594,-9474.636058,-383.047749
20729.465808,-666.185348,-9104.533087,-3753.867940
20729.466141,-2960.823768,-11769.274478,-3447.429741
20729.466474,-4737.318029,-12509.480420,-4366.744339
20729.466807,-5403.503377,-11177.109724,-2451.505594
20729.467140,-1776.494261,-8364.327145,766.095498
20729.467473,4737.318029,-7476.080014,8197.221829
20729.467807,3849.070898,-4811.338623,6128.763984
20729.468140,5921.647536,-7105.977043,7277.907231
20729.468473,3330.926739,-5033.400406,612.876398
20729.468806,0.000000,-9104.533087,153.219100
20729.469139,-1258.350101,-11843.295072,-3140.991542
20729.469472,-5033.400406,-12139.377449,-4903.011187
20729.469805,-4737.318029,-11843.295072,-4979.620737
20729.470138,-3108.864956,-11917.315666,-1838.629195
20729.470471,-74.020594,-9474.636058,-76.609550
20729.470804,-2072.576638,-6587.832884,2757.943793
20729.471137,0.000000,-5403.503377,3983.696590
20729.471470,2294.638420,-6809.894666,2451.505594
20729.471803,0.000000,-7772.162391,3983.696590
20729.472136,-814.226536,-9252.574275,1915.238745
20729.472469,0.000000,-9104.533087,612.876398
20729.472802,2738.761985,-9178.553681,1149.143247
20729.473135,1628.453072,-9104.533087,76.609550
20729.473469,370.102971,-5995.668130,-4213.525239
20729.473802,-1776.494261,-13027.624579,-2528.115143
20729.474135,-3330.926739,-11399.171507,-4903.011187
20729.474468,-4441.235652,-9548.656652,-3677.258390
20729.474801,-1184.329507,-11621.233289,1378.971896
20729.475134,2738.761985,-7179.997637,3064.381992
20729.475467,5181.441594,-8142.265362,6741.640382
20729.475800,5477.523971,-5551.544565,7048.078582
20729.476133,4145.153275,-7402.059420,4673.182538
20729.476466,5551.544565,-3627.009116,1225.752797
20729.476799,1702.473667,-10658.965565,306.438199
20729.477132,-370.102971,-11177.109724,-2834.553343
20729.477465,-5773.606348,-12213.398043,-5822.325785
20729.477798,-3034.844362,-13619.789333,-3753.867940
20729.478131,518.144159,-9326.594869,-2145.067394
20729.478464,1332.370696,-9696.697840,612.876398
20729.478798,3108.864956,-9474.636058,2374.896044
20729.479131,518.144159,-5699.585753,153.219100
20729.479464,592.164754,-7179.997637,3140.991542
20729.479797,1924.535449,-7476.080014,2604.724693
20729.480130,2368.659014,-9474.636058,2911.162892
20729.480463,2664.741391,-8882.471304,2681.334243
20729.480796,2294.638420,-11843.295072,2374.896044
20729.481129,2886.803174,-7105.977043,-2451.505594
20729.481462,0.000000,-8956.491898,-76.609550
20729.481795,1998.556043,-10658.965565,-1302.362347
20729.482128,-1258.350101,-9844.739029,-3677.258390
20729.482461,-2738.761985,-13323.706956,-1302.362347
20729.482794,-5329.482782,-10140.821405,-2834.553343
20729.483127,-3552.988522,-9770.718434,0.000000
20729.483460,2294.638420,-7402.059420,4749.792088
20729.483793,2368.659014,-5403.503377,5515.887586
20729.484127,2294.638420,-5995.668130,0.000000
20729.484460,3182.885551,-8290.306550,2374.896044
20729.484793,0.000000,-8956.491898,0.000000
20729.485126,0.000000,-10436.903782,153.219100
20729.485459,-2590.720797,-11177.109724,-2528.115143
20729.485792,-3552.988522,-11547.212695,-3753.867940
20729.486125,-1184.329507,-11695.253884,-1302.362347
20729.486458,-1036.288319,-9252.574275,0.000000
20729.486791,2960.823768,-7624.121203,2451.505594
20729.487124,0.000000,-4219.173869,2451.505594
20729.487457,4071.132681,-9474.636058,4826.401637
20729.487790,-666.185348,-7179.997637,0.000000
20729.488123,-74.020594,-11843.295072,2374.896044
20729.488456,518.144159,-9696.697840,3064.381992
20729.488789,2368.659014,-7179.997637,2451.505594
20729.489122,4885.359217,-8882.471304,3217.601092
20729.489456,518.144159,-7920.203579,-1838.629195
20729.489789,-1554.432478,-6883.915261,-4903.011187
20729.490122,-74.020594,-12731.542202,-3753.867940
20729.490455,-4145.153275,-10881.027347,-2298.286494
20729.490788,-4145.153275,-11325.150913,1608.800546
20729.491121,-1554.432478,-7846.182985,0.000000
20729.491454,3849.070898,-8438.347739,5898.935335
20729.491787,4071.132681,-6809.894666,5515.887586
20729.492120,4959.379811,-5329.482782,5362.668486
20729.492453,4737.318029,-5181.441594,3524.039291
20729.492786,1554.432478,-7772.162391,1072.533697
20729.493119,-74.020594,-11695.253884,-842.705048
20729.493452,-3182.885551,-11325.150913,-3140.991542
20729.493785,-3552.988522,-11843.295072,-4519.963438
20729.494118,-1850.514855,-12583.501014,-1838.629195
20729.494451,-2442.679609,-9474.636058,-3447.429741
20729.494784,-1184.329507,-8882.471304,-76.609550
20729.495118,1554.432478,-7994.224174,-689.485948
20729.495451,1702.473667,-7179.997637,1838.629195
20729.495784,2368.659014,-8364.327145,6741.640382
20729.496117,2886.803174,-7476.080014,3677.258390
20729.496450,3108.864956,-8808.450710,4060.306139
20729.496783,1776.494261,-9844.739029,3753.867940
20729.497116,2886.803174,-8068.244768,1455.581446
20729.497449,0.000000,-7772.162391,-2145.067394
20729.497782,1110.308913,-11251.130318,-3753.867940
20729.498115,-2294.638420,-10658.965565,-4366.744339
20729.498448,-6513.812290,-11917.315666,-4290.134789
20729.498781,-4219.173869,-13619.789333,-2528.115143
20729.499114,-4441.235652,-9548.656652,0.000000
20729.499447,3775.050304,-7105.977043,4903.011187
20729.499780,6069.688724,-4885.359217,8120.612279
20729.500113,4441.235652,-5551.544565,6052.154434
20729.500447,5625.565159,-5847.626942,5362.668486
20729.500780,4663.297435,-11843.295072,-76.609550
20729.501113,0.000000,-10140.821405,-612.876398
20729.501446,-4737.318029,-13249.686362,-1608.800546
20729.501779,-2738.761985,-11843.295072,-6818.249932
20729.502112,-2072.576638,-13323.706956,-1915.238745
20729.502445,0.000000,-9622.677246,-383.047749
20729.502778,2072.576638,-6143.709319,1149.143247
20729.503111,1406.391290,-7254.018232,2374.896044
20729.503444,2886.803174,-8142.265362,3600.648841
20729.503777,0.000000,-6957.935855,1608.800546
20729.504110,592.164754,-8956.491898,5056.230287
20729.504443,2886.803174,-8734.430116,2987.772442
20729.504776,4071.132681,-7328.038826,1225.752797
20729.505109,2516.700203,-8882.471304,1762.019645
20729.505442,-1332.370696,-8438.347739,-3294.210641
20729.505776,-4219.173869,-10288.862594,-6281.983084
20729.506109,-5329.482782,-11769.274478,-5745.716235
20729.506442,-3627.009116,-12731.542202,-3753.867940
20729.506775,-3849.070898,-9992.780217,-1532.190996
20729.507108,-740.205942,-8364.327145,1455.581446
20729.507441,3256.906145,-7772.162391,5898.935335
20729.507774,3552.988522,-5107.421000,8580.269578
20729.508107,3552.988522,-5699.585753,7431.126331
20729.508440,5255.462188,-5921.647536,2681.334243
20729.508773,296.082377,-8364.327145,0.000000
20729.509106,-1184.329507,-11917.315666,-1915.238745
20729.509439,-5921.647536,-12065.356855,-4903.011187
20729.509772,-5329.482782,-11103.089130,-5592.497135
20729.510105,-2442.679609,-11621.233289,-1838.629195
20729.510438,74.020594,-9474.636058,76.609550
20729.510771,2294.638420,-9474.636058,3294.210641
20729.511104,0.000000,-3923.091493,3217.601092
20729.511437,4663.297435,-7698.141797,2987.772442
20729.511771,296.082377,-7476.080014,4903.011187
20729.512104,296.082377,-7772.162391,4290.134789
20729.512437,2812.782580,-8142.265362,1685.410096
20729.512770,1480.411884,-10510.924376,1991.848295
20729.513103,2442.679609,-9548.656652,612.876398
20729.513436,370.102971,-9474.636058,-1685.410096
20729.513769,370.102971,-10066.800811,-3753.867940
20729.514102,-2590.720797,-10658.965565,-4979.620737
20729.514435,-4441.235652,-11029.068536,-2757.943793
20729.514768,-2294.638420,-12435.459826,-76.609550
20729.515101,1998.556043,-9474.636058,1149.143247
20729.515434,3997.112087,-6587.832884,6741.640382
20729.515767,8216.285956,-4737.318029,7277.907231
20729.516100,4145.153275,-5995.668130,5056.230287
20729.516433,3997.112087,-6143.709319,1378.971896
20729.516766,-444.123565,-11399.171507,-1991.848295
20729.517099,-74.020594,-13619.789333,-1915.238745
20729.517432,-5921.647536,-12213.398043,-3370.820191
20729.517765,-4145.153275,-11917.315666,-2757.943793
20729.518098,-74.020594,-13027.624579,-1302.362347
20729.518432,0.000000,-7179.997637,0.000000
20729.518765,2294.638420,-5995.668130,1225.752797
20729.519098,2072.576638,-5551.544565,2528.115143
20729.519431,2812.782580,-6291.750507,3830.477490
20729.519764,-592.164754,-6957.935855,2681.334243
20729.520097,1110.308913,-8882.471304,-689.485948
20729.520430,0.000000,-9548.656652,2374.896044
20729.520763,4663.297435,-12139.377449,2374.896044
20729.521096,4663.297435,-7994.224174,-1225.752797
20729.521429,0.000000,-9548.656652,-2145.067394
20729.521762,-1258.350101,-9622.677246,-6128.763984
20729.522095,-1184.329507,-11843.295072,-2987.772442
20729.522428,-2516.700203,-12287.418637,-1838.629195
20729.522761,-2738.761985,-10436.903782,383.047749
20729.523094,-74.020594,-7105.977043,1608.800546
20729.523427,2442.679609,-6587.832884,6435.202183
20729.523760,3404.947333,-4737.318029,6894.859482
20729.524093,3552.988522,-4959.379811,4826.401637
20729.524426,2664.741391,-6587.832884,3677.258390
20729.524759,-74.020594,-10066.800811,-1455.581446
20729.525092,-3552.988522,-10140.821405,-5515.887586
20729.525426,-6513.812290,-14582.057057,-3294.210641
20729.525759,-3775.050304,-12435.459826,-5898.935335
20729.526092,-4145.153275,-11917.315666,0.000000
20729.526425,814.226536,-8512.368333,229.828649
20729.526758,1110.308913,-6735.874072,1302.362347
20729.527091,1480.411884,-5477.523971,1455.581446
20729.527424,3478.967927,-9474.636058,3600.648841
20729.527757,3478.967927,-9474.636058,3907.087040
20729.528090,0.000000,-8364.327145,4290.134789
20729.528423,3478.967927,-11843.295072,4826.401637
20729.528756,1110.308913,-9548.656652,1225.752797
20729.529089,3034.844362,-9548.656652,2681.334243
20729.529422,444.123565,-8512.368333,-612.876398
20729.529755,-740.205942,-7254.018232,-4136.915689
20729.530088,-2072.576638,-11103.089130,-3907.087040
20729.530421,-5625.565159,-10807.006753,-4673.182538
20729.530754,-4959.379811,-11029.068536,-7354.516781
20729.531087,-1776.494261,-11695.253884,-76.609550
20729.531420,4071.132681,-6809.894666,3983.696590
20729.531753,3108.864956,-4811.338623,7354.516781
20729.532087,6439.791695,-5921.647536,6052.154434
20729.532420,3330.926739,-6883.915261,2451.505594
20729.532753,2664.741391,-10436.903782,1685.410096
20729.533086,1110.308913,-11843.295072,-229.828649
20729.533419,-2368.659014,-13397.727550,-1838.629195
20729.533752,-3330.926739,-9548.656652,-4903.011187
20729.534085,-148.041188,-13323.706956,-76.609550
20729.534418,2146.597232,-9178.553681,-76.609550
20729.534751,-370.102971,-7698.141797,-76.609550
20729.535084,0.000000,-4811.338623,0.000000
20729.535417,1702.473667,-8142.265362,2068.457845
20729.535750,888.247130,-8216.285956,2451.505594
20729.536083,592.164754,-10510.924376,3830.477490
20729.536416,2886.803174,-9474.636058,3600.648841
20729.536749,1184.329507,-10140.821405,5286.058936
20729.537082,3478.967927,-8290.306550,383.047749
20729.537415,-74.020594,-7994.224174,-3677.258390
20729.537748,-2368.659014,-10955.047942,-2681.334243
20729.538081,-1258.350101,-10510.924376,-5362.668486
20729.538414,-3849.070898,-13027.624579,-2528.115143
20729.538748,-3034.844362,-10214.842000,-689.485948
20729.539081,-1998.556043,-9178.553681,919.314598
20729.539414,3478.967927,-8882.471304,6052.154434
20729.539747,4145.153275,-6439.791695,7048.078582
20729.540080,3701.029710,-6217.729913,5822.325785
20729.540413,5107.421000,-3330.926739,3064.381992
20729.540746,1258.350101,-10658.965565,612.876398
20729.541079,1702.473667,-13471.748144,-689.485948
20729.541412,-5329.482782,-12509.480420,-4903.011187
20729.541745,-3849.070898,-14804.118840,-3753.867940
20729.542078,-2442.679609,-10140.821405,-4136.915689
20729.542411,0.000000,-7772.162391,-1532.190996
20729.542744,4367.215058,-8216.285956,1762.019645
20729.543077,1480.411884,-6587.832884,1532.190996
20729.543410,1998.556043,-10066.800811,2987.772442
20729.543743,-74.020594,-9178.553681,4290.134789
20729.544076,-74.020594,-7698.141797,1455.581446
20729.544409,1184.329507,-8364.327145,4826.401637
20729.544742,2886.803174,-11547.212695,4213.525239
20729.545075,0.000000,-5403.503377,1838.629195
20729.545409,0.000000,-9326.594869,919.314598
20729.545742,-1554.432478,-7179.997637,-6128.763984
20729.546075,-3256.906145,-11399.171507,-4366.744339
20729.546408,-5107.421000,-12731.542202,-4979.620737
20729.546741,-5625.565159,-13027.624579,-3294.210641
20729.547074,-3256.906145,-7772.162391,0.000000
20729.547407,6217.729913,-9474.636058,9116.536426
20729.547740,6735.874072,-4515.256246,7660.954980
20729.548073,3552.988522,-3627.009116,7354.516781
20729.548406,4663.297435,-7994.224174,2374.896044
20729.548739,296.082377,-8956.491898,0.000000
20729.549072,-666.185348,-12509.480420,-2451.505594
20729.549405,-3108.864956,-11399.171507,-3600.648841
20729.549738,-3997.112087,-11991.336260,-5056.230287
20729.550071,-592.164754,-11177.109724,-153.219100
20729.550404,1406.391290,-10658.965565,-689.485948
20729.550737,0.000000,-6587.832884,2451.505594
20729.551070,2368.659014,-4737.318029,3600.648841
20729.551403,3478.967927,-9474.636058,2068.457845
20729.551736,1776.494261,-6883.915261,4596.572988
20729.552070,444.123565,-8808.450710,1072.533697
20729.552403,2590.720797,-10066.800811,1455.581446
20729.552736,3256.906145,-10362.883188,1915.238745
20729.553069,7179.997637,-9474.636058,2451.505594
20729.553402,3034.844362,-10066.800811,-919.314598
20729.553735,0.000000,-10362.883188,-3600.648841
20729.554068,-1184.329507,-11843.295072,-4366.744339
20729.554401,-2294.638420,-10658.965565,-4060.306139
20729.554734,-2368.659014,-10140.821405,-1225.752797
20729.555067,-74.020594,-10362.883188,2374.896044
20729.555400,4071.132681,-7698.141797,4519.963438
20729.555733,2368.659014,-5995.668130,7354.516781
20729.556066,5847.626942,-5921.647536,5439.278036
20729.556399,1184.329507,-6069.688724,2911.162892
20729.556732,-1184.329507,-9252.574275,-306.438199
20729.557065,-1850.514855,-9104.533087,-2451.505594
20729.557398,-4737.318029,-13101.645173,-2451.505594
20729.557731,-2442.679609,-9474.636058,-4903.011187
20729.558064,-1258.350101,-13619.789333,-2834.553343
20729.558397,-2368.659014,-8956.491898,-1838.629195
20729.558730,-2960.823768,-8364.327145,1838.629195
20729.559064,-1480.411884,-6587.832884,-1225.752797
20729.559397,0.000000,-7772.162391,2681.334243
20729.559730,-74.020594,-9030.512492,2987.772442
20729.560063,1406.391290,-8808.450710,4443.353888
20729.560396,2886.803174,-8290.306550,4826.401637
20729.560729,0.000000,-7772.162391,2604.724693
20729.561062,2294.638420,-8290.306550,-76.609550
20729.561395,-3256.906145,-10140.821405,-76.609550
20729.561728,-74.020594,-7698.141797,-5286.058936
20729.562061,-2442.679609,-12287.418637,-3140.991542
20729.562394,-5329.482782,-13619.789333,-3753.867940
20729.562727,-4811.338623,-10955.047942,-2757.943793
20729.563060,-3330.926739,-10066.800811,0.000000
20729.563393,4663.297435,-6809.894666,4826.401637
20729.563726,2368.659014,-7179.997637,9116.536426
20729.564059,2664.741391,-4811.338623,4903.011187
20729.564392,2368.659014,-4811.338623,5362.668486
20729.564725,4071.132681,-8290.306550,459.657299
20729.565058,740.205942,-8956.491898,0.000000
20729.565391,-3034.844362,-13619.789333,-4060.306139
20729.565725,-3182.885551,-11399.171507,-6205.373534
20729.566058,-2368.659014,-12139.377449,-2987.772442
20729.566391,222.061783,-9844.739029,-1838.629195
20729.566724,1702.473667,-9474.636058,-76.609550
20729.567057,0.000000,-4811.338623,1225.752797
20729.567390,4663.297435,-8290.306550,3600.648841
20729.567723,3478.967927,-7402.059420,2451.505594
20729.568056,1776.494261,-7328.038826,2451.505594
20729.568389,4663.297435,-9474.636058,2681.334243
20729.568722,4811.338623,-10807.006753,2987.772442
20729.569055,6069.688724,-8364.327145,1991.848295
20729.569388,2294.638420,-10955.047942,-536.266849
20729.569721,2294.638420,-9474.636058,-4366.744339
20729.570054,-1998.556043,-13027.624579,-3830.477490
20729.570387,-1850.514855,-11991.336260,-3140.991542
20729.570720,-2590.720797,-11103.089130,-1915.238745
20729.571053,-4737.318029,-9548.656652,612.876398
20729.571386,4071.132681,-5921.647536,4213.525239
20729.571719,2516.700203,-4811.338623,4903.011187
20729.572052,6217.729913,-5921.647536,7890.783629
20729.572386,4071.132681,-4959.379811,3524.039291
20729.572719,0.000000,-7772.162391,0.000000
20729.573052,-1258.350101,-11843.295072,-2528.115143
20729.573385,-5699.585753,-14063.912898,-5132.839837
20729.573718,-6069.688724,-12879.583391,-6818.249932
20729.574051,-1924.535449,-14063.912898,-1685.410096
20729.574384,-74.020594,-11251.130318,-1915.238745
20729.574717,-2368.659014,-8956.491898,2451.505594
20729.575050,-2368.659014,-4811.338623,2911.162892
20729.575383,1110.308913,-7994.224174,2374.896044
20729.575716,0.000000,-7772.162391,7048.078582
20729.576049,-518.144159,-8364.327145,3983.696590
20729.576382,-296.082377,-7254.018232,2221.676944
20729.576715,1110.308913,-9030.512492,2604.724693
20729.577048,1110.308913,-8142.265362,1149.143247
20729.577381,-666.185348,-8142.265362,-3753.867940
20729.577714,-3552.988522,-11843.295072,-3753.867940
20729.578047,-4811.338623,-12435.459826,-5898.935335
20729.578380,-4811.338623,-12435.459826,-4903.011187
20729.578713,-3923.091493,-13027.624579,-76.609550
20729.579047,-1480.411884,-7772.162391,2145.067394
20729.579380,3627.009116,-6809.894666,5362.668486
20729.579713,7624.121203,-5033.400406,8503.660028
20729.580046,6513.812290,-4219.173869,6128.763984
20729.580379,5551.544565,-4811.338623,1378.971896
20729.580712,2664.741391,-11029.068536,2987.772442
20729.581045,1998.556043,-10658.965565,-3600.648841
20729.581378,-3552.988522,-11917.315666,-6741.640382
20729.581711,-2368.659014,-10732.986159,-5515.887586
20729.582044,74.020594,-12953.603985,-1762.019645
20729.582377,1480.411884,-10436.903782,919.314598
20729.582710,2664.741391,-6439.791695,2757.943793
20729.583043,4515.256246,-5921.647536,3294.210641
20729.583376,4737.318029,-4811.338623,4903.011187
20729.583709,4663.297435,-7698.141797,3600.648841
20729.584042,3478.967927,-7772.162391,0.000000
20729.584375,1776.494261,-9474.636058,1608.800546
20729.584708,3404.947333,-11029.068536,0.000000
20729.585041,6661.853478,-8808.450710,1149.143247
20729.585374,4441.235652,-10362.883188,-1225.752797
20729.585707,2812.782580,-8586.388927,-4366.744339
20729.586041,1110.308913,-13545.768739,-3140.991542
20729.586374,1184.329507,-12361.439231,-2528.115143
20729.586707,-1184.329507,-11917.315666,-1225.752797
20729.587040,0.000000,-9548.656652,76.609550
20729.587373,3404.947333,-8438.347739,4749.792088
20729.587706,4663.297435,-7402.059420,7354.516781
20729.588039,4145.153275,-3034.844362,2451.505594
20729.588372,4145.153275,-6809.894666,4826.401637
20729.588705,1110.308913,-7476.080014,-919.314598
20729.589038,-3404.947333,-11843.295072,-842.705048
20729.589371,-5107.421000,-14211.954086,-2528.115143
20729.589704,-6513.812290,-11103.089130,-4749.792088
20729.590037,-5625.565159,-11769.274478,-3677.258390
20729.590370,-2442.679609,-10066.800811,-1072.533697
20729.590703,-2442.679609,-9474.636058,1149.143247
20729.591036,-3552.988522,-5107.421000,1991.848295
20729.591369,-74.020594,-9474.636058,4826.401637
20729.591702,-2442.679609,-5995.668130,2451.505594
20729.592035,-2368.659014,-8364.327145,3830.477490
20729.592368,-1850.514855,-8586.388927,842.705048
20729.592702,-962.267725,-9474.636058,2374.896044
20729.593035,-2072.576638,-8438.347739,76.609550
20729.593368,-2368.659014,-8068.244768,-1762.019645
20729.593701,-3478.967927,-7550.100608,-3677.258390
20729.594034,-4737.318029,-11325.150913,-689.485948
20729.594367,-3627.009116,-11103.089130,-3447.429741
20729.594700,-7328.038826,-9844.739029,-3370.820191
20729.595033,-74.020594,-11251.130318,2374.896044
20729.595366,888.247130,-6587.832884,4903.011187
20729.595699,4811.338623,-5625.565159,6052.154434
20729.596032,4441.235652,-6735.874072,6205.373534
20729.596365,3108.864956,-5107.421000,2145.067394
20729.596698,2812.782580,-8068.244768,0.000000
20729.597031,2294.638420,-15100.201217,-76.609550
20729.597364,-2146.597232,-10140.821405,-4903.011187
20729.597697,-3552.988522,-13101.645173,-4903.011187
20729.598030,2294.638420,-14211.954086,-1302.362347
20729.598363,888.247130,-8364.327145,0.000000
20729.598696,2368.659014,-8364.327145,1302.362347
20729.599029,6291.750507,-3849.070898,2528.115143
20729.599363,5699.585753,-9178.553681,4903.011187
20729.599696,5921.647536,-7624.121203,3677.258390
20729.600029,2886.803174,-10066.800811,2834.553343
20729.600362,3330.926739,-9178.553681,383.047749
20729.600695,4441.235652,-9992.780217,1225.752797
20729.601028,5551.544565,-10066.800811,-76.609550
20729.601361,3182.885551,-7772.162391,-4290.134789
20729.601694,-1480.411884,-10584.944971,-4443.353888
20729.602027,-74.020594,-13619.789333,-5592.497135
20729.602360,-814.226536,-10881.027347,-3064.381992
20729.602693,-74.020594,-13027.624579,2374.896044
20729.603026,-1258.350101,-8660.409521,1838.629195
20729.603359,1850.514855,-7402.059420,4826.401637
20729.603692,4441.235652,-5181.441594,6818.249932
20729.604025,4737.318029,-4219.173869,5669.106685
20729.604358,5255.462188,-5403.503377,2451.505594
20729.604691,4071.132681,-9474.636058,2374.896044
20729.605024,-4441.235652,-10732.986159,-2451.505594
20729.605357,-7105.977043,-13693.809927,-4903.011187
20729.605690,-6217.729913,-10881.027347,-6818.249932
20729.606024,-3552.988522,-11621.233289,-2681.334243
20729.606357,-222.061783,-9474.636058,-689.485948
20729.606690,-1924.535449,-9400.615463,536.266849
20729.607023,-1628.453072,-7920.203579,2145.067394
20729.607356,-2146.597232,-5699.585753,0.000000
20729.607689,-74.020594,-11843.295072,4826.401637
20729.608022,-1480.411884,-6291.750507,3677.258390
20729.608355,-740.205942,-8586.388927,4290.134789
20729.608688,-74.020594,-8734.430116,2451.505594
20729.609021,296.082377,-8216.285956,2068.457845
20729.609354,-1554.432478,-9252.574275,-612.876398
20729.609687,-1332.370696,-8290.306550,-3064.381992
20729.610020,-4811.338623,-12435.459826,-4979.620737
20729.610353,-7698.141797,-11029.068536,-3983.696590
20729.610686,-5995.668130,-11029.068536,-4290.134789
20729.611019,-4145.153275,-8364.327145,0.000000
20729.611352,6291.750507,-7698.141797,6052.154434
20729.611685,4663.297435,-5921.647536,6665.030833
20729.612018,6735.874072,-5625.565159,5975.544884
20729.612351,2960.823768,-4885.359217,2681.334243
20729.612685,1998.556043,-10436.903782,-459.657299
20729.613018,2072.576638,-9696.697840,-1225.752797
20729.613351,-666.185348,-15396.283594,-1302.362347
20729.613684,-2516.700203,-9844.739029,-4903.011187
20729.614017,-148.041188,-12435.459826,-76.609550
20729.614350,2812.782580,-10955.047942,-76.609550
20729.614683,2294.638420,-7105.977043,1762.019645
20729.615016,3478.967927,-2442.679609,0.000000
20729.615350,4441.235652,-7994.224174,3600.648841
20729.615683,2738.761985,-8734.430116,2451.505594
20729.616016,2220.617826,-9474.636058,689.485948
20729.616349,4071.132681,-10362.883188,-76.609550
20729.616682,5921.647536,-11103.089130,2911.162892
20729.617015,6735.874072,-9104.533087,1838.629195
20729.617348,3997.112087,-9918.759623,-536.266849
20729.617682,592.164754,-8956.491898,-3677.258390
20729.618015,2294.638420,-11695.253884,-3753.867940
20729.618348,0.000000,-10658.965565,-3447.429741
20729.618681,-2368.659014,-11917.315666,459.657299
20729.619014,1110.308913,-9474.636058,-76.609550
20729.619347,2294.638420,-7179.997637,3064.381992
20729.619680,5107.421000,-6735.874072,6818.249932
20729.620013,4959.379811,-6069.688724,5132.839837
20729.620347,3552.988522,-4219.173869,3370.820191
20729.620680,2590.720797,-10658.965565,2374.896044
20729.621013,-74.020594,-13027.624579,-1302.362347
20729.621346,-7105.977043,-11917.315666,-2451.505594
20729.621679,-5921.647536,-12361.439231,-1915.238745
20729.622012,-2590.720797,-10658.965565,-2528.115143
20729.622345,-3552.988522,-10140.821405,1225.752797
20729.622679,-1998.556043,-7624.121203,459.657299
20729.623012,-3034.844362,-7031.956449,0.000000
20729.623345,-1184.329507,-6883.915261,1838.629195
20729.623678,-370.102971,-9326.594869,3907.087040
20729.624011,-74.020594,-8586.388927,1149.143247
20729.624344,0.000000,-9252.574275,5439.278036
20729.624677,-666.185348,-9474.636058,1455.581446
20729.625010,0.000000,-7179.997637,612.876398
20729.625344,-666.185348,-9474.636058,-76.609550
20729.625677,-3256.906145,-7476.080014,-3524.039291
20729.626010,-4293.194464,-10140.821405,-4443.353888
20729.626343,-6291.750507,-12805.562797,-4136.915689
20729.626676,-7105.977043,-10140.821405,-2451.505594
20729.627009,-4811.338623,-8586.388927,-1838.629195
20729.627342,1776.494261,-9696.697840,7277.907231
20729.627676,4663.297435,-4515.256246,5209.449386
20729.628009,2960.823768,-5995.668130,4903.011187
20729.628342,3552.988522,-4219.173869,1608.800546
20729.628675,1924.535449,-9400.615463,919.314598
20729.629008,444.123565,-12287.418637,-1915.238745
20729.629341,-740.205942,-12583.501014,-2528.115143
20729.629674,-518.144159,-12731.542202,-3907.087040
20729.630007,0.000000,-11325.150913,-1532.190996
20729.630341,2294.638420,-9474.636058,-76.609550
20729.630674,3478.967927,-7994.224174,-689.485948
20729.631007,2664.741391,-4811.338623,2911.162892
20729.631340,3552.988522,-7179.997637,3294.210641
20729.631673,4071.132681,-9770.718434,4136.915689
20729.632006,2294.638420,-9696.697840,2681.334243
20729.632339,3404.947333,-8216.285956,1762.019645
20729.632672,7031.956449,-11251.130318,4213.525239
20729.633006,5329.482782,-8734.430116,3600.648841
20729.633339,2368.659014,-9696.697840,-995.924147
20729.633672,1258.350101,-8290.306550,-4673.182538
20729.634005,-962.267725,-12065.356855,-5439.278036
20729.634338,-148.041188,-13841.851115,-2451.505594
20729.634671,-2368.659014,-9548.656652,-3677.258390
20729.635004,0.000000,-9844.739029,2987.772442
20729.635338,4367.215058,-6809.894666,4826.401637
20729.635671,3256.906145,-4811.338623,5822.325785
20729.636004,7698.141797,-4737.318029,7277.907231
20729.636337,2590.720797,-6661.853478,3907.087040
20729.636670,3034.844362,-7402.059420,689.485948
20729.637003,-3182.885551,-12213.398043,-2145.067394
20729.637336,-4219.173869,-14211.954086,-5286.058936
20729.637669,-7105.977043,-12213.398043,-4443.353888
20729.638003,-2442.679609,-14211.954086,-1915.238745
20729.638336,-74.020594,-7994.224174,-2451.505594
20729.638669,-3552.988522,-8364.327145,2451.505594
20729.639002,1110.308913,-5921.647536,766.095498
20729.639335,222.061783,-7476.080014,3600.648841
20729.639668,370.102971,-8660.409521,3600.648841
20729.640001,-1258.350101,-8660.409521,3217.601092
20729.640335,-2590.720797,-7179.997637,612.876398
20729.640668,-2368.659014,-10140.821405,3907.087040
20729.641001,-814.226536,-9326.594869,842.705048
20729.641334,-3034.844362,-7402.059420,-4596.572988
20729.641667,-3627.009116,-9326.594869,-2528.115143
20729.642000,-6143.709319,-9548.656652,-4136.915689
20729.642333,-5625.565159,-11399.171507,-2757.943793
20729.642666,-6661.853478,-11843.295072,-689.485948
20729.643000,-3404.947333,-8734.430116,76.609550
20729.643333,1776.494261,-5995.668130,4903.011187
20729.643666,6439.791695,-9178.553681,9729.412825
20729.643999,5255.462188,-4367.215058,3677.258390
20729.644332,2960.823768,-6587.832884,1225.752797
20729.644665,3478.967927,-11843.295072,-76.609550
20729.644998,888.247130,-9844.739029,-2451.505594
20729.645331,-2442.679609,-13619.789333,-3677.258390
20729.645665,-1406.391290,-11103.089130,-4979.620737
20729.645998,0.000000,-11621.233289,-1608.800546
20729.646331,2368.659014,-9548.656652,0.000000
20729.646664,6439.791695,-6439.791695,3600.648841
20729.646997,5773.606348,-4441.235652,2757.943793
20729.647330,5551.544565,-7920.203579,3294.210641
20729.647663,4663.297435,-7994.224174,2374.896044
20729.647997,2886.803174,-8364.327145,306.438199
20729.648330,2960.823768,-9548.656652,2068.457845
20729.648663,5255.462188,-11843.295072,-76.609550
20729.648996,4737.318029,-8364.327145,919.314598
20729.649329,5255.462188,-11251.130318,-76.609550
20729.649662,1776.494261,-8956.491898,-4903.011187
20729.649995,296.082377,-11991.336260,-3907.087040
20729.650328,296.082377,-11843.295072,-2911.162892
20729.650662,-2072.576638,-10732.986159,-1838.629195
20729.650995,1702.473667,-9178.553681,0.000000
20729.651328,5847.626942,-10658.965565,4519.963438
20729.651661,3997.112087,-4811.338623,6128.763984
20729.651994,3552.988522,-6291.750507,8044.002729
20729.652327,3404.947333,-3034.844362,3370.820191
20729.652660,1480.411884,-8512.368333,1302.362347
20729.652994,-2072.576638,-11547.212695,-919.314598
20729.653327,-5403.503377,-13323.706956,-3907.087040
20729.653660,-6143.709319,-12583.501014,-3830.477490
20729.653993,-6291.750507,-11029.068536,-4903.011187
20729.654326,-1850.514855,-11843.295072,-1302.362347
20729.654659,-4663.297435,-7920.203579,0.000000
20729.654992,-5625.565159,-6883.915261,0.000000
20729.655325,-962.267725,-6957.935855,2604.724693
20729.655659,-2590.720797,-9474.636058,4826.401637
20729.655992,-1184.329507,-6883.915261,4136.915689
20729.656325,-1850.514855,-8142.265362,3217.601092
20729.656658,-1258.350101,-10066.800811,1149.143247
20729.656991,-3552.988522,-7772.162391,1838.629195
20729.657324,-3923.091493,-9400.615463,-3370.820191
20729.657657,-3034.844362,-6365.771101,-6128.763984
20729.657990,-5921.647536,-10732.986159,-3064.381992
20729.658324,-1850.514855,-11251.130318,-2528.115143
20729.658657,-5107.421000,-13027.624579,-1149.143247
20729.658990,-2664.741391,-9030.512492,919.314598
20729.659323,1110.308913,-8882.471304,4519.963438
20729.659656,4441.235652,-4811.338623,6281.983084
20729.659989,5847.626942,-8290.306550,6052.154434
20729.660322,1184.329507,-4811.338623,2451.505594
20729.660656,2812.782580,-9474.636058,919.314598
20729.660989,2294.638420,-11843.295072,-2834.553343
20729.661322,-74.020594,-11547.212695,-3753.867940
20729.661655,-1258.350101,-12435.459826,-3753.867940
20729.661988,1998.556043,-11177.109724,-1455.581446
20729.662321,1924.535449,-8956.491898,0.000000
20729.662654,4367.215058,-7846.182985,1608.800546
20729.662987,6735.874072,-5921.647536,2374.896044
20729.663321,6587.832884,-8216.285956,4290.134789
20729.663654,4145.153275,-9104.533087,3677.258390
20729.663987,3182.885551,-10362.883188,1762.019645
20729.664320,2072.576638,-7772.162391,0.000000
20729.664653,5329.482782,-10807.006753,3524.039291
20729.664986,6439.791695,-6513.812290,-383.047749
20729.665319,2368.659014,-9844.739029,1149.143247
20729.665653,1702.473667,-8882.471304,-4366.744339
20729.665986,-666.185348,-10584.944971,-5975.544884
20729.666319,-814.226536,-11917.315666,-2834.553343
20729.666652,-1628.453072,-11695.253884,-1455.581446
20729.666985,-370.102971,-9252.574275,0.000000
20729.667318,1184.329507,-8068.244768,4290.134789
20729.667651,3849.070898,-9474.636058,7277.907231
20729.667984,2368.659014,-4811.338623,4903.011187
20729.668318,2960.823768,-6587.832884,5439.278036
20729.668651,1110.308913,-9326.594869,0.000000
20729.668984,-3552.988522,-9844.739029,-1225.752797
20729.669317,-5107.421000,-13323.706956,-3907.087040
20729.669650,-4293.194464,-12213.398043,-2528.115143
20729.669983,-3849.070898,-9992.780217,-1302.362347
20729.670316,-666.185348,-9474.636058,-76.609550
20729.670650,-1258.350101,-11843.295072,-76.609550
20729.670983,-4219.173869,-5551.544565,0.000000
20729.671316,-3256.906145,-7179.997637,1225.752797
20729.671649,-1554.432478,-8882.471304,1149.143247
20729.671982,-2960.823768,-9696.697840,3753.867940
20729.672315,-3552.988522,-6587.832884,2451.505594
20729.672648,-74.020594,-9474.636058,2987.772442
20729.672981,0.000000,-8364.327145,2374.896044
20729.673315,-1332.370696,-6661.853478,-842.705048
20729.673648,-1258.350101,-8882.471304,-3830.477490
20729.673981,-5329.482782,-9548.656652,-3677.258390
20729.674314,-4737.318029,-13619.789333,-3140.991542
20729.674647,-5699.585753,-11843.295072,-3753.867940
20729.674980,-3108.864956,-8734.430116,-76.609550
20729.675313,2368.659014,-7624.121203,4979.620737
20729.675646,5403.503377,-5255.462188,7354.516781
20729.675980,5625.565159,-5107.421000,6281.983084
20729.676313,4145.153275,-5699.585753,2451.505594
20729.676646,1332.370696,-7179.997637,0.000000
20729.676979,3182.885551,-12731.542202,-1302.362347
20729.677312,-666.185348,-12361.439231,-5439.278036
20729.677645,-1184.329507,-11325.150913,-3447.429741
20729.677978,0.000000,-13027.624579,-2528.115143
20729.678312,3552.988522,-9548.656652,0.000000
20729.678645,3997.112087,-7550.100608,2374.896044
20729.678978,5255.462188,-5551.544565,1838.629195
20729.679311,5921.647536,-7476.080014,3064.381992
20729.679644,2960.823768,-8364.327145,2604.724693
20729.679977,3775.050304,-9252.574275,2068.457845
20729.680310,3256.906145,-8068.244768,919.314598
20729.680643,5551.544565,-9844.739029,459.657299
20729.680977,6217.729913,-11325.150913,612.876398
20729.681310,4071.132681,-8734.430116,-3447.429741
20729.681643,592.164754,-11621.233289,-1762.019645
20729.681976,814.226536,-12731.542202,-3140.991542
20729.682309,-74.020594,-11251.130318,-3140.991542
20729.682642,-1480.411884,-12509.480420,1302.362347
20729.682975,-740.205942,-7179.997637,612.876398
20729.683309,2442.679609,-7624.121203,4443.353888
20729.683642,4071.132681,-5773.606348,6435.202183
20729.683975,5847.626942,-7994.224174,7890.783629
20729.684308,0.000000,-3627.009116,3064.381992
20729.684641,592.164754,-9548.656652,2374.896044
20729.684974,-3034.844362,-9918.759623,-4290.134789
20729.685307,-8586.388927,-11917.315666,-5975.544884
20729.685640,-5403.503377,-11843.295072,-4979.620737
20729.685974,-5921.647536,-12139.377449,-2834.553343
20729.686307,-2220.617826,-9326.594869,0.000000
20729.686640,-2886.803174,-7920.203579,1915.238745
20729.686973,-1258.350101,-5477.523971,2374.896044
20729.687306,-4737.318029,-5995.668130,4903.011187
20729.687639,-1110.308913,-8290.306550,4826.401637
20729.687972,-74.020594,-9178.553681,2374.896044
20729.688305,-2368.659014,-8068.244768,3677.258390
20729.688639,222.061783,-8142.265362,1149.143247
20729.688972,-2590.720797,-9844.739029,0.000000
20729.689305,-2960.823768,-9548.656652,-2374.896044
20729.689638,-5403.503377,-9474.636058,-5056.230287
20729.689971,-4737.318029,-9548.656652,-4903.011187
20729.690304,-2960.823768,-12435.459826,-76.609550
20729.690637,-3775.050304,-10140.821405,-2451.505594
20729.690971,-2368.659014,-10140.821405,2451.505594
20729.691304,4071.132681,-9474.636058,6665.030833
20729.691637,3627.009116,-5995.668130,5669.106685
20729.691970,4959.379811,-6513.812290,3294.210641
20729.692303,5107.421000,-6439.791695,2987.772442
20729.692636,1036.288319,-9992.780217,-1302.362347
20729.692969,2368.659014,-10732.986159,-3370.820191
20729.693302,-1998.556043,-13989.892304,-4673.182538
20729.693636,-370.102971,-13175.665768,-3447.429741
20729.693969,296.082377,-10436.903782,-76.609550
20729.694302,1702.473667,-10658.965565,-995.924147
20729.694635,4071.132681,-4811.338623,0.000000
20729.694968,4145.153275,-6883.915261,4060.306139
20729.695301,6735.874072,-8290.306550,2374.896044
20729.695634,4219.173869,-7476.080014,3677.258390
20729.695968,4071.132681,-10362.883188,2374.896044
20729.696301,2960.823768,-9474.636058,1149.143247
20729.696634,4737.318029,-9548.656652,1302.362347
20729.696967,5773.606348,-9252.574275,76.609550
20729.697300,740.205942,-9548.656652,-2451.505594
20729.697633,1702.473667,-9474.636058,-6741.640382
20729.697966,-1184.329507,-13619.789333,-2528.115143
20729.698299,-74.020594,-10955.047942,-2681.334243
20729.698633,-814.226536,-10288.862594,-1838.629195
20729.698966,-1184.329507,-7476.080014,612.876398
20729.699299,1332.370696,-7772.162391,5056.230287
20729.699632,3404.947333,-6143.709319,6511.811733
20729.699965,4663.297435,-5107.421000,7354.516781
20729.700298,5847.626942,-7105.977043,3600.648841
20729.700631,296.082377,-9548.656652,0.000000
20729.700964,-1258.350101,-11843.295072,-2528.115143
20729.701298,-7105.977043,-14285.974681,-2757.943793
20729.701631,-3627.009116,-12435.459826,-3753.867940
20729.701964,-2738.761985,-12435.459826,-383.047749
20729.702297,-1924.535449,-9844.739029,306.438199
20729.702630,-2368.659014,-8290.306550,1532.190996
20729.702963,-2886.803174,-4811.338623,0.000000
20729.703296,-370.102971,-6513.812290,2068.457845
20729.703630,-888.247130,-9104.533087,4826.401637
20729.703963,-4145.153275,-7179.997637,2451.505594
20729.704296,-4737.318029,-8364.327145,3830.477490
20729.704629,-1258.350101,-7920.203579,0.000000
20729.704962,-1776.494261,-6587.832884,1225.752797
20729.705295,-1258.350101,-9252.574275,-766.095498
20729.705628,-1036.288319,-6291.750507,-2451.505594
20729.705961,-4959.379811,-10881.027347,-4903.011187
20729.706295,-4737.318029,-9548.656652,-4136.915689
20729.706628,-7920.203579,-11917.315666,-4673.182538
20729.706961,-4441.235652,-9844.739029,1455.581446
20729.707294,814.226536,-6661.853478,2757.943793
20729.707627,0.000000,-5403.503377,6128.763984
20729.707960,5329.482782,-4515.256246,5592.497135
20729.708293,2738.761985,-4811.338623,2451.505594
20729.708627,3627.009116,-8216.285956,919.314598
20729.708960,296.082377,-11177.109724,-766.095498
20729.709293,74.020594,-11695.253884,-2834.553343
20729.709626,-1258.350101,-11399.171507,-5515.887586
20729.709959,1332.370696,-11843.295072,-2221.676944
20729.710292,2442.679609,-9844.739029,-919.314598
20729.710625,2960.823768,-7624.121203,842.705048
20729.710958,6587.832884,-5625.565159,3294.210641
20729.711292,4663.297435,-8882.471304,2068.457845
20729.711625,4885.359217,-7179.997637,1225.752797
20729.711958,2368.659014,-10140.821405,4213.525239
20729.712291,5551.544565,-8882.471304,1915.238745
20729.712627,4737.318029,-7179.997637,2604.724693
20729.712961,9400.615463,-9178.553681,2068.457845
20729.713294,6069.688724,-10658.965565,76.609550
20729.713627,2368.659014,-9844.739029,-4290.134789
20729.713960,3478.967927,-12435.459826,-3753.867940
20729.714293,2294.638420,-12435.459826,-4366.744339
20729.714626,0.000000,-11325.150913,0.000000
20729.714959,-592.164754,-8586.388927,536.266849
20729.715292,2664.741391,-11251.130318,4826.401637
20729.715625,7031.956449,-8290.306550,7277.907231
20729.715959,2368.659014,-5995.668130,7660.954980
20729.716292,4811.338623,-3997.112087,4673.182538
20729.716625,1332.370696,-7624.121203,919.314598
20729.716958,-2664.741391,-9548.656652,-3064.381992
20729.717291,-4811.338623,-11917.315666,-7354.516781
20729.717624,-6143.709319,-14211.954086,-4979.620737
20729.717957,-6291.750507,-11325.150913,-4903.011187
20729.718290,-5107.421000,-8364.327145,-2451.505594
20729.718624,-4811.338623,-9178.553681,-383.047749
20729.718957,-3775.050304,-6661.853478,1149.143247
20729.719290,-1184.329507,-6217.729913,3753.867940
20729.719623,-2442.679609,-7994.224174,4213.525239
20729.719956,-2072.576638,-9400.615463,3830.477490
20729.720289,-5329.482782,-7179.997637,1838.629195
20729.720622,-1258.350101,-10955.047942,2987.772442
20729.720955,-2442.679609,-8216.285956,-1685.410096
20729.721288,-4737.318029,-10140.821405,-2451.505594
20729.721622,-5625.565159,-7476.080014,-4903.011187
20729.721955,-5181.441594,-10362.883188,-4060.306139
20729.722288,-7105.977043,-12435.459826,-3370.820191
20729.722621,-4737.318029,-10140.821405,-1685.410096
20729.722954,-2442.679609,-10658.965565,2374.896044
20729.723287,1480.411884,-7179.997637,7277.907231
20729.723620,3478.967927,-5477.523971,6128.763984
20729.723953,1184.329507,-2738.761985,4903.011187
20729.724286,5477.523971,-7105.977043,2987.772442
20729.724620,1480.411884,-8364.327145,-2451.505594
20729.724953,3256.906145,-10214.842000,-2604.724693
20729.725286,-2738.761985,-15174.221811,-4366.744339
20729.725619,0.000000,-11177.109724,-4596.572988
20729.725952,1110.308913,-11843.295072,-1302.362347
20729.726285,5625.565159,-10658.965565,2374.896044
20729.726618,5477.523971,-7105.977043,2834.553343
20729.726951,5699.585753,-5847.626942,2987.772442
20729.727284,7105.977043,-6439.791695,3064.381992
20729.727618,5847.626942,-10658.965565,3600.648841
20729.727951,3849.070898,-9844.739029,2451.505594
20729.728284,5847.626942,-11843.295072,1149.143247
20729.728617,4737.318029,-8364.327145,2451.505594
20729.728950,5329.482782,-7772.162391,1225.752797
20729.729283,5847.626942,-10955.047942,-1302.362347
20729.729616,2146.597232,-8660.409521,-4366.744339
20729.729949,1702.473667,-12435.459826,-4060.306139
20729.730282,1258.350101,-12139.377449,-2681.334243
