#time,accel_x,accel_y,accel_z
22015.322873,6439.791695,-8364.327145,3524.039291
22015.323207,7254.018232,-8734.430116,3064.381992
22015.323541,9104.533087,-8734.430116,2987.772442
22015.323875,8586.388927,-9400.615463,4826.401637
22015.324209,8216.285956,-7179.997637,0.000000
22015.324543,6513.812290,-11251.130318,-76.609550
22015.324877,5255.462188,-9474.636058,-4366.744339
22015.325211,5699.585753,-10955.047942,-1915.238745
22015.325545,5847.626942,-9844.739029,-3064.381992
22015.325879,6587.832884,-9326.594869,-1532.190996
22015.326214,9252.574275,-8586.388927,1072.533697
22015.326548,9474.636058,-7179.997637,4290.134789
22015.326882,14137.933492,-8290.306550,4213.525239
22015.327216,11251.130318,-7772.162391,2451.505594
22015.327550,13027.624579,-9474.636058,5439.278036
22015.327884,10436.903782,-8438.347739,0.000000
22015.328218,5921.647536,-9844.739029,-1225.752797
22015.328552,740.205942,-12583.501014,-4136.915689
22015.328886,-74.020594,-12435.459826,-5056.230287
22015.329220,-74.020594,-10362.883188,-2757.943793
22015.329555,3552.988522,-9252.574275,1532.190996
22015.329889,4663.297435,-4293.194464,153.219100
22015.330223,8290.306550,-5477.523971,6971.469032
22015.330557,11769.274478,-7105.977043,7277.907231
22015.330891,10066.800811,-3923.091493,7354.516781
22015.331225,11843.295072,-5995.668130,3524.039291
22015.331559,11325.150913,-8364.327145,-612.876398
22015.331893,9918.759623,-10214.842000,-3753.867940
22015.332227,8290.306550,-12287.418637,-5515.887586
22015.332561,6661.853478,-14804.118840,-5592.497135
22015.332895,4219.173869,-13693.809927,-6741.640382
22015.333230,3775.050304,-12953.603985,-2834.553343
22015.333564,6143.709319,-11251.130318,0.000000
22015.333898,7920.203579,-7550.100608,3370.820191
22015.334232,12435.459826,-6069.688724,8580.269578
22015.334566,15322.262999,-4737.318029,8963.317327
22015.334900,13619.789333,-2442.679609,8580.269578
22015.335234,12287.418637,-8882.471304,6052.154434
22015.335568,8216.285956,-9474.636058,-689.485948
22015.335902,3552.988522,-8956.491898,-2987.772442
22015.336236,3182.885551,-10436.903782,-5592.497135
22015.336571,2072.576638,-11695.253884,-6741.640382
22015.336905,2812.782580,-9548.656652,-5975.544884
22015.337239,7031.956449,-10658.965565,-689.485948
22015.337573,10584.944971,-7698.141797,0.000000
22015.337907,9474.636058,-6143.709319,0.000000
22015.338241,10066.800811,-8660.409521,3600.648841
22015.338575,12657.521608,-8882.471304,2068.457845
22015.338909,13915.871710,-8142.265362,3294.210641
22015.339243,12361.439231,-9252.574275,2604.724693
22015.339577,10584.944971,-11843.295072,2374.896044
22015.339912,9400.615463,-9844.739029,1608.800546
22015.340246,9474.636058,-8290.306550,842.705048
22015.340580,11177.109724,-4811.338623,0.000000
22015.340914,13027.624579,-7994.224174,2068.457845
22015.341248,14137.933492,-9474.636058,1762.019645
22015.341582,10584.944971,-5403.503377,-2451.505594
22015.341916,11177.109724,-11547.212695,-4213.525239
22015.342250,9696.697840,-12213.398043,-3294.210641
22015.342584,7105.977043,-13397.727550,-2528.115143
22015.342918,9030.512492,-10881.027347,-1608.800546
22015.343252,10066.800811,-9548.656652,1838.629195
22015.343587,14211.954086,-8068.244768,5515.887586
22015.343921,16876.695478,-6365.771101,9422.974625
22015.344255,15026.180623,-4367.215058,5515.887586
22015.344589,11843.295072,-7476.080014,6358.592633
22015.344923,11473.192101,-9474.636058,-2681.334243
22015.345257,8734.430116,-10214.842000,-2374.896044
22015.345591,9104.533087,-8438.347739,-4979.620737
22015.345925,9326.594869,-11103.089130,-4519.963438
22015.346259,9474.636058,-10732.986159,-4290.134789
22015.346593,10510.924376,-14211.954086,-689.485948
22015.346928,8586.388927,-10584.944971,536.266849
22015.347262,10881.027347,-8216.285956,536.266849
22015.347596,15322.262999,-9474.636058,4826.401637
22015.347930,17098.757260,-10066.800811,10955.165621
22015.348264,12953.603985,-4811.338623,6741.640382
22015.348598,9474.636058,-7772.162391,2451.505594
22015.348932,7698.141797,-10362.883188,2681.334243
22015.349266,7031.956449,-8734.430116,-76.609550
22015.349600,7624.121203,-6217.729913,-2528.115143
22015.349934,5033.400406,-7179.997637,-7277.907231
22015.350269,2516.700203,-10066.800811,-9499.584175
22015.350603,3849.070898,-11325.150913,-3677.258390
22015.350937,8882.471304,-10732.986159,1762.019645
22015.351271,13545.768739,-7179.997637,2451.505594
22015.351605,15692.365970,-10288.862594,9422.974625
22015.351939,16506.592507,-9326.594869,8503.660028
22015.352273,11029.068536,-7402.059420,1991.848295
22015.352607,10584.944971,-12287.418637,1378.971896
22015.352941,9474.636058,-8586.388927,-536.266849
22015.353275,10362.883188,-8808.450710,2451.505594
22015.353609,8956.491898,-6439.791695,-612.876398
22015.353944,2886.803174,-11843.295072,-6205.373534
22015.354278,4737.318029,-11029.068536,-3677.258390
22015.354612,8956.491898,-8882.471304,-76.609550
22015.354946,11769.274478,-6883.915261,1225.752797
22015.355280,10066.800811,-4811.338623,2451.505594
22015.355614,7920.203579,-11621.233289,1378.971896
22015.355948,9548.656652,-10510.924376,1532.190996
22015.356282,10066.800811,-8734.430116,3294.210641
22015.356616,9770.718434,-9622.677246,842.705048
22015.356950,4737.318029,-8660.409521,-2451.505594
22015.357285,3552.988522,-12435.459826,-689.485948
22015.357619,4663.297435,-11843.295072,-1302.362347
22015.357953,3552.988522,-4811.338623,0.000000
22015.358287,8808.450710,-8290.306550,4826.401637
22015.358621,5329.482782,-7179.997637,3600.648841
22015.358955,6957.935855,-8882.471304,2604.724693
22015.359289,6439.791695,-7550.100608,2068.457845
22015.359623,3330.926739,-9474.636058,153.219100
22015.359957,5329.482782,-6291.750507,2451.505594
22015.360291,6143.709319,-12731.542202,-76.609550
22015.360626,2516.700203,-9548.656652,-2451.505594
22015.360960,-2960.823768,-9548.656652,-1838.629195
22015.361294,4071.132681,-13027.624579,-689.485948
22015.361628,1332.370696,-10140.821405,1225.752797
22015.361962,1110.308913,-7920.203579,306.438199
22015.362296,3849.070898,-4737.318029,383.047749
22015.362630,3849.070898,-8586.388927,1302.362347
22015.362964,7698.141797,-7179.997637,6128.763984
22015.363298,8512.368333,-7624.121203,4213.525239
22015.363632,9178.553681,-7624.121203,2757.943793
22015.363966,7994.224174,-10658.965565,-1532.190996
22015.364301,5847.626942,-14804.118840,-1455.581446
22015.364635,6439.791695,-9178.553681,0.000000
22015.364969,1702.473667,-12731.542202,-1302.362347
22015.365303,4663.297435,-9474.636058,-2834.553343
22015.365637,-1628.453072,-10436.903782,-1225.752797
22015.365971,4071.132681,-8808.450710,2374.896044
22015.366304,-1702.473667,-11399.171507,3524.039291
22015.366638,888.247130,-5329.482782,995.924147
22015.366972,2664.741391,-7179.997637,4903.011187
22015.367306,2960.823768,-3034.844362,4903.011187
22015.367639,2886.803174,-4811.338623,0.000000
22015.367973,6735.874072,-4737.318029,-76.609550
22015.368307,1184.329507,-8364.327145,-2757.943793
22015.368641,296.082377,-9992.780217,-2451.505594
22015.368974,-1998.556043,-10658.965565,-5132.839837
22015.369308,-1776.494261,-12509.480420,-5132.839837
22015.369642,-74.020594,-9474.636058,-2987.772442
22015.369976,0.000000,-11325.150913,-1838.629195
22015.370309,3775.050304,-14211.954086,5209.449386
22015.370643,4071.132681,-8142.265362,4826.401637
22015.370977,6439.791695,-9326.594869,6358.592633
22015.371310,2960.823768,-5403.503377,4903.011187
22015.371644,6957.935855,-8290.306550,4826.401637
22015.371978,2664.741391,-6439.791695,919.314598
22015.372312,2886.803174,-9474.636058,-766.095498
22015.372645,2664.741391,-8068.244768,-842.705048
22015.372979,-814.226536,-11103.089130,-842.705048
22015.373313,-1258.350101,-11843.295072,-5286.058936
22015.373647,-3256.906145,-10066.800811,-3140.991542
22015.373980,-3775.050304,-14211.954086,-6818.249932
22015.374314,-3552.988522,-10140.821405,-3370.820191
22015.374648,-1332.370696,-11843.295072,1762.019645
22015.374982,3182.885551,-8290.306550,3907.087040
22015.375315,2590.720797,-8068.244768,7660.954980
22015.375649,1554.432478,-5699.585753,4979.620737
22015.375983,3775.050304,-5403.503377,4213.525239
22015.376316,0.000000,-7179.997637,2451.505594
22015.376650,6439.791695,-4737.318029,-383.047749
22015.376984,-3552.988522,-11325.150913,-919.314598
22015.377318,0.000000,-7772.162391,-1225.752797
22015.377651,-4367.215058,-15248.242405,-2528.115143
22015.377985,-74.020594,-11547.212695,-3753.867940
22015.378319,-2664.741391,-12213.398043,-3524.039291
22015.378653,-4071.132681,-17024.736666,0.000000
22015.378986,2960.823768,-4959.379811,4443.353888
22015.379320,-5921.647536,-9548.656652,4903.011187
22015.379654,3478.967927,-5847.626942,4519.963438
22015.379988,-370.102971,-6217.729913,5745.716235
22015.380321,3034.844362,-4589.276840,4213.525239
22015.380655,2146.597232,-4811.338623,2528.115143
22015.380989,-2664.741391,-6291.750507,-3524.039291
22015.381322,0.000000,-9918.759623,-2528.115143
22015.381656,-3627.009116,-10140.821405,-7124.688131
22015.381990,0.000000,-10436.903782,-4443.353888
22015.382324,-1480.411884,-15396.283594,-2604.724693
22015.382657,74.020594,-11325.150913,-3064.381992
22015.382991,-592.164754,-10881.027347,1838.629195
22015.383325,2294.638420,-8956.491898,3140.991542
22015.383659,4219.173869,-10066.800811,6052.154434
22015.383992,5921.647536,-5403.503377,6741.640382
22015.384326,8216.285956,-9474.636058,7277.907231
22015.384660,888.247130,-7105.977043,3294.210641
22015.384993,0.000000,-4811.338623,0.000000
22015.385327,-2590.720797,-9474.636058,-3753.867940
22015.385661,0.000000,-9844.739029,-2987.772442
22015.385995,-1184.329507,-7920.203579,-3907.087040
22015.386328,-3108.864956,-13545.768739,-4903.011187
22015.386662,-2294.638420,-12065.356855,-6128.763984
22015.386996,1702.473667,-13323.706956,4826.401637
22015.387330,7031.956449,-9474.636058,3600.648841
22015.387663,3552.988522,-9548.656652,7967.393179
22015.387997,0.000000,-6587.832884,5745.716235
22015.388331,1702.473667,-7105.977043,459.657299
22015.388665,2146.597232,-10288.862594,3294.210641
22015.388998,-888.247130,-6069.688724,-1455.581446
22015.389332,-1258.350101,-6513.812290,-3294.210641
22015.389666,-4219.173869,-10510.924376,-4366.744339
22015.389999,-962.267725,-7994.224174,-4366.744339
22015.390333,-3182.885551,-6587.832884,-5439.278036
22015.390667,1184.329507,-11917.315666,2757.943793
22015.391001,5107.421000,-10066.800811,3600.648841
22015.391334,2294.638420,-10140.821405,0.000000
22015.391668,4293.194464,-10288.862594,4060.306139
22015.392002,2664.741391,-10436.903782,3753.867940
22015.392336,3775.050304,-8586.388927,3294.210641
22015.392669,2146.597232,-11029.068536,2145.067394
22015.393003,-370.102971,-8290.306550,-2528.115143
22015.393337,-4441.235652,-10140.821405,-1608.800546
22015.393671,-4145.153275,-6735.874072,-2528.115143
22015.394004,-2072.576638,-7476.080014,-3064.381992
22015.394338,-3404.947333,-11029.068536,0.000000
22015.394672,1184.329507,-9030.512492,3294.210641
22015.395005,1110.308913,-7105.977043,383.047749
22015.395339,2368.659014,-5699.585753,2834.553343
22015.395673,296.082377,-8364.327145,2451.505594
22015.396007,2960.823768,-10436.903782,3830.477490
22015.396340,0.000000,-9696.697840,1455.581446
22015.396674,0.000000,-10288.862594,-1455.581446
22015.397008,-4737.318029,-11621.233289,-1532.190996
22015.397342,-3034.844362,-8290.306550,-3140.991542
22015.397675,-5329.482782,-9548.656652,-919.314598
22015.398009,-1850.514855,-6365.771101,-4903.011187
22015.398343,-1776.494261,-8956.491898,1225.752797
22015.398677,-2368.659014,-8364.327145,2528.115143
22015.399010,4663.297435,-7105.977043,4826.401637
22015.399344,1332.370696,-8882.471304,4213.525239
22015.399678,4145.153275,-8956.491898,4136.915689
22015.400011,3775.050304,-7920.203579,1991.848295
22015.400345,296.082377,-10807.006753,1072.533697
22015.400679,3256.906145,-8956.491898,-76.609550
22015.401013,-2368.659014,-11917.315666,-3677.258390
22015.401346,-2072.576638,-11695.253884,-1915.238745
22015.401680,-3034.844362,-9474.636058,-4366.744339
22015.402014,-2664.741391,-8068.244768,-3294.210641
22015.402348,-74.020594,-10362.883188,0.000000
22015.402681,-1036.288319,-6439.791695,1532.190996
22015.403015,2886.803174,-6217.729913,1838.629195
22015.403349,4959.379811,-8142.265362,5669.106685
22015.403683,5255.462188,-8290.306550,4213.525239
22015.404016,4737.318029,-9252.574275,5745.716235
22015.404350,4663.297435,-13027.624579,2374.896044
22015.404684,592.164754,-7476.080014,-2145.067394
22015.405017,0.000000,-11399.171507,0.000000
22015.405351,-1702.473667,-11695.253884,-4596.572988
22015.405685,-1406.391290,-9548.656652,-2451.505594
22015.406019,-4145.153275,-11843.295072,-3140.991542
22015.406352,296.082377,-8882.471304,0.000000
22015.406686,-3552.988522,-7772.162391,0.000000
22015.407020,1924.535449,-9474.636058,5745.716235
22015.407354,1702.473667,-6143.709319,3370.820191
22015.407687,0.000000,-5995.668130,2451.505594
22015.408021,2664.741391,-10658.965565,4826.401637
22015.408355,2072.576638,-5107.421000,4290.134789
22015.408689,3627.009116,-7105.977043,1991.848295
22015.409022,1184.329507,-9104.533087,459.657299
22015.409356,-4441.235652,-11325.150913,-5975.544884
22015.409690,-2442.679609,-7476.080014,-6128.763984
22015.410023,-4219.173869,-13027.624579,-4443.353888
22015.410357,-1702.473667,-10881.027347,-3140.991542
22015.410691,-4071.132681,-10881.027347,-689.485948
22015.411025,-222.061783,-10658.965565,2987.772442
22015.411358,2590.720797,-6143.709319,3447.429741
22015.411692,888.247130,-8660.409521,7890.783629
22015.412026,4663.297435,-8882.471304,4673.182538
22015.412360,1184.329507,-4811.338623,5515.887586
22015.412693,3849.070898,-6587.832884,4519.963438
22015.413027,2368.659014,-8068.244768,1532.190996
22015.413361,1776.494261,-7994.224174,-3447.429741
22015.413695,-2590.720797,-12435.459826,-6205.373534
22015.414028,-4219.173869,-13619.789333,-5898.935335
22015.414362,-3627.009116,-10140.821405,-9193.145976
22015.414696,-3404.947333,-14211.954086,-689.485948
22015.415029,-296.082377,-10881.027347,2068.457845
22015.415363,3330.926739,-9178.553681,4366.744339
22015.415697,4663.297435,-7994.224174,7277.907231
22015.416031,2664.741391,-7920.203579,7967.393179
22015.416364,4293.194464,-4071.132681,8273.831378
22015.416698,518.144159,-6809.894666,4213.525239
22015.417032,592.164754,-3034.844362,0.000000
22015.417366,-3182.885551,-7179.997637,-6741.640382
22015.417699,-74.020594,-10658.965565,-5592.497135
22015.418033,-3034.844362,-12361.439231,-5822.325785
22015.418367,-3478.967927,-10732.986159,-6128.763984
22015.418701,-3256.906145,-11917.315666,-5975.544884
22015.419034,-1998.556043,-11843.295072,-995.924147
22015.419368,2886.803174,-8290.306550,1302.362347
22015.419702,3478.967927,-7920.203579,5286.058936
22015.420035,7920.203579,-7994.224174,9729.412825
22015.420369,2960.823768,-6587.832884,6435.202183
22015.420703,2294.638420,-11251.130318,4826.401637
22015.421037,0.000000,-5403.503377,0.000000
22015.421370,-370.102971,-8882.471304,-1302.362347
22015.421704,-74.020594,-9474.636058,-3064.381992
22015.422038,-1924.535449,-9400.615463,-2451.505594
22015.422372,-1258.350101,-9992.780217,-3217.601092
22015.422705,-1998.556043,-10955.047942,-2221.676944
22015.423039,-1998.556043,-7846.182985,-3524.039291
22015.423373,2886.803174,-14211.954086,2987.772442
22015.423707,148.041188,-7772.162391,4290.134789
22015.424040,0.000000,-7179.997637,4443.353888
22015.424374,2294.638420,-9474.636058,3294.210641
22015.424708,518.144159,-6883.915261,3983.696590
22015.425041,3182.885551,-6513.812290,1608.800546
22015.425375,-1628.453072,-9548.656652,0.000000
22015.425709,-3627.009116,-10066.800811,-2528.115143
22015.426043,-2886.803174,-5995.668130,-4903.011187
22015.426376,-2294.638420,-10955.047942,-2528.115143
22015.426710,-296.082377,-9400.615463,-1225.752797
22015.427044,2072.576638,-7550.100608,383.047749
22015.427378,1702.473667,-10881.027347,2757.943793
22015.427711,2294.638420,-8808.450710,536.266849
22015.428045,0.000000,-11325.150913,4290.134789
22015.428379,3330.926739,-13027.624579,2374.896044
22015.428713,1184.329507,-5403.503377,1991.848295
22015.429046,740.205942,-11325.150913,1762.019645
22015.429380,-962.267725,-9548.656652,-1838.629195
22015.429714,-4367.215058,-9474.636058,-229.828649
22015.430047,-740.205942,-5921.647536,-153.219100
22015.430381,-962.267725,-7550.100608,1149.143247
22015.430715,-2368.659014,-4811.338623,-3677.258390
22015.431049,3182.885551,-11843.295072,-76.609550
22015.431382,-74.020594,-8882.471304,-1915.238745
22015.431716,1184.329507,-9548.656652,612.876398
22015.432050,2294.638420,-13915.871710,2068.457845
22015.432384,2368.659014,-10140.821405,612.876398
22015.432717,2442.679609,-10732.986159,2298.286494
22015.433051,1628.453072,-10214.842000,-306.438199
22015.433385,2146.597232,-10140.821405,612.876398
22015.433719,296.082377,-9548.656652,842.705048
22015.434052,3478.967927,-9474.636058,-76.609550
22015.434386,-2368.659014,-7772.162391,1838.629195
22015.434720,0.000000,-8364.327145,3447.429741
22015.435053,2294.638420,-8290.306550,536.266849
22015.435387,4145.153275,-7550.100608,3294.210641
22015.435721,2442.679609,-10955.047942,4443.353888
22015.436055,2368.659014,-7920.203579,1532.190996
22015.436388,2738.761985,-9844.739029,995.924147
22015.436722,-74.020594,-8586.388927,-3140.991542
22015.437056,0.000000,-9844.739029,-3370.820191
22015.437390,-5329.482782,-11029.068536,-3064.381992
22015.437723,814.226536,-11251.130318,-689.485948
22015.438057,-3034.844362,-7179.997637,-3677.258390
22015.438391,0.000000,-9474.636058,-76.609550
22015.438725,-1258.350101,-6587.832884,1838.629195
22015.439058,-296.082377,-7254.018232,842.705048
22015.439392,3034.844362,-8586.388927,4519.963438
22015.439726,814.226536,-6957.935855,2987.772442
22015.440059,1480.411884,-10214.842000,2145.067394
22015.440393,3108.864956,-6291.750507,3370.820191
22015.440727,2442.679609,-7846.182985,1378.971896
22015.441061,0.000000,-9548.656652,-1838.629195
22015.441394,0.000000,-11917.315666,-2911.162892
22015.441728,-3034.844362,-16284.530724,-4673.182538
22015.442062,-6513.812290,-10066.800811,-7737.564530
22015.442396,-3552.988522,-11325.150913,-1838.629195
22015.442729,-4737.318029,-8512.368333,-2145.067394
22015.443063,-666.185348,-7476.080014,3600.648841
22015.443397,2516.700203,-5995.668130,7967.393179
22015.443731,4663.297435,-5181.441594,6665.030833
22015.444064,7328.038826,-6957.935855,9729.412825
22015.444398,1850.514855,-4811.338623,5745.716235
22015.444732,4071.132681,-7994.224174,-2068.457845
22015.445065,-2368.659014,-7179.997637,-3370.820191
22015.445399,-3552.988522,-13101.645173,-2221.676944
22015.445733,-1554.432478,-11251.130318,-3217.601092
22015.446067,-2664.741391,-11991.336260,-6052.154434
22015.446400,-3404.947333,-12657.521608,-4213.525239
22015.446734,-2294.638420,-10510.924376,-4060.306139
22015.447068,148.041188,-11695.253884,1608.800546
22015.447402,2960.823768,-7772.162391,7584.345430
22015.447735,2960.823768,-4811.338623,4903.011187
22015.448069,5921.647536,-6661.853478,9729.412825
22015.448403,4663.297435,-7179.997637,4366.744339
22015.448737,5255.462188,-5477.523971,3294.210641
22015.449070,3478.967927,-9178.553681,-76.609550
22015.449404,1406.391290,-11769.274478,-5669.106685
22015.449738,-6513.812290,-16062.468941,-5975.544884
22015.450071,-2442.679609,-9474.636058,-5286.058936
22015.450405,1110.308913,-13027.624579,-2528.115143
22015.450739,-3552.988522,-10732.986159,1532.190996
22015.451073,-2960.823768,-7179.997637,-1225.752797
22015.451406,-1258.350101,-11547.212695,2374.896044
22015.451740,0.000000,-3627.009116,1225.752797
22015.452074,2590.720797,-7031.956449,4903.011187
22015.452408,2738.761985,-5181.441594,4596.572988
22015.452741,1998.556043,-6883.915261,2298.286494
22015.453075,1332.370696,-6291.750507,383.047749
22015.453409,2516.700203,-8512.368333,-3600.648841
22015.453743,592.164754,-11399.171507,-76.609550
22015.454076,-3775.050304,-11547.212695,-4979.620737
22015.454410,-6809.894666,-9548.656652,-7048.078582
22015.454744,-3552.988522,-10140.821405,-4903.011187
22015.455077,-1924.535449,-14359.995275,0.000000
22015.455411,3108.864956,-7254.018232,2757.943793
22015.455745,148.041188,-10214.842000,5056.230287
22015.456079,-1998.556043,-10214.842000,4979.620737
22015.456412,3478.967927,-1406.391290,2757.943793
22015.456746,-1258.350101,-9326.594869,4826.401637
22015.457080,4737.318029,-3923.091493,4519.963438
22015.457414,-888.247130,-7105.977043,766.095498
22015.457747,-370.102971,-9474.636058,-1302.362347
22015.458081,-1258.350101,-9622.677246,-4443.353888
22015.458415,-4145.153275,-10732.986159,-4903.011187
22015.458749,-2590.720797,-13619.789333,-3753.867940
22015.459082,-1850.514855,-9770.718434,-1685.410096
22015.459416,-2368.659014,-7179.997637,-1225.752797
22015.459750,1554.432478,-10732.986159,2681.334243
22015.460083,4663.297435,-5107.421000,2757.943793
22015.460417,2960.823768,-12805.562797,5209.449386
22015.460751,6735.874072,-4737.318029,4826.401637
22015.461085,-74.020594,-11843.295072,-536.266849
22015.461418,0.000000,-5551.544565,-76.609550
22015.461752,4663.297435,-11843.295072,-76.609550
22015.462086,2590.720797,-8290.306550,-612.876398
22015.462420,4959.379811,-8290.306550,1149.143247
22015.462753,-2368.659014,-12213.398043,-2757.943793
22015.463087,-2146.597232,-11251.130318,-4366.744339
22015.463421,-962.267725,-8734.430116,-4443.353888
22015.463755,1776.494261,-10732.986159,612.876398
22015.464088,3775.050304,-7772.162391,0.000000
22015.464422,5033.400406,-10955.047942,6052.154434
22015.464756,1110.308913,-8882.471304,0.000000
22015.465089,3849.070898,-5403.503377,2451.505594
22015.465423,-1998.556043,-13471.748144,-76.609550
22015.465757,1776.494261,-6809.894666,1455.581446
22015.466091,-5847.626942,-10436.903782,-3064.381992
22015.466424,-2886.803174,-7179.997637,-3217.601092
22015.466758,888.247130,-5773.606348,-919.314598
22015.467092,-2960.823768,-9548.656652,1838.629195
22015.467426,3478.967927,-9474.636058,4826.401637
22015.467759,-3627.009116,-8586.388927,-229.828649
22015.468093,1332.370696,-7179.997637,-2451.505594
22015.468427,0.000000,-13323.706956,612.876398
22015.468761,6439.791695,-6957.935855,3524.039291
22015.469094,-2368.659014,-13027.624579,1532.190996
22015.469428,1036.288319,-8438.347739,766.095498
22015.469761,-4219.173869,-11843.295072,-1915.238745
22015.470095,-3552.988522,-12139.377449,-76.609550
22015.470428,518.144159,-4219.173869,0.000000
22015.470762,-5255.462188,-11621.233289,-76.609550
22015.471095,1480.411884,-3034.844362,3064.381992
22015.471429,-1036.288319,-10066.800811,6052.154434
22015.471762,2294.638420,-6587.832884,0.000000
22015.472096,0.000000,-7476.080014,0.000000
22015.472430,-74.020594,-11251.130318,536.266849
22015.472763,0.000000,-4219.173869,612.876398
22015.473097,1110.308913,-13027.624579,842.705048
22015.473430,1850.514855,-10584.944971,-1302.362347
22015.473764,-1628.453072,-12213.398043,-2145.067394
22015.474097,-2146.597232,-9622.677246,-2604.724693
22015.474431,-2442.679609,-9178.553681,-2528.115143
22015.474764,962.267725,-11547.212695,2374.896044
22015.475098,1702.473667,-6513.812290,995.924147
22015.475431,3552.988522,-7772.162391,5209.449386
22015.475765,7402.059420,-4663.297435,6128.763984
22015.476098,5255.462188,-6365.771101,2451.505594
22015.476432,3775.050304,-9474.636058,1149.143247
22015.476765,888.247130,-9400.615463,-689.485948
22015.477099,-740.205942,-14063.912898,-3447.429741
22015.477432,1184.329507,-9548.656652,-1838.629195
22015.477766,-74.020594,-14211.954086,-3140.991542
22015.478100,296.082377,-8290.306550,-2528.115143
22015.478433,-3256.906145,-9548.656652,0.000000
22015.478767,2146.597232,-9474.636058,-76.609550
22015.479100,-2072.576638,-10732.986159,2604.724693
22015.479434,1110.308913,-7328.038826,2221.676944
22015.479767,2516.700203,-6365.771101,3370.820191
22015.480101,1628.453072,-4737.318029,3907.087040
22015.480434,5329.482782,-8438.347739,3217.601092
22015.480768,7031.956449,-8290.306550,2374.896044
22015.481101,0.000000,-10140.821405,2145.067394
22015.481435,0.000000,-11621.233289,-1608.800546
22015.481768,-2442.679609,-11843.295072,-4213.525239
22015.482102,-7031.956449,-14211.954086,-6205.373534
22015.482435,-3478.967927,-8956.491898,-1072.533697
22015.482769,-2442.679609,-7550.100608,-2987.772442
22015.483102,-740.205942,-13989.892304,2604.724693
22015.483436,2738.761985,-3256.906145,4979.620737
22015.483769,0.000000,-8364.327145,2451.505594
22015.484103,3552.988522,-5699.585753,9422.974625
22015.484437,4663.297435,-3404.947333,2221.676944
22015.484770,1776.494261,-7772.162391,1225.752797
22015.485104,3997.112087,-8290.306550,2374.896044
22015.485437,-2368.659014,-11917.315666,-2451.505594
22015.485771,-2738.761985,-11103.089130,-4749.792088
22015.486104,-3034.844362,-13767.830521,-2987.772442
22015.486438,-4293.194464,-11251.130318,-4673.182538
22015.486771,-4737.318029,-10732.986159,-1991.848295
22015.487105,-5403.503377,-9622.677246,-2068.457845
22015.487438,-222.061783,-6883.915261,2451.505594
22015.487772,0.000000,-7328.038826,7354.516781
22015.488105,5847.626942,-5255.462188,9729.412825
22015.488439,3478.967927,-6735.874072,5515.887586
22015.488772,4145.153275,-5551.544565,6128.763984
22015.489106,4071.132681,-7105.977043,1762.019645
22015.489439,-1776.494261,-8364.327145,-2145.067394
22015.489773,1184.329507,-9474.636058,-5975.544884
22015.490107,-6513.812290,-14878.139434,-7814.174080
22015.490440,-962.267725,-13249.686362,-7124.688131
22015.490774,-2442.679609,-15396.283594,-3140.991542
22015.491107,-3256.906145,-11029.068536,-1149.143247
22015.491441,3478.967927,-7698.141797,-1302.362347
22015.491774,1184.329507,-9844.739029,7967.393179
22015.492108,7105.977043,-4367.215058,9576.193725
22015.492441,8216.285956,-4737.318029,7584.345430
22015.492775,5477.523971,-8808.450710,7814.174080
22015.493108,4367.215058,-6365.771101,2451.505594
22015.493442,-1258.350101,-11473.192101,-842.705048
22015.493775,370.102971,-8586.388927,-4519.963438
22015.494109,-2960.823768,-14582.057057,-4366.744339
22015.494442,-2960.823768,-8364.327145,-7354.516781
22015.494776,-5329.482782,-13841.851115,-4060.306139
22015.495109,-2442.679609,-9770.718434,-3600.648841
22015.495443,-2146.597232,-9992.780217,-1762.019645
22015.495777,1110.308913,-9178.553681,4213.525239
22015.496110,3552.988522,-5773.606348,5975.544884
22015.496444,518.144159,-7994.224174,6052.154434
22015.496777,3330.926739,-5699.585753,4366.744339
22015.497111,2886.803174,-8290.306550,2374.896044
22015.497444,5329.482782,-7476.080014,7431.126331
22015.497778,1702.473667,-9474.636058,-76.609550
22015.498111,-74.020594,-11473.192101,-4443.353888
22015.498445,-4737.318029,-9548.656652,-6128.763984
22015.498778,-3627.009116,-15100.201217,-6435.202183
22015.499112,-1184.329507,-9548.656652,-2604.724693
22015.499445,-1850.514855,-13841.851115,383.047749
22015.499779,1036.288319,-8290.306550,2145.067394
22015.500112,0.000000,-5995.668130,3370.820191
22015.500446,3330.926739,-9474.636058,4826.401637
22015.500779,5551.544565,-3997.112087,5209.449386
22015.501113,-4737.318029,-9548.656652,5362.668486
22015.501447,1184.329507,-5699.585753,1455.581446
22015.501780,-2146.597232,-9252.574275,1225.752797
22015.502114,-1850.514855,-8586.388927,-2987.772442
22015.502447,-1110.308913,-7105.977043,-1455.581446
22015.502781,-3478.967927,-10362.883188,-4213.525239
22015.503114,-666.185348,-8068.244768,-4213.525239
22015.503448,-3923.091493,-11251.130318,-5592.497135
22015.503781,888.247130,-12361.439231,-1455.581446
22015.504115,592.164754,-8956.491898,1072.533697
22015.504448,2738.761985,-13915.871710,4519.963438
22015.504782,5847.626942,-5403.503377,2911.162892
22015.505115,2368.659014,-10881.027347,8580.269578
22015.505449,6439.791695,-5921.647536,2374.896044
22015.505782,-962.267725,-8660.409521,1532.190996
22015.506116,0.000000,-7772.162391,2987.772442
22015.506449,-1184.329507,-8586.388927,-1838.629195
22015.506783,-1110.308913,-11325.150913,-2681.334243
22015.507116,-296.082377,-8068.244768,0.000000
22015.507450,-5403.503377,-13027.624579,-2221.676944
22015.507784,1406.391290,-3330.926739,0.000000
22015.508117,-2220.617826,-9992.780217,1149.143247
22015.508451,3478.967927,-10510.924376,2068.457845
22015.508784,2294.638420,-8586.388927,3140.991542
22015.509118,1702.473667,-10362.883188,2068.457845
22015.509451,4367.215058,-7846.182985,1455.581446
22015.509785,-3552.988522,-13101.645173,0.000000
22015.510118,-1480.411884,-9030.512492,-1149.143247
22015.510452,-4145.153275,-9548.656652,-2451.505594
22015.510785,-74.020594,-8068.244768,0.000000
22015.511119,2294.638420,-7105.977043,-2528.115143
22015.511452,592.164754,-9548.656652,1838.629195
22015.511786,2368.659014,-6587.832884,5056.230287
22015.512119,1480.411884,-7772.162391,2681.334243
22015.512453,2590.720797,-9844.739029,2068.457845
22015.512786,2442.679609,-9178.553681,1149.143247
22015.513120,1776.494261,-9252.574275,536.266849
22015.513454,-74.020594,-12435.459826,-76.609550
22015.513787,0.000000,-8660.409521,-1532.190996
22015.514121,-2442.679609,-11843.295072,-2528.115143
22015.514454,-5921.647536,-10140.821405,0.000000
22015.514788,-1998.556043,-8290.306550,-1302.362347
22015.515121,-3256.906145,-9474.636058,-1838.629195
22015.515455,0.000000,-6883.915261,1838.629195
22015.515788,1110.308913,-5403.503377,2757.943793
22015.516122,3256.906145,-6439.791695,5362.668486
22015.516455,4589.276840,-4737.318029,4519.963438
22015.516789,5921.647536,-8882.471304,4213.525239
22015.517122,-814.226536,-8660.409521,-3064.381992
22015.517456,1184.329507,-15026.180623,-76.609550
22015.517789,1998.556043,-10362.883188,-4903.011187
22015.518123,-74.020594,-13397.727550,-1838.629195
22015.518456,-814.226536,-11843.295072,-2911.162892
22015.518790,-1332.370696,-11325.150913,0.000000
22015.519124,-3478.967927,-8068.244768,-1302.362347
22015.519457,74.020594,-6143.709319,0.000000
22015.519791,2516.700203,-8142.265362,6358.592633
22015.520124,3849.070898,-3849.070898,6358.592633
22015.520458,4441.235652,-4663.297435,4213.525239
22015.520791,2294.638420,-10510.924376,2528.115143
22015.521125,3478.967927,-6217.729913,842.705048
22015.521458,0.000000,-12213.398043,2068.457845
22015.521792,4663.297435,-9474.636058,-4366.744339
22015.522125,-6809.894666,-16062.468941,-4596.572988
22015.522459,-2960.823768,-9548.656652,-5822.325785
22015.522792,-2738.761985,-12435.459826,-3983.696590
22015.523126,-3108.864956,-12509.480420,-3370.820191
22015.523459,74.020594,-7772.162391,3983.696590
22015.523793,-2294.638420,-7550.100608,4443.353888
22015.524126,4145.153275,-2442.679609,4903.011187
22015.524460,3478.967927,-5921.647536,7277.907231
22015.524794,4959.379811,-7994.224174,3600.648841
22015.525127,3849.070898,-3627.009116,4903.011187
22015.525461,2294.638420,-13619.789333,-76.609550
22015.525794,0.000000,-8660.409521,-4903.011187
22015.526128,-4663.297435,-13545.768739,-6894.859482
22015.526461,-5477.523971,-15174.221811,-7431.126331
22015.526795,-2368.659014,-11547.212695,-2834.553343
22015.527128,-2368.659014,-11991.336260,689.485948
22015.527462,1702.473667,-9474.636058,2374.896044
22015.527795,-222.061783,-7772.162391,5209.449386
22015.528129,0.000000,-1554.432478,6128.763984
22015.528462,4441.235652,-5921.647536,8350.440928
22015.528796,2368.659014,-6217.729913,5439.278036
22015.529129,3552.988522,-4441.235652,2987.772442
22015.529463,0.000000,-8808.450710,-2604.724693
22015.529796,1628.453072,-12953.603985,-1915.238745
22015.530130,-2738.761985,-11695.253884,-4060.306139
22015.530463,-74.020594,-7698.141797,-8656.879127
22015.530797,-4737.318029,-12509.480420,-4903.011187
22015.531131,-2812.782580,-14804.118840,-2528.115143
22015.531464,-74.020594,-8438.347739,-4290.134789
22015.531798,2960.823768,-11769.274478,7890.783629
22015.532131,5551.544565,-6143.709319,6588.421283
22015.532465,4071.132681,-5921.647536,7737.564530
22015.532798,2738.761985,-6069.688724,4979.620737
22015.533132,3478.967927,-6513.812290,3600.648841
22015.533465,1850.514855,-7179.997637,1455.581446
22015.533799,2368.659014,-8660.409521,536.266849
22015.534132,-1258.350101,-9474.636058,-3217.601092
22015.534466,-4145.153275,-10732.986159,-5515.887586
22015.534799,-2960.823768,-11917.315666,-3983.696590
22015.535133,-1258.350101,-13619.789333,-4366.744339
22015.535466,-1554.432478,-10658.965565,-3753.867940
22015.535800,-4145.153275,-11325.150913,0.000000
22015.536133,962.267725,-7772.162391,2068.457845
22015.536467,2960.823768,-7179.997637,7507.735880
22015.536801,2368.659014,-6883.915261,8427.050478
22015.537134,2220.617826,-4219.173869,6128.763984
22015.537468,3775.050304,-7402.059420,6358.592633
22015.537801,1110.308913,-6291.750507,2604.724693
22015.538135,-74.020594,-7698.141797,-4979.620737
22015.538468,0.000000,-10140.821405,-3370.820191
22015.538802,-4145.153275,-13101.645173,-2451.505594
22015.539135,-2220.617826,-11695.253884,-4749.792088
22015.539469,-1258.350101,-12287.418637,-3140.991542
22015.539802,-2368.659014,-11991.336260,-2451.505594
22015.540136,1036.288319,-9326.594869,612.876398
22015.540469,1702.473667,-6957.935855,3600.648841
22015.540803,2368.659014,-7179.997637,7431.126331
22015.541136,1480.411884,-3627.009116,4903.011187
22015.541470,2960.823768,-8956.491898,7890.783629
22015.541803,1110.308913,-6513.812290,0.000000
22015.542137,-2146.597232,-8216.285956,-1915.238745
22015.542471,-1850.514855,-9474.636058,-4979.620737
22015.542804,-1332.370696,-6883.915261,-4979.620737
22015.543138,-2294.638420,-12805.562797,-4290.134789
22015.543471,-2368.659014,-11917.315666,-3677.258390
22015.543805,1702.473667,-11547.212695,-76.609550
22015.544138,0.000000,-11917.315666,2528.115143
22015.544472,2368.659014,-9844.739029,4519.963438
22015.544805,2294.638420,-7550.100608,3677.258390
22015.545139,2368.659014,-5995.668130,4903.011187
22015.545472,5033.400406,-7179.997637,7890.783629
22015.545806,2146.597232,-7254.018232,3447.429741
22015.546139,1258.350101,-6217.729913,-919.314598
22015.546473,-2072.576638,-9992.780217,766.095498
22015.546806,-2738.761985,-6291.750507,-6741.640382
22015.547140,-4145.153275,-8364.327145,-5286.058936
22015.547473,-3627.009116,-12287.418637,-6818.249932
22015.547807,-370.102971,-9548.656652,-4290.134789
22015.548140,0.000000,-7179.997637,0.000000
22015.548474,5107.421000,-10732.986159,3064.381992
22015.548808,2590.720797,-10955.047942,3600.648841
22015.549141,5477.523971,-9400.615463,4749.792088
22015.549475,2368.659014,-10288.862594,4979.620737
22015.549808,5847.626942,-7550.100608,1149.143247
22015.550142,-518.144159,-11547.212695,842.705048
22015.550475,518.144159,-8734.430116,-995.924147
22015.550809,-1776.494261,-10362.883188,1915.238745
22015.551142,-2442.679609,-9178.553681,-76.609550
22015.551476,-666.185348,-6957.935855,-1762.019645
22015.551809,-5625.565159,-5995.668130,-3064.381992
22015.552143,0.000000,-8068.244768,2451.505594
22015.552476,-1554.432478,-8734.430116,2987.772442
22015.552810,0.000000,-5995.668130,1838.629195
22015.553143,222.061783,-9474.636058,2221.676944
22015.553477,-74.020594,-7698.141797,-383.047749
22015.553810,148.041188,-11177.109724,-1762.019645
22015.554144,-666.185348,-13027.624579,-76.609550
22015.554478,-74.020594,-8734.430116,-3524.039291
22015.554811,-2368.659014,-11769.274478,-1302.362347
22015.555145,-74.020594,-11251.130318,-76.609550
22015.555478,-1628.453072,-8660.409521,153.219100
22015.555812,3478.967927,-8290.306550,4826.401637
22015.556145,3701.029710,-6143.709319,5822.325785
22015.556479,2368.659014,-7402.059420,2681.334243
22015.556812,2368.659014,-7994.224174,3830.477490
22015.557146,0.000000,-7179.997637,0.000000
22015.557479,2590.720797,-8956.491898,-3677.258390
22015.557813,-74.020594,-13027.624579,-2528.115143
22015.558146,-4737.318029,-10881.027347,-6741.640382
22015.558480,-7105.977043,-10436.903782,-4290.134789
22015.558813,-5329.482782,-13619.789333,-3140.991542
22015.559147,0.000000,-6587.832884,-1225.752797
22015.559480,-2368.659014,-10140.821405,919.314598
22015.559814,2442.679609,-5921.647536,2451.505594
22015.560148,5329.482782,-5551.544565,9499.584175
22015.560481,2516.700203,-4811.338623,7354.516781
22015.560815,8216.285956,-6809.894666,7277.907231
22015.561148,1554.432478,-6587.832884,-1838.629195
22015.561482,3330.926739,-13915.871710,-76.609550
22015.561815,-1110.308913,-10066.800811,-5515.887586
22015.562149,-1924.535449,-14952.160028,-7354.516781
22015.562482,-2146.597232,-13915.871710,-4366.744339
22015.562816,-3034.844362,-11843.295072,-4903.011187
22015.563149,2294.638420,-11251.130318,-995.924147
22015.563483,-1776.494261,-12287.418637,4826.401637
22015.563816,2590.720797,-4219.173869,1838.629195
22015.564150,0.000000,-4811.338623,9806.022374
22015.564483,8808.450710,-4441.235652,4826.401637
22015.564817,5477.523971,-7994.224174,3677.258390
22015.565150,3701.029710,-7402.059420,5439.278036
22015.565484,3849.070898,-7179.997637,-383.047749
22015.565818,-1702.473667,-13619.789333,-1455.581446
22015.566151,-666.185348,-10658.965565,-6818.249932
22015.566485,-5625.565159,-15988.448347,-6511.811733
22015.566818,-3627.009116,-10955.047942,-4673.182538
22015.567152,-3404.947333,-10140.821405,-3753.867940
22015.567485,-2664.741391,-10955.047942,1838.629195
22015.567819,-74.020594,-7105.977043,3600.648841
22015.568152,-1184.329507,-7772.162391,6128.763984
22015.568486,3849.070898,-1998.556043,7814.174080
22015.568819,2516.700203,-5699.585753,5209.449386
22015.569153,3552.988522,-4811.338623,6741.640382
22015.569486,2294.638420,-9474.636058,383.047749
22015.569820,2072.576638,-10436.903782,-1915.238745
22015.570153,-2368.659014,-14137.933492,-3677.258390
22015.570486,-2590.720797,-11991.336260,-7660.954980
22015.570820,-2368.659014,-10140.821405,-4903.011187
22015.571153,-5329.482782,-15988.448347,-1915.238745
22015.571486,-1628.453072,-8142.265362,-2451.505594
22015.571820,-666.185348,-9474.636058,1149.143247
22015.572153,592.164754,-7476.080014,6281.983084
22015.572486,592.164754,-6587.832884,9116.536426
22015.572820,-370.102971,-4145.153275,2987.772442
22015.573153,740.205942,-5107.421000,2528.115143
22015.573486,1184.329507,-7031.956449,3294.210641
22015.573820,2960.823768,-9178.553681,1608.800546
22015.574153,3478.967927,-9474.636058,-4060.306139
22015.574487,-5625.565159,-15470.304188,-4290.134789
22015.574820,-2368.659014,-12509.480420,-689.485948
22015.575153,-2738.761985,-10658.965565,-8503.660028
22015.575487,-1776.494261,-14211.954086,-3447.429741
22015.575820,370.102971,-11769.274478,1838.629195
22015.576153,4515.256246,-4663.297435,3140.991542
22015.576487,5181.441594,-5107.421000,8120.612279
22015.576820,2294.638420,-7698.141797,2987.772442
22015.577153,4737.318029,-5403.503377,5515.887586
22015.577487,-1776.494261,-7772.162391,3830.477490
22015.577820,5255.462188,-7698.141797,229.828649
22015.578154,-2146.597232,-10140.821405,-3677.258390
22015.578487,740.205942,-10066.800811,-3753.867940
22015.578820,-2368.659014,-9548.656652,-4213.525239
22015.579154,-1554.432478,-12213.398043,-3677.258390
22015.579487,-1554.432478,-11103.089130,-2681.334243
22015.579820,-2294.638420,-9474.636058,-1915.238745
22015.580154,3182.885551,-10436.903782,1225.752797
22015.580487,2738.761985,-8438.347739,2451.505594
22015.580820,4811.338623,-9696.697840,6128.763984
22015.581154,5921.647536,-4811.338623,8580.269578
22015.581487,3256.906145,-11325.150913,9422.974625
22015.581821,2886.803174,-4441.235652,1378.971896
22015.582154,-1480.411884,-8068.244768,-1225.752797
22015.582487,-666.185348,-9178.553681,-4060.306139
22015.582821,-2368.659014,-11029.068536,-4290.134789
22015.583154,74.020594,-9030.512492,-3140.991542
22015.583487,-1702.473667,-12065.356855,-1225.752797
22015.583821,-2442.679609,-9622.677246,-3140.991542
22015.584154,-74.020594,-11843.295072,-689.485948
22015.584487,-1776.494261,-8364.327145,1455.581446
22015.584821,5847.626942,-7698.141797,2221.676944
22015.585154,3256.906145,-5403.503377,5822.325785
22015.585488,5847.626942,-11843.295072,7277.907231
22015.585821,3182.885551,-8216.285956,4519.963438
22015.586154,-666.185348,-11695.253884,-76.609550
22015.586488,-2368.659014,-8586.388927,-2757.943793
22015.586821,-3701.029710,-9548.656652,-2451.505594
22015.587154,-3627.009116,-8660.409521,-4979.620737
22015.587488,-1184.329507,-8068.244768,-76.609550
22015.587821,-2960.823768,-7179.997637,-3064.381992
22015.588154,0.000000,-10288.862594,3907.087040
22015.588488,-370.102971,-8142.265362,1455.581446
22015.588821,0.000000,-6217.729913,-2681.334243
22015.589155,814.226536,-11251.130318,842.705048
22015.589488,2886.803174,-9474.636058,2911.162892
22015.589821,2442.679609,-7920.203579,2451.505594
22015.590155,666.185348,-10140.821405,1838.629195
22015.590488,1110.308913,-9474.636058,-76.609550
22015.590821,-4737.318029,-11325.150913,1149.143247
22015.591155,0.000000,-7772.162391,-842.705048
22015.591488,-4811.338623,-10510.924376,-4290.134789
22015.591821,-2368.659014,-7179.997637,0.000000
22015.592155,1702.473667,-6439.791695,3294.210641
22015.592488,1406.391290,-10510.924376,4290.134789
22015.592821,4441.235652,-4737.318029,2987.772442
22015.593155,-1258.350101,-10881.027347,1225.752797
22015.593488,2960.823768,-4811.338623,0.000000
22015.593822,1184.329507,-13767.830521,-76.609550
22015.594155,1554.432478,-10955.047942,-2145.067394
22015.594488,-2368.659014,-9548.656652,0.000000
22015.594822,-2368.659014,-13101.645173,1149.143247
22015.595155,0.000000,-5995.668130,306.438199
22015.595488,-3330.926739,-9992.780217,-536.266849
22015.595822,888.247130,-7402.059420,2298.286494
22015.596155,-1036.288319,-6809.894666,1608.800546
22015.596488,4367.215058,-3330.926739,2757.943793
22015.596822,3404.947333,-6217.729913,3830.477490
22015.597155,2516.700203,-10140.821405,1608.800546
22015.597489,4367.215058,-8956.491898,1302.362347
22015.597822,-1554.432478,-15840.407159,-689.485948
22015.598155,2146.597232,-9696.697840,-2451.505594
22015.598489,-2220.617826,-10955.047942,-2528.115143
22015.598822,2294.638420,-11843.295072,-4366.744339
22015.599155,0.000000,-9548.656652,2145.067394
22015.599489,-1776.494261,-8660.409521,1149.143247
22015.599822,-1184.329507,-9252.574275,2221.676944
22015.600155,518.144159,-7698.141797,2834.553343
22015.600489,3552.988522,-7105.977043,5515.887586
22015.600822,3330.926739,-4441.235652,4060.306139
22015.601156,4071.132681,-5329.482782,0.000000
22015.601489,1480.411884,-9844.739029,1762.019645
22015.601822,3478.967927,-12435.459826,-76.609550
22015.602156,-74.020594,-9844.739029,-3677.258390
22015.602489,-3034.844362,-14804.118840,-4979.620737
22015.602822,-2664.741391,-11843.295072,-4673.182538
22015.603156,-3552.988522,-13027.624579,-2528.115143
22015.603489,296.082377,-9178.553681,2911.162892
22015.603822,0.000000,-7179.997637,2757.943793
22015.604156,1702.473667,-5995.668130,2451.505594
22015.604489,4071.132681,-4737.318029,4826.401637
22015.604823,0.000000,-5403.503377,2451.505594
22015.605156,1184.329507,-6735.874072,4290.134789
22015.605489,0.000000,-5995.668130,-1225.752797
22015.605823,2886.803174,-11251.130318,0.000000
22015.606156,-222.061783,-11177.109724,-995.924147
22015.606489,-1554.432478,-11177.109724,-4903.011187
22015.606823,-1406.391290,-12879.583391,-2528.115143
22015.607156,-5921.647536,-13693.809927,-3983.696590
22015.607489,-74.020594,-11843.295072,-4366.744339
22015.607823,-5921.647536,-11325.150913,3064.381992
22015.608156,5551.544565,-5921.647536,4213.525239
22015.608489,1628.453072,-8512.368333,9806.022374
22015.608823,5255.462188,-3256.906145,5898.935335
22015.609156,1850.514855,-7550.100608,5209.449386
22015.609490,1480.411884,-4959.379811,2528.115143
22015.609823,3775.050304,-7105.977043,-1915.238745
22015.610156,1184.329507,-12731.542202,-76.609550
22015.610490,-666.185348,-8956.491898,-5975.544884
22015.610823,-6365.771101,-11917.315666,-6128.763984
22015.611156,-1628.453072,-14804.118840,-4366.744339
22015.611490,-1332.370696,-13323.706956,-3677.258390
22015.611823,-1776.494261,-10955.047942,-459.657299
22015.612156,222.061783,-6957.935855,2068.457845
22015.612490,1628.453072,-7105.977043,6588.421283
22015.612823,3478.967927,-3552.988522,6205.373534
22015.613157,3997.112087,-6661.853478,6588.421283
22015.613490,6513.812290,-5551.544565,5132.839837
22015.613823,3478.967927,-8882.471304,4519.963438
22015.614157,2886.803174,-8512.368333,-1532.190996
22015.614490,-1258.350101,-10658.965565,-6205.373534
22015.614823,-3552.988522,-15470.304188,-7354.516781
22015.615157,-1258.350101,-14211.954086,-6205.373534
22015.615490,-962.267725,-10732.986159,-5822.325785
22015.615823,-4145.153275,-13101.645173,-1838.629195
22015.616157,2886.803174,-5625.565159,1378.971896
22015.616490,1628.453072,-9992.780217,5515.887586
22015.616824,7476.080014,-4293.194464,8733.488677
22015.617157,2294.638420,-6365.771101,5745.716235
22015.617490,1184.329507,-5403.503377,3677.258390
22015.617824,1480.411884,-7105.977043,4519.963438
22015.618157,-666.185348,-8290.306550,-2528.115143
22015.618490,-4145.153275,-9548.656652,-4903.011187
22015.618824,-2442.679609,-12435.459826,-5592.497135
22015.619157,-2812.782580,-13101.645173,-7201.297681
22015.619490,-1332.370696,-12583.501014,-2528.115143
22015.619824,-1924.535449,-11917.315666,-1302.362347
22015.620157,-296.082377,-10584.944971,536.266849
22015.620491,1480.411884,-8660.409521,4903.011187
22015.620824,8216.285956,-11251.130318,6052.154434
22015.621157,4515.256246,-8068.244768,6741.640382
22015.621491,2368.659014,-4811.338623,9806.022374
22015.621824,-444.123565,-8882.471304,2374.896044
22015.622157,-3256.906145,-7772.162391,919.314598
22015.622491,-2368.659014,-9400.615463,-1762.019645
22015.622824,-2664.741391,-9104.533087,-2451.505594
22015.623157,-666.185348,-7402.059420,-2528.115143
22015.623491,-2442.679609,-11547.212695,-2528.115143
22015.623824,-3034.844362,-9474.636058,-3753.867940
22015.624157,-4145.153275,-7772.162391,0.000000
22015.624491,962.267725,-10955.047942,-76.609550
22015.624824,4663.297435,-6513.812290,383.047749
22015.625158,1702.473667,-11029.068536,1302.362347
22015.625491,2886.803174,-7402.059420,2757.943793
22015.625824,2664.741391,-8290.306550,4060.306139
22015.626158,1702.473667,-8438.347739,2298.286494
22015.626491,1776.494261,-6587.832884,-919.314598
22015.626824,0.000000,-13693.809927,1608.800546
22015.627158,-1332.370696,-8956.491898,-1762.019645
22015.627491,-2812.782580,-8808.450710,-3370.820191
22015.627824,-222.061783,-10362.883188,-689.485948
22015.628158,888.247130,-8290.306550,536.266849
22015.628491,0.000000,-8660.409521,5515.887586
22015.628825,1702.473667,-8290.306550,1149.143247
22015.629158,-962.267725,-8808.450710,-2451.505594
22015.629491,2294.638420,-10362.883188,1762.019645
22015.629825,3256.906145,-9326.594869,2604.724693
22015.630158,4663.297435,-9696.697840,919.314598
22015.630491,-1184.329507,-13101.645173,842.705048
22015.630825,-1036.288319,-8068.244768,-1838.629195
22015.631158,-370.102971,-11177.109724,1149.143247
22015.631491,-4737.318029,-7179.997637,1225.752797
22015.631825,1998.556043,-8882.471304,-2528.115143
22015.632158,-1258.350101,-8882.471304,-76.609550
22015.632492,2368.659014,-3034.844362,689.485948
22015.632825,1110.308913,-11843.295072,306.438199
22015.633158,4441.235652,-8068.244768,2068.457845
22015.633492,592.164754,-11473.192101,0.000000
22015.633825,1480.411884,-9770.718434,689.485948
22015.634158,1554.432478,-10658.965565,-76.609550
22015.634492,1702.473667,-11843.295072,-76.609550
22015.634825,2294.638420,-7698.141797,-1991.848295
22015.635158,-3552.988522,-11917.315666,1378.971896
22015.635492,592.164754,-6809.894666,-459.657299
22015.635825,-5551.544565,-8956.491898,-2451.505594
22015.636159,1702.473667,-7179.997637,-766.095498
22015.636492,-370.102971,-7846.182985,4060.306139
22015.636825,2886.803174,-8142.265362,2911.162892
22015.637159,2368.659014,-4811.338623,2451.505594
22015.637492,2294.638420,-11251.130318,-76.609550
22015.637825,1850.514855,-7698.141797,-3447.429741
22015.638159,-2072.576638,-9548.656652,-459.657299
22015.638492,-74.020594,-13619.789333,-3753.867940
22015.638825,-4737.318029,-13101.645173,-306.438199
22015.639159,-4441.235652,-10510.924376,-1302.362347
22015.639492,-1332.370696,-8290.306550,1225.752797
22015.639825,-2590.720797,-6735.874072,0.000000
22015.640159,3552.988522,-10584.944971,5286.058936
22015.640492,-74.020594,-6513.812290,1072.533697
22015.640826,2960.823768,-6587.832884,3830.477490
22015.641159,2886.803174,-11177.109724,3600.648841
22015.641492,6439.791695,-7698.141797,2068.457845
22015.641826,3552.988522,-10732.986159,3600.648841
22015.642159,1332.370696,-10881.027347,0.000000
22015.642492,1184.329507,-9992.780217,-2757.943793
22015.642826,-5403.503377,-14730.098246,-4596.572988
22015.643159,-2368.659014,-8364.327145,-2221.676944
22015.643492,-5255.462188,-10732.986159,-2451.505594
22015.643826,-1258.350101,-7698.141797,-919.314598
22015.644159,-1184.329507,-7698.141797,2987.772442
22015.644493,-2442.679609,-4071.132681,2911.162892
22015.644826,1480.411884,-2590.720797,6741.640382
22015.645159,4071.132681,-4145.153275,2374.896044
22015.645493,1998.556043,-9548.656652,0.000000
22015.645826,2516.700203,-8364.327145,4290.134789
22015.646159,4071.132681,-10658.965565,-76.609550
22015.646493,1184.329507,-12361.439231,-1762.019645
22015.646826,-2294.638420,-13175.665768,-5439.278036
22015.647159,-2368.659014,-12953.603985,-3907.087040
22015.647493,-3256.906145,-11917.315666,-2451.505594
22015.647826,-3552.988522,-8364.327145,-1225.752797
22015.648160,-74.020594,-8290.306550,1149.143247
22015.648493,740.205942,-4811.338623,2451.505594
22015.648826,592.164754,-3034.844362,5362.668486
22015.649160,3552.988522,-4219.173869,3983.696590
22015.649493,2664.741391,-9104.533087,6052.154434
22015.649826,2294.638420,-6513.812290,536.266849
22015.650160,1406.391290,-10362.883188,-1608.800546
22015.650493,3478.967927,-13619.789333,-3753.867940
22015.650826,0.000000,-13693.809927,-2834.553343
22015.651160,-74.020594,-12139.377449,-3524.039291
22015.651493,-2368.659014,-11029.068536,-3830.477490
22015.651827,-2072.576638,-12287.418637,-76.609550
22015.652160,-666.185348,-8882.471304,-1532.190996
22015.652493,2738.761985,-6513.812290,4443.353888
22015.652827,2886.803174,-6809.894666,5822.325785
22015.653160,3330.926739,-5921.647536,8120.612279
22015.653493,0.000000,-3849.070898,3907.087040
22015.653827,2220.617826,-8290.306550,3294.210641
22015.654160,-4441.235652,-5995.668130,-3677.258390
22015.654493,-1776.494261,-7179.997637,-2834.553343
22015.654827,-74.020594,-9178.553681,-4979.620737
22015.655160,-3034.844362,-15988.448347,-4366.744339
22015.655494,0.000000,-10288.862594,-1838.629195
22015.655827,-7254.018232,-14878.139434,-4060.306139
22015.656160,-222.061783,-7846.182985,-1608.800546
22015.656494,0.000000,-8364.327145,3064.381992
22015.656827,8216.285956,-5921.647536,5439.278036
22015.657160,2960.823768,-7179.997637,9882.631924
22015.657494,4071.132681,-7994.224174,7277.907231
22015.657827,2886.803174,-6439.791695,1991.848295
22015.658160,0.000000,-8512.368333,919.314598
22015.658494,1628.453072,-8808.450710,-2221.676944
22015.658827,-5551.544565,-12953.603985,-6741.640382
22015.659160,-1850.514855,-10066.800811,-4366.744339
22015.659494,-2368.659014,-10140.821405,0.000000
22015.659827,1998.556043,-3478.967927,-1991.848295
22015.660161,-814.226536,-9622.677246,-2221.676944
22015.660494,-814.226536,-12287.418637,-842.705048
22015.660827,1332.370696,-10066.800811,1225.752797
22015.661161,0.000000,-7476.080014,3064.381992
22015.661494,4663.297435,-11251.130318,4519.963438
22015.661827,1184.329507,-4811.338623,7354.516781
22015.662161,4367.215058,-8290.306550,2987.772442
22015.662494,2294.638420,-8882.471304,1762.019645
22015.662827,-1776.494261,-8364.327145,766.095498
22015.663161,-2368.659014,-7254.018232,-3907.087040
22015.663494,-814.226536,-10807.006753,-1838.629195
22015.663828,-3034.844362,-9696.697840,-4443.353888
22015.664161,-518.144159,-11991.336260,-383.047749
22015.664494,-1258.350101,-9474.636058,-2528.115143
22015.664828,296.082377,-9548.656652,0.000000
22015.665161,1480.411884,-9474.636058,2374.896044
22015.665494,2886.803174,-6957.935855,-1838.629195
22015.665828,2368.659014,-14211.954086,6665.030833
22015.666161,3552.988522,-7179.997637,3983.696590
22015.666494,1036.288319,-10881.027347,3907.087040
22015.666828,-1184.329507,-8364.327145,536.266849
22015.667161,-74.020594,-9474.636058,-76.609550
22015.667495,-666.185348,-5995.668130,-2145.067394
22015.667828,-3256.906145,-8290.306550,-842.705048
22015.668161,-888.247130,-6809.894666,-76.609550
22015.668495,-74.020594,-7179.997637,-1225.752797
22015.668828,-74.020594,-11251.130318,995.924147
22015.669161,0.000000,-9400.615463,-995.924147
22015.669495,-2738.761985,-10658.965565,-1072.533697
22015.669828,1184.329507,-11695.253884,1608.800546
22015.670161,4145.153275,-5995.668130,1532.190996
22015.670494,3552.988522,-12657.521608,4903.011187
22015.670828,3478.967927,-10658.965565,-76.609550
22015.671161,-2146.597232,-7772.162391,0.000000
22015.671494,-4145.153275,-10140.821405,-1225.752797
22015.671828,2294.638420,-9178.553681,-76.609550
22015.672161,-2072.576638,-7772.162391,-306.438199
22015.672494,0.000000,-7179.997637,-2451.505594
22015.672827,2738.761985,-8882.471304,2068.457845
22015.673161,888.247130,-6883.915261,3983.696590
22015.673494,2368.659014,-5699.585753,3907.087040
22015.673827,1998.556043,-6439.791695,0.000000
22015.674161,-666.185348,-14137.933492,-689.485948
22015.674494,1628.453072,-10066.800811,-76.609550
22015.674827,-370.102971,-14804.118840,-689.485948
22015.675160,-74.020594,-10807.006753,-3677.258390
22015.675494,-1480.411884,-10881.027347,0.000000
22015.675827,-962.267725,-8882.471304,536.266849
22015.676160,592.164754,-8290.306550,1838.629195
22015.676494,888.247130,-7550.100608,2528.115143
22015.676827,3627.009116,-5551.544565,4903.011187
22015.677160,3552.988522,-4959.379811,3830.477490
22015.677493,3701.029710,-9548.656652,3140.991542
22015.677827,1184.329507,-7179.997637,1838.629195
22015.678160,-1480.411884,-9548.656652,0.000000
22015.678493,-74.020594,-12731.542202,-2528.115143
22015.678827,-2664.741391,-14211.954086,-6818.249932
22015.679160,-2146.597232,-14285.974681,-3140.991542
22015.679493,-666.185348,-11843.295072,1149.143247
22015.679826,-2220.617826,-8364.327145,306.438199
22015.680160,-2960.823768,-9030.512492,2374.896044
22015.680493,-148.041188,-4293.194464,2221.676944
22015.680826,4071.132681,-7105.977043,6971.469032
22015.681160,1184.329507,-6735.874072,9806.022374
22015.681493,5847.626942,-4737.318029,2374.896044
22015.681826,0.000000,-7920.203579,2604.724693
22015.682159,1480.411884,-10214.842000,1149.143247
22015.682493,-2812.782580,-9252.574275,-5209.449386
22015.682826,-4885.359217,-12213.398043,-6894.859482
22015.683159,-3182.885551,-12435.459826,-8273.831378
22015.683492,-2072.576638,-14730.098246,-2145.067394
22015.683826,666.185348,-10140.821405,76.609550
22015.684159,1776.494261,-9178.553681,4826.401637
22015.684492,-1258.350101,-7105.977043,1149.143247
22015.684826,592.164754,-4219.173869,6128.763984
22015.685159,4663.297435,-9178.553681,6971.469032
22015.685492,1776.494261,-4811.338623,4903.011187
22015.685825,3775.050304,-5773.606348,1762.019645
22015.686159,1702.473667,-9770.718434,1455.581446
22015.686492,2738.761985,-8734.430116,0.000000
22015.686825,-4441.235652,-10732.986159,-4903.011187
22015.687159,-1850.514855,-14211.954086,-8044.002729
22015.687492,-5921.647536,-12805.562797,-4596.572988
22015.687825,-5921.647536,-9548.656652,-2451.505594
22015.688158,-74.020594,-10658.965565,-76.609550
22015.688492,1776.494261,-6735.874072,1225.752797
22015.688825,4145.153275,-8512.368333,8810.098227
22015.689158,5033.400406,-5403.503377,8810.098227
22015.689492,5403.503377,-7179.997637,6818.249932
22015.689825,296.082377,-8364.327145,4290.134789
22015.690158,2886.803174,-7402.059420,842.705048
22015.690491,1924.535449,-8956.491898,153.219100
22015.690825,1110.308913,-10362.883188,-2757.943793
22015.691158,-74.020594,-10658.965565,-5286.058936
22015.691491,-5329.482782,-10140.821405,-6741.640382
22015.691825,-3627.009116,-14804.118840,-4366.744339
22015.692158,-2442.679609,-9326.594869,-6281.983084
22015.692491,1184.329507,-11917.315666,3447.429741
22015.692824,5847.626942,-7105.977043,6665.030833
22015.693158,2664.741391,-6587.832884,7048.078582
22015.693491,1776.494261,-5773.606348,3370.820191
22015.693824,4589.276840,-8438.347739,2068.457845
22015.694158,1184.329507,-9548.656652,2757.943793
22015.694491,2516.700203,-5403.503377,0.000000
22015.694824,-1258.350101,-12879.583391,-3140.991542
22015.695157,-2072.576638,-7179.997637,-6128.763984
22015.695491,-3552.988522,-11621.233289,-1838.629195
22015.695824,-2220.617826,-7994.224174,-3140.991542
22015.696157,-5181.441594,-10807.006753,-1991.848295
22015.696491,-6587.832884,-8882.471304,-1991.848295
22015.696824,222.061783,-5773.606348,-229.828649
22015.697157,0.000000,-11547.212695,6128.763984
22015.697490,4885.359217,-3923.091493,6435.202183
22015.697824,-1258.350101,-11843.295072,3600.648841
22015.698157,-1776.494261,-5995.668130,306.438199
22015.698490,0.000000,-9104.533087,2987.772442
22015.698823,-2294.638420,-11103.089130,-3370.820191
22015.699157,5033.400406,-6069.688724,536.266849
22015.699490,-4737.318029,-12805.562797,-1378.971896
22015.699823,3849.070898,-6587.832884,-1991.848295
22015.700157,-3034.844362,-10658.965565,-689.485948
22015.700490,-1480.411884,-11991.336260,-1915.238745
22015.700823,222.061783,-9474.636058,1149.143247
22015.701156,-4737.318029,-8364.327145,1838.629195
22015.701490,6439.791695,-4737.318029,2451.505594
22015.701823,4663.297435,-10658.965565,4826.401637
22015.702156,2960.823768,-8068.244768,2451.505594
22015.702490,4663.297435,-9474.636058,4213.525239
22015.702823,1480.411884,-10658.965565,-842.705048
22015.703156,0.000000,-10140.821405,0.000000
22015.703489,-1258.350101,-11843.295072,-3753.867940
22015.703823,0.000000,-7772.162391,-1225.752797
22015.704156,-3552.988522,-9548.656652,1685.410096
22015.704489,4663.297435,-5625.565159,-689.485948
22015.704823,2146.597232,-7846.182985,3294.210641
22015.705156,962.267725,-5255.462188,-1225.752797
22015.705489,-1406.391290,-13545.768739,-2298.286494
22015.705822,3997.112087,-8882.471304,2068.457845
22015.706156,2664.741391,-8956.491898,3677.258390
22015.706489,4367.215058,-7920.203579,1149.143247
22015.706822,740.205942,-11843.295072,-383.047749
22015.707156,-3182.885551,-9400.615463,-3753.867940
22015.707489,888.247130,-9548.656652,-1455.581446
22015.707822,-1480.411884,-9548.656652,-2911.162892
22015.708155,2146.597232,-10362.883188,842.705048
22015.708489,-518.144159,-5403.503377,0.000000
22015.708822,3182.885551,-10658.965565,4519.963438
22015.709155,3478.967927,-7105.977043,3600.648841
22015.709489,518.144159,-8956.491898,612.876398
22015.709822,-518.144159,-10066.800811,1991.848295
22015.710155,-1332.370696,-6587.832884,-1149.143247
22015.710488,-1850.514855,-13101.645173,-1838.629195
22015.710822,0.000000,-7772.162391,612.876398
22015.711155,-3627.009116,-11843.295072,-4366.744339
22015.711488,-4145.153275,-6587.832884,-3064.381992
22015.711822,-5625.565159,-12805.562797,1455.581446
22015.712155,-2442.679609,-7105.977043,-689.485948
22015.712488,-1776.494261,-5699.585753,2757.943793
22015.712821,1554.432478,-6365.771101,3064.381992
22015.713155,5033.400406,-4959.379811,5515.887586
22015.713488,1036.288319,-9178.553681,3600.648841
22015.713821,7031.956449,-8882.471304,4826.401637
22015.714154,-1258.350101,-10362.883188,-4519.963438
22015.714488,1480.411884,-14211.954086,1762.019645
22015.714821,-74.020594,-11251.130318,-1302.362347
22015.715154,-74.020594,-10510.924376,-4060.306139
22015.715488,-592.164754,-11695.253884,-2834.553343
22015.715821,-3701.029710,-10288.862594,-3447.429741
22015.716154,-2442.679609,-10881.027347,-2145.067394
22015.716487,296.082377,-7179.997637,1225.752797
22015.716821,2590.720797,-9178.553681,2681.334243
22015.717154,6217.729913,-3627.009116,8580.269578
22015.717487,7402.059420,-4737.318029,8503.660028
22015.717821,5847.626942,-6587.832884,4903.011187
22015.718154,2368.659014,-5403.503377,2451.505594
22015.718487,3182.885551,-11843.295072,-2528.115143
22015.718820,-1702.473667,-11769.274478,-4749.792088
22015.719154,-4589.276840,-13175.665768,-8733.488677
22015.719487,-3701.029710,-15100.201217,-5822.325785
22015.719820,-3701.029710,-10510.924376,-4060.306139
22015.720154,-2072.576638,-10140.821405,-2068.457845
22015.720487,-666.185348,-7105.977043,1991.848295
22015.720820,4885.359217,-4959.379811,6281.983084
22015.721153,4737.318029,-8216.285956,9806.022374
22015.721487,8808.450710,-4737.318029,8503.660028
22015.721820,4663.297435,-7105.977043,1532.190996
22015.722153,4737.318029,-8660.409521,3677.258390
22015.722487,5847.626942,-9474.636058,-1302.362347
22015.722820,2960.823768,-13693.809927,-2451.505594
22015.723153,-518.144159,-11251.130318,-3753.867940
22015.723486,-5773.606348,-15174.221811,-7354.516781
22015.723820,-4293.194464,-12879.583391,-3983.696590
22015.724153,-4589.276840,-11103.089130,-2528.115143
22015.724486,-4737.318029,-9548.656652,1991.848295
22015.724820,-3627.009116,-6513.812290,1991.848295
22015.725153,-2960.823768,-4811.338623,7354.516781
22015.725486,592.164754,-1110.308913,9729.412825
22015.725819,3478.967927,-3256.906145,3907.087040
22015.726153,3478.967927,-9474.636058,3294.210641
22015.726486,-222.061783,-8512.368333,-459.657299
22015.726819,-2442.679609,-12805.562797,-5439.278036
22015.727153,-4663.297435,-10584.944971,-9193.145976
22015.727486,-4219.173869,-18801.230927,-4979.620737
22015.727819,-2368.659014,-9548.656652,-4903.011187
22015.728152,-3552.988522,-13989.892304,1685.410096
22015.728486,2590.720797,-8586.388927,3600.648841
22015.728819,1776.494261,-5107.421000,7354.516781
22015.729152,2886.803174,-5181.441594,9116.536426
22015.729485,5551.544565,-3256.906145,8427.050478
22015.729819,-370.102971,-7994.224174,2987.772442
22015.730152,4663.297435,-4663.297435,2911.162892
22015.730485,-1850.514855,-8290.306550,-2528.115143
22015.730819,3552.988522,-6883.915261,-4366.744339
22015.731152,-3034.844362,-17764.942608,-7431.126331
22015.731485,-1628.453072,-10732.986159,-5822.325785
22015.731818,-1776.494261,-13989.892304,-4290.134789
22015.732152,222.061783,-12953.603985,-383.047749
22015.732485,1110.308913,-8586.388927,919.314598
22015.732818,888.247130,-7550.100608,4673.182538
22015.733152,7772.162391,-4663.297435,8197.221829
22015.733485,1480.411884,-5403.503377,4903.011187
22015.733818,6069.688724,-9474.636058,8503.660028
22015.734151,1702.473667,-6365.771101,919.314598
22015.734485,0.000000,-10140.821405,0.000000
22015.734818,1184.329507,-11399.171507,-2911.162892
22015.735151,0.000000,-10881.027347,-3524.039291
22015.735485,370.102971,-9696.697840,-5515.887586
22015.735818,-1628.453072,-12731.542202,-2987.772442
22015.736151,-74.020594,-8882.471304,-5132.839837
22015.736484,-1184.329507,-10140.821405,0.000000
22015.736818,1702.473667,-9992.780217,2068.457845
22015.737151,2516.700203,-10436.903782,3830.477490
22015.737484,5403.503377,-6661.853478,3830.477490
22015.737818,4071.132681,-12435.459826,8503.660028
22015.738151,1998.556043,-3034.844362,2757.943793
22015.738484,1332.370696,-7476.080014,3524.039291
22015.738817,-74.020594,-8882.471304,-76.609550
22015.739151,-4145.153275,-9548.656652,-1838.629195
22015.739484,-3552.988522,-10140.821405,-1608.800546
22015.739817,-3330.926739,-10436.903782,-6128.763984
22015.740151,-5477.523971,-12139.377449,-3294.210641
22015.740484,-5921.647536,-8364.327145,-1532.190996
22015.740817,-2960.823768,-2738.761985,-3447.429741
22015.741150,-4219.173869,-11029.068536,-1838.629195
22015.741484,4663.297435,-8882.471304,2987.772442
22015.741817,-370.102971,-8290.306550,4826.401637
22015.742150,2886.803174,-4811.338623,3830.477490
22015.742484,2294.638420,-9178.553681,6052.154434
22015.742817,-1036.288319,-11399.171507,2374.896044
22015.743150,1776.494261,-6735.874072,2374.896044
22015.743483,-3330.926739,-9622.677246,-1225.752797
22015.743817,0.000000,-8660.409521,-1225.752797
22015.744150,-2368.659014,-7179.997637,0.000000
22015.744483,-74.020594,-13027.624579,-383.047749
22015.744816,-2886.803174,-7624.121203,-3064.381992
22015.745150,-3182.885551,-10732.986159,-3370.820191
22015.745483,592.164754,-9548.656652,-2145.067394
22015.745816,4515.256246,-8290.306550,6052.154434
22015.746150,2664.741391,-7846.182985,3907.087040
22015.746483,4293.194464,-4737.318029,5745.716235
22015.746816,-74.020594,-11251.130318,2374.896044
22015.747149,2368.659014,-6587.832884,612.876398
22015.747483,-1258.350101,-13619.789333,-1302.362347
22015.747816,0.000000,-6587.832884,-3677.258390
22015.748149,-666.185348,-11843.295072,-1915.238745
22015.748483,-370.102971,-9030.512492,-2681.334243
22015.748816,2664.741391,-7179.997637,-1991.848295
22015.749149,2886.803174,-9770.718434,1149.143247
22015.749482,4589.276840,-11547.212695,1838.629195
22015.749816,962.267725,-9918.759623,1149.143247
22015.750149,6143.709319,-9474.636058,4213.525239
22015.750482,2072.576638,-8364.327145,2451.505594
22015.750816,4737.318029,-7772.162391,5669.106685
22015.751149,1110.308913,-14211.954086,-383.047749
22015.751482,2516.700203,-6661.853478,459.657299
22015.751815,-4219.173869,-11103.089130,-3447.429741
22015.752149,-148.041188,-8438.347739,-2528.115143
22015.752482,-3182.885551,-8660.409521,-1149.143247
22015.752815,0.000000,-6735.874072,-2145.067394
22015.753149,5847.626942,-7994.224174,2681.334243
22015.753482,1998.556043,-11843.295072,3294.210641
22015.753815,6143.709319,-6587.832884,4979.620737
22015.754148,-148.041188,-9178.553681,2374.896044
22015.754482,518.144159,-8586.388927,76.609550
22015.754815,-2886.803174,-10288.862594,-3140.991542
22015.755148,-1850.514855,-9844.739029,-4903.011187
22015.755482,-3256.906145,-10362.883188,-1302.362347
22015.755815,-5329.482782,-10436.903782,-1685.410096
22015.756148,-4367.215058,-6587.832884,-1838.629195
22015.756481,-6587.832884,-9844.739029,153.219100
22015.756815,1110.308913,-5699.585753,2528.115143
22015.757148,592.164754,-7846.182985,7201.297681
22015.757481,2368.659014,-2442.679609,4903.011187
22015.757815,4071.132681,-9474.636058,3600.648841
22015.758148,2294.638420,-9474.636058,2681.334243
22015.758481,0.000000,-11325.150913,1378.971896
22015.758814,1702.473667,-13027.624579,-1915.238745
22015.759148,-2368.659014,-10732.986159,-3370.820191
22015.759481,-4515.256246,-13619.789333,-5439.278036
22015.759814,1998.556043,-9918.759623,-1302.362347
22015.760147,-3034.844362,-10362.883188,-995.924147
22015.760481,888.247130,-9474.636058,2374.896044
22015.760814,4663.297435,-5921.647536,1762.019645
22015.761147,296.082377,-10732.986159,4290.134789
22015.761481,2368.659014,-5403.503377,8273.831378
22015.761814,4663.297435,-4737.318029,2374.896044
22015.762147,3552.988522,-10807.006753,4826.401637
22015.762480,3108.864956,-6291.750507,1378.971896
22015.762814,1332.370696,-9622.677246,-2221.676944
22015.763147,-2220.617826,-11029.068536,-5056.230287
22015.763480,-3627.009116,-12435.459826,-8350.440928
22015.763814,-4811.338623,-11325.150913,-7354.516781
22015.764147,-4737.318029,-11917.315666,-1685.410096
22015.764480,1998.556043,-7105.977043,-76.609550
22015.764813,74.020594,-7179.997637,0.000000
22015.765147,5625.565159,-6661.853478,7890.783629
22015.765480,5329.482782,-5255.462188,6511.811733
22015.765813,4589.276840,-7476.080014,5132.839837
22015.766147,5329.482782,-8142.265362,2374.896044
22015.766480,2886.803174,-10584.944971,-1302.362347
22015.766813,3330.926739,-12953.603985,-1838.629195
22015.767146,0.000000,-12139.377449,-2911.162892
22015.767480,-1776.494261,-13249.686362,-4443.353888
22015.767813,-4737.318029,-11917.315666,-3677.258390
22015.768146,-4737.318029,-7179.997637,-1378.971896
22015.768480,-2442.679609,-9474.636058,-2834.553343
22015.768813,-2368.659014,-7772.162391,1225.752797
22015.769146,592.164754,-7476.080014,8503.660028
22015.769479,-1184.329507,-3034.844362,5056.230287
22015.769812,592.164754,-4811.338623,5439.278036
22015.770145,0.000000,-7624.121203,2068.457845
22015.770478,-962.267725,-10214.842000,1762.019645
22015.770811,3478.967927,-9474.636058,-76.609550
22015.771144,-2368.659014,-8956.491898,-4366.744339
22015.771477,-1258.350101,-11251.130318,-8273.831378
22015.771810,-2368.659014,-10140.821405,-2451.505594
22015.772143,-1776.494261,-13101.645173,-1302.362347
22015.772476,1702.473667,-11843.295072,1149.143247
22015.772810,-74.020594,-12435.459826,2374.896044
22015.773143,0.000000,-7179.997637,6128.763984
22015.773476,2590.720797,-5773.606348,7660.954980
22015.773809,1702.473667,-4515.256246,4903.011187
22015.774142,2664.741391,-5995.668130,4673.182538
22015.774475,0.000000,-6291.750507,-2068.457845
22015.774808,-2368.659014,-12805.562797,2068.457845
22015.775141,-370.102971,-6957.935855,-2528.115143
22015.775474,-1702.473667,-10362.883188,-3447.429741
22015.775807,-74.020594,-11251.130318,-3140.991542
22015.776140,-1776.494261,-9696.697840,-3064.381992
22015.776473,-2664.741391,-9770.718434,-2528.115143
22015.776806,1110.308913,-9326.594869,-689.485948
22015.777139,1110.308913,-11843.295072,2374.896044
22015.777472,2368.659014,-8364.327145,4213.525239
22015.777805,3478.967927,-10658.965565,3600.648841
22015.778138,3478.967927,-9548.656652,2451.505594
22015.778471,1776.494261,-7179.997637,4290.134789
22015.778804,4959.379811,-6957.935855,2068.457845
22015.779137,888.247130,-10658.965565,-919.314598
22015.779470,0.000000,-9474.636058,-1915.238745
22015.779803,444.123565,-8660.409521,-4903.011187
22015.780136,2738.761985,-9918.759623,-4903.011187
22015.780469,0.000000,-13841.851115,1762.019645
22015.780802,2294.638420,-8216.285956,-995.924147
22015.781135,1110.308913,-8364.327145,0.000000
22015.781468,0.000000,-7179.997637,1378.971896
22015.781801,-74.020594,-9178.553681,-1072.533697
22015.782135,4663.297435,-7698.141797,1608.800546
22015.782468,222.061783,-9474.636058,2987.772442
22015.782801,-370.102971,-7698.141797,1608.800546
22015.783134,-1406.391290,-5995.668130,-1532.190996
22015.783467,-74.020594,-9326.594869,-1455.581446
22015.783800,-2664.741391,-9918.759623,-842.705048
22015.784133,-5847.626942,-11251.130318,-2068.457845
22015.784466,-1924.535449,-8290.306550,-76.609550
22015.784799,-1258.350101,-9474.636058,842.705048
22015.785132,2960.823768,-5403.503377,2451.505594
22015.785465,2738.761985,-11843.295072,3600.648841
22015.785798,2516.700203,-6883.915261,2145.067394
22015.786131,0.000000,-12509.480420,2757.943793
22015.786464,888.247130,-9030.512492,2221.676944
22015.786797,-1406.391290,-11473.192101,536.266849
22015.787130,-1258.350101,-9178.553681,-1915.238745
22015.787463,-2738.761985,-9474.636058,-842.705048
22015.787796,-74.020594,-6809.894666,-4749.792088
22015.788129,0.000000,-7772.162391,3907.087040
22015.788462,-1480.411884,-9844.739029,4213.525239
22015.788795,2294.638420,-5329.482782,0.000000
22015.789128,-74.020594,-9474.636058,2374.896044
22015.789461,1480.411884,-7476.080014,1302.362347
22015.789794,-74.020594,-7772.162391,689.485948
22015.790127,1480.411884,-10362.883188,-2145.067394
22015.790460,0.000000,-11029.068536,-1225.752797
22015.790793,-74.020594,-10732.986159,-4903.011187
22015.791126,888.247130,-11843.295072,-1915.238745
22015.791460,814.226536,-11547.212695,-2221.676944
22015.791793,518.144159,-10881.027347,0.000000
22015.792126,3034.844362,-5107.421000,4213.525239
22015.792459,2368.659014,-6365.771101,2374.896044
22015.792792,3701.029710,-9178.553681,4366.744339
22015.793125,3108.864956,-4219.173869,3217.601092
22015.793458,6513.812290,-7994.224174,2451.505594
22015.793791,0.000000,-11325.150913,0.000000
22015.794124,4663.297435,-10658.965565,2374.896044
22015.794457,2590.720797,-8956.491898,-2451.505594
22015.794790,2368.659014,-10436.903782,0.000000
22015.795123,-1480.411884,-10955.047942,-3064.381992
22015.795456,-3923.091493,-11843.295072,-5515.887586
22015.795789,-1998.556043,-9696.697840,-1608.800546
22015.796122,-2886.803174,-10658.965565,-1991.848295
22015.796455,-1554.432478,-7698.141797,-76.609550
22015.796788,592.164754,-4959.379811,2987.772442
22015.797121,2294.638420,-7031.956449,2145.067394
22015.797454,1184.329507,-6587.832884,6741.640382
22015.797787,7920.203579,-7105.977043,4519.963438
22015.798120,-1184.329507,-11917.315666,0.000000
22015.798453,1184.329507,-9326.594869,-229.828649
22015.798786,-4071.132681,-12879.583391,-3830.477490
22015.799119,-592.164754,-9844.739029,-5132.839837
22015.799452,-1850.514855,-14804.118840,-2528.115143
22015.799785,-2886.803174,-10955.047942,-1991.848295
22015.800118,-2368.659014,-8438.347739,-383.047749
22015.800451,-6587.832884,-10214.842000,0.000000
22015.800785,-1554.432478,-7254.018232,1762.019645
22015.801118,-1258.350101,-9474.636058,5439.278036
22015.801451,1924.535449,-6291.750507,9806.022374
22015.801784,3182.885551,-4737.318029,2374.896044
22015.802117,592.164754,-6883.915261,3064.381992
22015.802450,-1184.329507,-6587.832884,766.095498
22015.802783,-222.061783,-10066.800811,-4060.306139
22015.803116,-666.185348,-11843.295072,-2604.724693
22015.803449,-2738.761985,-11843.295072,-3217.601092
22015.803782,740.205942,-11251.130318,-2528.115143
22015.804115,-2072.576638,-9548.656652,0.000000
22015.804448,-370.102971,-9474.636058,-2834.553343
22015.804781,1998.556043,-8882.471304,1762.019645
22015.805114,-888.247130,-8068.244768,3064.381992
22015.805447,4367.215058,-9474.636058,4826.401637
22015.805780,3478.967927,-6735.874072,1225.752797
22015.806113,4663.297435,-8290.306550,2681.334243
22015.806446,4293.194464,-6291.750507,1302.362347
22015.806779,4737.318029,-7846.182985,2757.943793
22015.807112,2368.659014,-8364.327145,-1838.629195
22015.807445,-4737.318029,-9548.656652,-2911.162892
22015.807778,-74.020594,-11251.130318,-7584.345430
22015.808111,444.123565,-11917.315666,-6588.421283
22015.808444,0.000000,-13397.727550,766.095498
22015.808777,370.102971,-8364.327145,1532.190996
22015.809110,2886.803174,-6069.688724,2221.676944
22015.809443,2590.720797,-11103.089130,5439.278036
22015.809777,1480.411884,-9104.533087,3140.991542
22015.810110,6439.791695,-4737.318029,4213.525239
22015.810443,740.205942,-9030.512492,1762.019645
22015.810776,5551.544565,-5107.421000,612.876398
22015.811109,0.000000,-9770.718434,1762.019645
22015.811442,2294.638420,-10955.047942,-1302.362347
22015.811775,-4737.318029,-12509.480420,-3677.258390
22015.812108,-4737.318029,-11769.274478,-5439.278036
22015.812441,-2442.679609,-11103.089130,-3294.210641
22015.812774,-4811.338623,-12879.583391,-1915.238745
22015.813107,518.144159,-8586.388927,2834.553343
22015.813440,-1258.350101,-7105.977043,2068.457845
22015.813773,2368.659014,-4811.338623,4290.134789
22015.814106,-1776.494261,-7772.162391,8350.440928
22015.814439,3182.885551,-5255.462188,3677.258390
22015.814772,592.164754,-4959.379811,5209.449386
22015.815105,-2146.597232,-7846.182985,-995.924147
22015.815438,-592.164754,-6809.894666,-4366.744339
22015.815771,-6291.750507,-10288.862594,-5209.449386
22015.816104,-3997.112087,-10955.047942,-5822.325785
22015.816437,-5995.668130,-10658.965565,-4596.572988
22015.816770,-4811.338623,-11621.233289,-2757.943793
22015.817103,592.164754,-6883.915261,-306.438199
22015.817436,-1998.556043,-13397.727550,2068.457845
22015.817769,5847.626942,-4145.153275,4519.963438
22015.818102,5551.544565,-11103.089130,8503.660028
22015.818435,5255.462188,-8068.244768,4903.011187
22015.818768,4145.153275,-10140.821405,7354.516781
22015.819102,1776.494261,-8660.409521,1225.752797
22015.819435,1702.473667,-5403.503377,-2298.286494
22015.819768,-2960.823768,-10658.965565,-3753.867940
22015.820101,296.082377,-10288.862594,-2451.505594
22015.820434,-3404.947333,-10362.883188,-3370.820191
22015.820767,-2960.823768,-8364.327145,-4903.011187
22015.821100,-2442.679609,-11547.212695,-3140.991542
22015.821433,3478.967927,-7846.182985,612.876398
22015.821766,0.000000,-6587.832884,1838.629195
22015.822099,6735.874072,-12435.459826,4213.525239
22015.822432,4145.153275,-8142.265362,5439.278036
22015.822765,2072.576638,-8956.491898,1915.238745
22015.823098,6735.874072,-6957.935855,536.266849
22015.823431,888.247130,-12139.377449,-2145.067394
22015.823764,4293.194464,-11547.212695,3600.648841
22015.824097,2886.803174,-7031.956449,-3064.381992
22015.824430,0.000000,-9548.656652,-4903.011187
22015.824763,0.000000,-10584.944971,-995.924147
22015.825096,-1850.514855,-9770.718434,459.657299
22015.825429,2886.803174,-6217.729913,1915.238745
22015.825762,1258.350101,-7105.977043,2374.896044
22015.826095,1406.391290,-9030.512492,3447.429741
22015.826428,1406.391290,-7846.182985,2298.286494
22015.826761,-74.020594,-8882.471304,2068.457845
22015.827094,-3182.885551,-7179.997637,-3064.381992
22015.827427,-1850.514855,-11547.212695,-1302.362347
22015.827760,-1258.350101,-10658.965565,-1915.238745
22015.828093,-1776.494261,-7179.997637,-2451.505594
22015.828427,1110.308913,-9474.636058,1149.143247
22015.828760,-3182.885551,-8512.368333,-383.047749
22015.829093,-1258.350101,-11843.295072,1072.533697
22015.829426,3775.050304,-9770.718434,4213.525239
22015.829759,2294.638420,-11843.295072,4519.963438
22015.830092,2960.823768,-7550.100608,3600.648841
22015.830425,666.185348,-8068.244768,766.095498
22015.830758,518.144159,-8586.388927,536.266849
22015.831091,-4737.318029,-9696.697840,1225.752797
22015.831424,-2812.782580,-8290.306550,-1915.238745
22015.831757,-5107.421000,-9844.739029,-4903.011187
22015.832090,-6883.915261,-8364.327145,-4290.134789
22015.832423,296.082377,-6883.915261,2681.334243
22015.832756,-5773.606348,-7772.162391,0.000000
22015.833089,3182.885551,-5107.421000,3600.648841
22015.833422,296.082377,-8068.244768,4519.963438
22015.833755,2072.576638,-7179.997637,2987.772442
22015.834088,4663.297435,-11843.295072,4213.525239
22015.834421,962.267725,-12435.459826,-76.609550
22015.834754,1184.329507,-5995.668130,766.095498
22015.835087,-370.102971,-13027.624579,-76.609550
22015.835420,1110.308913,-11547.212695,-3907.087040
22015.835753,-2220.617826,-12435.459826,-2451.505594
22015.836086,-814.226536,-11251.130318,-2528.115143
22015.836419,-814.226536,-10214.842000,-1532.190996
22015.836752,518.144159,-8882.471304,-536.266849
22015.837085,3478.967927,-7846.182985,3064.381992
22015.837418,7105.977043,-7402.059420,8503.660028
22015.837752,3256.906145,-4811.338623,4903.011187
22015.838085,4663.297435,-8290.306550,1149.143247
22015.838418,4663.297435,-10658.965565,-995.924147
22015.838751,1110.308913,-7846.182985,-1302.362347
22015.839084,1702.473667,-10066.800811,-4673.182538
22015.839417,0.000000,-9252.574275,-4903.011187
22015.839750,-4589.276840,-13101.645173,-3217.601092
22015.840083,-3552.988522,-10140.821405,-3677.258390
22015.840416,-1554.432478,-10658.965565,-76.609550
22015.840749,-2960.823768,-8364.327145,-2451.505594
22015.841082,2960.823768,-8438.347739,8963.317327
22015.841415,4071.132681,-5921.647536,5286.058936
22015.841748,5329.482782,-4219.173869,7660.954980
22015.842081,2368.659014,-8290.306550,4366.744339
22015.842414,5403.503377,-5329.482782,229.828649
22015.842747,1110.308913,-13175.665768,459.657299
22015.843080,-74.020594,-13619.789333,-4366.744339
22015.843413,-3923.091493,-11325.150913,-6128.763984
22015.843746,-3182.885551,-14211.954086,-5592.497135
22015.844079,-222.061783,-10658.965565,-1915.238745
22015.844412,-4441.235652,-7772.162391,919.314598
22015.844745,0.000000,-7179.997637,612.876398
22015.845078,-1110.308913,-9104.533087,4290.134789
22015.845411,-518.144159,-6513.812290,6435.202183
22015.845744,3256.906145,-2072.576638,5439.278036
22015.846077,2294.638420,-10362.883188,6052.154434
22015.846410,0.000000,-4219.173869,1532.190996
22015.846743,-1258.350101,-8586.388927,0.000000
22015.847077,-4145.153275,-11103.089130,-3370.820191
22015.847410,-4071.132681,-9400.615463,-6894.859482
22015.847743,-3997.112087,-14804.118840,-4979.620737
22015.848076,-2072.576638,-8660.409521,-3677.258390
22015.848409,-4441.235652,-10732.986159,0.000000
22015.848742,1036.288319,-9474.636058,1149.143247
22015.849075,0.000000,-10140.821405,4903.011187
22015.849408,2664.741391,-7031.956449,6665.030833
22015.849741,1480.411884,-8068.244768,5362.668486
22015.850074,2368.659014,-8290.306550,4673.182538
22015.850407,3108.864956,-7254.018232,2145.067394
22015.850740,1702.473667,-12435.459826,2374.896044
22015.851073,1332.370696,-6587.832884,2451.505594
22015.851406,-666.185348,-9474.636058,-2528.115143
22015.851739,1702.473667,-13619.789333,-4060.306139
22015.852072,-4145.153275,-9696.697840,-4749.792088
22015.852405,-74.020594,-10658.965565,-5592.497135
22015.852738,-3108.864956,-11917.315666,-1685.410096
22015.853071,148.041188,-8956.491898,-766.095498
22015.853404,2590.720797,-7846.182985,4443.353888
22015.853737,1924.535449,-5403.503377,3677.258390
22015.854070,0.000000,-4811.338623,4903.011187
22015.854403,-74.020594,-11547.212695,2987.772442
22015.854736,1776.494261,-3627.009116,612.876398
22015.855069,740.205942,-8586.388927,2374.896044
22015.855402,2294.638420,-4811.338623,-4903.011187
22015.855735,666.185348,-12731.542202,-1991.848295
22015.856068,592.164754,-9622.677246,-2834.553343
22015.856402,2146.597232,-11917.315666,-3140.991542
22015.856735,-4145.153275,-14730.098246,-1838.629195
22015.857068,3034.844362,-9474.636058,-76.609550
22015.857401,-74.020594,-13619.789333,1762.019645
22015.857734,4737.318029,-5551.544565,4903.011187
22015.858067,3256.906145,-5699.585753,7584.345430
22015.858400,2294.638420,-7254.018232,5056.230287
22015.858733,3478.967927,-4589.276840,4596.572988
22015.859066,-3627.009116,-9030.512492,-1915.238745
22015.859399,2812.782580,-9844.739029,-3064.381992
22015.859732,-3923.091493,-13989.892304,2451.505594
22015.860065,-74.020594,-5477.523971,-1762.019645
22015.860398,-592.164754,-9992.780217,-3217.601092
22015.860731,-1776.494261,-10510.924376,-1838.629195
22015.861064,296.082377,-7105.977043,-3140.991542
22015.861397,-2072.576638,-9548.656652,919.314598
22015.861730,0.000000,-8956.491898,1685.410096
22015.862063,-2442.679609,-11251.130318,1149.143247
22015.862396,2886.803174,-8586.388927,2451.505594
22015.862729,1110.308913,-7698.141797,3600.648841
22015.863062,1110.308913,-7698.141797,1762.019645
22015.863395,-962.267725,-8216.285956,76.609550
22015.863728,-2738.761985,-8956.491898,-2068.457845
22015.864061,-3627.009116,-10732.986159,-4290.134789
22015.864394,-370.102971,-13027.624579,-76.609550
22015.864727,0.000000,-8364.327145,1455.581446
22015.865060,4663.297435,-7994.224174,2068.457845
22015.865394,2886.803174,-10658.965565,3600.648841
22015.865727,1184.329507,-4811.338623,1225.752797
22015.866060,-666.185348,-10732.986159,-3600.648841
22015.866393,2072.576638,-11325.150913,-1685.410096
22015.866726,0.000000,-14137.933492,2298.286494
22015.867059,3404.947333,-6291.750507,3140.991542
22015.867392,-1184.329507,-8364.327145,383.047749
22015.867725,-370.102971,-7698.141797,-689.485948
22015.868058,-2738.761985,-7772.162391,0.000000
22015.868391,-2960.823768,-8364.327145,689.485948
22015.868724,-1258.350101,-9474.636058,-76.609550
22015.869057,-2368.659014,-5107.421000,-459.657299
22015.869390,296.082377,-9844.739029,2068.457845
22015.869723,3627.009116,-6291.750507,3753.867940
22015.870056,-148.041188,-10214.842000,0.000000
22015.870389,2664.741391,-7624.121203,0.000000
22015.870722,4071.132681,-13027.624579,-76.609550
22015.871055,-74.020594,-11843.295072,-2528.115143
22015.871388,1184.329507,-9548.656652,1838.629195
22015.871721,-1850.514855,-11843.295072,-689.485948
22015.872054,5107.421000,-7550.100608,1149.143247
22015.872387,-2812.782580,-10881.027347,1302.362347
22015.872720,444.123565,-7179.997637,76.609550
22015.873053,-2146.597232,-5773.606348,-1608.800546
22015.873386,2516.700203,-9474.636058,4213.525239
22015.873719,1776.494261,-6587.832884,1838.629195
22015.874052,2886.803174,-10362.883188,3600.648841
22015.874385,4367.215058,-9178.553681,2068.457845
22015.874718,-370.102971,-8364.327145,-2298.286494
22015.875051,5847.626942,-14211.954086,-76.609550
22015.875384,-4145.153275,-11917.315666,-3677.258390
22015.875717,740.205942,-12361.439231,-2528.115143
22015.876050,-1998.556043,-8734.430116,-1685.410096
22015.876383,1110.308913,-13027.624579,3294.210641
22015.876716,-1628.453072,-5995.668130,2298.286494
22015.877049,-1184.329507,-6587.832884,2145.067394
22015.877382,444.123565,-7550.100608,1302.362347
22015.877715,-2368.659014,-7179.997637,2451.505594
22015.878048,3256.906145,-7105.977043,4213.525239
22015.878381,4367.215058,-6365.771101,2451.505594
22015.878714,1184.329507,-6587.832884,3983.696590
22015.879047,1110.308913,-12435.459826,1455.581446
22015.879380,-1258.350101,-9474.636058,-6205.373534
22015.879713,-1184.329507,-14804.118840,-5592.497135
22015.880046,-3404.947333,-16136.489536,-4290.134789
22015.880379,-814.226536,-9844.739029,459.657299
22015.880712,-2516.700203,-10066.800811,1225.752797
22015.881045,0.000000,-8364.327145,6358.592633
22015.881378,-74.020594,-4737.318029,3064.381992
22015.881710,1184.329507,-3627.009116,7354.516781
22015.882043,1036.288319,-4219.173869,3294.210641
22015.882376,0.000000,-8364.327145,2451.505594
22015.882709,-74.020594,-7698.141797,-2528.115143
22015.883042,1702.473667,-11769.274478,-229.828649
22015.883375,-740.205942,-9104.533087,-4366.744339
22015.883708,-74.020594,-11843.295072,-7737.564530
22015.884041,-2812.782580,-15988.448347,-2528.115143
22015.884374,-4219.173869,-9548.656652,-7354.516781
22015.884707,-3256.906145,-14878.139434,689.485948
22015.885040,3478.967927,-8808.450710,5439.278036
22015.885373,4071.132681,-8586.388927,9116.536426
22015.885706,6143.709319,-296.082377,8733.488677
22015.886039,2220.617826,-7254.018232,7048.078582
22015.886372,1776.494261,-5033.400406,1915.238745
22015.886705,0.000000,-7476.080014,1838.629195
22015.887038,-74.020594,-10658.965565,-1608.800546
22015.887371,592.164754,-6587.832884,-6741.640382
22015.887704,-6513.812290,-15692.365970,-6818.249932
22015.888037,-1258.350101,-10288.862594,-9116.536426
22015.888370,-5625.565159,-12509.480420,-7048.078582
22015.888703,0.000000,-12213.398043,-1149.143247
22015.889036,-962.267725,-10807.006753,306.438199
22015.889369,4737.318029,-7772.162391,6894.859482
22015.889702,7105.977043,-7550.100608,11338.213370
22015.890035,7031.956449,-3923.091493,9806.022374
22015.890368,7179.997637,-7105.977043,8810.098227
22015.890701,3478.967927,-4811.338623,3447.429741
22015.891034,0.000000,-8956.491898,1532.190996
22015.891367,-2368.659014,-5995.668130,-4903.011187
22015.891700,-4515.256246,-11695.253884,-7048.078582
22015.892033,-2442.679609,-9696.697840,-7507.735880
22015.892366,-4071.132681,-11621.233289,-5515.887586
22015.892699,-1850.514855,-11843.295072,-1532.190996
22015.893032,-1258.350101,-9992.780217,-2451.505594
22015.893365,1406.391290,-11695.253884,3447.429741
22015.893698,2886.803174,-8808.450710,5822.325785
22015.894031,3997.112087,-4663.297435,4903.011187
22015.894364,4737.318029,-8956.491898,8273.831378
22015.894697,3478.967927,-7698.141797,919.314598
22015.895030,1184.329507,-11029.068536,6741.640382
22015.895363,3478.967927,-7105.977043,-153.219100
22015.895696,-2664.741391,-11399.171507,-4060.306139
22015.896029,-2960.823768,-7476.080014,-2221.676944
22015.896362,-5847.626942,-12361.439231,-5515.887586
22015.896695,-2294.638420,-8660.409521,-3600.648841
22015.897028,-2960.823768,-9770.718434,-919.314598
22015.897361,-222.061783,-10362.883188,-76.609550
22015.897694,1702.473667,-6735.874072,2451.505594
22015.898027,-2072.576638,-9844.739029,612.876398
22015.898360,6809.894666,-8290.306550,6052.154434
22015.898693,-814.226536,-8142.265362,3217.601092
22015.899026,888.247130,-9474.636058,842.705048
22015.899359,-4589.276840,-11325.150913,-536.266849
22015.899692,-1332.370696,-9104.533087,-1532.190996
22015.900025,1554.432478,-8068.244768,-612.876398
22015.900358,1628.453072,-5329.482782,-1302.362347
22015.900691,-962.267725,-5403.503377,0.000000
22015.901024,-370.102971,-10658.965565,-2528.115143
22015.901357,1702.473667,-11251.130318,-76.609550
22015.901690,-3552.988522,-11917.315666,-1225.752797
22015.902023,3478.967927,-9104.533087,2068.457845
22015.902356,-888.247130,-10658.965565,2145.067394
22015.902689,1184.329507,-5699.585753,2221.676944
22015.903022,-222.061783,-6513.812290,-1302.362347
22015.903355,0.000000,-9104.533087,2451.505594
22015.903688,444.123565,-9474.636058,2757.943793
22015.904021,1998.556043,-10658.965565,1149.143247
22015.904354,518.144159,-8438.347739,-1149.143247
22015.904687,-3552.988522,-7179.997637,2068.457845
22015.905020,4071.132681,-8290.306550,-1302.362347
22015.905353,1406.391290,-10807.006753,1532.190996
22015.905686,2590.720797,-8216.285956,766.095498
22015.906019,-888.247130,-10436.903782,-1915.238745
22015.906352,2368.659014,-11325.150913,0.000000
22015.906685,0.000000,-10732.986159,229.828649
22015.907018,1776.494261,-10288.862594,3753.867940
22015.907351,2294.638420,-4811.338623,0.000000
22015.907684,-222.061783,-13619.789333,-76.609550
22015.908017,-1480.411884,-7698.141797,-995.924147
22015.908350,-3404.947333,-6587.832884,0.000000
22015.908683,-74.020594,-8586.388927,-689.485948
22015.909016,3182.885551,-7105.977043,-1915.238745
22015.909349,1702.473667,-13915.871710,4826.401637
22015.909682,5847.626942,-4737.318029,3140.991542
22015.910015,592.164754,-11473.192101,-76.609550
22015.910348,2220.617826,-9918.759623,0.000000
22015.910681,518.144159,-9844.739029,-459.657299
22015.911014,2294.638420,-10658.965565,3600.648841
22015.911347,-4737.318029,-9548.656652,-306.438199
22015.911680,-1258.350101,-9474.636058,-3753.867940
22015.912013,-2368.659014,-9548.656652,0.000000
22015.912346,-3849.070898,-7179.997637,919.314598
22015.912679,-1258.350101,-6365.771101,-1225.752797
22015.913011,-1036.288319,-6957.935855,1838.629195
22015.913344,1480.411884,-8808.450710,2451.505594
22015.913677,2220.617826,-9474.636058,4749.792088
22015.914010,814.226536,-6513.812290,1149.143247
22015.914343,2738.761985,-10658.965565,2374.896044
22015.914676,4071.132681,-8882.471304,536.266849
22015.915009,0.000000,-10288.862594,1225.752797
22015.915342,962.267725,-10066.800811,-459.657299
22015.915675,-5329.482782,-8364.327145,-6128.763984
22015.916008,-2590.720797,-13323.706956,-2987.772442
22015.916341,-1628.453072,-8660.409521,2221.676944
22015.916674,-2146.597232,-7624.121203,306.438199
22015.917007,-2368.659014,-5995.668130,-2451.505594
22015.917340,-666.185348,-11843.295072,2374.896044
22015.917673,2368.659014,-5995.668130,4903.011187
22015.918006,7105.977043,-1924.535449,8503.660028
22015.918339,3478.967927,-10658.965565,-76.609550
22015.918672,3256.906145,-7772.162391,-76.609550
22015.919005,-1332.370696,-13767.830521,-995.924147
22015.919338,2368.659014,-8142.265362,-4903.011187
22015.919671,-3182.885551,-13767.830521,-4826.401637
22015.920004,-1184.329507,-13841.851115,-3064.381992
22015.920337,-74.020594,-9474.636058,-2987.772442
22015.920670,0.000000,-7476.080014,306.438199
22015.921003,6883.915261,-11547.212695,7277.907231
22015.921336,3478.967927,-7105.977043,4826.401637
22015.921669,4145.153275,-6735.874072,4826.401637
22015.922002,1480.411884,-10214.842000,5132.839837
22015.922335,2146.597232,-7994.224174,2221.676944
22015.922668,2812.782580,-6513.812290,229.828649
22015.923001,2960.823768,-8660.409521,459.657299
22015.923334,2146.597232,-12213.398043,-5286.058936
22015.923667,-3256.906145,-13545.768739,-1072.533697
22015.924000,-1924.535449,-8068.244768,-5898.935335
22015.924333,-2294.638420,-11621.233289,-2681.334243
22015.924666,-2960.823768,-10732.986159,1225.752797
22015.924999,1702.473667,-7994.224174,2374.896044
22015.925332,1110.308913,-1554.432478,2451.505594
22015.925665,888.247130,-8438.347739,7584.345430
22015.925998,2294.638420,-5625.565159,4519.963438
22015.926331,888.247130,-8956.491898,5286.058936
22015.926664,2294.638420,-7476.080014,689.485948
22015.926997,-2294.638420,-10288.862594,-2145.067394
22015.927330,1184.329507,-8068.244768,-1838.629195
22015.927663,-2220.617826,-12213.398043,-2528.115143
22015.927996,1110.308913,-8364.327145,-4290.134789
22015.928329,-1628.453072,-8364.327145,-6128.763984
22015.928662,0.000000,-11917.315666,1225.752797
22015.928995,-2368.659014,-10732.986159,-919.314598
22015.929328,-1702.473667,-9548.656652,1149.143247
22015.929661,1036.288319,-7698.141797,4979.620737
22015.929994,3256.906145,-7328.038826,6435.202183
22015.930327,2886.803174,-9474.636058,8503.660028
22015.930660,0.000000,-4219.173869,3600.648841
22015.930993,-1258.350101,-5995.668130,-3064.381992
22015.931326,-3552.988522,-8956.491898,-1915.238745
22015.931659,-2368.659014,-8068.244768,-1378.971896
22015.931992,-1258.350101,-11103.089130,-3677.258390
22015.932325,-740.205942,-9770.718434,-5056.230287
22015.932658,-888.247130,-13101.645173,-4903.011187
22015.932991,222.061783,-14730.098246,-306.438199
22015.933324,1702.473667,-9770.718434,5362.668486
22015.933657,4441.235652,-9178.553681,4213.525239
22015.933990,2368.659014,-6587.832884,3907.087040
22015.934323,0.000000,-10436.903782,7890.783629
22015.934656,4071.132681,-3108.864956,2681.334243
22015.934989,222.061783,-6217.729913,2068.457845
22015.935322,740.205942,-7624.121203,-919.314598
22015.935655,-4737.318029,-11177.109724,-2145.067394
22015.935988,-5181.441594,-9400.615463,-5439.278036
22015.936321,-3997.112087,-9548.656652,-7048.078582
22015.936654,2294.638420,-9474.636058,-4673.182538
22015.936987,592.164754,-13249.686362,3294.210641
22015.937320,3478.967927,-7994.224174,-76.609550
22015.937653,2294.638420,-10140.821405,2451.505594
22015.937986,3849.070898,-7254.018232,3677.258390
22015.938319,6587.832884,-9400.615463,4903.011187
22015.938652,4515.256246,-9104.533087,4596.572988
22015.938985,5329.482782,-8142.265362,1378.971896
22015.939318,0.000000,-12509.480420,1225.752797
22015.939651,3182.885551,-6587.832884,612.876398
22015.939984,-2442.679609,-9030.512492,-1915.238745
22015.940317,-962.267725,-7624.121203,-2834.553343
22015.940650,-3108.864956,-11103.089130,-4519.963438
22015.940983,-1776.494261,-7772.162391,0.000000
22015.941316,-370.102971,-10658.965565,1072.533697
22015.941649,1998.556043,-4885.359217,0.000000
22015.941982,0.000000,-9252.574275,2068.457845
22015.942315,1110.308913,-11843.295072,4519.963438
22015.942648,0.000000,-8364.327145,2757.943793
22015.942981,-666.185348,-5773.606348,612.876398
22015.943314,-370.102971,-10288.862594,0.000000
22015.943647,370.102971,-6291.750507,153.219100
22015.943980,296.082377,-11399.171507,2068.457845
22015.944313,-74.020594,-5995.668130,-3064.381992
22015.944645,-888.247130,-11473.192101,2451.505594
22015.944978,-2220.617826,-12435.459826,-76.609550
22015.945311,3478.967927,-4737.318029,1225.752797
22015.945644,-888.247130,-13989.892304,2681.334243
22015.945977,4737.318029,-7476.080014,1838.629195
22015.946310,-148.041188,-13101.645173,-1685.410096
22015.946643,370.102971,-13989.892304,3294.210641
22015.946976,1998.556043,-5329.482782,2374.896044
22015.947309,-74.020594,-7179.997637,-3064.381992
22015.947642,2072.576638,-7994.224174,3294.210641
22015.947975,-4811.338623,-9474.636058,-2528.115143
22015.948308,-2960.823768,-6291.750507,-1225.752797
22015.948641,-1258.350101,-8882.471304,-1302.362347
22015.948974,-3701.029710,-10288.862594,-1149.143247
22015.949307,-1184.329507,-8660.409521,612.876398
22015.949640,1628.453072,-8290.306550,1149.143247
22015.949973,296.082377,-8364.327145,0.000000
22015.950306,2368.659014,-10436.903782,3677.258390
22015.950639,5847.626942,-9474.636058,-76.609550
22015.950972,1850.514855,-9548.656652,0.000000
22015.951305,2368.659014,-10288.862594,2757.943793
22015.951638,-74.020594,-11843.295072,-2528.115143
22015.951971,296.082377,-10066.800811,-459.657299
22015.952304,1702.473667,-6957.935855,-1455.581446
22015.952637,0.000000,-11547.212695,536.266849
22015.952970,-1480.411884,-7476.080014,2451.505594
22015.953303,-1184.329507,-8364.327145,1378.971896
22015.953636,1998.556043,-8364.327145,4443.353888
22015.953969,1258.350101,-7328.038826,3524.039291
22015.954302,4663.297435,-7698.141797,5439.278036
22015.954635,2294.638420,-8882.471304,-383.047749
22015.954968,148.041188,-9548.656652,-2451.505594
22015.955301,-74.020594,-10658.965565,-1915.238745
22015.955634,-370.102971,-8734.430116,-5975.544884
22015.955967,-2664.741391,-14211.954086,-1225.752797
22015.956300,-5921.647536,-9030.512492,-2757.943793
22015.956633,-2516.700203,-9844.739029,-1225.752797
22015.956966,666.185348,-3701.029710,1072.533697
22015.957299,2368.659014,-10732.986159,3370.820191
22015.957632,5329.482782,-4811.338623,9882.631924
22015.957965,-2368.659014,-8364.327145,6741.640382
22015.958298,5255.462188,-9474.636058,2068.457845
22015.958631,1628.453072,-10362.883188,1915.238745
22015.958964,1554.432478,-10214.842000,-76.609550
22015.959297,3330.926739,-7994.224174,-689.485948
22015.959630,-3923.091493,-10584.944971,-6741.640382
22015.959963,1628.453072,-10288.862594,-3140.991542
22015.960296,-2738.761985,-10658.965565,1762.019645
22015.960629,2294.638420,-9474.636058,-76.609550
22015.960962,-2368.659014,-9696.697840,2451.505594
22015.961295,-2442.679609,-13619.789333,2068.457845
22015.961628,-1554.432478,-4811.338623,2451.505594
22015.961961,0.000000,-5995.668130,4290.134789
22015.962294,1702.473667,-7698.141797,0.000000
22015.962627,518.144159,-9474.636058,1915.238745
22015.962960,148.041188,-9030.512492,-1302.362347
22015.963293,1998.556043,-8734.430116,-1532.190996
22015.963626,-1036.288319,-10436.903782,-3370.820191
22015.963959,3627.009116,-11843.295072,-383.047749
22015.964292,-74.020594,-13619.789333,-76.609550
22015.964625,0.000000,-7179.997637,0.000000
22015.964958,1702.473667,-9474.636058,2068.457845
22015.965291,0.000000,-8660.409521,1838.629195
22015.965624,2294.638420,-8142.265362,0.000000
22015.965957,-1110.308913,-14137.933492,1532.190996
22015.966290,444.123565,-10732.986159,4060.306139
22015.966623,-2368.659014,-6587.832884,1532.190996
22015.966956,3478.967927,-9474.636058,2068.457845
22015.967289,0.000000,-4811.338623,2604.724693
22015.967622,0.000000,-6587.832884,919.314598
22015.967955,3478.967927,-9474.636058,-1915.238745
22015.968288,-4441.235652,-10140.821405,-4903.011187
22015.968621,-3552.988522,-11103.089130,-4060.306139
22015.968954,-2220.617826,-10658.965565,-2604.724693
22015.969287,0.000000,-11843.295072,76.609550
22015.969620,1184.329507,-8956.491898,4290.134789
22015.969953,3627.009116,-6809.894666,5209.449386
22015.970286,2220.617826,-6439.791695,6281.983084
22015.970619,2294.638420,-7698.141797,2528.115143
22015.970952,4071.132681,-10658.965565,3600.648841
22015.971285,296.082377,-7476.080014,1532.190996
22015.971619,296.082377,-9918.759623,-383.047749
22015.971952,-74.020594,-8290.306550,-4366.744339
22015.972285,-2072.576638,-8512.368333,-3447.429741
22015.972618,-74.020594,-10658.965565,-1915.238745
22015.972951,-3256.906145,-11029.068536,-2145.067394
22015.973284,-2368.659014,-10436.903782,-3524.039291
22015.973617,-370.102971,-10362.883188,459.657299
22015.973950,1480.411884,-7179.997637,3677.258390
22015.974283,2294.638420,-6291.750507,3217.601092
22015.974617,2886.803174,-7105.977043,4826.401637
22015.974950,-2368.659014,-5995.668130,3677.258390
22015.975283,2886.803174,-6513.812290,2374.896044
22015.975616,1406.391290,-8290.306550,1455.581446
22015.975949,1184.329507,-8216.285956,1685.410096
22015.976282,-592.164754,-8882.471304,-2757.943793
22015.976615,-1702.473667,-10955.047942,-2987.772442
22015.976948,-3552.988522,-12731.542202,-6588.421283
22015.977281,-2664.741391,-10140.821405,-2451.505594
22015.977615,2294.638420,-12731.542202,-3140.991542
22015.977948,740.205942,-10436.903782,1225.752797
22015.978281,1184.329507,-8956.491898,5286.058936
22015.978614,3849.070898,-7179.997637,2451.505594
22015.978947,3627.009116,-7698.141797,4826.401637
22015.979280,1480.411884,-7328.038826,1455.581446
22015.979613,-3108.864956,-9548.656652,0.000000
22015.979946,-666.185348,-8290.306550,-1608.800546
22015.980279,-2368.659014,-10288.862594,-1608.800546
22015.980612,1702.473667,-7105.977043,-3447.429741
22015.980946,0.000000,-10732.986159,612.876398
22015.981279,4145.153275,-9178.553681,2451.505594
22015.981612,2294.638420,-11843.295072,1762.019645
22015.981945,-1406.391290,-11399.171507,-1072.533697
22015.982278,1406.391290,-12287.418637,-229.828649
22015.982611,1924.535449,-9474.636058,2221.676944
22015.982944,-1776.494261,-7772.162391,1225.752797
22015.983277,4663.297435,-7105.977043,2987.772442
22015.983610,-5329.482782,-7772.162391,2145.067394
22015.983944,-3552.988522,-3627.009116,-306.438199
22015.984277,-3330.926739,-10658.965565,-4060.306139
22015.984610,-3330.926739,-12065.356855,-1532.190996
22015.984943,-2590.720797,-8216.285956,-2068.457845
22015.985276,-740.205942,-7254.018232,229.828649
22015.985609,4145.153275,-9474.636058,3983.696590
22015.985942,3552.988522,-5995.668130,3064.381992
22015.986275,4663.297435,-11843.295072,3907.087040
22015.986608,3701.029710,-9844.739029,2145.067394
22015.986942,148.041188,-11769.274478,229.828649
22015.987275,-444.123565,-9548.656652,536.266849
22015.987608,0.000000,-6439.791695,-2298.286494
22015.987941,-740.205942,-9474.636058,-76.609550
22015.988274,-3034.844362,-7328.038826,-4596.572988
22015.988607,-3552.988522,-7698.141797,1455.581446
22015.988940,-1776.494261,-6957.935855,2987.772442
22015.989273,-666.185348,-5403.503377,-1838.629195
22015.989606,1998.556043,-8290.306550,1455.581446
22015.989939,2960.823768,-11251.130318,3907.087040
22015.990273,3849.070898,-12435.459826,4060.306139
22015.990606,2368.659014,-10140.821405,3064.381992
22015.990939,4663.297435,-11843.295072,-76.609550
22015.991272,296.082377,-7772.162391,-2528.115143
22015.991605,-2960.823768,-11325.150913,-1378.971896
22015.991938,-74.020594,-7698.141797,-5592.497135
22015.992271,-3256.906145,-9548.656652,306.438199
22015.992604,740.205942,-7105.977043,842.705048
22015.992937,-2664.741391,-6957.935855,383.047749
22015.993271,-3478.967927,-8068.244768,-612.876398
22015.993604,3330.926739,-8882.471304,4136.915689
22015.993937,2886.803174,-9474.636058,2068.457845
22015.994270,6069.688724,-4811.338623,3677.258390
22015.994603,592.164754,-9548.656652,4290.134789
22015.994936,4071.132681,-11103.089130,-766.095498
22015.995269,1332.370696,-10066.800811,-842.705048
22015.995602,-1628.453072,-12509.480420,-5439.278036
22015.995935,-74.020594,-10584.944971,-5898.935335
22015.996269,-3478.967927,-14211.954086,-2681.334243
22015.996602,814.226536,-7698.141797,76.609550
22015.996935,-1776.494261,-6587.832884,0.000000
22015.997268,-2072.576638,-8216.285956,5745.716235
22015.997601,3182.885551,-2368.659014,3907.087040
22015.997934,1110.308913,-7179.997637,1225.752797
22015.998267,2220.617826,-9474.636058,3907.087040
22015.998600,-444.123565,-10066.800811,229.828649
22015.998933,1184.329507,-9844.739029,-919.314598
22015.999267,1554.432478,-10214.842000,459.657299
22015.999600,-1258.350101,-8882.471304,-3907.087040
22015.999933,-2294.638420,-9474.636058,-4366.744339
22016.000266,-2368.659014,-11251.130318,-3907.087040
22016.000599,-1258.350101,-9696.697840,-2681.334243
22016.000932,0.000000,-8364.327145,1838.629195
22016.001265,2294.638420,-9474.636058,4826.401637
22016.001598,814.226536,-8586.388927,3677.258390
22016.001931,1184.329507,-6735.874072,4903.011187
22016.002264,962.267725,-9474.636058,5745.716235
22016.002598,2368.659014,-7476.080014,4290.134789
22016.002931,888.247130,-7328.038826,2221.676944
22016.003264,1036.288319,-8290.306550,-2681.334243
22016.003597,1110.308913,-11251.130318,-536.266849
22016.003930,222.061783,-8290.306550,-3753.867940
22016.004263,-3552.988522,-10436.903782,-4060.306139
22016.004596,-666.185348,-12139.377449,-3983.696590
22016.004929,-4737.318029,-11917.315666,-2757.943793
22016.005262,2294.638420,-11547.212695,3294.210641
22016.005596,2294.638420,-7994.224174,2374.896044
22016.005929,4515.256246,-10362.883188,6665.030833
22016.006262,2368.659014,-7105.977043,5286.058936
22016.006595,1628.453072,-6143.709319,2145.067394
22016.006928,1924.535449,-8734.430116,2987.772442
22016.007261,2220.617826,-9992.780217,3600.648841
22016.007594,592.164754,-5995.668130,0.000000
22016.007927,-74.020594,-9474.636058,-2528.115143
22016.008260,-962.267725,-8068.244768,-4596.572988
22016.008594,-3849.070898,-8438.347739,-4903.011187
22016.008927,-222.061783,-9474.636058,-4979.620737
22016.009260,-962.267725,-11177.109724,-3217.601092
22016.009593,-74.020594,-16136.489536,919.314598
22016.009926,3404.947333,-9548.656652,5209.449386
22016.010259,3775.050304,-9474.636058,4826.401637
22016.010592,1776.494261,-8660.409521,7890.783629
22016.010925,2664.741391,-6809.894666,4826.401637
22016.011258,2294.638420,-8142.265362,1532.190996
22016.011591,1184.329507,-7772.162391,2604.724693
22016.011925,-3330.926739,-6291.750507,-4903.011187
22016.012258,-3849.070898,-9400.615463,-3600.648841
22016.012591,-666.185348,-4737.318029,-5975.544884
22016.012924,-1924.535449,-14952.160028,-2068.457845
22016.013257,-3404.947333,-8956.491898,-4903.011187
22016.013590,-2072.576638,-15692.365970,-76.609550
22016.013923,-1554.432478,-11029.068536,0.000000
22016.014256,0.000000,-5995.668130,3677.258390
22016.014589,1776.494261,-11029.068536,7660.954980
22016.014923,5033.400406,-4811.338623,6741.640382
22016.015256,-666.185348,-8438.347739,4826.401637
22016.015589,1924.535449,-6439.791695,1532.190996
22016.015922,222.061783,-8438.347739,76.609550
22016.016255,-666.185348,-5107.421000,-2451.505594
22016.016588,-74.020594,-7105.977043,-2834.553343
22016.016921,-2812.782580,-12805.562797,-2604.724693
22016.017254,962.267725,-7402.059420,1455.581446
22016.017587,2294.638420,-7994.224174,-1915.238745
22016.017921,3330.926739,-11177.109724,0.000000
22016.018254,-1628.453072,-11917.315666,0.000000
22016.018587,1258.350101,-14211.954086,2374.896044
22016.018920,-222.061783,-10732.986159,2451.505594
22016.019253,592.164754,-9548.656652,4826.401637
22016.019586,962.267725,-4959.379811,2604.724693
22016.019919,1036.288319,-5181.441594,1149.143247
22016.020252,1480.411884,-6291.750507,-995.924147
22016.020585,-370.102971,-6217.729913,-2068.457845
22016.020919,2294.638420,-7920.203579,-2145.067394
22016.021252,1554.432478,-10658.965565,-76.609550
22016.021585,2294.638420,-12435.459826,-76.609550
22016.021918,518.144159,-11177.109724,612.876398
22016.022251,1998.556043,-9474.636058,-689.485948
22016.022584,-1184.329507,-13101.645173,-1685.410096
22016.022917,1702.473667,-11251.130318,-229.828649
22016.023250,1406.391290,-13323.706956,2987.772442
22016.023583,1776.494261,-4811.338623,5209.449386
22016.023916,-2738.761985,-6291.750507,0.000000
22016.024250,-1776.494261,-8290.306550,1149.143247
22016.024583,-2738.761985,-3923.091493,-3370.820191
22016.024916,-1998.556043,-7772.162391,-2451.505594
22016.025249,-2368.659014,-7179.997637,-919.314598
22016.025582,-1554.432478,-10288.862594,-2221.676944
22016.025915,1628.453072,-9400.615463,2834.553343
22016.026248,1628.453072,-9104.533087,-612.876398
22016.026581,5255.462188,-12879.583391,2374.896044
22016.026914,0.000000,-10732.986159,2451.505594
22016.027248,3478.967927,-13619.789333,-76.609550
22016.027581,-666.185348,-9548.656652,0.000000
22016.027914,-1184.329507,-8660.409521,-1838.629195
22016.028247,1628.453072,-7698.141797,1838.629195
22016.028580,-74.020594,-7105.977043,2451.505594
22016.028913,814.226536,-5329.482782,0.000000
22016.029246,-2812.782580,-9474.636058,536.266849
22016.029579,-296.082377,-6513.812290,-2528.115143
22016.029912,2442.679609,-13619.789333,3600.648841
22016.030246,740.205942,-8364.327145,2451.505594
22016.030579,0.000000,-9548.656652,2451.505594
22016.030912,1702.473667,-10658.965565,-1302.362347
22016.031245,2294.638420,-7846.182985,-2757.943793
22016.031578,-814.226536,-13323.706956,2298.286494
22016.031911,1110.308913,-5477.523971,3600.648841
22016.032244,-666.185348,-8660.409521,842.705048
22016.032577,-1184.329507,-5329.482782,842.705048
22016.032910,-1554.432478,-8734.430116,-1302.362347
22016.033243,-444.123565,-7328.038826,-1072.533697
22016.033577,518.144159,-11547.212695,-76.609550
22016.033910,-370.102971,-11769.274478,0.000000
22016.034243,4071.132681,-9474.636058,1762.019645
22016.034576,1924.535449,-10658.965565,4826.401637
22016.034909,5847.626942,-8734.430116,306.438199
22016.035242,2960.823768,-8216.285956,2987.772442
22016.035575,2368.659014,-10140.821405,1225.752797
22016.035908,-74.020594,-7920.203579,-3830.477490
22016.036241,-2368.659014,-11769.274478,-1915.238745
22016.036575,-3627.009116,-10140.821405,-2528.115143
22016.036908,-740.205942,-7105.977043,-2451.505594
22016.037241,296.082377,-9548.656652,-3064.381992
22016.037574,3182.885551,-13915.871710,4826.401637
22016.037907,4071.132681,-9474.636058,4826.401637
22016.038240,2368.659014,-7476.080014,3064.381992
22016.038573,2886.803174,-11843.295072,4826.401637
22016.038906,0.000000,-6587.832884,-1225.752797
22016.039239,3552.988522,-6513.812290,1991.848295
22016.039573,-1628.453072,-10140.821405,0.000000
22016.039906,-1850.514855,-9030.512492,-4366.744339
22016.040239,-4737.318029,-7476.080014,-5822.325785
22016.040572,-74.020594,-13619.789333,-5286.058936
22016.040905,-5033.400406,-10288.862594,-2451.505594
22016.041238,-5921.647536,-14285.974681,1225.752797
22016.041571,1406.391290,-2368.659014,842.705048
22016.041904,0.000000,-15470.304188,6052.154434
22016.042237,7624.121203,-4663.297435,8656.879127
22016.042571,6069.688724,814.226536,7048.078582
22016.042904,518.144159,-16432.571912,4443.353888
22016.043237,1998.556043,-17764.942608,2987.772442
22016.043570,5403.503377,3256.906145,-1915.238745
22016.043903,4737.318029,-740.205942,-1302.362347
22016.044236,-4367.215058,-13619.789333,-2528.115143
22016.044569,-9844.739029,-15026.180623,-8886.707777
22016.044902,-8142.265362,-13101.645173,-3753.867940
22016.045235,-3997.112087,-14434.015869,0.000000
22016.045568,-518.144159,-7994.224174,-1991.848295
22016.045902,1924.535449,-3775.050304,-766.095498
22016.046235,5255.462188,-5329.482782,4826.401637
22016.046568,4737.318029,-5551.544565,7507.735880
22016.046901,4071.132681,-8290.306550,7584.345430
22016.047234,4441.235652,-7105.977043,6358.592633
22016.047567,0.000000,-5403.503377,1838.629195
22016.047900,0.000000,-6587.832884,-1225.752797
22016.048233,-74.020594,-8882.471304,-3140.991542
22016.048566,-2738.761985,-7698.141797,-4673.182538
22016.048900,-1776.494261,-7476.080014,-1838.629195
22016.049233,-4737.318029,-16654.633695,612.876398
22016.049566,-518.144159,-11177.109724,76.609550
22016.049899,-4959.379811,-14656.077652,1302.362347
22016.050232,1258.350101,-9326.594869,2374.896044
22016.050565,4663.297435,-13915.871710,6052.154434
22016.050898,2590.720797,-8068.244768,4749.792088
22016.051231,4663.297435,-7994.224174,-383.047749
22016.051564,0.000000,-9548.656652,-3677.258390
22016.051898,4737.318029,-14804.118840,-76.609550
22016.052231,296.082377,-8882.471304,-3370.820191
22016.052564,518.144159,-9474.636058,-6205.373534
22016.052897,-2072.576638,-11547.212695,-4060.306139
22016.053230,-2442.679609,-9252.574275,-6128.763984
22016.053563,1554.432478,-4145.153275,-1915.238745
22016.053896,0.000000,-8956.491898,153.219100
22016.054229,0.000000,-9548.656652,153.219100
22016.054562,0.000000,-7772.162391,3677.258390
22016.054895,2294.638420,-10658.965565,1149.143247
22016.055229,814.226536,-7105.977043,1762.019645
22016.055562,518.144159,-6809.894666,-76.609550
22016.055895,666.185348,-7846.182985,842.705048
22016.056228,-1110.308913,-6143.709319,-1302.362347
22016.056561,-2738.761985,-7402.059420,-1532.190996
22016.056894,-74.020594,-9474.636058,-76.609550
22016.057227,0.000000,-8364.327145,3983.696590
22016.057560,1184.329507,-9548.656652,4826.401637
22016.057893,3182.885551,-8142.265362,2145.067394
22016.058227,2368.659014,-8364.327145,3983.696590
22016.058560,2294.638420,-10066.800811,3677.258390
22016.058893,2590.720797,-8956.491898,6358.592633
22016.059226,-296.082377,-7846.182985,4366.744339
22016.059559,814.226536,-5773.606348,-306.438199
22016.059892,-2146.597232,-7550.100608,-2987.772442
22016.060225,-3552.988522,-7179.997637,1149.143247
22016.060558,-1258.350101,-4959.379811,-1225.752797
22016.060891,-740.205942,-5995.668130,0.000000
22016.061225,-1776.494261,-8956.491898,1532.190996
22016.061558,-1332.370696,-7179.997637,-1072.533697
22016.061891,1036.288319,-10658.965565,459.657299
22016.062224,-222.061783,-13989.892304,0.000000
22016.062557,2442.679609,-12361.439231,-76.609550
22016.062890,1110.308913,-13397.727550,0.000000
22016.063223,1036.288319,-11399.171507,-383.047749
22016.063556,962.267725,-10066.800811,842.705048
22016.063889,1776.494261,-7402.059420,0.000000
22016.064223,-814.226536,-9030.512492,1685.410096
22016.064556,-3330.926739,-7328.038826,-3983.696590
22016.064889,-2368.659014,-7179.997637,-3677.258390
22016.065222,-2368.659014,-11399.171507,-76.609550
22016.065555,814.226536,-7698.141797,-689.485948
22016.065888,0.000000,-9548.656652,2451.505594
22016.066221,3182.885551,-7402.059420,612.876398
22016.066554,1406.391290,-10510.924376,-842.705048
22016.066887,-592.164754,-11547.212695,-995.924147
22016.067220,4663.297435,-10658.965565,-1915.238745
22016.067554,2294.638420,-13027.624579,76.609550
22016.067887,1184.329507,-7179.997637,2681.334243
22016.068220,-74.020594,-9474.636058,-76.609550
22016.068553,-2442.679609,-6513.812290,1378.971896
22016.068886,-3034.844362,-4367.215058,-689.485948
22016.069219,-592.164754,-5477.523971,1991.848295
22016.069552,-222.061783,-9178.553681,1455.581446
22016.069885,1628.453072,-12435.459826,5362.668486
22016.070218,1776.494261,-4811.338623,1838.629195
22016.070552,1110.308913,-9548.656652,-2451.505594
22016.070885,3256.906145,-11843.295072,3600.648841
22016.071218,3775.050304,-8586.388927,383.047749
22016.071551,0.000000,-9548.656652,612.876398
22016.071884,2886.803174,-8290.306550,-76.609550
22016.072217,-2664.741391,-9104.533087,-306.438199
22016.072550,0.000000,-6587.832884,306.438199
22016.072883,814.226536,-6513.812290,995.924147
22016.073217,-1036.288319,-10140.821405,919.314598
22016.073550,-4589.276840,-7254.018232,-1838.629195
22016.073883,-3997.112087,-9548.656652,2451.505594
22016.074216,4663.297435,-6513.812290,2068.457845
22016.074549,2294.638420,-12065.356855,0.000000
22016.074882,5847.626942,-10362.883188,-1532.190996
22016.075215,4663.297435,-16580.613101,3600.648841
22016.075549,1998.556043,-7772.162391,612.876398
22016.075882,3330.926739,-9400.615463,76.609550
22016.076215,-2220.617826,-7328.038826,-2298.286494
22016.076548,1036.288319,-9474.636058,-3753.867940
22016.076881,-2368.659014,-6291.750507,0.000000
22016.077214,-4145.153275,-8660.409521,1225.752797
22016.077547,-962.267725,-9474.636058,-76.609550
22016.077881,-2442.679609,-12435.459826,-76.609550
22016.078214,-666.185348,-8438.347739,-459.657299
22016.078547,0.000000,-8364.327145,1838.629195
22016.078880,1850.514855,-9178.553681,2145.067394
22016.079213,3627.009116,-7920.203579,3370.820191
22016.079546,3034.844362,-8290.306550,2374.896044
22016.079879,3701.029710,-9178.553681,1608.800546
22016.080213,-1998.556043,-9400.615463,-2451.505594
22016.080546,-1036.288319,-10510.924376,-5286.058936
22016.080879,-2146.597232,-10955.047942,-4060.306139
22016.081212,-2368.659014,-12213.398043,1838.629195
22016.081545,3478.967927,-9474.636058,-1608.800546
22016.081878,-2368.659014,-9548.656652,4903.011187
22016.082212,1776.494261,-7772.162391,3447.429741
22016.082545,2294.638420,-7105.977043,3983.696590
22016.082878,1110.308913,-10658.965565,6818.249932
22016.083211,3923.091493,-5773.606348,1838.629195
22016.083544,-2294.638420,-10732.986159,2911.162892
22016.083877,2368.659014,-3627.009116,-3677.258390
22016.084210,1702.473667,-11251.130318,-1302.362347
22016.084544,-6513.812290,-7772.162391,-6128.763984
22016.084877,-3256.906145,-10362.883188,-4979.620737
22016.085210,-3627.009116,-11251.130318,-6205.373534
22016.085543,-2368.659014,-13101.645173,-2451.505594
22016.085876,1702.473667,-9992.780217,3830.477490
22016.086209,1702.473667,-10066.800811,3753.867940
22016.086542,4589.276840,-7476.080014,7354.516781
22016.086876,2960.823768,-10436.903782,7737.564530
22016.087209,8808.450710,-6513.812290,4826.401637
22016.087542,1184.329507,-9548.656652,5209.449386
22016.087875,2368.659014,-6587.832884,3447.429741
22016.088208,962.267725,-7994.224174,-2834.553343
22016.088541,-1480.411884,-10288.862594,-2604.724693
22016.088874,-2960.823768,-9548.656652,-5362.668486
22016.089208,-4515.256246,-10658.965565,-6971.469032
22016.089541,-2590.720797,-14211.954086,-3370.820191
22016.089874,-1850.514855,-10658.965565,2374.896044
22016.090207,5255.462188,-2664.741391,2681.334243
22016.090540,888.247130,-8068.244768,7967.393179
22016.090873,6291.750507,-6513.812290,4826.401637
22016.091206,1702.473667,-7772.162391,1225.752797
22016.091540,2368.659014,-9992.780217,4366.744339
22016.091873,0.000000,-9696.697840,153.219100
22016.092206,-1924.535449,-9770.718434,-2834.553343
22016.092539,2072.576638,-8364.327145,-3830.477490
22016.092872,-3923.091493,-11843.295072,-3753.867940
22016.093205,2516.700203,-2590.720797,-4903.011187
22016.093538,-1702.473667,-13323.706956,919.314598
22016.093872,0.000000,-10066.800811,-2757.943793
22016.094205,296.082377,-10140.821405,2451.505594
22016.094538,-1776.494261,-12805.562797,3677.258390
22016.094871,11769.274478,-5921.647536,2374.896044
22016.095204,0.000000,-11917.315666,3983.696590
22016.095537,6217.729913,-5847.626942,4060.306139
22016.095871,-3478.967927,-9844.739029,0.000000
22016.096204,-2812.782580,-10140.821405,-1149.143247
22016.096537,-2368.659014,-7105.977043,-4366.744339
22016.096870,-5033.400406,-9918.759623,-2451.505594
22016.097203,1998.556043,-5921.647536,-1302.362347
22016.097536,-4071.132681,-6883.915261,-1455.581446
22016.097869,3478.967927,-8290.306550,-689.485948
22016.098203,-2368.659014,-8364.327145,1532.190996
22016.098536,0.000000,-11917.315666,3983.696590
22016.098869,1998.556043,-10955.047942,1072.533697
22016.099202,1776.494261,-14730.098246,3524.039291
22016.099535,3775.050304,-7994.224174,3524.039291
22016.099868,-740.205942,-10436.903782,1225.752797
22016.100201,444.123565,-7254.018232,536.266849
22016.100535,-1776.494261,-9770.718434,842.705048
22016.100868,-2368.659014,-2442.679609,-3677.258390
22016.101201,-2960.823768,-8660.409521,2221.676944
22016.101534,-2442.679609,-7624.121203,-2528.115143
22016.101867,2146.597232,-3775.050304,0.000000
22016.102200,-370.102971,-11695.253884,2681.334243
22016.102533,2368.659014,-7624.121203,1302.362347
22016.102867,-4145.153275,-13841.851115,-919.314598
22016.103200,962.267725,-10436.903782,-1532.190996
22016.103533,74.020594,-7105.977043,1455.581446
22016.103866,592.164754,-11103.089130,1149.143247
22016.104199,4663.297435,-9474.636058,3600.648841
22016.104532,-5921.647536,-7476.080014,-3370.820191
22016.104865,4145.153275,-5995.668130,1378.971896
22016.105199,-3330.926739,-11103.089130,766.095498
22016.105532,3478.967927,-9474.636058,1149.143247
22016.105865,1776.494261,-6883.915261,2987.772442
22016.106198,4663.297435,-9770.718434,3524.039291
22016.106531,4737.318029,-4219.173869,3677.258390
22016.106864,4071.132681,-11843.295072,-689.485948
22016.107198,4145.153275,-9696.697840,0.000000
22016.107531,-7105.977043,-14285.974681,-3064.381992
22016.107864,2294.638420,-15396.283594,-76.609550
22016.108197,-4145.153275,-8956.491898,-3064.381992
22016.108530,888.247130,-7105.977043,-1455.581446
22016.108863,-2220.617826,-7254.018232,-383.047749
22016.109196,-74.020594,-6661.853478,-153.219100
22016.109530,0.000000,-5403.503377,306.438199
22016.109863,-1258.350101,-9992.780217,1302.362347
22016.110196,4145.153275,-7772.162391,2604.724693
22016.110529,4959.379811,-10362.883188,3140.991542
22016.110862,7624.121203,-13619.789333,3294.210641
22016.111195,2664.741391,-8364.327145,5209.449386
22016.111528,1850.514855,-10658.965565,-76.609550
22016.111862,1998.556043,-7179.997637,-3677.258390
22016.112195,-4367.215058,-11843.295072,-3447.429741
22016.112528,-1850.514855,-8586.388927,-5592.497135
22016.112861,-4663.297435,-10510.924376,229.828649
22016.113194,-3034.844362,-7772.162391,-3064.381992
22016.113527,-2442.679609,-8290.306550,2374.896044
22016.113860,-5329.482782,-7179.997637,0.000000
22016.114194,1184.329507,-6587.832884,4749.792088
22016.114527,-2442.679609,-7920.203579,1532.190996
