#time,accel_x,accel_y,accel_z
20575.250470,4663.297435,-8364.327145,-3677.258390
20575.250804,296.082377,-9548.656652,-1838.629195
20575.251137,4367.215058,-10362.883188,-4979.620737
20575.251471,3182.885551,-8660.409521,-4903.011187
20575.251804,5181.441594,-10658.965565,-2374.896044
20575.252137,7254.018232,-10066.800811,1455.581446
20575.252471,10658.965565,-8956.491898,4596.572988
20575.252804,13841.851115,-8290.306550,6435.202183
20575.253138,13027.624579,-8956.491898,9576.193725
20575.253471,13545.768739,-6587.832884,2451.505594
20575.253805,12435.459826,-8660.409521,2451.505594
20575.254138,12953.603985,-10066.800811,-76.609550
20575.254472,7105.977043,-9548.656652,-2451.505594
20575.254805,4515.256246,-11843.295072,-5515.887586
20575.255139,1628.453072,-12435.459826,-5669.106685
20575.255472,-148.041188,-12361.439231,-4979.620737
20575.255806,1110.308913,-9992.780217,-2528.115143
20575.256139,5847.626942,-8882.471304,3600.648841
20575.256473,9400.615463,-5477.523971,7201.297681
20575.256806,10658.965565,-3923.091493,11184.994271
20575.257140,14211.954086,-5773.606348,10955.165621
20575.257473,13545.768739,-7105.977043,7277.907231
20575.257807,11547.212695,-6735.874072,2374.896044
20575.258140,10584.944971,-7624.121203,-2911.162892
20575.258474,6661.853478,-11769.274478,-7431.126331
20575.258807,2960.823768,-11917.315666,-10725.336972
20575.259141,3478.967927,-12509.480420,-10878.556072
20575.259474,3552.988522,-13101.645173,-7354.516781
20575.259808,4737.318029,-13989.892304,-1302.362347
20575.260141,4811.338623,-10732.986159,0.000000
20575.260475,9400.615463,-9844.739029,7737.564530
20575.260808,13101.645173,-5403.503377,11184.994271
20575.261142,13767.830521,-4515.256246,11414.822920
20575.261475,11843.295072,-5329.482782,9652.803275
20575.261809,7698.141797,-5995.668130,4290.134789
20575.262142,3775.050304,-8438.347739,-995.924147
20575.262476,-1258.350101,-11251.130318,-6281.983084
20575.262809,-5995.668130,-11843.295072,-9576.193725
20575.263143,-7994.224174,-11695.253884,-9039.926876
20575.263476,-6513.812290,-9548.656652,-6205.373534
20575.263810,-74.020594,-11843.295072,-76.609550
20575.264143,1702.473667,-7179.997637,1915.238745
20575.264477,5329.482782,-5699.585753,6128.763984
20575.264810,9178.553681,-6957.935855,8273.831378
20575.265144,6513.812290,-5107.421000,4903.011187
20575.265477,7105.977043,-7254.018232,2221.676944
20575.265811,5921.647536,-8068.244768,-306.438199
20575.266144,3997.112087,-9844.739029,-2911.162892
20575.266477,592.164754,-12213.398043,-5822.325785
20575.266811,-74.020594,-14211.954086,-5898.935335
20575.267144,-1554.432478,-11325.150913,-5515.887586
20575.267478,1184.329507,-10584.944971,1149.143247
20575.267811,7031.956449,-7698.141797,3600.648841
20575.268145,10214.842000,-5403.503377,8503.660028
20575.268478,12509.480420,-4515.256246,9039.926876
20575.268812,13027.624579,-5995.668130,7277.907231
20575.269145,10214.842000,-7624.121203,1685.410096
20575.269479,8956.491898,-11547.212695,-76.609550
20575.269812,6439.791695,-9252.574275,-6741.640382
20575.270146,888.247130,-13027.624579,-7354.516781
20575.270479,-2960.823768,-14211.954086,-7431.126331
20575.270813,-5107.421000,-12657.521608,-7354.516781
20575.271146,-1258.350101,-11843.295072,-383.047749
20575.271480,4293.194464,-9474.636058,6052.154434
20575.271813,6735.874072,-5181.441594,7660.954980
20575.272147,9400.615463,-4737.318029,8733.488677
20575.272480,9104.533087,-5329.482782,7890.783629
20575.272814,8808.450710,-3034.844362,1225.752797
20575.273147,7698.141797,-9326.594869,1608.800546
20575.273481,5255.462188,-12435.459826,-1915.238745
20575.273814,-3478.967927,-11917.315666,-9193.145976
20575.274148,-4811.338623,-14211.954086,-8656.879127
20575.274481,-5921.647536,-14285.974681,-6128.763984
20575.274815,-2220.617826,-11029.068536,0.000000
20575.275148,666.185348,-7698.141797,4443.353888
20575.275482,1702.473667,-8290.306550,5439.278036
20575.275815,888.247130,-5329.482782,4519.963438
20575.276149,3997.112087,-6513.812290,5745.716235
20575.276482,6291.750507,-6217.729913,6741.640382
20575.276816,3552.988522,-7476.080014,2451.505594
20575.277149,-2072.576638,-9548.656652,-1991.848295
20575.277483,-4219.173869,-11325.150913,-7354.516781
20575.277816,-5625.565159,-9548.656652,-6128.763984
20575.278150,962.267725,-8734.430116,-1608.800546
20575.278483,0.000000,-8068.244768,-1455.581446
20575.278817,222.061783,-9474.636058,689.485948
20575.279150,-1924.535449,-10658.965565,689.485948
20575.279484,740.205942,-10732.986159,1762.019645
20575.279817,-74.020594,-10658.965565,4213.525239
20575.280151,-1776.494261,-11029.068536,4826.401637
20575.280484,-3330.926739,-7772.162391,0.000000
20575.280817,0.000000,-7476.080014,2451.505594
20575.281151,3923.091493,-7698.141797,4060.306139
20575.281484,5329.482782,-7476.080014,4903.011187
20575.281818,4663.297435,-6587.832884,2757.943793
20575.282151,148.041188,-7772.162391,0.000000
20575.282485,-1406.391290,-9548.656652,-2681.334243
20575.282818,-4811.338623,-9474.636058,-5822.325785
20575.283152,-7402.059420,-13545.768739,-4366.744339
20575.283485,-9474.636058,-9548.656652,-4596.572988
20575.283819,-5625.565159,-12065.356855,-919.314598
20575.284152,-74.020594,-11251.130318,2374.896044
20575.284486,2294.638420,-5921.647536,4213.525239
20575.284819,3034.844362,-4811.338623,5209.449386
20575.285153,3701.029710,-5699.585753,4290.134789
20575.285486,3923.091493,-6661.853478,3140.991542
20575.285820,2664.741391,-5995.668130,306.438199
20575.286153,3478.967927,-9474.636058,-689.485948
20575.286487,592.164754,-10436.903782,-2451.505594
20575.286820,888.247130,-15396.283594,-2528.115143
20575.287154,-962.267725,-10436.903782,-4749.792088
20575.287487,-1776.494261,-9548.656652,-3983.696590
20575.287821,-1406.391290,-11029.068536,-2451.505594
20575.288154,-222.061783,-11177.109724,-919.314598
20575.288488,666.185348,-9622.677246,1685.410096
20575.288821,3034.844362,-10066.800811,6052.154434
20575.289155,-666.185348,-5995.668130,2451.505594
20575.289488,1184.329507,-9030.512492,6052.154434
20575.289822,5847.626942,-7994.224174,6665.030833
20575.290155,4663.297435,-2738.761985,3064.381992
20575.290489,4737.318029,-3627.009116,1225.752797
20575.290822,0.000000,-10140.821405,-2221.676944
20575.291156,-2812.782580,-10436.903782,-6511.811733
20575.291489,-2960.823768,-13545.768739,-5592.497135
20575.291823,-1850.514855,-15396.283594,-3753.867940
20575.292156,-5033.400406,-12657.521608,-4903.011187
20575.292490,-2664.741391,-11325.150913,-1225.752797
20575.292823,2368.659014,-8956.491898,5209.449386
20575.293157,5995.668130,-6365.771101,9039.926876
20575.293490,8290.306550,-5329.482782,12257.527968
20575.293824,6439.791695,-5477.523971,7277.907231
20575.294157,4071.132681,-5107.421000,2604.724693
20575.294490,1776.494261,-6143.709319,1149.143247
20575.294824,-1258.350101,-8882.471304,-5898.935335
20575.295157,-5329.482782,-11029.068536,-5286.058936
20575.295491,-7179.997637,-12213.398043,-8350.440928
20575.295824,-4515.256246,-13323.706956,-5592.497135
20575.296158,-2960.823768,-10955.047942,-2834.553343
20575.296491,2294.638420,-10658.965565,2374.896044
20575.296825,3182.885551,-7179.997637,3064.381992
20575.297158,4441.235652,-9252.574275,4903.011187
20575.297492,7031.956449,-9474.636058,6052.154434
20575.297825,2442.679609,-7179.997637,4903.011187
20575.298159,2664.741391,-9474.636058,4213.525239
20575.298490,-592.164754,-7994.224174,0.000000
20575.298823,-1184.329507,-8808.450710,-2604.724693
20575.299156,-1036.288319,-8290.306550,-2834.553343
20575.299490,-1998.556043,-7402.059420,-3447.429741
20575.299823,-666.185348,-7179.997637,-6128.763984
20575.300156,-2960.823768,-12213.398043,-1608.800546
20575.300489,-148.041188,-13545.768739,1762.019645
20575.300822,-2590.720797,-9844.739029,-1225.752797
20575.301155,-370.102971,-11251.130318,689.485948
20575.301488,-1184.329507,-10214.842000,3524.039291
20575.301822,3034.844362,-7179.997637,6358.592633
20575.302155,3923.091493,-7105.977043,7277.907231
20575.302488,2368.659014,-4811.338623,3677.258390
20575.302821,-1702.473667,-7994.224174,-229.828649
20575.303154,-2960.823768,-4811.338623,-6128.763984
20575.303487,-4737.318029,-8956.491898,-3677.258390
20575.303820,-3034.844362,-9474.636058,-4979.620737
20575.304153,-4219.173869,-10288.862594,-6128.763984
20575.304487,-3108.864956,-12139.377449,-1915.238745
20575.304820,3182.885551,-9622.677246,3524.039291
20575.305153,4367.215058,-7846.182985,5439.278036
20575.305486,5921.647536,-8438.347739,6741.640382
20575.305819,5255.462188,-8882.471304,5439.278036
20575.306152,3404.947333,-8438.347739,2987.772442
20575.306485,3404.947333,-8290.306550,1149.143247
20575.306818,-370.102971,-10066.800811,-2834.553343
20575.307152,-3330.926739,-11547.212695,-4979.620737
20575.307485,-6513.812290,-9548.656652,-4903.011187
20575.307818,1110.308913,-10362.883188,-3140.991542
20575.308151,-74.020594,-6883.915261,-3370.820191
20575.308484,4663.297435,-10510.924376,3294.210641
20575.308817,3478.967927,-11251.130318,2987.772442
20575.309150,4367.215058,-9178.553681,2987.772442
20575.309483,4219.173869,-9844.739029,2757.943793
20575.309817,2516.700203,-9696.697840,2911.162892
20575.310150,3182.885551,-10584.944971,3294.210641
20575.310483,-3552.988522,-9548.656652,2451.505594
20575.310816,2442.679609,-9474.636058,-76.609550
20575.311149,518.144159,-8290.306550,-689.485948
20575.311482,0.000000,-7179.997637,0.000000
20575.311815,-74.020594,-7105.977043,-2374.896044
20575.312148,-814.226536,-9104.533087,-2757.943793
20575.312482,-444.123565,-9622.677246,-2374.896044
20575.312815,-1184.329507,-11029.068536,0.000000
20575.313148,-2146.597232,-11251.130318,-76.609550
20575.313481,-888.247130,-12583.501014,3677.258390
20575.313814,1998.556043,-10362.883188,3907.087040
20575.314147,2294.638420,-6143.709319,3217.601092
20575.314480,2368.659014,-7031.956449,4903.011187
20575.314813,0.000000,-6587.832884,612.876398
20575.315147,-1776.494261,-8660.409521,-1991.848295
20575.315480,-3330.926739,-9548.656652,-2987.772442
20575.315813,-3478.967927,-9844.739029,-3983.696590
20575.316146,-6513.812290,-9548.656652,-6128.763984
20575.316479,-2442.679609,-11843.295072,-2528.115143
20575.316812,740.205942,-11251.130318,-76.609550
20575.317145,2368.659014,-7179.997637,4903.011187
20575.317478,5847.626942,-10658.965565,8197.221829
20575.317812,2812.782580,-9400.615463,5975.544884
20575.318145,1998.556043,-9178.553681,3600.648841
20575.318478,0.000000,-7476.080014,1838.629195
20575.318811,-2590.720797,-8808.450710,-1225.752797
20575.319144,-5625.565159,-9548.656652,-1991.848295
20575.319477,-3627.009116,-9474.636058,-4366.744339
20575.319810,-3923.091493,-6587.832884,-2911.162892
20575.320143,-3256.906145,-7772.162391,2145.067394
20575.320477,2294.638420,-8882.471304,-76.609550
20575.320810,0.000000,-8956.491898,2145.067394
20575.321143,3256.906145,-8216.285956,2374.896044
20575.321476,2072.576638,-9548.656652,2451.505594
20575.321809,1554.432478,-10584.944971,2145.067394
20575.322142,592.164754,-8364.327145,2145.067394
20575.322475,1110.308913,-9844.739029,1225.752797
20575.322808,3182.885551,-9252.574275,1915.238745
20575.323142,814.226536,-8068.244768,229.828649
20575.323475,518.144159,-8290.306550,-2068.457845
20575.323808,0.000000,-8956.491898,-153.219100
20575.324141,814.226536,-9474.636058,-1915.238745
20575.324474,-74.020594,-9178.553681,-3294.210641
20575.324807,-1480.411884,-10732.986159,612.876398
20575.325140,1702.473667,-10658.965565,1762.019645
20575.325473,1480.411884,-9104.533087,2757.943793
20575.325807,4737.318029,-7550.100608,4290.134789
20575.326140,5033.400406,-7624.121203,4290.134789
20575.326473,2368.659014,-7179.997637,2451.505594
20575.326806,0.000000,-7179.997637,0.000000
20575.327139,1110.308913,-11547.212695,-3294.210641
20575.327472,-2368.659014,-9548.656652,-4903.011187
20575.327805,-2960.823768,-9696.697840,-2834.553343
20575.328138,-4219.173869,-9992.780217,-4979.620737
20575.328472,-1924.535449,-9992.780217,-1915.238745
20575.328805,1776.494261,-8734.430116,2911.162892
20575.329138,4737.318029,-7624.121203,6435.202183
20575.329471,5847.626942,-8290.306550,7277.907231
20575.329804,1480.411884,-7920.203579,6435.202183
20575.330137,4663.297435,-7994.224174,1302.362347
20575.330470,0.000000,-8956.491898,1991.848295
20575.330803,-1850.514855,-11843.295072,-2528.115143
20575.331137,-7105.977043,-10436.903782,-4903.011187
20575.331470,-5995.668130,-11843.295072,-4749.792088
20575.331803,-4441.235652,-8512.368333,-1225.752797
20575.332136,-1776.494261,-7179.997637,459.657299
20575.332469,-814.226536,-7105.977043,1149.143247
20575.332802,1776.494261,-8290.306550,3600.648841
20575.333135,1184.329507,-7105.977043,2681.334243
20575.333468,0.000000,-7772.162391,4290.134789
20575.333802,962.267725,-9474.636058,995.924147
20575.334135,-666.185348,-10066.800811,-76.609550
20575.334468,-444.123565,-10584.944971,612.876398
20575.334801,888.247130,-8438.347739,612.876398
20575.335134,-814.226536,-8734.430116,-919.314598
20575.335467,-1776.494261,-8364.327145,0.000000
20575.335800,-74.020594,-9474.636058,-2528.115143
20575.336133,-2072.576638,-9548.656652,0.000000
20575.336467,-666.185348,-11843.295072,-1915.238745
20575.336800,-4737.318029,-9548.656652,-1838.629195
20575.337133,-666.185348,-11251.130318,1762.019645
20575.337466,1480.411884,-7550.100608,3217.601092
20575.337799,5477.523971,-6883.915261,5132.839837
20575.338132,5625.565159,-6883.915261,5439.278036
20575.338465,2664.741391,-7476.080014,2451.505594
20575.338798,3478.967927,-8290.306550,-1455.581446
20575.339132,814.226536,-10732.986159,-3294.210641
20575.339465,-1554.432478,-12435.459826,-4826.401637
20575.339798,-2812.782580,-11843.295072,-3753.867940
20575.340131,-4737.318029,-10732.986159,-4903.011187
20575.340464,-666.185348,-11843.295072,-76.609550
20575.340797,444.123565,-4811.338623,1838.629195
20575.341130,5477.523971,-7402.059420,8197.221829
20575.341463,7031.956449,-5921.647536,7890.783629
20575.341797,2590.720797,-5995.668130,2757.943793
20575.342130,3478.967927,-7254.018232,1532.190996
20575.342463,962.267725,-9474.636058,-76.609550
20575.342796,-2220.617826,-10584.944971,-3064.381992
20575.343129,-4737.318029,-12065.356855,-4290.134789
20575.343462,-2442.679609,-12731.542202,-5286.058936
20575.343795,-2368.659014,-8364.327145,-3983.696590
20575.344128,1184.329507,-10214.842000,2374.896044
20575.344462,2294.638420,-8290.306550,1149.143247
20575.344795,1184.329507,-8364.327145,4443.353888
20575.345128,3404.947333,-9326.594869,3830.477490
20575.345461,2072.576638,-8586.388927,3140.991542
20575.345794,592.164754,-9770.718434,2451.505594
20575.346127,-74.020594,-11251.130318,2068.457845
20575.346460,-74.020594,-8290.306550,-995.924147
20575.346793,0.000000,-7476.080014,2298.286494
20575.347127,0.000000,-8364.327145,2068.457845
20575.347460,-1554.432478,-9474.636058,-2068.457845
20575.347793,-2146.597232,-9474.636058,-3140.991542
20575.348126,-2072.576638,-9548.656652,-2145.067394
20575.348459,-4145.153275,-10362.883188,-2911.162892
20575.348792,-3182.885551,-10510.924376,-2528.115143
20575.349125,-3404.947333,-10214.842000,-766.095498
20575.349458,0.000000,-7179.997637,0.000000
20575.349792,4145.153275,-9474.636058,6665.030833
20575.350125,2886.803174,-5403.503377,4903.011187
20575.350458,1776.494261,-5995.668130,4903.011187
20575.350791,4663.297435,-8882.471304,1762.019645
20575.351124,1480.411884,-9474.636058,-229.828649
20575.351457,-1332.370696,-9844.739029,-3217.601092
20575.351790,-3701.029710,-11473.192101,-4366.744339
20575.352123,-4219.173869,-10881.027347,-5132.839837
20575.352457,-3182.885551,-10732.986159,-3524.039291
20575.352790,1332.370696,-9474.636058,459.657299
20575.353123,4071.132681,-8734.430116,4060.306139
20575.353456,6217.729913,-8068.244768,6741.640382
20575.353789,7624.121203,-9474.636058,6665.030833
20575.354122,5255.462188,-7994.224174,3830.477490
20575.354455,3997.112087,-7031.956449,4903.011187
20575.354788,2294.638420,-9474.636058,-383.047749
20575.355122,0.000000,-8956.491898,-3064.381992
20575.355455,-74.020594,-9474.636058,-2834.553343
20575.355788,-666.185348,-10214.842000,-3064.381992
20575.356121,2146.597232,-9104.533087,-1991.848295
20575.356454,296.082377,-10658.965565,-1608.800546
20575.356787,0.000000,-9548.656652,-612.876398
20575.357120,4663.297435,-9474.636058,536.266849
20575.357453,2368.659014,-8364.327145,2757.943793
20575.357787,5625.565159,-9474.636058,6052.154434
20575.358120,2294.638420,-10362.883188,2681.334243
20575.358453,5255.462188,-9474.636058,3907.087040
20575.358786,1776.494261,-8364.327145,3524.039291
20575.359119,2516.700203,-7846.182985,1149.143247
20575.359452,-814.226536,-9252.574275,-1991.848295
20575.359785,-1554.432478,-10658.965565,-1608.800546
20575.360118,-3256.906145,-10140.821405,-3677.258390
20575.360452,-4737.318029,-11473.192101,-1608.800546
20575.360785,-5403.503377,-9992.780217,-4519.963438
20575.361118,-8290.306550,-9548.656652,-2145.067394
20575.361451,-74.020594,-8142.265362,1915.238745
20575.361784,1036.288319,-6661.853478,5822.325785
20575.362117,2442.679609,-6587.832884,6741.640382
20575.362450,1480.411884,-7105.977043,4366.744339
20575.362783,-666.185348,-7698.141797,1762.019645
20575.363117,0.000000,-8660.409521,1302.362347
20575.363450,-4219.173869,-11843.295072,-3753.867940
20575.363783,-7031.956449,-8660.409521,-6128.763984
20575.364116,-7105.977043,-11473.192101,-4136.915689
20575.364449,-4737.318029,-10140.821405,-2757.943793
20575.364782,-1776.494261,-8364.327145,459.657299
20575.365115,-592.164754,-9104.533087,3140.991542
20575.365448,2960.823768,-6957.935855,4903.011187
20575.365782,592.164754,-6587.832884,2451.505594
20575.366115,4737.318029,-9474.636058,6052.154434
20575.366448,2294.638420,-8586.388927,1225.752797
20575.366781,-2368.659014,-7179.997637,1838.629195
20575.367114,0.000000,-12361.439231,-1762.019645
20575.367447,-2220.617826,-9548.656652,-2451.505594
20575.367780,148.041188,-7772.162391,-2528.115143
20575.368113,296.082377,-10436.903782,-995.924147
20575.368447,2072.576638,-7179.997637,-1072.533697
20575.368780,0.000000,-9548.656652,-1225.752797
20575.369113,4663.297435,-9400.615463,1762.019645
20575.369446,3627.009116,-9104.533087,2451.505594
20575.369779,2516.700203,-10066.800811,2374.896044
20575.370112,4663.297435,-10066.800811,3294.210641
20575.370445,4737.318029,-8364.327145,3677.258390
20575.370778,5995.668130,-7105.977043,7277.907231
20575.371112,5847.626942,-4811.338623,612.876398
20575.371445,2368.659014,-9030.512492,-76.609550
20575.371778,592.164754,-10140.821405,-1608.800546
20575.372111,-888.247130,-9696.697840,-4519.963438
20575.372444,-2738.761985,-11547.212695,-5592.497135
20575.372777,-3997.112087,-12879.583391,-3830.477490
20575.373110,-2442.679609,-9622.677246,-2834.553343
20575.373444,2886.803174,-7179.997637,2604.724693
20575.373777,7624.121203,-7698.141797,7277.907231
20575.374110,5107.421000,-5329.482782,4749.792088
20575.374443,2960.823768,-7772.162391,5515.887586
20575.374776,2886.803174,-9474.636058,1149.143247
20575.375109,1850.514855,-9918.759623,-919.314598
20575.375442,-2960.823768,-11843.295072,-2681.334243
20575.375775,-4441.235652,-10510.924376,-4749.792088
20575.376109,-6365.771101,-11325.150913,-3677.258390
20575.376442,-4663.297435,-8956.491898,-3677.258390
20575.376775,-3108.864956,-9474.636058,1149.143247
20575.377108,-1258.350101,-7550.100608,1149.143247
20575.377441,-222.061783,-5699.585753,2451.505594
20575.377774,296.082377,-7179.997637,3830.477490
20575.378107,1554.432478,-7179.997637,4519.963438
20575.378440,-1554.432478,-8956.491898,2068.457845
20575.378774,-3330.926739,-9696.697840,-842.705048
20575.379107,-2442.679609,-10658.965565,-689.485948
20575.379440,-4145.153275,-9844.739029,-1225.752797
20575.379773,-74.020594,-9474.636058,-1302.362347
20575.380106,-1406.391290,-8734.430116,-2374.896044
20575.380439,-592.164754,-9474.636058,0.000000
20575.380772,-74.020594,-11103.089130,-306.438199
20575.381105,592.164754,-9622.677246,76.609550
20575.381439,370.102971,-10510.924376,1378.971896
20575.381772,-74.020594,-10658.965565,1149.143247
20575.382105,0.000000,-8586.388927,995.924147
20575.382438,4663.297435,-9474.636058,4826.401637
20575.382771,2812.782580,-4219.173869,4903.011187
20575.383104,1184.329507,-6587.832884,4903.011187
20575.383437,2294.638420,-8586.388927,-1608.800546
20575.383770,-74.020594,-10140.821405,-2757.943793
20575.384104,-962.267725,-9696.697840,-4519.963438
20575.384437,-2886.803174,-11991.336260,-4366.744339
20575.384770,-3997.112087,-11473.192101,-3753.867940
20575.385103,-1702.473667,-9918.759623,-2681.334243
20575.385436,4663.297435,-10658.965565,3294.210641
20575.385769,7105.977043,-6513.812290,6358.592633
20575.386102,7624.121203,-7179.997637,6741.640382
20575.386435,5699.585753,-7772.162391,4443.353888
20575.386769,4663.297435,-7105.977043,842.705048
20575.387102,4737.318029,-9326.594869,3600.648841
20575.387435,2294.638420,-9474.636058,-4136.915689
20575.387768,-1776.494261,-12065.356855,-3140.991542
20575.388101,-5921.647536,-13101.645173,-5209.449386
20575.388434,-962.267725,-9326.594869,-4903.011187
20575.388767,592.164754,-9400.615463,-689.485948
20575.389100,3182.885551,-9474.636058,2221.676944
20575.389434,4515.256246,-8734.430116,4826.401637
20575.389767,2960.823768,-6587.832884,3677.258390
20575.390100,5551.544565,-9474.636058,5439.278036
20575.390433,1110.308913,-9474.636058,1149.143247
20575.390766,-2368.659014,-7179.997637,612.876398
20575.391099,-1258.350101,-13027.624579,-76.609550
20575.391432,-1184.329507,-6883.915261,-2451.505594
20575.391765,-74.020594,-8068.244768,-1685.410096
20575.392099,518.144159,-9030.512492,-306.438199
20575.392432,0.000000,-9030.512492,-1608.800546
20575.392765,-2368.659014,-11029.068536,-1532.190996
20575.393098,2294.638420,-11843.295072,-2528.115143
20575.393431,-2960.823768,-9548.656652,766.095498
20575.393764,2442.679609,-10288.862594,4519.963438
20575.394097,-74.020594,-9400.615463,1991.848295
20575.394430,2368.659014,-9548.656652,7048.078582
20575.394764,1480.411884,-6291.750507,4290.134789
20575.395097,1776.494261,-7031.956449,3370.820191
20575.395430,148.041188,-8216.285956,612.876398
20575.395763,-1850.514855,-10362.883188,-689.485948
20575.396096,-4219.173869,-6365.771101,-6205.373534
20575.396429,-7105.977043,-10732.986159,-3140.991542
20575.396762,-5995.668130,-11251.130318,-5286.058936
20575.397095,-5403.503377,-9770.718434,-4673.182538
20575.397429,-1184.329507,-10066.800811,2681.334243
20575.397762,1480.411884,-5403.503377,3677.258390
20575.398095,3923.091493,-6439.791695,5515.887586
20575.398428,3330.926739,-9104.533087,5592.497135
20575.398761,3923.091493,-7994.224174,3907.087040
20575.399095,148.041188,-8364.327145,919.314598
20575.399428,-740.205942,-10214.842000,-1685.410096
20575.399761,-3923.091493,-11843.295072,-3753.867940
20575.400094,-5921.647536,-9548.656652,-4903.011187
20575.400428,-2368.659014,-8660.409521,-612.876398
20575.400761,1702.473667,-7698.141797,-1149.143247
20575.401094,1480.411884,-7550.100608,536.266849
20575.401427,592.164754,-7772.162391,3370.820191
20575.401761,2368.659014,-7254.018232,2757.943793
20575.402094,1184.329507,-7772.162391,2528.115143
20575.402427,0.000000,-9844.739029,1225.752797
20575.402760,370.102971,-10066.800811,153.219100
20575.403093,2072.576638,-10584.944971,3524.039291
20575.403427,1702.473667,-7179.997637,2068.457845
20575.403760,4071.132681,-6513.812290,-1608.800546
20575.404093,0.000000,-9548.656652,766.095498
20575.404426,1184.329507,-8660.409521,-689.485948
20575.404760,1776.494261,-9918.759623,-1225.752797
20575.405093,444.123565,-10066.800811,-995.924147
20575.405426,74.020594,-10288.862594,-612.876398
20575.405759,-74.020594,-10066.800811,536.266849
20575.406093,2590.720797,-9474.636058,1149.143247
20575.406426,2368.659014,-8364.327145,6128.763984
20575.406759,3997.112087,-4811.338623,2451.505594
20575.407092,3552.988522,-8660.409521,5745.716235
20575.407426,2738.761985,-8290.306550,536.266849
20575.407759,-74.020594,-9770.718434,-2528.115143
20575.408092,-1850.514855,-11251.130318,-3140.991542
20575.408425,-4663.297435,-9622.677246,-4749.792088
20575.408759,-4737.318029,-11399.171507,-4136.915689
20575.409092,-3330.926739,-9918.759623,-2451.505594
20575.409425,1702.473667,-11547.212695,3600.648841
20575.409758,1184.329507,-5995.668130,5515.887586
20575.410092,592.164754,-7179.997637,6741.640382
20575.410425,4071.132681,-8290.306550,2221.676944
20575.410758,2368.659014,-7179.997637,1532.190996
20575.411091,1110.308913,-9400.615463,689.485948
20575.411425,-1924.535449,-9844.739029,-1149.143247
20575.411758,-3552.988522,-10362.883188,-3753.867940
20575.412091,-4145.153275,-11621.233289,-1838.629195
20575.412424,-2146.597232,-7698.141797,-1608.800546
20575.412758,-4145.153275,-8660.409521,1225.752797
20575.413091,-1850.514855,-8290.306550,-76.609550
20575.413424,-74.020594,-6513.812290,-2068.457845
20575.413757,0.000000,-7179.997637,3677.258390
20575.414091,2294.638420,-6439.791695,2451.505594
20575.414424,-740.205942,-9696.697840,766.095498
20575.414757,-518.144159,-10066.800811,0.000000
20575.415090,-370.102971,-10066.800811,76.609550
20575.415424,3478.967927,-8734.430116,76.609550
20575.415757,1554.432478,-8586.388927,229.828649
20575.416090,74.020594,-9548.656652,-1225.752797
20575.416423,-370.102971,-9252.574275,-1762.019645
20575.416757,0.000000,-9844.739029,306.438199
20575.417090,-1258.350101,-10658.965565,-3217.601092
20575.417423,-2960.823768,-8364.327145,-3370.820191
20575.417756,0.000000,-10436.903782,3294.210641
20575.418090,3478.967927,-8734.430116,3600.648841
20575.418423,2960.823768,-4811.338623,5515.887586
20575.418756,4145.153275,-7105.977043,5515.887586
20575.419089,2294.638420,-7254.018232,2451.505594
20575.419423,1702.473667,-8290.306550,-842.705048
20575.419756,-74.020594,-11251.130318,-1915.238745
20575.420089,-370.102971,-11251.130318,-4979.620737
20575.420422,-7105.977043,-11917.315666,-3677.258390
20575.420756,-1850.514855,-14211.954086,-1915.238745
20575.421089,-2738.761985,-10436.903782,-2298.286494
20575.421422,2368.659014,-8068.244768,4826.401637
20575.421755,3552.988522,-6883.915261,4673.182538
20575.422089,4071.132681,-6143.709319,4903.011187
20575.422422,4663.297435,-6957.935855,3524.039291
20575.422755,2590.720797,-6735.874072,2681.334243
20575.423088,4663.297435,-6809.894666,-1302.362347
20575.423422,0.000000,-12287.418637,1149.143247
20575.423755,-2442.679609,-10807.006753,-6665.030833
20575.424088,-4367.215058,-9548.656652,-4903.011187
20575.424421,-2442.679609,-11843.295072,-2528.115143
20575.424754,1924.535449,-7476.080014,-306.438199
20575.425088,1332.370696,-9474.636058,1072.533697
20575.425421,3923.091493,-9104.533087,2374.896044
20575.425754,2368.659014,-9548.656652,5515.887586
20575.426087,1258.350101,-6587.832884,1838.629195
20575.426421,1480.411884,-10140.821405,3600.648841
20575.426754,-74.020594,-9474.636058,536.266849
20575.427087,592.164754,-7179.997637,306.438199
20575.427420,1776.494261,-5403.503377,459.657299
20575.427754,2812.782580,-8438.347739,919.314598
20575.428087,0.000000,-9104.533087,-1915.238745
20575.428420,-518.144159,-10807.006753,-3140.991542
20575.428753,-74.020594,-11695.253884,-2528.115143
20575.429087,-2368.659014,-11029.068536,-1455.581446
20575.429420,-370.102971,-9918.759623,-3983.696590
20575.429753,0.000000,-9548.656652,0.000000
20575.430086,5847.626942,-9474.636058,5439.278036
20575.430420,4145.153275,-6587.832884,3064.381992
20575.430753,6291.750507,-7698.141797,6971.469032
20575.431086,3108.864956,-7624.121203,3370.820191
20575.431419,2886.803174,-7105.977043,919.314598
20575.431753,1702.473667,-9474.636058,-689.485948
20575.432086,-3552.988522,-10140.821405,-2757.943793
20575.432419,-6069.688724,-11621.233289,-5056.230287
20575.432752,-7328.038826,-12361.439231,-4826.401637
20575.433086,-4367.215058,-9992.780217,-3370.820191
20575.433419,-1332.370696,-10658.965565,2374.896044
20575.433752,1184.329507,-4811.338623,1225.752797
20575.434085,1184.329507,-7179.997637,6971.469032
20575.434419,1998.556043,-5551.544565,2757.943793
20575.434752,0.000000,-7179.997637,2451.505594
20575.435085,1998.556043,-8734.430116,1762.019645
20575.435418,-1184.329507,-9474.636058,-153.219100
20575.435752,-2886.803174,-11695.253884,-2528.115143
20575.436085,-2738.761985,-10732.986159,-2987.772442
20575.436418,-3182.885551,-10066.800811,-2834.553343
20575.436751,-2368.659014,-9548.656652,1149.143247
20575.437085,-296.082377,-10658.965565,1762.019645
20575.437418,-74.020594,-7994.224174,-1838.629195
20575.437751,0.000000,-8364.327145,2451.505594
20575.438084,1110.308913,-8142.265362,1072.533697
20575.438418,518.144159,-8438.347739,2528.115143
20575.438751,0.000000,-9400.615463,2528.115143
20575.439084,2294.638420,-8586.388927,3370.820191
20575.439417,1480.411884,-4367.215058,1225.752797
20575.439751,1776.494261,-11769.274478,2987.772442
20575.440084,-74.020594,-6291.750507,-3983.696590
20575.440417,-1258.350101,-9696.697840,-4903.011187
20575.440750,1554.432478,-10658.965565,-1302.362347
20575.441084,-1628.453072,-10140.821405,-2451.505594
20575.441417,-3923.091493,-11917.315666,-4136.915689
20575.441750,-222.061783,-9622.677246,-1455.581446
20575.442083,2886.803174,-9474.636058,3294.210641
20575.442417,7402.059420,-6069.688724,6741.640382
20575.442750,9400.615463,-9474.636058,7277.907231
20575.443083,4737.318029,-5995.668130,5515.887586
20575.443416,6143.709319,-9178.553681,4213.525239
20575.443750,4663.297435,-11843.295072,-689.485948
20575.444083,-3552.988522,-10140.821405,-4749.792088
20575.444416,-3923.091493,-12731.542202,-5592.497135
20575.444749,-3552.988522,-11473.192101,-4136.915689
20575.445083,-1406.391290,-11621.233289,-1762.019645
20575.445416,1184.329507,-8364.327145,0.000000
20575.445749,3552.988522,-7105.977043,3753.867940
20575.446082,4589.276840,-8216.285956,5975.544884
20575.446415,4959.379811,-6291.750507,4136.915689
20575.446749,3478.967927,-9178.553681,2068.457845
20575.447082,740.205942,-7772.162391,1225.752797
20575.447415,-592.164754,-10658.965565,1149.143247
20575.447748,-1850.514855,-8364.327145,-3677.258390
20575.448082,-2960.823768,-10732.986159,-459.657299
20575.448415,-1998.556043,-9474.636058,-689.485948
20575.448748,-2886.803174,-8068.244768,-1532.190996
20575.449081,-2886.803174,-9474.636058,-1455.581446
20575.449415,-3182.885551,-9178.553681,-1532.190996
20575.449748,-3552.988522,-7179.997637,612.876398
20575.450081,-1554.432478,-7994.224174,0.000000
20575.450414,-1702.473667,-11103.089130,2374.896044
20575.450748,-2886.803174,-8364.327145,919.314598
20575.451081,0.000000,-7772.162391,4290.134789
20575.451414,2072.576638,-6291.750507,3294.210641
20575.451747,1924.535449,-8216.285956,2374.896044
20575.452081,0.000000,-9696.697840,-842.705048
20575.452414,-1480.411884,-10732.986159,-2221.676944
20575.452747,-370.102971,-12657.521608,-383.047749
20575.453080,-3923.091493,-9548.656652,-4903.011187
20575.453414,-2442.679609,-14211.954086,-2528.115143
20575.453747,-3034.844362,-8660.409521,-3064.381992
20575.454080,1406.391290,-9474.636058,3677.258390
20575.454413,3552.988522,-6587.832884,7354.516781
20575.454747,3256.906145,-6291.750507,5362.668486
20575.455080,2442.679609,-6143.709319,3753.867940
20575.455413,2960.823768,-6143.709319,2298.286494
20575.455746,2590.720797,-7698.141797,842.705048
20575.456080,-2368.659014,-9548.656652,-2145.067394
20575.456413,-4811.338623,-11325.150913,-7967.393179
20575.456746,-4737.318029,-11917.315666,-6128.763984
20575.457079,-1184.329507,-12879.583391,-1915.238745
20575.457413,-74.020594,-9474.636058,-1915.238745
20575.457746,2812.782580,-8216.285956,1532.190996
20575.458079,2886.803174,-8438.347739,3753.867940
20575.458412,6365.771101,-6291.750507,5515.887586
20575.458746,5181.441594,-8586.388927,5209.449386
20575.459079,5847.626942,-9474.636058,6052.154434
20575.459412,0.000000,-7772.162391,0.000000
20575.459745,1184.329507,-8882.471304,-76.609550
20575.460079,3478.967927,-9474.636058,-1302.362347
20575.460412,2294.638420,-8290.306550,-2528.115143
20575.460745,4219.173869,-10658.965565,-76.609550
20575.461078,222.061783,-11695.253884,-3064.381992
20575.461412,1258.350101,-11177.109724,-3140.991542
20575.461745,-1036.288319,-12287.418637,-1302.362347
20575.462078,1702.473667,-10510.924376,-76.609550
20575.462411,-592.164754,-8734.430116,1685.410096
20575.462745,1258.350101,-7402.059420,3064.381992
20575.463078,2960.823768,-7328.038826,5822.325785
20575.463411,3923.091493,-3034.844362,3983.696590
20575.463744,4885.359217,-7402.059420,4826.401637
20575.464078,-962.267725,-7105.977043,-2528.115143
20575.464411,-1776.494261,-9548.656652,-1991.848295
20575.464744,-3034.844362,-11547.212695,-4979.620737
20575.465077,-1258.350101,-11251.130318,-5975.544884
20575.465411,-2368.659014,-10436.903782,-3447.429741
20575.465744,-1258.350101,-12139.377449,-536.266849
20575.466077,2220.617826,-9474.636058,1685.410096
20575.466410,1776.494261,-8956.491898,4903.011187
20575.466743,2960.823768,-9178.553681,6052.154434
20575.467077,2886.803174,-7179.997637,3370.820191
20575.467410,1554.432478,-5995.668130,2757.943793
20575.467743,2368.659014,-7846.182985,3524.039291
20575.468076,-2886.803174,-7179.997637,-1838.629195
20575.468410,-5773.606348,-11473.192101,-4749.792088
20575.468743,-6735.874072,-11843.295072,-5209.449386
20575.469076,-4219.173869,-9252.574275,-3677.258390
20575.469409,-1406.391290,-9474.636058,-76.609550
20575.469743,-666.185348,-11843.295072,-76.609550
20575.470076,-2368.659014,-7179.997637,1225.752797
20575.470409,592.164754,-8808.450710,7124.688131
20575.470742,4071.132681,-7698.141797,4213.525239
20575.471076,0.000000,-9548.656652,4826.401637
20575.471409,-1850.514855,-9326.594869,689.485948
20575.471742,-1258.350101,-9474.636058,-76.609550
20575.472075,-518.144159,-8956.491898,229.828649
20575.472409,0.000000,-5847.626942,0.000000
20575.472742,-74.020594,-9474.636058,-1455.581446
20575.473075,-3552.988522,-7179.997637,-2451.505594
20575.473408,-2294.638420,-11547.212695,-2221.676944
20575.473742,-3627.009116,-10658.965565,-4519.963438
20575.474075,-1406.391290,-11251.130318,-689.485948
20575.474408,-370.102971,-10658.965565,1838.629195
20575.474741,3034.844362,-7772.162391,4519.963438
20575.475075,6069.688724,-8364.327145,7584.345430
20575.475408,5329.482782,-5699.585753,6741.640382
20575.475741,3404.947333,-6291.750507,2757.943793
20575.476074,3627.009116,-8586.388927,2374.896044
20575.476408,-74.020594,-8364.327145,-6128.763984
20575.476741,1184.329507,-9992.780217,-2068.457845
20575.477074,-2590.720797,-13915.871710,-3753.867940
20575.477407,-1924.535449,-11991.336260,-3677.258390
20575.477741,-1554.432478,-11103.089130,-1915.238745
20575.478074,2664.741391,-9252.574275,2451.505594
20575.478407,6513.812290,-6291.750507,7354.516781
20575.478740,5403.503377,-5107.421000,5209.449386
20575.479074,7031.956449,-7402.059420,3907.087040
20575.479407,5033.400406,-7476.080014,2451.505594
20575.479740,4071.132681,-9992.780217,383.047749
20575.480073,-1776.494261,-10140.821405,-4290.134789
20575.480407,-3627.009116,-13027.624579,-6511.811733
20575.480740,-6513.812290,-10732.986159,-4903.011187
20575.481073,-74.020594,-9474.636058,-1915.238745
20575.481406,3182.885551,-8290.306550,1149.143247
20575.481740,0.000000,-9548.656652,2757.943793
20575.482073,1480.411884,-7624.121203,2298.286494
20575.482406,1406.391290,-9178.553681,3600.648841
20575.482739,1924.535449,-8290.306550,3294.210641
20575.483073,-74.020594,-10658.965565,3294.210641
20575.483406,-3182.885551,-7179.997637,0.000000
20575.483739,-1776.494261,-9844.739029,3600.648841
20575.484072,-74.020594,-7105.977043,-1072.533697
20575.484406,-3256.906145,-7179.997637,0.000000
20575.484739,-1850.514855,-10658.965565,-1915.238745
20575.485072,-3404.947333,-9622.677246,-1915.238745
20575.485405,-2812.782580,-10510.924376,-1455.581446
20575.485739,-4219.173869,-10288.862594,-1762.019645
20575.486072,-3627.009116,-10362.883188,-995.924147
20575.486405,-5921.647536,-8364.327145,2451.505594
20575.486738,962.267725,-10066.800811,7277.907231
20575.487072,3478.967927,-7105.977043,4673.182538
20575.487405,1184.329507,-5403.503377,6741.640382
20575.487738,2294.638420,-7105.977043,3600.648841
20575.488071,-1110.308913,-7179.997637,0.000000
20575.488404,-666.185348,-8882.471304,-1915.238745
20575.488738,-3330.926739,-10066.800811,-3140.991542
20575.489071,-6513.812290,-9548.656652,-7354.516781
20575.489404,-8290.306550,-12509.480420,-2987.772442
20575.489737,-3034.844362,-11695.253884,-3753.867940
20575.490071,-518.144159,-8290.306550,-76.609550
20575.490404,2368.659014,-7179.997637,6128.763984
20575.490737,5255.462188,-5995.668130,3983.696590
20575.491070,5255.462188,-6661.853478,4290.134789
20575.491404,6439.791695,-7254.018232,4443.353888
20575.491737,3701.029710,-8660.409521,2451.505594
20575.492070,592.164754,-9548.656652,-2451.505594
20575.492403,-962.267725,-13027.624579,-3447.429741
20575.492737,-592.164754,-11621.233289,-2604.724693
20575.493070,-1258.350101,-11325.150913,-1072.533697
20575.493403,1998.556043,-8882.471304,-1302.362347
20575.493736,1110.308913,-8438.347739,-2451.505594
20575.494070,1702.473667,-9548.656652,536.266849
20575.494403,4737.318029,-8660.409521,5439.278036
20575.494736,3478.967927,-7994.224174,2068.457845
20575.495069,3775.050304,-7920.203579,2374.896044
20575.495403,1332.370696,-10066.800811,1149.143247
20575.495736,3775.050304,-9104.533087,1149.143247
20575.496069,5255.462188,-7105.977043,1991.848295
20575.496402,1184.329507,-8364.327145,0.000000
20575.496736,3478.967927,-9178.553681,-4903.011187
20575.497069,2294.638420,-14211.954086,-2528.115143
20575.497402,2294.638420,-9548.656652,-3064.381992
20575.497735,-592.164754,-8364.327145,-2451.505594
20575.498069,-2294.638420,-11029.068536,-2987.772442
20575.498402,-1036.288319,-9030.512492,383.047749
20575.498735,2294.638420,-8586.388927,3753.867940
20575.499068,4737.318029,-5403.503377,6128.763984
20575.499402,5847.626942,-7105.977043,6052.154434
20575.499735,2738.761985,-7179.997637,2604.724693
20575.500068,4071.132681,-9474.636058,-76.609550
20575.500401,0.000000,-9844.739029,0.000000
20575.500735,1702.473667,-10658.965565,-3907.087040
20575.501068,-3034.844362,-12953.603985,-2834.553343
20575.501401,-3034.844362,-13027.624579,-4366.744339
20575.501734,-2960.823768,-11547.212695,-612.876398
20575.502068,-2368.659014,-7772.162391,-1532.190996
20575.502401,2442.679609,-6587.832884,3217.601092
20575.502734,296.082377,-5921.647536,4519.963438
20575.503067,3923.091493,-6365.771101,4366.744339
20575.503401,296.082377,-6587.832884,3064.381992
20575.503734,1998.556043,-9474.636058,1762.019645
20575.504067,-4737.318029,-8364.327145,-1838.629195
20575.504400,-9474.636058,-10732.986159,-3677.258390
20575.504734,-3775.050304,-10214.842000,-5209.449386
20575.505067,-4737.318029,-9474.636058,-383.047749
20575.505400,-2368.659014,-7476.080014,-919.314598
20575.505733,-3552.988522,-9548.656652,612.876398
20575.506067,-74.020594,-11547.212695,-76.609550
20575.506400,0.000000,-7772.162391,2451.505594
20575.506733,-4145.153275,-7179.997637,3677.258390
20575.507066,1554.432478,-9474.636058,4213.525239
20575.507400,-3849.070898,-8660.409521,1532.190996
20575.507733,0.000000,-7328.038826,2451.505594
20575.508066,518.144159,-7254.018232,2681.334243
20575.508399,-592.164754,-8142.265362,1149.143247
20575.508733,-4737.318029,-8660.409521,-2451.505594
20575.509066,-4367.215058,-9622.677246,-5209.449386
20575.509399,-3108.864956,-10881.027347,-3370.820191
20575.509732,-3182.885551,-9548.656652,-3140.991542
20575.510065,-2442.679609,-12435.459826,-1302.362347
20575.510399,-2072.576638,-8364.327145,612.876398
20575.510732,5699.585753,-9474.636058,8503.660028
20575.511065,7031.956449,-5033.400406,4903.011187
20575.511398,7105.977043,-5995.668130,7048.078582
20575.511732,6439.791695,-8956.491898,5745.716235
20575.512065,4367.215058,-7476.080014,766.095498
20575.512398,3182.885551,-9548.656652,-919.314598
20575.512731,-370.102971,-11695.253884,-3907.087040
20575.513065,-1184.329507,-10140.821405,-6435.202183
20575.513398,-4737.318029,-10732.986159,-4903.011187
20575.513731,3478.967927,-10658.965565,-2528.115143
20575.514064,1480.411884,-7179.997637,0.000000
20575.514398,4737.318029,-6735.874072,4136.915689
20575.514731,6439.791695,-5921.647536,4519.963438
20575.515064,6661.853478,-6587.832884,4673.182538
20575.515397,7105.977043,-8142.265362,3677.258390
20575.515731,4293.194464,-10658.965565,2068.457845
20575.516064,1480.411884,-11843.295072,-1225.752797
20575.516397,-1184.329507,-10140.821405,-1225.752797
20575.516730,2294.638420,-13027.624579,-2528.115143
20575.517064,518.144159,-7920.203579,-2451.505594
20575.517397,0.000000,-8364.327145,306.438199
20575.517730,0.000000,-10140.821405,-2451.505594
20575.518063,-222.061783,-9696.697840,0.000000
20575.518397,1554.432478,-10066.800811,2068.457845
20575.518730,148.041188,-8068.244768,2451.505594
20575.519063,-370.102971,-9474.636058,1762.019645
20575.519396,-2368.659014,-8956.491898,2374.896044
20575.519730,814.226536,-8882.471304,1762.019645
20575.520063,0.000000,-6291.750507,4290.134789
20575.520396,-74.020594,-9178.553681,1762.019645
20575.520729,-3923.091493,-8734.430116,-1302.362347
20575.521063,-3627.009116,-9622.677246,-3140.991542
20575.521396,-4737.318029,-10140.821405,-2451.505594
20575.521729,-5847.626942,-9548.656652,-3983.696590
20575.522062,-10066.800811,-9548.656652,-6435.202183
20575.522396,-4811.338623,-13027.624579,-1608.800546
20575.522729,-3997.112087,-8364.327145,2604.724693
20575.523062,1184.329507,-8068.244768,9729.412825
20575.523395,1702.473667,-5625.565159,3983.696590
20575.523729,1998.556043,-7105.977043,5132.839837
20575.524062,1110.308913,-6587.832884,2451.505594
20575.524395,-74.020594,-8586.388927,919.314598
20575.524728,-3330.926739,-9326.594869,-2451.505594
20575.525062,-8142.265362,-9844.739029,-5515.887586
20575.525395,-4811.338623,-11843.295072,-5056.230287
20575.525728,-3404.947333,-11769.274478,-2068.457845
20575.526061,-1924.535449,-8734.430116,-766.095498
20575.526395,962.267725,-7328.038826,1915.238745
20575.526728,2368.659014,-6291.750507,3140.991542
20575.527061,5255.462188,-8290.306550,7277.907231
20575.527394,4663.297435,-8290.306550,2681.334243
20575.527728,0.000000,-9104.533087,3370.820191
20575.528061,296.082377,-11177.109724,2374.896044
20575.528394,1554.432478,-9252.574275,-1225.752797
20575.528727,1924.535449,-10066.800811,-76.609550
20575.529061,3478.967927,-9326.594869,-689.485948
20575.529394,2664.741391,-9104.533087,-919.314598
20575.529727,1184.329507,-7772.162391,-2451.505594
20575.530060,4663.297435,-9474.636058,-2528.115143
20575.530394,2072.576638,-10658.965565,-1302.362347
20575.530727,1776.494261,-8956.491898,306.438199
20575.531060,2294.638420,-11547.212695,-76.609550
20575.531393,3256.906145,-8364.327145,612.876398
20575.531726,6365.771101,-8808.450710,4060.306139
20575.532060,8216.285956,-8290.306550,4826.401637
20575.532393,7550.100608,-8512.368333,4673.182538
20575.532726,4515.256246,-10214.842000,842.705048
20575.533059,5847.626942,-9474.636058,-4366.744339
20575.533393,0.000000,-10732.986159,-1225.752797
20575.533726,-2368.659014,-10732.986159,-2528.115143
20575.534059,-2738.761985,-11695.253884,-6128.763984
20575.534392,-3552.988522,-11325.150913,-2298.286494
20575.534726,2368.659014,-8808.450710,2374.896044
20575.535059,4589.276840,-6661.853478,5669.106685
20575.535392,5847.626942,-5551.544565,4290.134789
20575.535725,4663.297435,-9474.636058,4519.963438
20575.536059,5255.462188,-7105.977043,1455.581446
20575.536392,2368.659014,-10732.986159,3983.696590
20575.536725,1702.473667,-10658.965565,-1302.362347
20575.537058,-5699.585753,-9548.656652,-7354.516781
20575.537392,-7698.141797,-11917.315666,-3907.087040
20575.537725,-5329.482782,-10140.821405,-2298.286494
20575.538058,-3923.091493,-8142.265362,-689.485948
20575.538391,-2072.576638,-6735.874072,2298.286494
20575.538725,-1554.432478,-9474.636058,4213.525239
20575.539058,0.000000,-5403.503377,4290.134789
20575.539391,-1554.432478,-6883.915261,3753.867940
20575.539724,-3034.844362,-8808.450710,1532.190996
20575.540058,-7105.977043,-8364.327145,-2451.505594
20575.540391,-7105.977043,-10732.986159,-612.876398
20575.540724,-1850.514855,-11251.130318,-995.924147
20575.541057,-4737.318029,-5995.668130,-2451.505594
20575.541391,-3849.070898,-11029.068536,-76.609550
20575.541724,-4145.153275,-6883.915261,-1838.629195
20575.542057,-3404.947333,-10732.986159,383.047749
20575.542390,-2960.823768,-8586.388927,459.657299
20575.542724,-2442.679609,-7994.224174,612.876398
20575.543057,-2072.576638,-8660.409521,3064.381992
20575.543390,518.144159,-7179.997637,2604.724693
20575.543723,4071.132681,-7698.141797,2681.334243
20575.544057,2368.659014,-6883.915261,5056.230287
20575.544390,1184.329507,-8438.347739,2528.115143
20575.544723,0.000000,-9400.615463,-1225.752797
20575.545056,-1850.514855,-11695.253884,-3294.210641
20575.545390,-1776.494261,-9844.739029,-3830.477490
20575.545723,-2368.659014,-11177.109724,-3370.820191
20575.546056,-1258.350101,-10658.965565,-3140.991542
20575.546389,0.000000,-8660.409521,919.314598
20575.546723,3923.091493,-8290.306550,2834.553343
20575.547056,6513.812290,-3923.091493,6741.640382
20575.547389,7624.121203,-8882.471304,4826.401637
20575.547722,9400.615463,-5329.482782,2987.772442
20575.548056,6439.791695,-11103.089130,2068.457845
20575.548389,5329.482782,-7772.162391,689.485948
20575.548722,2590.720797,-10732.986159,-2374.896044
20575.549055,-1036.288319,-13027.624579,-5286.058936
20575.549389,2886.803174,-13027.624579,-2528.115143
20575.549722,-1776.494261,-10140.821405,-2145.067394
20575.550055,2368.659014,-7179.997637,1225.752797
20575.550388,4663.297435,-9474.636058,1149.143247
20575.550722,4737.318029,-5107.421000,766.095498
20575.551055,7476.080014,-7698.141797,4903.011187
20575.551388,5625.565159,-8142.265362,4213.525239
20575.551721,1998.556043,-9844.739029,383.047749
20575.552055,-518.144159,-11399.171507,-842.705048
20575.552388,-74.020594,-9474.636058,-2068.457845
20575.552722,1184.329507,-9844.739029,3447.429741
20575.553055,2886.803174,-8290.306550,-76.609550
20575.553388,-74.020594,-9474.636058,-2451.505594
20575.553722,-4145.153275,-8364.327145,-1225.752797
20575.554055,-1554.432478,-9030.512492,-3064.381992
20575.554389,-2146.597232,-11251.130318,-842.705048
20575.554722,-3182.885551,-9030.512492,383.047749
20575.555055,-4293.194464,-8290.306550,1072.533697
20575.555389,-2442.679609,-8290.306550,1762.019645
20575.555722,-1184.329507,-7402.059420,3753.867940
20575.556055,-666.185348,-7254.018232,5132.839837
20575.556389,-1258.350101,-6809.894666,3600.648841
20575.556722,-3552.988522,-8512.368333,2757.943793
20575.557056,-3034.844362,-9474.636058,-995.924147
20575.557389,-7624.121203,-8364.327145,-5515.887586
20575.557722,-9474.636058,-10140.821405,-3753.867940
20575.558056,-8364.327145,-12361.439231,-5669.106685
20575.558389,-9178.553681,-10140.821405,-3064.381992
20575.558723,-2442.679609,-8882.471304,1072.533697
20575.559056,-1184.329507,-6735.874072,3370.820191
20575.559389,814.226536,-6661.853478,4596.572988
20575.559723,3478.967927,-8882.471304,4826.401637
20575.560056,4663.297435,-9474.636058,3600.648841
20575.560390,0.000000,-8660.409521,4366.744339
20575.560723,0.000000,-9844.739029,2221.676944
20575.561056,-2146.597232,-11843.295072,-3370.820191
20575.561390,-1776.494261,-10732.986159,-612.876398
20575.561723,0.000000,-9104.533087,-766.095498
20575.562057,2664.741391,-7402.059420,-536.266849
20575.562390,1628.453072,-8956.491898,459.657299
20575.562723,2220.617826,-7105.977043,-1991.848295
20575.563057,5255.462188,-8364.327145,0.000000
20575.563390,5033.400406,-11103.089130,3294.210641
20575.563723,3478.967927,-9030.512492,-919.314598
20575.564057,0.000000,-9548.656652,306.438199
20575.564390,4071.132681,-10658.965565,1762.019645
20575.564724,5329.482782,-7624.121203,2451.505594
20575.565057,5625.565159,-8586.388927,2145.067394
20575.565390,5255.462188,-7920.203579,0.000000
20575.565724,2368.659014,-10140.821405,0.000000
20575.566057,3478.967927,-8660.409521,-3677.258390
20575.566391,1184.329507,-10732.986159,-383.047749
20575.566724,-74.020594,-10510.924376,-4903.011187
20575.567057,1184.329507,-9548.656652,0.000000
20575.567391,2960.823768,-9548.656652,2451.505594
20575.567724,7920.203579,-7994.224174,4979.620737
20575.568058,7105.977043,-7920.203579,6588.421283
20575.568391,5329.482782,-7179.997637,3830.477490
20575.568724,5847.626942,-8882.471304,2987.772442
20575.569058,0.000000,-10732.986159,0.000000
20575.569391,-2442.679609,-11251.130318,-5592.497135
20575.569724,-9474.636058,-9548.656652,-6128.763984
20575.570058,-4367.215058,-13027.624579,-4979.620737
20575.570391,-1998.556043,-7772.162391,-2451.505594
20575.570725,74.020594,-9844.739029,3600.648841
20575.571058,2664.741391,-4589.276840,4366.744339
20575.571391,740.205942,-8364.327145,3677.258390
20575.571725,3478.967927,-9474.636058,4213.525239
20575.572058,2960.823768,-8068.244768,5286.058936
20575.572392,148.041188,-10362.883188,1762.019645
20575.572725,-1184.329507,-8364.327145,-1225.752797
20575.573058,-5995.668130,-12879.583391,-4519.963438
20575.573392,-1258.350101,-11547.212695,-229.828649
20575.573725,-5921.647536,-9548.656652,-2451.505594
20575.574059,-74.020594,-11843.295072,-1302.362347
20575.574392,-6513.812290,-7179.997637,-919.314598
20575.574725,-5921.647536,-5995.668130,-1149.143247
20575.575059,1110.308913,-7698.141797,2987.772442
20575.575392,-2590.720797,-8734.430116,4136.915689
20575.575726,-1776.494261,-7698.141797,2068.457845
20575.576059,-4959.379811,-9252.574275,1378.971896
20575.576392,814.226536,-7105.977043,1149.143247
20575.576726,0.000000,-7476.080014,4749.792088
20575.577059,2294.638420,-9474.636058,-76.609550
20575.577392,-2886.803174,-8364.327145,-4290.134789
20575.577726,-3256.906145,-11325.150913,-3064.381992
20575.578059,-370.102971,-10955.047942,-4290.134789
20575.578393,-2146.597232,-10955.047942,-1915.238745
20575.578726,-2812.782580,-9400.615463,-1685.410096
20575.579059,-1258.350101,-9992.780217,536.266849
20575.579393,3108.864956,-4811.338623,4290.134789
20575.579726,7105.977043,-7476.080014,10955.165621
20575.580060,7624.121203,-5625.565159,5209.449386
20575.580393,2960.823768,-4811.338623,3064.381992
20575.580726,4663.297435,-10658.965565,-76.609550
20575.581060,1258.350101,-9548.656652,-3064.381992
20575.581393,-370.102971,-11547.212695,-4519.963438
20575.581727,-3478.967927,-12953.603985,-6665.030833
20575.582060,-2516.700203,-12139.377449,-3830.477490
20575.582393,0.000000,-12805.562797,-1225.752797
20575.582727,4367.215058,-10658.965565,2374.896044
20575.583060,5551.544565,-5107.421000,3064.381992
20575.583394,5921.647536,-4811.338623,4903.011187
20575.583727,5551.544565,-9474.636058,6665.030833
20575.584060,3849.070898,-6587.832884,3217.601092
20575.584394,3627.009116,-8216.285956,1762.019645
20575.584727,1406.391290,-9770.718434,-842.705048
20575.585060,1184.329507,-10066.800811,-2374.896044
20575.585394,-1776.494261,-13841.851115,-3064.381992
20575.585727,1406.391290,-9474.636058,-2528.115143
20575.586061,-370.102971,-10955.047942,-689.485948
20575.586394,888.247130,-10140.821405,-766.095498
20575.586727,1110.308913,-7698.141797,-689.485948
20575.587061,518.144159,-8586.388927,459.657299
20575.587394,592.164754,-7179.997637,3677.258390
20575.587728,-74.020594,-11547.212695,3600.648841
20575.588061,-1998.556043,-7920.203579,306.438199
20575.588394,1998.556043,-8290.306550,4519.963438
20575.588728,1702.473667,-6661.853478,3294.210641
20575.589061,1998.556043,-7105.977043,1915.238745
20575.589395,-3330.926739,-9844.739029,-1455.581446
20575.589728,-4145.153275,-9548.656652,-4903.011187
20575.590061,-2442.679609,-10658.965565,-4903.011187
20575.590395,-2368.659014,-13027.624579,-1915.238745
20575.590728,-5403.503377,-10881.027347,-4060.306139
20575.591061,-4811.338623,-10362.883188,-2987.772442
20575.591395,-1184.329507,-8660.409521,2604.724693
20575.591728,888.247130,-6735.874072,6511.811733
20575.592062,2960.823768,-5403.503377,5515.887586
20575.592395,2072.576638,-6513.812290,5439.278036
20575.592728,2960.823768,-8290.306550,5286.058936
20575.593062,-74.020594,-7624.121203,0.000000
20575.593395,-2442.679609,-11843.295072,-3753.867940
20575.593729,-7550.100608,-10732.986159,-7354.516781
20575.594062,-6365.771101,-13545.768739,-4596.572988
20575.594395,-1776.494261,-12139.377449,-229.828649
20575.594729,-518.144159,-9104.533087,995.924147
20575.595062,1258.350101,-6883.915261,1991.848295
20575.595396,1924.535449,-8364.327145,3294.210641
20575.595729,4515.256246,-6217.729913,4213.525239
20575.596062,3552.988522,-7772.162391,5669.106685
20575.596396,3478.967927,-6809.894666,1532.190996
20575.596729,-3256.906145,-7476.080014,0.000000
20575.597063,-74.020594,-11547.212695,-1455.581446
20575.597396,-74.020594,-10658.965565,-1915.238745
20575.597729,2368.659014,-8586.388927,-689.485948
20575.598063,444.123565,-9548.656652,-306.438199
20575.598396,444.123565,-8142.265362,-1838.629195
20575.598729,666.185348,-10288.862594,-1149.143247
20575.599063,4071.132681,-9474.636058,-76.609550
20575.599396,0.000000,-8364.327145,0.000000
20575.599730,-148.041188,-11251.130318,1685.410096
20575.600063,2294.638420,-11547.212695,-76.609550
20575.600396,1110.308913,-8290.306550,2374.896044
20575.600730,7031.956449,-6217.729913,5439.278036
20575.601063,4737.318029,-7846.182985,3983.696590
20575.601397,3182.885551,-8438.347739,306.438199
20575.601730,1554.432478,-9104.533087,-1455.581446
20575.602063,-74.020594,-13027.624579,-2528.115143
20575.602396,-1776.494261,-9548.656652,-4290.134789
20575.602729,-5625.565159,-13249.686362,-5209.449386
20575.603062,-1776.494261,-9844.739029,-3370.820191
20575.603395,0.000000,-8364.327145,1838.629195
20575.603728,4663.297435,-4811.338623,3677.258390
20575.604061,6291.750507,-4219.173869,3907.087040
20575.604394,5033.400406,-8808.450710,7277.907231
20575.604727,5699.585753,-6661.853478,2451.505594
20575.605061,0.000000,-7179.997637,0.000000
20575.605394,-74.020594,-11843.295072,-2528.115143
20575.605727,-5329.482782,-10881.027347,-6052.154434
20575.606060,-5329.482782,-11843.295072,-4443.353888
20575.606393,-1258.350101,-11547.212695,-1302.362347
20575.606726,-74.020594,-10584.944971,2374.896044
20575.607059,0.000000,-7179.997637,0.000000
20575.607392,1184.329507,-8068.244768,2451.505594
20575.607725,5847.626942,-9474.636058,4826.401637
20575.608058,3552.988522,-8364.327145,4903.011187
20575.608391,3775.050304,-8142.265362,2911.162892
20575.608725,-740.205942,-10214.842000,459.657299
20575.609058,888.247130,-7698.141797,-459.657299
20575.609391,-1406.391290,-11621.233289,-1149.143247
20575.609724,-74.020594,-9104.533087,-1302.362347
20575.610057,-5921.647536,-10732.986159,153.219100
20575.610390,-1850.514855,-9474.636058,-2528.115143
20575.610723,-1998.556043,-7698.141797,-3370.820191
20575.611056,-3034.844362,-11547.212695,-76.609550
20575.611389,-814.226536,-6883.915261,306.438199
20575.611722,-4071.132681,-9104.533087,1685.410096
20575.612055,1258.350101,-7550.100608,3217.601092
20575.612389,592.164754,-7772.162391,5515.887586
20575.612722,4663.297435,-5921.647536,2987.772442
20575.613055,1184.329507,-8364.327145,2451.505594
20575.613388,-740.205942,-10955.047942,-689.485948
20575.613721,-3182.885551,-10214.842000,-4903.011187
20575.614054,-4737.318029,-10140.821405,-3064.381992
20575.614387,-3849.070898,-10732.986159,-3447.429741
20575.614720,-5477.523971,-10510.924376,-3830.477490
20575.615053,-2664.741391,-9696.697840,-1149.143247
20575.615386,2886.803174,-9474.636058,5439.278036
20575.615719,3478.967927,-3627.009116,5515.887586
20575.616053,7031.956449,-7105.977043,4826.401637
20575.616386,2368.659014,-5995.668130,306.438199
20575.616719,4737.318029,-8290.306550,4213.525239
20575.617052,888.247130,-8956.491898,306.438199
20575.617385,-1036.288319,-9992.780217,-2604.724693
20575.617718,-4811.338623,-13323.706956,-5056.230287
20575.618051,-3849.070898,-11177.109724,-4903.011187
20575.618384,-74.020594,-12731.542202,-76.609550
20575.618717,592.164754,-7476.080014,306.438199
20575.619050,1110.308913,-9474.636058,1608.800546
20575.619383,2960.823768,-5847.626942,2987.772442
20575.619717,4737.318029,-8068.244768,5669.106685
20575.620050,6513.812290,-6513.812290,6665.030833
20575.620383,2590.720797,-8512.368333,1685.410096
20575.620716,0.000000,-8364.327145,1225.752797
20575.621049,4071.132681,-10362.883188,-383.047749
20575.621382,1776.494261,-10140.821405,0.000000
20575.621715,2368.659014,-9844.739029,766.095498
20575.622048,-222.061783,-10140.821405,-2221.676944
20575.622381,740.205942,-10288.862594,-1915.238745
20575.622714,2072.576638,-9326.594869,-76.609550
20575.623047,1406.391290,-10362.883188,-76.609550
20575.623381,-1480.411884,-8660.409521,0.000000
20575.623714,-666.185348,-10362.883188,2374.896044
20575.624047,1110.308913,-6809.894666,612.876398
20575.624380,2368.659014,-6883.915261,5209.449386
20575.624713,7031.956449,-6513.812290,4826.401637
20575.625046,1110.308913,-7476.080014,2298.286494
20575.625379,222.061783,-8660.409521,-1838.629195
20575.625712,-2220.617826,-12065.356855,-3140.991542
20575.626045,-2146.597232,-10140.821405,-4673.182538
20575.626378,-5477.523971,-9548.656652,-3677.258390
20575.626711,-3627.009116,-13619.789333,-3140.991542
20575.627045,-2442.679609,-13027.624579,-2528.115143
20575.627378,-2220.617826,-8660.409521,3064.381992
20575.627711,4663.297435,-5033.400406,5592.497135
20575.628044,3108.864956,-6143.709319,7354.516781
20575.628377,2886.803174,-5625.565159,4673.182538
20575.628710,1776.494261,-7698.141797,3907.087040
20575.629043,-1776.494261,-8956.491898,0.000000
20575.629376,-4441.235652,-10881.027347,-995.924147
20575.629709,-6587.832884,-13619.789333,-6818.249932
20575.630042,-5329.482782,-10436.903782,-5362.668486
20575.630375,-5625.565159,-9548.656652,-76.609550
20575.630709,-370.102971,-8290.306550,-1455.581446
20575.631042,-1850.514855,-9178.553681,229.828649
20575.631375,0.000000,-8216.285956,689.485948
20575.631708,3182.885551,-8142.265362,4596.572988
20575.632041,1776.494261,-7179.997637,3983.696590
20575.632374,592.164754,-8438.347739,1915.238745
20575.632707,-1480.411884,-9400.615463,1225.752797
20575.633040,962.267725,-8068.244768,1838.629195
20575.633373,3478.967927,-8882.471304,2987.772442
20575.633706,444.123565,-7698.141797,-689.485948
20575.634039,0.000000,-8364.327145,-612.876398
20575.634372,-370.102971,-10658.965565,-3753.867940
20575.634706,1702.473667,-9918.759623,-3753.867940
20575.635039,-666.185348,-11843.295072,-1608.800546
20575.635372,-1406.391290,-11177.109724,-3140.991542
20575.635705,-2220.617826,-11547.212695,-383.047749
20575.636038,2960.823768,-8512.368333,4443.353888
20575.636371,5773.606348,-7772.162391,6741.640382
20575.636704,9400.615463,-6217.729913,9422.974625
20575.637037,4737.318029,-6587.832884,8197.221829
20575.637370,4663.297435,-6809.894666,229.828649
20575.637703,3552.988522,-10140.821405,-1838.629195
20575.638036,-1776.494261,-10436.903782,-4903.011187
20575.638370,-3034.844362,-11547.212695,-7048.078582
20575.638703,-4959.379811,-12879.583391,-6971.469032
20575.639036,-1998.556043,-12509.480420,-4366.744339
20575.639369,1776.494261,-9178.553681,1991.848295
20575.639702,4071.132681,-7105.977043,3600.648841
20575.640035,6957.935855,-6809.894666,8580.269578
20575.640368,6439.791695,-8586.388927,5439.278036
20575.640701,4737.318029,-5995.668130,4903.011187
20575.641034,3849.070898,-8956.491898,3677.258390
20575.641367,0.000000,-9548.656652,-1225.752797
20575.641700,-1998.556043,-11103.089130,-3753.867940
20575.642034,-3182.885551,-12139.377449,-4596.572988
20575.642367,-1480.411884,-9474.636058,-4136.915689
20575.642700,-2368.659014,-9548.656652,-4290.134789
20575.643033,-74.020594,-11251.130318,-3753.867940
20575.643366,-74.020594,-11843.295072,-1302.362347
20575.643699,0.000000,-8956.491898,4903.011187
20575.644032,4663.297435,-8290.306550,8197.221829
20575.644365,1184.329507,-7179.997637,4903.011187
20575.644698,814.226536,-8734.430116,1915.238745
20575.645031,296.082377,-8660.409521,2374.896044
20575.645364,-740.205942,-10510.924376,1838.629195
20575.645698,-1184.329507,-8438.347739,536.266849
20575.646031,-1258.350101,-9474.636058,-4673.182538
20575.646364,-3256.906145,-9548.656652,-2451.505594
20575.646697,-2368.659014,-8660.409521,995.924147
20575.647030,-1258.350101,-11843.295072,-1302.362347
20575.647363,-6809.894666,-9992.780217,-2145.067394
20575.647696,-4811.338623,-9252.574275,-2145.067394
20575.648029,-666.185348,-9474.636058,3064.381992
20575.648362,3330.926739,-6217.729913,5515.887586
20575.648695,2368.659014,-7476.080014,7507.735880
20575.649028,1110.308913,-5403.503377,2451.505594
20575.649362,888.247130,-8364.327145,1225.752797
20575.649695,296.082377,-9696.697840,-229.828649
20575.650028,-3034.844362,-10362.883188,-3600.648841
20575.650361,-5921.647536,-11029.068536,-3677.258390
20575.650694,-4219.173869,-11547.212695,-4979.620737
20575.651027,-2590.720797,-10140.821405,-2451.505594
20575.651360,296.082377,-7179.997637,2451.505594
20575.651693,4071.132681,-9474.636058,4826.401637
20575.652026,4145.153275,-5625.565159,4060.306139
20575.652359,2886.803174,-7254.018232,3370.820191
20575.652692,3256.906145,-8808.450710,3064.381992
20575.653026,592.164754,-7772.162391,0.000000
20575.653359,-3256.906145,-9548.656652,-1838.629195
20575.653692,-74.020594,-12435.459826,-3447.429741
20575.654025,-1776.494261,-10436.903782,-2451.505594
20575.654358,592.164754,-11177.109724,-76.609550
20575.654691,370.102971,-6587.832884,-2451.505594
20575.655024,1036.288319,-10362.883188,-383.047749
20575.655357,2664.741391,-7105.977043,229.828649
20575.655690,3849.070898,-10658.965565,3140.991542
20575.656023,6291.750507,-7698.141797,4826.401637
20575.656356,296.082377,-8068.244768,4290.134789
20575.656690,2294.638420,-8956.491898,-2451.505594
20575.657023,4737.318029,-8660.409521,3830.477490
20575.657356,4663.297435,-10658.965565,2987.772442
20575.657689,4293.194464,-8142.265362,612.876398
20575.658022,-74.020594,-9918.759623,-2221.676944
20575.658355,296.082377,-11843.295072,-2374.896044
20575.658688,740.205942,-9104.533087,-995.924147
20575.659021,-1554.432478,-11843.295072,-2834.553343
20575.659354,-4145.153275,-12731.542202,-1915.238745
20575.659687,-4737.318029,-7994.224174,-2528.115143
20575.660020,0.000000,-7179.997637,4596.572988
20575.660354,4071.132681,-4737.318029,4903.011187
20575.660687,4071.132681,-5773.606348,4826.401637
20575.661020,2294.638420,-6957.935855,3294.210641
20575.661353,1258.350101,-9474.636058,1915.238745
20575.661686,1258.350101,-9178.553681,0.000000
20575.662019,-3849.070898,-10732.986159,-3983.696590
20575.662352,-3034.844362,-11843.295072,-6358.592633
20575.662685,-7698.141797,-12065.356855,-2987.772442
20575.663018,-2368.659014,-11843.295072,-76.609550
20575.663351,-1258.350101,-7994.224174,0.000000
20575.663684,-814.226536,-7105.977043,3600.648841
20575.664018,814.226536,-6069.688724,5056.230287
20575.664351,1110.308913,-5477.523971,4136.915689
20575.664684,888.247130,-7105.977043,2987.772442
20575.665017,-2368.659014,-7179.997637,0.000000
20575.665350,-2442.679609,-9474.636058,-1838.629195
20575.665683,-3034.844362,-10436.903782,-2068.457845
20575.666016,-1184.329507,-11621.233289,-1532.190996
20575.666349,-74.020594,-9474.636058,-1378.971896
20575.666682,-2368.659014,-9548.656652,-2451.505594
20575.667015,518.144159,-10658.965565,-2528.115143
20575.667348,-74.020594,-11251.130318,-2221.676944
20575.667681,296.082377,-8956.491898,2604.724693
20575.668015,3478.967927,-9474.636058,4826.401637
20575.668348,0.000000,-7179.997637,2451.505594
20575.668681,740.205942,-9030.512492,1991.848295
20575.669014,3775.050304,-8290.306550,4443.353888
20575.669347,3849.070898,-7254.018232,4749.792088
20575.669680,3552.988522,-6661.853478,3064.381992
20575.670013,-74.020594,-9474.636058,-2681.334243
20575.670346,148.041188,-9548.656652,-4903.011187
20575.670679,-1184.329507,-12065.356855,-1915.238745
20575.671012,-2146.597232,-11103.089130,-5439.278036
20575.671345,-4737.318029,-12509.480420,-4136.915689
20575.671679,-2590.720797,-10732.986159,-4903.011187
20575.672012,3552.988522,-9178.553681,3677.258390
20575.672345,5477.523971,-5921.647536,7201.297681
20575.672678,8216.285956,-7698.141797,8197.221829
20575.673011,5847.626942,-5329.482782,2068.457845
20575.673344,4737.318029,-8808.450710,4826.401637
20575.673677,4663.297435,-9474.636058,-76.609550
20575.674010,-1628.453072,-9696.697840,-1225.752797
20575.674343,-3330.926739,-11843.295072,-6511.811733
20575.674676,-5625.565159,-13619.789333,-6818.249932
20575.675009,-2812.782580,-11325.150913,-3983.696590
20575.675343,0.000000,-8808.450710,229.828649
20575.675676,0.000000,-7402.059420,536.266849
20575.676009,1480.411884,-5995.668130,612.876398
20575.676342,4145.153275,-8438.347739,6665.030833
20575.676675,4663.297435,-7105.977043,4826.401637
20575.677008,592.164754,-6291.750507,2451.505594
20575.677341,1110.308913,-11251.130318,1149.143247
20575.677674,-1406.391290,-9326.594869,-612.876398
20575.678007,962.267725,-9474.636058,-229.828649
20575.678340,370.102971,-7994.224174,-1532.190996
20575.678673,-1554.432478,-9178.553681,-2834.553343
20575.679007,-2368.659014,-10288.862594,-3830.477490
20575.679340,-1554.432478,-10955.047942,-2987.772442
20575.679673,370.102971,-11325.150913,153.219100
20575.680006,592.164754,-8364.327145,2757.943793
20575.680339,2220.617826,-9474.636058,4519.963438
20575.680672,2294.638420,-7179.997637,766.095498
20575.681005,3923.091493,-10658.965565,8503.660028
20575.681338,4071.132681,-5921.647536,3140.991542
20575.681671,2368.659014,-6883.915261,3064.381992
20575.682004,148.041188,-9178.553681,-459.657299
20575.682337,444.123565,-9474.636058,-2604.724693
20575.682671,-3256.906145,-10881.027347,-3370.820191
20575.683004,-3034.844362,-11843.295072,-4979.620737
20575.683337,-8290.306550,-10732.986159,-4749.792088
20575.683670,-4811.338623,-9548.656652,-4903.011187
20575.684003,740.205942,-8364.327145,4213.525239
20575.684336,4663.297435,-8882.471304,7277.907231
20575.684669,5847.626942,-4145.153275,5439.278036
20575.685002,3478.967927,-8586.388927,5286.058936
20575.685335,5329.482782,-7105.977043,4290.134789
20575.685668,1924.535449,-9400.615463,2298.286494
20575.686001,-1332.370696,-10807.006753,-2681.334243
20575.686335,-3923.091493,-12805.562797,-4979.620737
20575.686668,-7994.224174,-12509.480420,-6128.763984
20575.687001,-888.247130,-10658.965565,-76.609550
20575.687334,-370.102971,-9178.553681,536.266849
20575.687667,0.000000,-5995.668130,1532.190996
20575.688000,1110.308913,-7105.977043,1915.238745
20575.688333,3997.112087,-7402.059420,4979.620737
20575.688666,2516.700203,-6439.791695,4290.134789
20575.688999,148.041188,-9326.594869,1149.143247
20575.689332,-1258.350101,-9474.636058,-1915.238745
20575.689665,-3552.988522,-11325.150913,-76.609550
20575.689999,3478.967927,-11843.295072,-76.609550
20575.690332,-962.267725,-8364.327145,-1838.629195
20575.690665,0.000000,-9844.739029,-766.095498
20575.690998,-2146.597232,-9548.656652,-2451.505594
20575.691331,0.000000,-9770.718434,-842.705048
20575.691664,0.000000,-9252.574275,0.000000
20575.691997,1110.308913,-7846.182985,1762.019645
20575.692330,0.000000,-8364.327145,306.438199
20575.692663,3256.906145,-10510.924376,4826.401637
20575.692996,3182.885551,-8364.327145,2451.505594
20575.693329,2368.659014,-7476.080014,4903.011187
20575.693663,3849.070898,-8956.491898,3294.210641
20575.693996,1036.288319,-8364.327145,0.000000
20575.694329,1702.473667,-9400.615463,-1685.410096
20575.694662,-962.267725,-11177.109724,-2834.553343
20575.694995,-2738.761985,-11399.171507,-3677.258390
20575.695328,-4219.173869,-9992.780217,-4903.011187
20575.695661,-2590.720797,-10510.924376,-2528.115143
20575.695994,1850.514855,-7179.997637,2374.896044
20575.696327,4071.132681,-5995.668130,4596.572988
20575.696660,5255.462188,-6809.894666,6665.030833
20575.696993,2442.679609,-6587.832884,2451.505594
20575.697327,5403.503377,-9178.553681,5439.278036
20575.697660,4663.297435,-9474.636058,689.485948
20575.697993,74.020594,-9696.697840,-766.095498
20575.698326,-4737.318029,-11917.315666,-3600.648841
20575.698659,-3923.091493,-12805.562797,-4903.011187
20575.698992,-370.102971,-9844.739029,-1685.410096
20575.699325,444.123565,-8956.491898,612.876398
20575.699658,-666.185348,-8290.306550,383.047749
20575.699991,-74.020594,-5625.565159,0.000000
20575.700324,1184.329507,-9474.636058,4673.182538
20575.700657,1702.473667,-8290.306550,2374.896044
20575.700990,-2368.659014,-8734.430116,0.000000
20575.701324,-1258.350101,-9474.636058,2068.457845
20575.701657,-1184.329507,-9400.615463,1302.362347
20575.701990,2590.720797,-8290.306550,2068.457845
20575.702323,1480.411884,-8068.244768,689.485948
20575.702656,-2368.659014,-9548.656652,-2145.067394
20575.702989,-1850.514855,-10140.821405,-6741.640382
20575.703322,-592.164754,-13027.624579,-689.485948
20575.703655,-1850.514855,-10066.800811,-2987.772442
20575.703988,-4737.318029,-7476.080014,-1838.629195
20575.704321,-1998.556043,-8364.327145,0.000000
20575.704654,1406.391290,-10658.965565,3600.648841
20575.704987,3849.070898,-5699.585753,6128.763984
20575.705320,3701.029710,-6587.832884,6971.469032
20575.705653,3478.967927,-7105.977043,5439.278036
20575.705986,814.226536,-5403.503377,-1838.629195
20575.706319,-74.020594,-11251.130318,-3753.867940
20575.706652,-3034.844362,-7476.080014,-6128.763984
20575.706985,-5921.647536,-14211.954086,-5439.278036
20575.707318,-3701.029710,-13767.830521,-5515.887586
20575.707651,-3923.091493,-13471.748144,-2834.553343
20575.707984,1554.432478,-7846.182985,2221.676944
20575.708317,3256.906145,-5995.668130,5669.106685
20575.708650,4367.215058,-5921.647536,4826.401637
20575.708983,4737.318029,-5403.503377,7967.393179
20575.709316,5847.626942,-7994.224174,4443.353888
20575.709649,4145.153275,-4811.338623,0.000000
20575.709982,296.082377,-10807.006753,1149.143247
20575.710315,-740.205942,-12139.377449,-3677.258390
20575.710648,-2368.659014,-12213.398043,-4366.744339
20575.710981,-592.164754,-11103.089130,-2681.334243
20575.711314,1036.288319,-9770.718434,-919.314598
20575.711648,888.247130,-8882.471304,-306.438199
20575.711981,1184.329507,-8956.491898,1762.019645
20575.712314,2812.782580,-8660.409521,3140.991542
20575.712647,4293.194464,-6809.894666,4519.963438
20575.712980,1554.432478,-8142.265362,2451.505594
20575.713313,2886.803174,-10066.800811,1149.143247
20575.713646,1776.494261,-7179.997637,3217.601092
20575.713979,5033.400406,-9474.636058,6052.154434
20575.714312,1258.350101,-4811.338623,0.000000
20575.714645,0.000000,-10658.965565,-3140.991542
20575.714978,-74.020594,-12435.459826,-4366.744339
20575.715311,0.000000,-11103.089130,-3524.039291
20575.715644,-1110.308913,-10881.027347,-3830.477490
20575.715977,-1406.391290,-11547.212695,-2528.115143
20575.716310,-1554.432478,-9548.656652,-1225.752797
20575.716643,0.000000,-8364.327145,4903.011187
20575.716976,5551.544565,-7105.977043,6052.154434
20575.717309,4663.297435,-5551.544565,4903.011187
20575.717642,4145.153275,-5995.668130,6435.202183
20575.717975,3478.967927,-6513.812290,1378.971896
20575.718308,-296.082377,-10658.965565,-229.828649
20575.718641,-4071.132681,-10362.883188,-4290.134789
20575.718974,-9474.636058,-11917.315666,-7507.735880
20575.719307,-8586.388927,-11325.150913,-7354.516781
20575.719640,-8290.306550,-12509.480420,-76.609550
20575.719973,-2442.679609,-9326.594869,-153.219100
20575.720306,222.061783,-3775.050304,2298.286494
20575.720639,592.164754,-5699.585753,6281.983084
20575.720972,1480.411884,-4811.338623,5209.449386
20575.721305,1998.556043,-7698.141797,4290.134789
20575.721638,1036.288319,-7254.018232,2145.067394
20575.721971,-2590.720797,-9696.697840,-1225.752797
20575.722304,-2442.679609,-11843.295072,-4060.306139
20575.722637,-1850.514855,-13619.789333,-1302.362347
20575.722971,-1258.350101,-8660.409521,-3370.820191
20575.723304,0.000000,-9104.533087,153.219100
20575.723637,-74.020594,-11251.130318,-76.609550
20575.723970,1406.391290,-9104.533087,2374.896044
20575.724303,1776.494261,-8956.491898,3064.381992
20575.724636,3034.844362,-6661.853478,3140.991542
20575.724969,296.082377,-7772.162391,2374.896044
20575.725302,0.000000,-9030.512492,766.095498
20575.725635,2886.803174,-8586.388927,1149.143247
20575.725968,1184.329507,-7179.997637,1225.752797
20575.726301,4737.318029,-8808.450710,2681.334243
20575.726634,1110.308913,-9326.594869,-3370.820191
20575.726967,592.164754,-11621.233289,-1302.362347
20575.727300,222.061783,-11029.068536,-2374.896044
20575.727633,-1480.411884,-10436.903782,-2604.724693
20575.727966,-2368.659014,-10436.903782,-2911.162892
20575.728299,0.000000,-8956.491898,0.000000
20575.728632,5551.544565,-7920.203579,3753.867940
20575.728965,5921.647536,-6957.935855,6511.811733
20575.729298,5329.482782,-6883.915261,5056.230287
20575.729631,5625.565159,-6957.935855,3983.696590
20575.729964,4071.132681,-8882.471304,2374.896044
20575.730297,5847.626942,-11843.295072,-76.609550
20575.730630,-4145.153275,-10732.986159,-4290.134789
20575.730963,-3627.009116,-13027.624579,-5592.497135
20575.731296,-5921.647536,-12805.562797,-5822.325785
20575.731629,-3182.885551,-11029.068536,-1838.629195
20575.731962,222.061783,-7994.224174,919.314598
20575.732295,1406.391290,-6217.729913,2681.334243
20575.732628,2960.823768,-6217.729913,3907.087040
20575.732961,1184.329507,-5995.668130,3064.381992
20575.733294,5255.462188,-7698.141797,3294.210641
20575.733627,888.247130,-7179.997637,2451.505594
20575.733960,-888.247130,-11547.212695,-76.609550
20575.734294,-1554.432478,-11843.295072,-3140.991542
20575.734627,-4145.153275,-12509.480420,-1762.019645
20575.734960,-370.102971,-9770.718434,-995.924147
20575.735293,-1184.329507,-8882.471304,76.609550
20575.735626,-1110.308913,-8660.409521,76.609550
20575.735959,-1628.453072,-9474.636058,2068.457845
20575.736292,-74.020594,-7698.141797,0.000000
20575.736625,-2072.576638,-7179.997637,1225.752797
20575.736958,-1998.556043,-9474.636058,2374.896044
20575.737291,-3108.864956,-6587.832884,0.000000
20575.737624,2590.720797,-8734.430116,4826.401637
20575.737957,2442.679609,-6439.791695,3830.477490
20575.738290,2812.782580,-7105.977043,1608.800546
20575.738623,-1332.370696,-10955.047942,-2068.457845
20575.738956,-1258.350101,-11843.295072,-3447.429741
20575.739289,-3034.844362,-9548.656652,-4903.011187
20575.739622,-2220.617826,-12139.377449,-2528.115143
20575.739955,-3627.009116,-9474.636058,-5132.839837
20575.740288,-4145.153275,-7179.997637,0.000000
20575.740621,4663.297435,-8290.306550,4519.963438
20575.740954,5181.441594,-5477.523971,7507.735880
20575.741287,5773.606348,-5773.606348,5209.449386
20575.741620,3775.050304,-6291.750507,2911.162892
20575.741953,4663.297435,-9474.636058,1762.019645
20575.742286,3256.906145,-9992.780217,-76.609550
20575.742619,-370.102971,-12731.542202,-4366.744339
20575.742952,-3256.906145,-12657.521608,-6665.030833
20575.743285,-4737.318029,-14285.974681,-4903.011187
20575.743618,-740.205942,-13027.624579,-76.609550
20575.743951,1110.308913,-6439.791695,76.609550
20575.744284,1110.308913,-4811.338623,1225.752797
20575.744617,4959.379811,-6809.894666,4826.401637
20575.744950,4145.153275,-4811.338623,4290.134789
20575.745283,6143.709319,-7105.977043,5132.839837
20575.745617,1480.411884,-8364.327145,1838.629195
20575.745950,-962.267725,-9622.677246,-2374.896044
20575.746283,-666.185348,-13619.789333,-689.485948
20575.746616,-74.020594,-13915.871710,-76.609550
20575.746949,-888.247130,-7179.997637,-2451.505594
20575.747282,-888.247130,-9844.739029,0.000000
20575.747615,1702.473667,-9474.636058,-689.485948
20575.747948,-888.247130,-10288.862594,0.000000
20575.748281,888.247130,-8364.327145,0.000000
20575.748614,-296.082377,-8586.388927,1762.019645
20575.748947,-1850.514855,-8808.450710,842.705048
20575.749280,-370.102971,-8290.306550,1149.143247
20575.749613,1628.453072,-9474.636058,4826.401637
20575.749946,0.000000,-3627.009116,4903.011187
20575.750279,3478.967927,-8290.306550,1762.019645
20575.750612,-1480.411884,-8882.471304,-2681.334243
20575.750945,-2442.679609,-11177.109724,-2528.115143
20575.751278,-4663.297435,-11325.150913,-3677.258390
20575.751611,-3775.050304,-9696.697840,-4060.306139
20575.751944,-5625.565159,-10658.965565,-3753.867940
20575.752277,-4145.153275,-9548.656652,-1225.752797
20575.752610,1702.473667,-8882.471304,2987.772442
20575.752943,2368.659014,-7105.977043,9116.536426
20575.753276,6439.791695,-5921.647536,6052.154434
20575.753609,1480.411884,-7179.997637,4903.011187
20575.753942,5625.565159,-6291.750507,3830.477490
20575.754275,1776.494261,-9992.780217,2068.457845
20575.754608,-1628.453072,-10362.883188,-3983.696590
20575.754941,-5625.565159,-12805.562797,-6741.640382
20575.755274,-4219.173869,-15396.283594,-4979.620737
20575.755607,-666.185348,-8364.327145,-3677.258390
20575.755940,962.267725,-10955.047942,-76.609550
20575.756273,2294.638420,-9474.636058,-76.609550
20575.756606,0.000000,-5403.503377,2451.505594
20575.756940,4737.318029,-6883.915261,5515.887586
20575.757273,5329.482782,-5995.668130,5592.497135
20575.757606,1628.453072,-9178.553681,2528.115143
20575.757939,888.247130,-8586.388927,-995.924147
20575.758272,-74.020594,-13619.789333,2068.457845
20575.758605,2368.659014,-8364.327145,0.000000
20575.758938,1258.350101,-9178.553681,-766.095498
20575.759271,444.123565,-9696.697840,-2221.676944
20575.759604,-518.144159,-9400.615463,-2757.943793
20575.759937,1184.329507,-12287.418637,-1072.533697
20575.760270,1110.308913,-9326.594869,-1838.629195
20575.760603,-2146.597232,-8364.327145,0.000000
20575.760936,1702.473667,-9474.636058,1149.143247
20575.761269,0.000000,-7476.080014,2451.505594
20575.761602,2368.659014,-8364.327145,6435.202183
20575.761935,4663.297435,-5329.482782,5132.839837
20575.762268,2368.659014,-7402.059420,3294.210641
20575.762601,1258.350101,-9252.574275,153.219100
20575.762934,-1850.514855,-11843.295072,-1608.800546
20575.763267,-4515.256246,-10140.821405,-4903.011187
20575.763600,-3775.050304,-11251.130318,-2604.724693
20575.763933,-3627.009116,-11843.295072,-4979.620737
20575.764266,-4071.132681,-10214.842000,-2451.505594
20575.764599,1628.453072,-9474.636058,4519.963438
20575.764932,2368.659014,-5403.503377,5515.887586
20575.765265,3997.112087,-6439.791695,7354.516781
20575.765598,4367.215058,-6291.750507,4596.572988
20575.765931,4071.132681,-7476.080014,3140.991542
20575.766264,0.000000,-5995.668130,1225.752797
20575.766597,-370.102971,-11843.295072,-2834.553343
20575.766930,-6587.832884,-11843.295072,-7431.126331
20575.767263,-5255.462188,-11991.336260,-4903.011187
20575.767596,-1998.556043,-10066.800811,-3140.991542
20575.767930,-518.144159,-8290.306550,-766.095498
20575.768263,-740.205942,-7476.080014,-76.609550
20575.768596,0.000000,-7550.100608,1762.019645
20575.768929,3108.864956,-6587.832884,4903.011187
20575.769262,3552.988522,-7698.141797,6665.030833
20575.769595,2294.638420,-9178.553681,-76.609550
20575.769928,0.000000,-8956.491898,612.876398
20575.770261,0.000000,-11325.150913,4213.525239
20575.770594,4663.297435,-9178.553681,536.266849
20575.770927,2072.576638,-9474.636058,842.705048
20575.771260,1110.308913,-8956.491898,-1838.629195
20575.771593,222.061783,-9770.718434,-2068.457845
20575.771926,0.000000,-10140.821405,-1225.752797
20575.772259,-740.205942,-10658.965565,-1072.533697
20575.772592,-3108.864956,-9400.615463,-2451.505594
20575.772925,-1554.432478,-9178.553681,-766.095498
20575.773258,2294.638420,-9178.553681,3600.648841
20575.773591,3923.091493,-7698.141797,5439.278036
20575.773924,3552.988522,-4811.338623,6741.640382
20575.774257,5255.462188,-8882.471304,2987.772442
20575.774590,814.226536,-7179.997637,-2451.505594
20575.774923,1702.473667,-11843.295072,-1915.238745
20575.775256,-1110.308913,-11843.295072,-3907.087040
20575.775589,-3330.926739,-11843.295072,-4443.353888
20575.775922,-4219.173869,-12509.480420,-4443.353888
20575.776255,-2590.720797,-10732.986159,-1762.019645
20575.776588,2886.803174,-9178.553681,4826.401637
20575.776921,1184.329507,-5403.503377,8886.707777
20575.777254,5551.544565,-5921.647536,6052.154434
20575.777587,2886.803174,-5625.565159,2987.772442
20575.777920,2368.659014,-6587.832884,3140.991542
20575.778253,2294.638420,-7994.224174,76.609550
20575.778586,-2738.761985,-10288.862594,-3294.210641
20575.778919,-5625.565159,-13175.665768,-7048.078582
20575.779253,-5921.647536,-13323.706956,-5822.325785
20575.779586,-3182.885551,-11251.130318,-2528.115143
20575.779919,962.267725,-10066.800811,3294.210641
20575.780252,962.267725,-9474.636058,1762.019645
20575.780585,1702.473667,-6217.729913,766.095498
20575.780918,1184.329507,-7179.997637,5822.325785
20575.781251,2220.617826,-5995.668130,4290.134789
20575.781584,-444.123565,-8290.306550,1991.848295
20575.781917,-2072.576638,-9326.594869,76.609550
20575.782250,-1110.308913,-9474.636058,-459.657299
20575.782583,0.000000,-7179.997637,0.000000
20575.782916,2886.803174,-11251.130318,-76.609550
20575.783249,-2368.659014,-8882.471304,-3140.991542
20575.783582,-4737.318029,-10140.821405,-2451.505594
20575.783915,-74.020594,-11843.295072,-76.609550
20575.784248,-2368.659014,-9548.656652,-766.095498
20575.784581,-2664.741391,-9844.739029,-1991.848295
20575.784914,-1332.370696,-8734.430116,766.095498
20575.785247,1998.556043,-7994.224174,4136.915689
20575.785580,5625.565159,-7179.997637,8273.831378
20575.785913,7031.956449,-7105.977043,4826.401637
20575.786246,3552.988522,-7179.997637,4749.792088
20575.786579,4663.297435,-11251.130318,-76.609550
20575.786912,3478.967927,-10955.047942,-1915.238745
20575.787245,-2072.576638,-11325.150913,-2834.553343
20575.787578,-3923.091493,-12213.398043,-5132.839837
20575.787911,-3775.050304,-11547.212695,-4903.011187
20575.788244,-2886.803174,-11251.130318,-2451.505594
20575.788577,0.000000,-7476.080014,2298.286494
20575.788910,3775.050304,-5921.647536,4979.620737
20575.789243,5477.523971,-4515.256246,6665.030833
20575.789576,5403.503377,-6513.812290,5745.716235
20575.789909,4071.132681,-7402.059420,2451.505594
20575.790242,1184.329507,-7772.162391,1225.752797
20575.790576,-1258.350101,-12435.459826,-3140.991542
20575.790909,-4145.153275,-9548.656652,-4903.011187
20575.791242,-1924.535449,-13323.706956,-2528.115143
20575.791575,814.226536,-11843.295072,-1915.238745
20575.791908,740.205942,-8364.327145,153.219100
20575.792241,-1480.411884,-8364.327145,-1532.190996
20575.792574,740.205942,-8438.347739,153.219100
20575.792907,1184.329507,-8956.491898,3677.258390
20575.793240,1184.329507,-6587.832884,7048.078582
20575.793573,-74.020594,-6069.688724,0.000000
20575.793906,-1776.494261,-9844.739029,0.000000
20575.794239,2812.782580,-10658.965565,4213.525239
20575.794572,1184.329507,-8734.430116,2451.505594
20575.794905,1554.432478,-9400.615463,612.876398
20575.795238,-2442.679609,-10658.965565,-1608.800546
20575.795571,-2368.659014,-9992.780217,-3217.601092
20575.795904,-74.020594,-10658.965565,-1915.238745
20575.796237,-2368.659014,-10436.903782,-76.609550
20575.796570,-7105.977043,-7179.997637,-3677.258390
20575.796903,-4219.173869,-11251.130318,-689.485948
20575.797236,0.000000,-5995.668130,612.876398
20575.797569,4071.132681,-7105.977043,7277.907231
20575.797902,4367.215058,-5255.462188,4903.011187
20575.798235,3775.050304,-6809.894666,3753.867940
20575.798568,1480.411884,-9696.697840,1915.238745
20575.798901,148.041188,-8364.327145,0.000000
20575.799234,-2442.679609,-12731.542202,-4060.306139
20575.799567,-4737.318029,-12509.480420,-4290.134789
20575.799900,-3627.009116,-13619.789333,-4979.620737
20575.800233,-3108.864956,-10140.821405,-1838.629195
20575.800566,0.000000,-7476.080014,1838.629195
20575.800899,1332.370696,-6069.688724,3677.258390
20575.801232,5107.421000,-5033.400406,5822.325785
20575.801565,3849.070898,-5699.585753,6205.373534
20575.801898,7031.956449,-9474.636058,6665.030833
20575.802231,1110.308913,-7179.997637,1225.752797
20575.802564,1110.308913,-12731.542202,-2528.115143
20575.802897,-1850.514855,-10140.821405,-6741.640382
20575.803230,-2368.659014,-13249.686362,-689.485948
20575.803563,888.247130,-10807.006753,-2451.505594
20575.803896,0.000000,-8956.491898,-1532.190996
20575.804229,814.226536,-9400.615463,-1915.238745
20575.804562,0.000000,-9548.656652,-459.657299
20575.804895,3478.967927,-9474.636058,3600.648841
20575.805228,3182.885551,-7105.977043,2987.772442
20575.805561,296.082377,-6513.812290,1762.019645
20575.805894,1776.494261,-9252.574275,2145.067394
20575.806227,2590.720797,-9474.636058,3140.991542
20575.806560,5329.482782,-8512.368333,4826.401637
20575.806893,5847.626942,-9474.636058,1455.581446
20575.807226,-1628.453072,-10140.821405,-1838.629195
20575.807559,0.000000,-11029.068536,-1455.581446
20575.807892,-962.267725,-12435.459826,-3447.429741
20575.808225,-3256.906145,-11029.068536,-4903.011187
20575.808558,-5403.503377,-11547.212695,-4366.744339
20575.808891,-2812.782580,-9918.759623,-995.924147
20575.809224,1628.453072,-7476.080014,4596.572988
20575.809556,5847.626942,-5329.482782,7890.783629
20575.809889,5921.647536,-7105.977043,7277.907231
20575.810222,592.164754,-6587.832884,6128.763984
20575.810555,2886.803174,-9474.636058,1149.143247
20575.810888,518.144159,-8956.491898,0.000000
20575.811221,-1554.432478,-12435.459826,-2528.115143
20575.811554,-5773.606348,-11029.068536,-6511.811733
20575.811887,-6291.750507,-12509.480420,-4903.011187
20575.812220,-3108.864956,-10362.883188,-2145.067394
20575.812553,-2960.823768,-7476.080014,0.000000
20575.812886,2294.638420,-8290.306550,2374.896044
20575.813219,0.000000,-4811.338623,4903.011187
20575.813552,3849.070898,-7550.100608,6052.154434
20575.813885,3478.967927,-8290.306550,3294.210641
20575.814218,0.000000,-7179.997637,1378.971896
20575.814551,-1184.329507,-9548.656652,-1378.971896
20575.814884,-1110.308913,-12139.377449,-1378.971896
20575.815217,-814.226536,-11103.089130,-1225.752797
20575.815550,-296.082377,-10066.800811,306.438199
20575.815883,-1258.350101,-7179.997637,-4596.572988
20575.816216,1110.308913,-10658.965565,-919.314598
20575.816549,2516.700203,-11251.130318,-76.609550
20575.816882,148.041188,-8660.409521,1838.629195
20575.817215,0.000000,-9844.739029,1532.190996
20575.817548,-1702.473667,-8660.409521,689.485948
20575.817880,666.185348,-8586.388927,1455.581446
20575.818213,3108.864956,-8660.409521,4596.572988
20575.818546,5551.544565,-6809.894666,4213.525239
20575.818879,592.164754,-6291.750507,3983.696590
20575.819212,2294.638420,-9474.636058,-1915.238745
20575.819545,-1184.329507,-8364.327145,-4903.011187
20575.819878,-2368.659014,-11917.315666,-1915.238745
20575.820211,-1554.432478,-11843.295072,-4060.306139
20575.820544,-5551.544565,-11769.274478,-5286.058936
20575.820877,-3182.885551,-11843.295072,-2221.676944
20575.821210,2294.638420,-7698.141797,3907.087040
20575.821543,6513.812290,-5921.647536,8503.660028
20575.821876,5329.482782,-4811.338623,7814.174080
20575.822209,4219.173869,-7031.956449,3524.039291
20575.822542,2442.679609,-7846.182985,2374.896044
20575.822875,1850.514855,-8882.471304,0.000000
20575.823208,-74.020594,-11843.295072,-2528.115143
20575.823541,-5921.647536,-11325.150913,-5822.325785
20575.823874,-3034.844362,-15988.448347,-3140.991542
20575.824207,-3330.926739,-10288.862594,-4290.134789
20575.824540,-1184.329507,-8956.491898,229.828649
20575.824873,1406.391290,-9474.636058,2374.896044
20575.825206,2960.823768,-5773.606348,4136.915689
20575.825539,4219.173869,-7105.977043,5515.887586
20575.825872,2442.679609,-6957.935855,4366.744339
20575.826204,-74.020594,-8882.471304,1455.581446
20575.826537,-4145.153275,-7772.162391,0.000000
20575.826870,-74.020594,-10955.047942,-76.609550
20575.827203,814.226536,-7179.997637,0.000000
20575.827536,592.164754,-9844.739029,536.266849
20575.827869,-74.020594,-9474.636058,-2528.115143
20575.828202,-1776.494261,-10140.821405,-1915.238745
20575.828535,-148.041188,-9622.677246,-1378.971896
20575.828868,-370.102971,-10436.903782,-153.219100
20575.829201,-3256.906145,-8364.327145,0.000000
20575.829534,-2368.659014,-7179.997637,3217.601092
20575.829867,1110.308913,-6143.709319,1225.752797
20575.830200,3552.988522,-8364.327145,7354.516781
20575.830533,7031.956449,-6809.894666,4826.401637
20575.830866,1628.453072,-6291.750507,1838.629195
20575.831199,1184.329507,-8808.450710,-383.047749
20575.831532,-148.041188,-10955.047942,-2528.115143
20575.831865,-1184.329507,-11177.109724,-3370.820191
20575.832198,-1850.514855,-11843.295072,-3294.210641
20575.832531,-5921.647536,-12805.562797,-2528.115143
20575.832864,-2442.679609,-11695.253884,-3294.210641
20575.833197,0.000000,-7772.162391,2451.505594
20575.833530,5329.482782,-5847.626942,7890.783629
20575.833863,4737.318029,-4515.256246,6435.202183
20575.834196,3552.988522,-6291.750507,4290.134789
20575.834529,4737.318029,-7846.182985,3600.648841
20575.834861,1924.535449,-10066.800811,1302.362347
20575.835194,-814.226536,-8364.327145,-4290.134789
20575.835527,-3627.009116,-10955.047942,-6741.640382
20575.835860,-666.185348,-15840.407159,-2834.553343
20575.836193,-814.226536,-10510.924376,-3064.381992
20575.836526,0.000000,-8364.327145,0.000000
20575.836859,-74.020594,-9474.636058,1762.019645
20575.837192,148.041188,-5995.668130,2451.505594
20575.837525,1924.535449,-8364.327145,4903.011187
20575.837858,3034.844362,-4589.276840,5209.449386
20575.838191,0.000000,-8660.409521,2451.505594
20575.838524,-666.185348,-7994.224174,0.000000
20575.838857,-1480.411884,-9992.780217,1149.143247
20575.839190,888.247130,-9326.594869,0.000000
20575.839523,444.123565,-8808.450710,-536.266849
20575.839856,-3552.988522,-9548.656652,-5515.887586
20575.840189,-74.020594,-12731.542202,-3753.867940
20575.840522,-666.185348,-10140.821405,-2987.772442
20575.840855,0.000000,-10732.986159,0.000000
20575.841188,-74.020594,-9474.636058,1762.019645
20575.841521,0.000000,-8956.491898,2681.334243
20575.841854,592.164754,-8734.430116,3217.601092
20575.842187,2738.761985,-7550.100608,5056.230287
20575.842520,4959.379811,-6735.874072,5592.497135
20575.842853,4293.194464,-7402.059420,5822.325785
20575.843185,1332.370696,-6291.750507,0.000000
20575.843518,-2368.659014,-10732.986159,-1225.752797
20575.843851,-2442.679609,-10658.965565,-6205.373534
20575.844184,-7994.224174,-11325.150913,-7354.516781
20575.844517,-4293.194464,-13027.624579,-5592.497135
20575.844850,-4145.153275,-10732.986159,-1608.800546
20575.845183,1554.432478,-7105.977043,2451.505594
20575.845516,4959.379811,-5181.441594,6818.249932
20575.845849,5847.626942,-6513.812290,7277.907231
20575.846182,2664.741391,-5403.503377,4903.011187
20575.846515,5107.421000,-9474.636058,4826.401637
20575.846848,4663.297435,-9474.636058,-76.609550
20575.847181,0.000000,-9548.656652,-1838.629195
20575.847514,-3330.926739,-12731.542202,-6358.592633
20575.847847,-2442.679609,-12287.418637,-4290.134789
20575.848180,-814.226536,-10362.883188,-1149.143247
20575.848513,888.247130,-8956.491898,76.609550
20575.848846,0.000000,-5403.503377,0.000000
20575.849179,-2368.659014,-7179.997637,1838.629195
20575.849512,4663.297435,-8290.306550,2374.896044
20575.849845,1776.494261,-4811.338623,1225.752797
20575.850178,2368.659014,-9844.739029,3524.039291
20575.850511,1110.308913,-9622.677246,-842.705048
20575.850844,1702.473667,-10658.965565,689.485948
20575.851177,3775.050304,-10066.800811,1915.238745
20575.851509,2812.782580,-8660.409521,612.876398
20575.851842,1332.370696,-8290.306550,-1915.238745
20575.852175,-1776.494261,-10807.006753,-2987.772442
20575.852508,1702.473667,-10436.903782,-1532.190996
20575.852841,-666.185348,-9770.718434,-1991.848295
20575.853174,888.247130,-10510.924376,-76.609550
20575.853507,-74.020594,-9474.636058,-76.609550
20575.853840,1184.329507,-7476.080014,3677.258390
20575.854173,5847.626942,-9474.636058,4826.401637
20575.854506,2960.823768,-6291.750507,5515.887586
20575.854839,2516.700203,-7994.224174,1838.629195
20575.855172,1332.370696,-9252.574275,689.485948
20575.855505,370.102971,-9918.759623,-1685.410096
20575.855838,-2442.679609,-11547.212695,-3294.210641
20575.856171,-4811.338623,-12731.542202,-5286.058936
20575.856504,-5625.565159,-10436.903782,-5286.058936
20575.856837,-4737.318029,-11325.150913,1149.143247
20575.857170,1110.308913,-8290.306550,2374.896044
20575.857503,2294.638420,-5773.606348,3064.381992
20575.857836,2590.720797,-6957.935855,4826.401637
20575.858169,740.205942,-7031.956449,2145.067394
20575.858502,2072.576638,-8734.430116,3064.381992
20575.858835,1332.370696,-8734.430116,1762.019645
20575.859168,-3552.988522,-8660.409521,0.000000
20575.859501,-2442.679609,-13027.624579,-4060.306139
20575.859833,-3552.988522,-12805.562797,-76.609550
20575.860166,-1850.514855,-9178.553681,-2298.286494
20575.860499,-2072.576638,-6587.832884,-1532.190996
20575.860832,-2072.576638,-6587.832884,0.000000
20575.861165,-888.247130,-7624.121203,612.876398
20575.861498,2590.720797,-7550.100608,2987.772442
20575.861831,1406.391290,-8290.306550,3447.429741
20575.862164,-74.020594,-9178.553681,1532.190996
20575.862497,-1554.432478,-9548.656652,-2145.067394
20575.862830,2886.803174,-10658.965565,2374.896044
20575.863163,4071.132681,-7328.038826,1302.362347
20575.863496,3256.906145,-8882.471304,2987.772442
20575.863829,-444.123565,-10362.883188,-2451.505594
20575.864162,-1702.473667,-10807.006753,-2834.553343
20575.864495,-222.061783,-11029.068536,-2451.505594
20575.864828,-74.020594,-8586.388927,-2221.676944
20575.865161,-3627.009116,-11547.212695,-3447.429741
20575.865494,-3552.988522,-7179.997637,1225.752797
20575.865827,4663.297435,-8882.471304,3600.648841
20575.866160,5921.647536,-5403.503377,6128.763984
20575.866493,7550.100608,-8882.471304,7890.783629
20575.866826,4737.318029,-8290.306550,3140.991542
20575.867159,3849.070898,-9844.739029,1149.143247
20575.867492,2220.617826,-10584.944971,-1149.143247
20575.867825,-148.041188,-11547.212695,-3753.867940
20575.868158,-4811.338623,-12435.459826,-6205.373534
20575.868490,-6513.812290,-12213.398043,-4290.134789
20575.868823,-3478.967927,-11473.192101,-2145.067394
20575.869156,592.164754,-7550.100608,2604.724693
20575.869489,4219.173869,-5181.441594,5056.230287
20575.869822,5551.544565,-5921.647536,6665.030833
20575.870155,2960.823768,-5403.503377,4903.011187
20575.870488,4737.318029,-10732.986159,6665.030833
20575.870821,2294.638420,-7328.038826,0.000000
20575.871154,-2664.741391,-10288.862594,-1225.752797
20575.871487,-1850.514855,-13027.624579,-2528.115143
20575.871820,-4145.153275,-11917.315666,-2757.943793
20575.872153,-222.061783,-10658.965565,-1685.410096
20575.872486,0.000000,-8364.327145,0.000000
20575.872819,-1406.391290,-7402.059420,-459.657299
20575.873152,-2960.823768,-7179.997637,612.876398
20575.873485,-74.020594,-9474.636058,2374.896044
20575.873818,-74.020594,-5773.606348,306.438199
20575.874151,-3404.947333,-7772.162391,2221.676944
20575.874484,-666.185348,-8882.471304,459.657299
20575.874817,1776.494261,-7698.141797,3600.648841
20575.875150,2220.617826,-8290.306550,3600.648841
20575.875483,1998.556043,-7698.141797,919.314598
20575.875816,-3552.988522,-10436.903782,-4290.134789
20575.876149,-3552.988522,-11917.315666,-612.876398
20575.876482,-74.020594,-9696.697840,-3983.696590
20575.876814,-1184.329507,-10881.027347,-2451.505594
20575.877147,-1258.350101,-11843.295072,-2528.115143
20575.877480,-4145.153275,-8364.327145,0.000000
20575.877813,1406.391290,-9474.636058,3907.087040
20575.878146,4367.215058,-4811.338623,6511.811733
20575.878479,5107.421000,-6365.771101,6205.373534
20575.878812,5551.544565,-6513.812290,5439.278036
20575.879145,2664.741391,-8734.430116,3600.648841
20575.879478,1702.473667,-6735.874072,-3370.820191
20575.879811,-3552.988522,-12805.562797,-3753.867940
20575.880144,-3627.009116,-14211.954086,-6818.249932
20575.880477,-7105.977043,-14285.974681,-4519.963438
20575.880810,-2146.597232,-11695.253884,-2528.115143
20575.881143,444.123565,-7624.121203,2145.067394
20575.881476,2664.741391,-6735.874072,3677.258390
20575.881809,4071.132681,-4737.318029,4826.401637
20575.882142,5847.626942,-7105.977043,4826.401637
20575.882475,5329.482782,-7179.997637,3677.258390
20575.882808,2368.659014,-9474.636058,4213.525239
20575.883141,-666.185348,-9770.718434,-2757.943793
20575.883474,-2072.576638,-11473.192101,-1532.190996
20575.883807,-1998.556043,-12139.377449,-2604.724693
20575.884140,1036.288319,-9474.636058,-1072.533697
20575.884473,-1406.391290,-10510.924376,-536.266849
20575.884806,-1554.432478,-7105.977043,-2987.772442
20575.885138,-1258.350101,-9474.636058,-1455.581446
20575.885471,1480.411884,-9104.533087,1915.238745
20575.885804,2220.617826,-7846.182985,3447.429741
20575.886137,296.082377,-8290.306550,2374.896044
20575.886470,1110.308913,-9326.594869,1455.581446
20575.886803,5551.544565,-12435.459826,4826.401637
20575.887136,3108.864956,-5995.668130,3983.696590
20575.887469,4071.132681,-8882.471304,3600.648841
20575.887802,0.000000,-9548.656652,-1685.410096
20575.888135,-2442.679609,-10140.821405,-4903.011187
20575.888468,-444.123565,-11399.171507,-2681.334243
20575.888801,222.061783,-9696.697840,-2374.896044
20575.889134,-1924.535449,-9918.759623,-2528.115143
20575.889467,0.000000,-7772.162391,-1838.629195
20575.889800,4071.132681,-9474.636058,2987.772442
20575.890133,8216.285956,-4145.153275,4903.011187
20575.890466,7698.141797,-7624.121203,7277.907231
20575.890799,8216.285956,-7105.977043,2987.772442
20575.891132,4737.318029,-8956.491898,2451.505594
20575.891465,4071.132681,-11029.068536,383.047749
20575.891798,0.000000,-12953.603985,-3753.867940
20575.892131,-4737.318029,-13619.789333,-6971.469032
20575.892464,-4959.379811,-13249.686362,-6435.202183
20575.892797,-518.144159,-11843.295072,-76.609550
20575.893130,-74.020594,-6439.791695,0.000000
20575.893462,592.164754,-5107.421000,4060.306139
20575.893795,3478.967927,-7105.977043,5439.278036
20575.894128,592.164754,-5403.503377,5822.325785
20575.894461,2220.617826,-6809.894666,3447.429741
20575.894794,-1924.535449,-9474.636058,383.047749
20575.895127,-3108.864956,-9474.636058,-3140.991542
20575.895460,-4441.235652,-12509.480420,-1838.629195
20575.895793,-1258.350101,-14211.954086,-1302.362347
20575.896126,-3552.988522,-8364.327145,-1838.629195
20575.896459,-2368.659014,-9844.739029,0.000000
20575.896792,-74.020594,-11251.130318,-76.609550
20575.897125,-4145.153275,-8364.327145,0.000000
20575.897458,-666.185348,-8142.265362,689.485948
20575.897791,-2664.741391,-8290.306550,1149.143247
20575.898124,-3552.988522,-8512.368333,689.485948
20575.898457,-2368.659014,-8660.409521,1225.752797
20575.898790,222.061783,-9252.574275,3447.429741
20575.899123,2368.659014,-6143.709319,3600.648841
20575.899456,444.123565,-8734.430116,1455.581446
20575.899789,-962.267725,-9326.594869,-2604.724693
20575.900122,-2294.638420,-9548.656652,-3064.381992
20575.900455,-1258.350101,-12731.542202,-1302.362347
20575.900788,-2442.679609,-11843.295072,-2528.115143
20575.901121,-5181.441594,-7476.080014,-3524.039291
20575.901454,-2738.761985,-10658.965565,-1302.362347
20575.901787,2812.782580,-6809.894666,3830.477490
20575.902119,5403.503377,-6513.812290,6971.469032
20575.902452,4293.194464,-5699.585753,5822.325785
20575.902785,2960.823768,-6587.832884,1225.752797
20575.903118,5699.585753,-9252.574275,1225.752797
20575.903451,6439.791695,-13027.624579,1149.143247
20575.903784,148.041188,-9548.656652,-2451.505594
20575.904117,-4737.318029,-11917.315666,-5515.887586
20575.904450,-3404.947333,-12657.521608,-6128.763984
20575.904783,888.247130,-10140.821405,612.876398
20575.905116,2886.803174,-7624.121203,1991.848295
20575.905449,3627.009116,-6217.729913,2068.457845
20575.905782,4663.297435,-8586.388927,3600.648841
20575.906115,5995.668130,-6809.894666,1225.752797
20575.906448,4737.318029,-6291.750507,3677.258390
20575.906781,2960.823768,-11251.130318,3600.648841
20575.907114,2294.638420,-10658.965565,-1915.238745
20575.907447,-74.020594,-11473.192101,-1225.752797
20575.907780,2368.659014,-11325.150913,2374.896044
20575.908113,1776.494261,-10584.944971,0.000000
20575.908446,1110.308913,-9326.594869,-536.266849
20575.908779,-1406.391290,-10140.821405,-1225.752797
20575.909112,-296.082377,-9696.697840,1685.410096
20575.909445,-666.185348,-7179.997637,-2145.067394
20575.909778,-3552.988522,-8068.244768,0.000000
20575.910111,-74.020594,-9474.636058,-383.047749
20575.910443,-2590.720797,-5995.668130,1225.752797
20575.910776,3182.885551,-8882.471304,5439.278036
20575.911109,2516.700203,-6661.853478,5822.325785
20575.911442,0.000000,-8734.430116,1838.629195
20575.911775,-1258.350101,-10066.800811,-1762.019645
20575.912108,-2146.597232,-11843.295072,-2528.115143
20575.912441,-3627.009116,-9548.656652,-4903.011187
20575.912774,-3182.885551,-12435.459826,-3140.991542
20575.913107,-5773.606348,-11251.130318,-4366.744339
20575.913440,-7105.977043,-7179.997637,-2451.505594
20575.913773,-74.020594,-8882.471304,3600.648841
20575.914106,1924.535449,-5033.400406,6511.811733
20575.914439,1480.411884,-4959.379811,5898.935335
20575.914772,1998.556043,-6439.791695,3753.867940
20575.915105,3478.967927,-9474.636058,4213.525239
20575.915438,0.000000,-9400.615463,842.705048
20575.915771,-4219.173869,-10732.986159,-3447.429741
20575.916104,-7328.038826,-12139.377449,-7431.126331
20575.916437,-6513.812290,-11917.315666,-4903.011187
20575.916770,-888.247130,-11547.212695,1149.143247
20575.917103,518.144159,-6883.915261,0.000000
20575.917436,-1332.370696,-5403.503377,0.000000
20575.917769,1850.514855,-7846.182985,2834.553343
20575.918102,2368.659014,-6587.832884,3600.648841
20575.918435,4441.235652,-7105.977043,4903.011187
20575.918768,2146.597232,-8216.285956,1838.629195
20575.919100,740.205942,-9548.656652,-306.438199
20575.919433,4663.297435,-10955.047942,2987.772442
20575.919766,5033.400406,-11325.150913,4826.401637
20575.920099,2738.761985,-7179.997637,0.000000
20575.920432,2294.638420,-12435.459826,-76.609550
20575.920765,2294.638420,-10658.965565,-4366.744339
20575.921098,2368.659014,-10732.986159,-2451.505594
20575.921431,3182.885551,-9474.636058,-995.924147
20575.921764,1480.411884,-8660.409521,-689.485948
20575.922097,740.205942,-10807.006753,536.266849
20575.922430,5255.462188,-7698.141797,2528.115143
20575.922763,7402.059420,-9474.636058,6971.469032
20575.923096,6587.832884,-3627.009116,5515.887586
20575.923429,6883.915261,-8290.306550,4826.401637
20575.923762,4515.256246,-9474.636058,-76.609550
20575.924095,1702.473667,-9770.718434,-3140.991542
20575.924428,-740.205942,-12213.398043,-4903.011187
20575.924761,-2812.782580,-12657.521608,-5745.716235
20575.925094,-3627.009116,-12583.501014,-6052.154434
20575.925427,-3552.988522,-11917.315666,-3983.696590
20575.925760,3478.967927,-9474.636058,2374.896044
20575.926093,6513.812290,-6143.709319,7354.516781
20575.926426,4737.318029,-5699.585753,9576.193725
20575.926759,2886.803174,-4811.338623,2451.505594
20575.927092,1184.329507,-7179.997637,2757.943793
20575.927425,148.041188,-10214.842000,1608.800546
20575.927757,-3552.988522,-10140.821405,-1838.629195
20575.928090,-7031.956449,-11991.336260,-5745.716235
20575.928423,-4219.173869,-13619.789333,-1915.238745
20575.928756,-4219.173869,-8512.368333,-2145.067394
20575.929089,-962.267725,-9474.636058,1149.143247
20575.929422,-2442.679609,-9474.636058,-383.047749
20575.929755,-5921.647536,-7179.997637,0.000000
20575.930088,-1184.329507,-8068.244768,2757.943793
20575.930421,-1628.453072,-7476.080014,3524.039291
20575.930754,-2516.700203,-7550.100608,1149.143247
20575.931087,-5921.647536,-9548.656652,-766.095498
20575.931420,-814.226536,-10510.924376,2681.334243
20575.931753,-1628.453072,-8068.244768,2757.943793
20575.932086,0.000000,-8734.430116,1838.629195
20575.932419,-2146.597232,-8512.368333,-995.924147
20575.932752,-3849.070898,-11029.068536,-2757.943793
20575.933085,0.000000,-10288.862594,-1225.752797
20575.933418,-4219.173869,-10807.006753,-2298.286494
20575.933751,-6439.791695,-7476.080014,-4596.572988
20575.934084,-3034.844362,-11843.295072,-1302.362347
20575.934417,666.185348,-7624.121203,2834.553343
20575.934750,5329.482782,-6291.750507,8427.050478
20575.935083,5995.668130,-4885.359217,6741.640382
20575.935416,5033.400406,-5773.606348,3217.601092
20575.935749,3256.906145,-8882.471304,1302.362347
20575.936082,5255.462188,-10658.965565,-1302.362347
20575.936414,-74.020594,-9844.739029,-4903.011187
20575.936747,-2960.823768,-11769.274478,-4903.011187
20575.937080,-962.267725,-14211.954086,-4979.620737
20575.937413,-370.102971,-10732.986159,-2757.943793
20575.937746,6439.791695,-8882.471304,3294.210641
20575.938079,5699.585753,-6957.935855,5515.887586
20575.938412,7920.203579,-4663.297435,5286.058936
20575.938745,7179.997637,-5995.668130,4366.744339
20575.939078,7994.224174,-7550.100608,3064.381992
20575.939411,5551.544565,-4811.338623,612.876398
20575.939744,2220.617826,-12435.459826,-1302.362347
20575.940077,-74.020594,-13027.624579,-7431.126331
20575.940410,-3552.988522,-13101.645173,-4749.792088
20575.940743,1702.473667,-11399.171507,-3753.867940
20575.941076,2220.617826,-9474.636058,-76.609550
20575.941409,444.123565,-8956.491898,76.609550
20575.941742,888.247130,-7328.038826,1072.533697
20575.942075,2960.823768,-8364.327145,4903.011187
20575.942408,3849.070898,-6957.935855,7277.907231
20575.942741,1998.556043,-7698.141797,995.924147
20575.943074,-2368.659014,-8956.491898,1532.190996
20575.943407,1924.535449,-11177.109724,4826.401637
20575.943740,1110.308913,-8882.471304,306.438199
20575.944073,0.000000,-9474.636058,766.095498
20575.944406,-4811.338623,-9992.780217,-3217.601092
20575.944739,-4885.359217,-10288.862594,-4290.134789
20575.945071,-5329.482782,-10140.821405,0.000000
20575.945404,-5847.626942,-9474.636058,-1608.800546
20575.945737,-7254.018232,-9474.636058,-2528.115143
20575.946070,-6809.894666,-9548.656652,0.000000
20575.946403,-296.082377,-7698.141797,6052.154434
20575.946736,0.000000,-4737.318029,7277.907231
20575.947069,592.164754,-5403.503377,7660.954980
20575.947402,-74.020594,-7105.977043,2374.896044
20575.947735,-1258.350101,-8882.471304,-1838.629195
20575.948068,1702.473667,-11251.130318,-76.609550
20575.948401,-4219.173869,-13027.624579,-3753.867940
20575.948734,-6069.688724,-10658.965565,-6052.154434
20575.949067,-7328.038826,-11843.295072,-6511.811733
20575.949400,-3849.070898,-10732.986159,-2221.676944
20575.949733,-74.020594,-10214.842000,4060.306139
20575.950066,0.000000,-4811.338623,7048.078582
20575.950399,4663.297435,-4737.318029,4826.401637
20575.950732,3034.844362,-3627.009116,3677.258390
20575.951065,4737.318029,-6883.915261,4826.401637
20575.951398,3478.967927,-7402.059420,1225.752797
20575.951731,0.000000,-11399.171507,-2068.457845
20575.952064,-1184.329507,-11473.192101,-4519.963438
20575.952397,-888.247130,-14063.912898,-3677.258390
20575.952730,2146.597232,-9474.636058,-1608.800546
20575.953063,4071.132681,-10658.965565,3600.648841
20575.953395,2294.638420,-10362.883188,-689.485948
20575.953728,1702.473667,-7179.997637,0.000000
20575.954061,2368.659014,-8808.450710,2757.943793
20575.954394,4367.215058,-6217.729913,3677.258390
20575.954727,2812.782580,-6217.729913,1378.971896
20575.955060,1850.514855,-10362.883188,995.924147
20575.955393,4737.318029,-8068.244768,2298.286494
20575.955726,4737.318029,-7772.162391,1225.752797
20575.956059,8216.285956,-9178.553681,-76.609550
20575.956392,0.000000,-9770.718434,-4060.306139
20575.956725,0.000000,-10732.986159,-3677.258390
20575.957058,2886.803174,-14211.954086,-1302.362347
20575.957391,0.000000,-11177.109724,-1608.800546
20575.957724,-1554.432478,-10807.006753,-2757.943793
20575.958057,-2368.659014,-10881.027347,-306.438199
20575.958390,3256.906145,-7772.162391,4366.744339
20575.958723,5921.647536,-6735.874072,9346.365076
20575.959056,7031.956449,-5921.647536,4213.525239
20575.959389,2368.659014,-5995.668130,4903.011187
20575.959722,5255.462188,-10658.965565,4213.525239
20575.960055,4663.297435,-9178.553681,-76.609550
20575.960388,-888.247130,-11991.336260,-995.924147
20575.960721,-4589.276840,-12139.377449,-6894.859482
20575.961054,-3775.050304,-14211.954086,-5592.497135
20575.961387,-2220.617826,-13767.830521,-2604.724693
20575.961720,592.164754,-9548.656652,2604.724693
20575.962052,814.226536,-7624.121203,4366.744339
20575.962385,2368.659014,-4737.318029,4519.963438
20575.962718,1776.494261,-7179.997637,4903.011187
20575.963051,1702.473667,-6217.729913,3064.381992
20575.963384,-2368.659014,-7179.997637,2451.505594
20575.963717,-2738.761985,-9474.636058,-1915.238745
20575.964050,-4811.338623,-8364.327145,-4596.572988
20575.964383,-3552.988522,-12065.356855,-995.924147
20575.964716,-74.020594,-9474.636058,-1302.362347
20575.965049,-3404.947333,-9696.697840,-1915.238745
20575.965382,-4071.132681,-9770.718434,-3600.648841
20575.965715,-3997.112087,-9844.739029,-1455.581446
20575.966048,-3849.070898,-10140.821405,0.000000
20575.966381,-3552.988522,-5995.668130,2451.505594
20575.966714,-1258.350101,-9474.636058,2221.676944
20575.967047,-2368.659014,-5995.668130,0.000000
20575.967380,1628.453072,-9474.636058,6665.030833
20575.967713,1480.411884,-5995.668130,3294.210641
20575.968046,2072.576638,-6957.935855,2681.334243
20575.968379,-1480.411884,-9474.636058,-2221.676944
20575.968712,-1110.308913,-10658.965565,-3753.867940
20575.969045,-2738.761985,-13323.706956,-2528.115143
20575.969378,-5625.565159,-11029.068536,-3753.867940
20575.969711,-6587.832884,-10658.965565,-8197.221829
20575.970044,-4737.318029,-10732.986159,-1072.533697
20575.970377,1184.329507,-8364.327145,5669.106685
20575.970709,7698.141797,-5921.647536,8886.707777
20575.971042,7476.080014,-4293.194464,7890.783629
20575.971375,3552.988522,-7624.121203,5132.839837
20575.971708,4737.318029,-5699.585753,1838.629195
20575.972041,2590.720797,-11103.089130,-76.609550
20575.972374,2220.617826,-9474.636058,-2068.457845
20575.972707,-4737.318029,-10140.821405,-8120.612279
20575.973040,-4737.318029,-13101.645173,-5515.887586
20575.973373,2294.638420,-11547.212695,-306.438199
20575.973706,814.226536,-10658.965565,-689.485948
20575.974039,4293.194464,-5551.544565,2528.115143
20575.974372,2886.803174,-7254.018232,2757.943793
20575.974705,6143.709319,-7846.182985,4213.525239
20575.975038,3552.988522,-6587.832884,3677.258390
20575.975371,4663.297435,-9474.636058,-76.609550
20575.975704,1184.329507,-8364.327145,919.314598
20575.976037,2294.638420,-13619.789333,2068.457845
20575.976370,3182.885551,-9252.574275,-2451.505594
20575.976703,370.102971,-10288.862594,-1302.362347
20575.977036,1110.308913,-10066.800811,-2298.286494
20575.977369,296.082377,-9252.574275,-1149.143247
20575.977702,2738.761985,-8660.409521,0.000000
20575.978035,1184.329507,-8364.327145,1838.629195
20575.978368,-74.020594,-7994.224174,0.000000
20575.978701,-1332.370696,-8882.471304,-383.047749
20575.979034,-740.205942,-9400.615463,1685.410096
20575.979366,3478.967927,-9474.636058,4749.792088
20575.979699,2368.659014,-4219.173869,4136.915689
20575.980032,2294.638420,-8882.471304,3600.648841
20575.980365,-2738.761985,-7179.997637,-2451.505594
20575.980698,-2442.679609,-11843.295072,-2528.115143
20575.981031,-2442.679609,-11547.212695,-1915.238745
20575.981364,-7105.977043,-9548.656652,-4903.011187
20575.981697,-8882.471304,-11399.171507,-5669.106685
20575.982030,-6661.853478,-10362.883188,-842.705048
20575.982363,-370.102971,-7846.182985,4826.401637
20575.982696,4885.359217,-5255.462188,10725.336972
20575.983029,3182.885551,-5329.482782,5286.058936
20575.983362,296.082377,-7179.997637,2451.505594
20575.983695,2294.638420,-9474.636058,-76.609550
20575.984028,-2368.659014,-9844.739029,0.000000
20575.984361,-3256.906145,-11325.150913,-1455.581446
20575.984694,-7550.100608,-11621.233289,-6741.640382
20575.985027,-6069.688724,-12657.521608,-5515.887586
20575.985360,-3997.112087,-10436.903782,-1225.752797
20575.985693,-74.020594,-8882.471304,2374.896044
20575.986026,-74.020594,-5329.482782,0.000000
20575.986359,1184.329507,-5699.585753,4519.963438
20575.986692,3552.988522,-7476.080014,8503.660028
20575.987025,5255.462188,-6143.709319,3830.477490
20575.987358,2294.638420,-10658.965565,1608.800546
20575.987690,222.061783,-10436.903782,-2298.286494
20575.988023,-1184.329507,-13693.809927,-689.485948
20575.988356,1628.453072,-10288.862594,-459.657299
20575.988689,592.164754,-9252.574275,-1378.971896
20575.989022,-1776.494261,-9548.656652,-3677.258390
20575.989355,296.082377,-9696.697840,-76.609550
20575.989688,1110.308913,-9326.594869,0.000000
20575.990021,296.082377,-5995.668130,3677.258390
20575.990354,2294.638420,-8142.265362,1149.143247
20575.990687,592.164754,-8512.368333,306.438199
20575.991020,1776.494261,-8512.368333,2068.457845
20575.991353,4293.194464,-8882.471304,3524.039291
20575.991686,5921.647536,-5773.606348,3370.820191
20575.992019,3108.864956,-9548.656652,2451.505594
20575.992352,4293.194464,-9178.553681,-842.705048
20575.992685,1332.370696,-11843.295072,-2374.896044
20575.993018,2368.659014,-12583.501014,-1532.190996
20575.993351,-74.020594,-11843.295072,-1608.800546
20575.993684,-1554.432478,-11547.212695,-4749.792088
20575.994017,0.000000,-8364.327145,-2451.505594
20575.994350,3849.070898,-9474.636058,4826.401637
20575.994683,6513.812290,-4219.173869,6435.202183
20575.995016,4959.379811,-5699.585753,5132.839837
20575.995349,4145.153275,-6439.791695,1532.190996
20575.995682,4737.318029,-9622.677246,2834.553343
20575.996015,4071.132681,-10658.965565,1149.143247
20575.996347,0.000000,-9844.739029,-2145.067394
20575.996680,-3923.091493,-9844.739029,-7354.516781
20575.997013,-1850.514855,-16580.613101,-3140.991542
20575.997346,-74.020594,-11843.295072,-689.485948
20575.997679,2146.597232,-10066.800811,2068.457845
20575.998012,-666.185348,-8290.306550,-76.609550
20575.998345,0.000000,-7328.038826,1838.629195
20575.998678,518.144159,-6661.853478,3983.696590
20575.999011,2294.638420,-6217.729913,4366.744339
20575.999344,-74.020594,-9326.594869,3600.648841
20575.999677,-4737.318029,-7179.997637,-2451.505594
20576.000010,-2368.659014,-12657.521608,2374.896044
20576.000343,-370.102971,-8808.450710,0.000000
20576.000676,-4737.318029,-8660.409521,-1685.410096
20576.001009,-3330.926739,-8882.471304,-4060.306139
20576.001342,-4515.256246,-10807.006753,-3600.648841
20576.001675,-2590.720797,-11103.089130,-1149.143247
20576.002008,-3330.926739,-9474.636058,0.000000
20576.002341,-4811.338623,-8290.306550,-1302.362347
20576.002674,-4145.153275,-9474.636058,3600.648841
20576.003007,-74.020594,-9474.636058,3600.648841
20576.003340,0.000000,-5107.421000,7967.393179
20576.003673,3552.988522,-6957.935855,6818.249932
20576.004006,0.000000,-5403.503377,1532.190996
20576.004339,148.041188,-8142.265362,-229.828649
20576.004672,-2146.597232,-11029.068536,-3064.381992
20576.005005,-4219.173869,-11991.336260,-5132.839837
20576.005338,-8882.471304,-10732.986159,-9806.022374
20576.005671,-5921.647536,-15248.242405,-5286.058936
20576.006004,-1998.556043,-9696.697840,-383.047749
20576.006337,4663.297435,-7105.977043,1225.752797
20576.006670,4737.318029,-5107.421000,8120.612279
20576.007003,7846.182985,-8882.471304,7277.907231
20576.007336,3256.906145,-5995.668130,3677.258390
20576.007669,6217.729913,-9474.636058,4519.963438
20576.008002,5255.462188,-8438.347739,1149.143247
20576.008335,0.000000,-10140.821405,-2145.067394
20576.008668,-592.164754,-10955.047942,-5592.497135
20576.009001,-962.267725,-13545.768739,-3983.696590
20576.009334,1998.556043,-11473.192101,-536.266849
20576.009667,3775.050304,-7994.224174,-689.485948
20576.010000,0.000000,-8364.327145,0.000000
20576.010333,4737.318029,-7920.203579,1532.190996
20576.010667,5847.626942,-10658.965565,4826.401637
20576.011000,6217.729913,-4811.338623,3677.258390
20576.011333,3923.091493,-8882.471304,3294.210641
20576.011666,1554.432478,-10658.965565,-536.266849
20576.011999,2664.741391,-11177.109724,1225.752797
20576.012332,3182.885551,-10140.821405,1149.143247
20576.012665,1480.411884,-8364.327145,-2145.067394
20576.012998,-1850.514855,-7179.997637,-3677.258390
20576.013331,2294.638420,-11547.212695,-2528.115143
20576.013664,1702.473667,-11843.295072,-383.047749
20576.013997,-1332.370696,-7179.997637,-2145.067394
20576.014330,-3404.947333,-10066.800811,-2834.553343
20576.014663,-3108.864956,-9992.780217,-766.095498
20576.014996,666.185348,-8734.430116,3294.210641
20576.015329,2664.741391,-7772.162391,6358.592633
20576.015662,3849.070898,-6883.915261,6741.640382
20576.015995,0.000000,-6143.709319,3983.696590
20576.016328,-74.020594,-8882.471304,-2068.457845
20576.016661,-4589.276840,-10732.986159,-1838.629195
20576.016995,-7105.977043,-11473.192101,-2911.162892
20576.017328,-8882.471304,-10140.821405,-6741.640382
20576.017661,-7624.121203,-11843.295072,-5515.887586
20576.017994,-4811.338623,-9474.636058,-76.609550
20576.018327,-1554.432478,-7179.997637,3370.820191
20576.018660,2294.638420,-5921.647536,6052.154434
20576.018993,0.000000,-6587.832884,6052.154434
20576.019326,-666.185348,-9474.636058,1149.143247
20576.019659,0.000000,-7179.997637,2451.505594
20576.019992,814.226536,-9474.636058,1225.752797
20576.020325,-74.020594,-9474.636058,-76.609550
20576.020658,-3775.050304,-11621.233289,-3600.648841
20576.020991,-3256.906145,-12213.398043,-2451.505594
20576.021324,-2738.761985,-11251.130318,76.609550
20576.021657,-2812.782580,-6735.874072,0.000000
20576.021990,-74.020594,-7105.977043,-76.609550
20576.022323,0.000000,-5403.503377,1991.848295
20576.022656,7031.956449,-9474.636058,4826.401637
20576.022989,222.061783,-5995.668130,1225.752797
20576.023323,888.247130,-9178.553681,-76.609550
20576.023656,-814.226536,-11621.233289,-842.705048
20576.023989,3404.947333,-10436.903782,2221.676944
20576.024322,5255.462188,-8438.347739,3524.039291
20576.024655,2664.741391,-7772.162391,612.876398
20576.024988,4663.297435,-7920.203579,-2068.457845
20576.025321,222.061783,-12435.459826,-2374.896044
20576.025654,2812.782580,-9400.615463,-1072.533697
20576.025987,-1480.411884,-11251.130318,-2374.896044
20576.026320,-2368.659014,-7179.997637,-4903.011187
20576.026653,1110.308913,-11547.212695,2374.896044
20576.026986,5847.626942,-7105.977043,3064.381992
20576.027319,8290.306550,-6809.894666,9116.536426
20576.027652,7105.977043,-7624.121203,7354.516781
20576.027985,6439.791695,-5403.503377,2451.505594
20576.028318,3849.070898,-9400.615463,1378.971896
20576.028651,4515.256246,-11177.109724,-842.705048
20576.028984,-1776.494261,-12287.418637,-4979.620737
20576.029317,-4441.235652,-11325.150913,-7048.078582
20576.029651,-1850.514855,-14211.954086,-5286.058936
20576.029984,-1776.494261,-8364.327145,-2911.162892
20576.030317,0.000000,-8364.327145,2757.943793
20576.030650,3182.885551,-7698.141797,2374.896044
20576.030983,1184.329507,-4811.338623,4290.134789
20576.031316,3775.050304,-5625.565159,2757.943793
20576.031649,6513.812290,-8068.244768,4903.011187
20576.031982,3404.947333,-8364.327145,3677.258390
20576.032315,-74.020594,-11399.171507,-76.609550
20576.032648,-74.020594,-13027.624579,-4366.744339
20576.032981,-4145.153275,-13693.809927,-1225.752797
20576.033314,0.000000,-8956.491898,1838.629195
20576.033647,-74.020594,-10658.965565,1149.143247
20576.033980,-1702.473667,-9474.636058,-1608.800546
20576.034313,-2886.803174,-8660.409521,-689.485948
20576.034646,-1776.494261,-8808.450710,1915.238745
20576.034979,370.102971,-6069.688724,3677.258390
20576.035312,-3923.091493,-8290.306550,1762.019645
20576.035645,-2960.823768,-6587.832884,0.000000
20576.035978,0.000000,-8956.491898,6052.154434
20576.036312,2294.638420,-6957.935855,2145.067394
20576.036645,962.267725,-4811.338623,0.000000
20576.036978,-3108.864956,-11547.212695,-1302.362347
20576.037311,-3997.112087,-11621.233289,-4290.134789
20576.037644,-4515.256246,-11473.192101,-3294.210641
20576.037977,-5477.523971,-10584.944971,-3600.648841
20576.038310,-6291.750507,-10510.924376,-4060.306139
20576.038643,-3701.029710,-10214.842000,612.876398
20576.038976,1406.391290,-7846.182985,6052.154434
20576.039309,4663.297435,-5329.482782,9116.536426
20576.039642,2960.823768,-4811.338623,6128.763984
20576.039975,2960.823768,-6587.832884,4903.011187
20576.040308,3478.967927,-8290.306550,0.000000
20576.040641,1776.494261,-9252.574275,0.000000
20576.040974,-3552.988522,-14137.933492,-4366.744339
20576.041307,-7402.059420,-11917.315666,-9806.022374
