#time,accel_x,accel_y,accel_z
20877.235306,1332.370696,-9844.739029,-4903.011187
20877.235639,2368.659014,-10362.883188,-5056.230287
20877.235973,2960.823768,-10807.006753,-3064.381992
20877.236307,5551.544565,-10066.800811,-1072.533697
20877.236640,8808.450710,-10066.800811,2374.896044
20877.236974,10658.965565,-9030.512492,6665.030833
20877.237308,11769.274478,-7402.059420,3064.381992
20877.237641,11843.295072,-8512.368333,6588.421283
20877.237975,12657.521608,-8290.306550,2374.896044
20877.238309,12065.356855,-8290.306550,2145.067394
20877.238642,9696.697840,-8882.471304,-2221.676944
20877.238976,7772.162391,-10584.944971,-3753.867940
20877.239310,5921.647536,-10955.047942,-4366.744339
20877.239643,3552.988522,-10732.986159,-4903.011187
20877.239977,4663.297435,-13619.789333,-3753.867940
20877.240311,592.164754,-10140.821405,-3677.258390
20877.240644,2368.659014,-10732.986159,3983.696590
20877.240978,7476.080014,-7402.059420,5898.935335
20877.241312,7254.018232,-3627.009116,7354.516781
20877.241645,10066.800811,-4959.379811,9422.974625
20877.241979,10584.944971,-4737.318029,7048.078582
20877.242313,9548.656652,-5329.482782,3217.601092
20877.242646,8586.388927,-8290.306550,-306.438199
20877.242980,6439.791695,-7031.956449,-7354.516781
20877.243314,4737.318029,-10732.986159,-6511.811733
20877.243647,7402.059420,-12879.583391,-6205.373534
20877.243981,6439.791695,-12435.459826,-7967.393179
20877.244315,5921.647536,-11029.068536,-4290.134789
20877.244648,8290.306550,-12953.603985,1149.143247
20877.244982,11177.109724,-10436.903782,3983.696590
20877.245316,11547.212695,-9030.512492,6435.202183
20877.245649,14211.954086,-8290.306550,9806.022374
20877.245983,14137.933492,-3182.885551,7660.954980
20877.246317,13323.706956,-5329.482782,6665.030833
20877.246650,11843.295072,-5551.544565,3140.991542
20877.246984,7994.224174,-8808.450710,-1149.143247
20877.247318,3552.988522,-10436.903782,-4903.011187
20877.247651,1702.473667,-11547.212695,-8810.098227
20877.247985,-1258.350101,-10140.821405,-9806.022374
20877.248319,592.164754,-12065.356855,-4596.572988
20877.248652,5699.585753,-11843.295072,-76.609550
20877.248986,7698.141797,-8068.244768,5822.325785
20877.249320,11177.109724,-7179.997637,7354.516781
20877.249653,11399.171507,-6883.915261,6205.373534
20877.249987,10584.944971,-7105.977043,4826.401637
20877.250321,9400.615463,-8290.306550,2987.772442
20877.250654,7031.956449,-8290.306550,-3753.867940
20877.250988,2368.659014,-9548.656652,-6128.763984
20877.251322,0.000000,-14508.036463,-2528.115143
20877.251655,-1258.350101,-11843.295072,-5209.449386
20877.251989,296.082377,-12879.583391,-842.705048
20877.252323,5107.421000,-9326.594869,1991.848295
20877.252657,9474.636058,-7105.977043,6511.811733
20877.252990,12361.439231,-5773.606348,7660.954980
20877.253324,10584.944971,-7105.977043,4519.963438
20877.253658,8216.285956,-5995.668130,0.000000
20877.253991,7254.018232,-9474.636058,-76.609550
20877.254325,4071.132681,-11251.130318,-4979.620737
20877.254659,-3552.988522,-11029.068536,-6435.202183
20877.254992,-1850.514855,-11843.295072,-7737.564530
20877.255326,-2960.823768,-10436.903782,-4366.744339
20877.255660,3997.112087,-7254.018232,1072.533697
20877.255993,7031.956449,-5921.647536,4519.963438
20877.256327,8660.409521,-5995.668130,6205.373534
20877.256661,9474.636058,-7772.162391,5515.887586
20877.256994,12361.439231,-9474.636058,4519.963438
20877.257328,8808.450710,-8364.327145,919.314598
20877.257662,4737.318029,-9548.656652,1225.752797
20877.257995,5847.626942,-11843.295072,-3140.991542
20877.258329,1406.391290,-12139.377449,-4060.306139
20877.258663,592.164754,-11621.233289,-4366.744339
20877.258996,222.061783,-9770.718434,-2757.943793
20877.259330,0.000000,-8068.244768,0.000000
20877.259664,1184.329507,-8956.491898,2681.334243
20877.259997,0.000000,-8660.409521,2834.553343
20877.260331,1110.308913,-7698.141797,3753.867940
20877.260665,4071.132681,-8290.306550,7890.783629
20877.260998,4663.297435,-6587.832884,7124.688131
20877.261332,4367.215058,-4219.173869,1838.629195
20877.261666,4737.318029,-10066.800811,3677.258390
20877.261999,5255.462188,-7698.141797,-2528.115143
20877.262333,740.205942,-10510.924376,-3370.820191
20877.262667,-2960.823768,-11029.068536,-7967.393179
20877.263000,-4515.256246,-12509.480420,-9193.145976
20877.263334,-3182.885551,-12065.356855,-4903.011187
20877.263668,740.205942,-10436.903782,-383.047749
20877.264001,592.164754,-10140.821405,3447.429741
20877.264335,1184.329507,-6587.832884,6128.763984
20877.264669,5699.585753,-8882.471304,7277.907231
20877.265002,4293.194464,-3627.009116,4903.011187
20877.265336,2590.720797,-8882.471304,3600.648841
20877.265670,3478.967927,-8290.306550,2068.457845
20877.266003,2516.700203,-7105.977043,1149.143247
20877.266337,1924.535449,-7994.224174,-612.876398
20877.266671,0.000000,-10436.903782,-3217.601092
20877.267004,-1850.514855,-13915.871710,-4979.620737
20877.267338,-5921.647536,-10732.986159,-8273.831378
20877.267672,-7994.224174,-11325.150913,-4596.572988
20877.268005,-3330.926739,-9474.636058,-3140.991542
20877.268339,-3552.988522,-8660.409521,1532.190996
20877.268673,2146.597232,-7179.997637,6128.763984
20877.269006,4293.194464,-5921.647536,9116.536426
20877.269340,4219.173869,-6809.894666,9116.536426
20877.269674,740.205942,-7846.182985,4366.744339
20877.270007,-962.267725,-4811.338623,-1608.800546
20877.270341,-1184.329507,-8586.388927,-76.609550
20877.270675,2294.638420,-9474.636058,-383.047749
20877.271008,1110.308913,-8142.265362,-2911.162892
20877.271342,-888.247130,-11621.233289,-1685.410096
20877.271676,-3404.947333,-12805.562797,-3370.820191
20877.272009,-5033.400406,-13989.892304,-4136.915689
20877.272343,-4145.153275,-11325.150913,-3370.820191
20877.272677,-2072.576638,-8734.430116,-306.438199
20877.273011,0.000000,-5403.503377,2451.505594
20877.273344,4737.318029,-7846.182985,8503.660028
20877.273678,4737.318029,-7254.018232,7584.345430
20877.274012,2368.659014,-5995.668130,7354.516781
20877.274345,4441.235652,-11177.109724,6052.154434
20877.274679,0.000000,-8068.244768,-919.314598
20877.275013,-3404.947333,-8142.265362,-4979.620737
20877.275346,-1554.432478,-8216.285956,-6052.154434
20877.275680,1406.391290,-9178.553681,-3140.991542
20877.276014,0.000000,-10140.821405,-1225.752797
20877.276347,1628.453072,-13619.789333,-689.485948
20877.276681,-814.226536,-14804.118840,153.219100
20877.277015,-888.247130,-11103.089130,689.485948
20877.277348,1702.473667,-9178.553681,1762.019645
20877.277682,4367.215058,-5477.523971,3447.429741
20877.278016,4737.318029,-5403.503377,7354.516781
20877.278349,6439.791695,-6809.894666,4826.401637
20877.278683,1258.350101,-7476.080014,1532.190996
20877.279017,-74.020594,-10214.842000,1149.143247
20877.279350,-3997.112087,-11547.212695,-3064.381992
20877.279684,-5033.400406,-8734.430116,-6588.421283
20877.280018,-4219.173869,-9918.759623,-5669.106685
20877.280351,-1406.391290,-7402.059420,-3524.039291
20877.280685,1702.473667,-7179.997637,0.000000
20877.281019,4071.132681,-12731.542202,3600.648841
20877.281352,4071.132681,-14211.954086,4826.401637
20877.281686,814.226536,-10288.862594,1532.190996
20877.282020,1036.288319,-9474.636058,2374.896044
20877.282353,2368.659014,-6365.771101,2068.457845
20877.282687,1554.432478,-5995.668130,689.485948
20877.283021,74.020594,-6587.832884,689.485948
20877.283354,-3849.070898,-8660.409521,-612.876398
20877.283688,-3775.050304,-8956.491898,-4903.011187
20877.284022,-2590.720797,-12731.542202,-1302.362347
20877.284355,-3923.091493,-9030.512492,-4366.744339
20877.284689,-814.226536,-5403.503377,0.000000
20877.285023,592.164754,-5699.585753,0.000000
20877.285356,6365.771101,-7476.080014,3983.696590
20877.285690,4811.338623,-10436.903782,4443.353888
20877.286024,3404.947333,-12879.583391,2987.772442
20877.286357,1702.473667,-13027.624579,2374.896044
20877.286691,-2368.659014,-11325.150913,-995.924147
20877.287025,-1850.514855,-9474.636058,-4979.620737
20877.287358,-3108.864956,-4811.338623,-3524.039291
20877.287692,1258.350101,-7179.997637,0.000000
20877.288026,1110.308913,-8290.306550,2374.896044
20877.288359,1110.308913,-9844.739029,1762.019645
20877.288693,-1110.308913,-11103.089130,2298.286494
20877.289027,-888.247130,-10140.821405,1302.362347
20877.289360,-888.247130,-5995.668130,-766.095498
20877.289694,3701.029710,-9474.636058,2987.772442
20877.290028,4367.215058,-4219.173869,1225.752797
20877.290361,1850.514855,-6291.750507,612.876398
20877.290695,2516.700203,-13619.789333,1149.143247
20877.291029,-1258.350101,-14211.954086,-1915.238745
20877.291362,-3627.009116,-11473.192101,-4213.525239
20877.291696,-3627.009116,-9474.636058,-4519.963438
20877.292030,-2960.823768,-7920.203579,-2221.676944
20877.292363,-2220.617826,-4811.338623,0.000000
20877.292697,4071.132681,-7105.977043,2374.896044
20877.293031,4737.318029,-9252.574275,4826.401637
20877.293365,3034.844362,-11473.192101,5132.839837
20877.293698,0.000000,-12953.603985,2757.943793
20877.294032,-962.267725,-6069.688724,-3064.381992
20877.294366,592.164754,-10658.965565,2451.505594
20877.294699,7031.956449,-6513.812290,1149.143247
20877.295033,592.164754,-7920.203579,1225.752797
20877.295367,1554.432478,-11251.130318,-76.609550
20877.295700,-2294.638420,-13545.768739,-2298.286494
20877.296034,-5255.462188,-13101.645173,-3753.867940
20877.296368,-3108.864956,-9400.615463,-2451.505594
20877.296701,-1924.535449,-6957.935855,-612.876398
20877.297035,2664.741391,-4811.338623,4903.011187
20877.297369,6439.791695,-4737.318029,3753.867940
20877.297702,3552.988522,-7179.997637,3677.258390
20877.298036,4737.318029,-8956.491898,7890.783629
20877.298370,1702.473667,-10658.965565,2068.457845
20877.298703,-1258.350101,-7179.997637,-5515.887586
20877.299037,-4515.256246,-11251.130318,-4979.620737
20877.299371,-1554.432478,-7550.100608,-4213.525239
20877.299704,2072.576638,-8290.306550,842.705048
20877.300038,1184.329507,-9252.574275,612.876398
20877.300372,-3552.988522,-10732.986159,2757.943793
20877.300705,-1258.350101,-13915.871710,995.924147
20877.301039,-1850.514855,-7105.977043,-1685.410096
20877.301373,0.000000,-7476.080014,2604.724693
20877.301706,962.267725,-3627.009116,1838.629195
20877.302040,2368.659014,-5921.647536,4213.525239
20877.302373,666.185348,-7179.997637,1991.848295
20877.302706,1110.308913,-9622.677246,229.828649
20877.303040,-666.185348,-14211.954086,-1302.362347
20877.303373,-2886.803174,-12731.542202,-2528.115143
20877.303706,-4219.173869,-9178.553681,-6128.763984
20877.304039,-2368.659014,-7254.018232,-4136.915689
20877.304373,3478.967927,-8882.471304,-76.609550
20877.304706,4663.297435,-10066.800811,4519.963438
20877.305039,2886.803174,-10140.821405,3677.258390
20877.305372,888.247130,-12657.521608,3294.210641
20877.305705,814.226536,-13027.624579,2374.896044
20877.306039,0.000000,-5995.668130,612.876398
20877.306372,-666.185348,-4959.379811,0.000000
20877.306705,3478.967927,-5921.647536,-689.485948
20877.307038,-2368.659014,-7772.162391,1072.533697
20877.307372,-2368.659014,-8364.327145,1838.629195
20877.307705,-1480.411884,-9548.656652,-2221.676944
20877.308038,-4367.215058,-11843.295072,-2528.115143
20877.308371,-4441.235652,-9844.739029,-2528.115143
20877.308705,-2886.803174,-7550.100608,-2451.505594
20877.309038,4663.297435,-6513.812290,3830.477490
20877.309371,5329.482782,-5403.503377,6128.763984
20877.309704,4145.153275,-10140.821405,4903.011187
20877.310037,3552.988522,-11325.150913,4060.306139
20877.310371,-444.123565,-11547.212695,612.876398
20877.310704,296.082377,-10881.027347,0.000000
20877.311037,-2368.659014,-4811.338623,-6128.763984
20877.311370,-1184.329507,-8438.347739,-2528.115143
20877.311704,-666.185348,-5995.668130,-2987.772442
20877.312037,-1850.514855,-9474.636058,-1915.238745
20877.312370,740.205942,-12879.583391,2374.896044
20877.312703,814.226536,-12065.356855,3753.867940
20877.313037,148.041188,-8956.491898,2451.505594
20877.313370,296.082377,-6661.853478,1455.581446
20877.313703,3478.967927,-7105.977043,2068.457845
20877.314036,4737.318029,-3627.009116,3983.696590
20877.314369,7994.224174,-10955.047942,4826.401637
20877.314703,4071.132681,-13323.706956,0.000000
20877.315036,-4145.153275,-13693.809927,-2451.505594
20877.315369,-3627.009116,-14804.118840,-4979.620737
20877.315702,-3701.029710,-8364.327145,-4749.792088
20877.316036,-2590.720797,-6365.771101,-3907.087040
20877.316369,-222.061783,-7846.182985,0.000000
20877.316702,1702.473667,-5403.503377,2221.676944
20877.317035,1184.329507,-9548.656652,9193.145976
20877.317368,3923.091493,-9474.636058,6971.469032
20877.317702,814.226536,-8660.409521,612.876398
20877.318035,-74.020594,-8882.471304,2374.896044
20877.318368,-370.102971,-5403.503377,-2451.505594
20877.318701,1110.308913,-6957.935855,-1915.238745
20877.319035,0.000000,-8364.327145,-1225.752797
20877.319368,-2294.638420,-11917.315666,-2834.553343
20877.319701,-4145.153275,-13101.645173,-2451.505594
20877.320034,-3256.906145,-14137.933492,-76.609550
20877.320368,-2738.761985,-9474.636058,-2834.553343
20877.320701,-2368.659014,-5403.503377,0.000000
20877.321034,4663.297435,-7994.224174,7890.783629
20877.321367,3182.885551,-4219.173869,5209.449386
20877.321700,4737.318029,-8512.368333,6358.592633
20877.322034,4885.359217,-9326.594869,5745.716235
20877.322367,962.267725,-10732.986159,2221.676944
20877.322700,-1776.494261,-8956.491898,-4290.134789
20877.323033,-4071.132681,-9178.553681,-6205.373534
20877.323367,-1702.473667,-9178.553681,-5209.449386
20877.323700,370.102971,-7402.059420,-2987.772442
20877.324033,1702.473667,-11547.212695,-1608.800546
20877.324366,-74.020594,-11325.150913,-1532.190996
20877.324699,-1332.370696,-15396.283594,2374.896044
20877.325033,-74.020594,-13027.624579,2068.457845
20877.325366,1554.432478,-5255.462188,1225.752797
20877.325699,6143.709319,-5329.482782,6052.154434
20877.326032,7031.956449,-3849.070898,5439.278036
20877.326366,4145.153275,-8290.306550,4443.353888
20877.326699,1776.494261,-9474.636058,995.924147
20877.327032,-2368.659014,-10732.986159,-2451.505594
20877.327365,-2146.597232,-11029.068536,-7431.126331
20877.327699,-5921.647536,-11029.068536,-4519.963438
20877.328032,-2442.679609,-10066.800811,-4060.306139
20877.328365,2294.638420,-8586.388927,-1915.238745
20877.328698,3256.906145,-7476.080014,2451.505594
20877.329031,4737.318029,-10140.821405,6741.640382
20877.329365,1850.514855,-11399.171507,5056.230287
20877.329698,-592.164754,-10436.903782,2451.505594
20877.330031,-2368.659014,-7179.997637,1225.752797
20877.330364,1702.473667,-5033.400406,459.657299
20877.330698,2368.659014,-5847.626942,4213.525239
20877.331031,-74.020594,-7105.977043,-1532.190996
20877.331364,-1110.308913,-12213.398043,0.000000
20877.331697,-2664.741391,-11029.068536,-1225.752797
20877.332031,-3478.967927,-11251.130318,-2298.286494
20877.332364,-3330.926739,-9918.759623,-3600.648841
20877.332697,-1184.329507,-8068.244768,-1608.800546
20877.333030,4071.132681,-7105.977043,2681.334243
20877.333363,3849.070898,-6291.750507,5209.449386
20877.333697,4663.297435,-9696.697840,2374.896044
20877.334030,1554.432478,-10732.986159,2681.334243
20877.334363,-1184.329507,-11843.295072,995.924147
20877.334696,-74.020594,-9474.636058,-1915.238745
20877.335030,-2368.659014,-7328.038826,-2528.115143
20877.335363,-1776.494261,-7179.997637,-1608.800546
20877.335696,1258.350101,-5551.544565,0.000000
20877.336029,74.020594,-8512.368333,459.657299
20877.336362,2886.803174,-13619.789333,2987.772442
20877.336696,-370.102971,-11325.150913,1225.752797
20877.337029,0.000000,-9548.656652,0.000000
20877.337362,3182.885551,-9474.636058,-76.609550
20877.337695,1702.473667,-8290.306550,-76.609550
20877.338029,3849.070898,-5403.503377,2451.505594
20877.338362,4071.132681,-8882.471304,2604.724693
20877.338695,1554.432478,-10436.903782,1455.581446
20877.339028,-3627.009116,-12509.480420,-2145.067394
20877.339362,-3034.844362,-11547.212695,-3753.867940
20877.339695,-3182.885551,-7402.059420,-2911.162892
20877.340028,-1850.514855,-5847.626942,-2528.115143
20877.340361,518.144159,-7254.018232,0.000000
20877.340694,0.000000,-7772.162391,1838.629195
20877.341028,3775.050304,-10066.800811,3907.087040
20877.341361,888.247130,-9548.656652,2451.505594
20877.341694,2368.659014,-11695.253884,4519.963438
20877.342027,-74.020594,-9178.553681,0.000000
20877.342361,-666.185348,-4811.338623,-1838.629195
20877.342694,2294.638420,-7254.018232,-383.047749
20877.343027,1184.329507,-9992.780217,-383.047749
20877.343360,962.267725,-10955.047942,-383.047749
20877.343693,-3034.844362,-15988.448347,-76.609550
20877.344027,-666.185348,-11251.130318,-2528.115143
20877.344360,-5181.441594,-8956.491898,-2451.505594
20877.344693,-3552.988522,-3627.009116,612.876398
20877.345026,4663.297435,-7105.977043,3907.087040
20877.345360,3552.988522,-6291.750507,5822.325785
20877.345693,6069.688724,-9474.636058,3524.039291
20877.346026,4367.215058,-12139.377449,4826.401637
20877.346359,1406.391290,-11917.315666,1838.629195
20877.346693,-1554.432478,-9474.636058,-1378.971896
20877.347026,-1258.350101,-9474.636058,-4979.620737
20877.347359,-2368.659014,-5995.668130,-2145.067394
20877.347692,1406.391290,-8882.471304,2068.457845
20877.348025,1998.556043,-9474.636058,-1608.800546
20877.348359,-1258.350101,-13619.789333,-76.609550
20877.348692,-1258.350101,-10362.883188,-76.609550
20877.349025,-962.267725,-10066.800811,1455.581446
20877.349358,-444.123565,-6957.935855,1149.143247
20877.349692,0.000000,-4811.338623,919.314598
20877.350025,2886.803174,-5403.503377,1685.410096
20877.350358,2960.823768,-7179.997637,6052.154434
20877.350691,3182.885551,-10955.047942,995.924147
20877.351024,0.000000,-11917.315666,0.000000
20877.351358,-4145.153275,-11473.192101,-3370.820191
20877.351691,-4219.173869,-8882.471304,-4519.963438
20877.352024,-814.226536,-8216.285956,-3217.601092
20877.352357,296.082377,-6661.853478,-1072.533697
20877.352691,4663.297435,-9474.636058,1762.019645
20877.353024,592.164754,-10140.821405,4290.134789
20877.353357,2294.638420,-12435.459826,2987.772442
20877.353690,-74.020594,-8956.491898,0.000000
20877.354024,1332.370696,-9178.553681,2374.896044
20877.354357,888.247130,-3923.091493,-689.485948
20877.354690,2664.741391,-5921.647536,1838.629195
20877.355023,-296.082377,-8586.388927,-766.095498
20877.355356,-1332.370696,-10658.965565,-842.705048
20877.355690,-2146.597232,-13619.789333,-76.609550
20877.356023,-3849.070898,-10732.986159,-3677.258390
20877.356356,-3627.009116,-11177.109724,-2528.115143
20877.356689,370.102971,-7254.018232,-766.095498
20877.357023,5551.544565,-7031.956449,4290.134789
20877.357356,6809.894666,-8290.306550,6128.763984
20877.357689,4737.318029,-7772.162391,1225.752797
20877.358022,5255.462188,-15396.283594,4826.401637
20877.358356,666.185348,-11325.150913,0.000000
20877.358689,-2664.741391,-9770.718434,-2911.162892
20877.359022,-2294.638420,-9474.636058,-3447.429741
20877.359355,-1332.370696,-7402.059420,-2681.334243
20877.359688,-666.185348,-8290.306550,-153.219100
20877.360022,1110.308913,-8882.471304,689.485948
20877.360355,-74.020594,-12435.459826,2374.896044
20877.360688,-2368.659014,-10140.821405,3677.258390
20877.361021,-74.020594,-9918.759623,3600.648841
20877.361355,-74.020594,-5403.503377,0.000000
20877.361688,2960.823768,-4811.338623,3983.696590
20877.362021,7031.956449,-6513.812290,2528.115143
20877.362354,3552.988522,-10066.800811,1685.410096
20877.362687,-370.102971,-12509.480420,-1302.362347
20877.363021,-2886.803174,-13915.871710,-3447.429741
20877.363354,-4737.318029,-10881.027347,-4903.011187
20877.363687,-4737.318029,-8364.327145,-995.924147
20877.364020,-2442.679609,-7402.059420,-3753.867940
20877.364354,-3701.029710,-4811.338623,-2451.505594
20877.364687,2220.617826,-9326.594869,2987.772442
20877.365020,1628.453072,-8660.409521,6128.763984
20877.365353,3330.926739,-9474.636058,6971.469032
20877.365687,1406.391290,-9474.636058,3294.210641
20877.366020,-1184.329507,-8290.306550,612.876398
20877.366353,592.164754,-5995.668130,0.000000
20877.366686,5551.544565,-9474.636058,2374.896044
20877.367019,2294.638420,-9548.656652,-3064.381992
20877.367353,-1776.494261,-12509.480420,-3677.258390
20877.367686,-2442.679609,-16284.530724,-2528.115143
20877.368019,-3849.070898,-11473.192101,-4290.134789
20877.368352,-1850.514855,-9474.636058,-2298.286494
20877.368686,666.185348,-7550.100608,0.000000
20877.369019,2442.679609,-6883.915261,4443.353888
20877.369352,2960.823768,-5403.503377,4903.011187
20877.369685,4367.215058,-8290.306550,5669.106685
20877.370018,4737.318029,-7920.203579,6052.154434
20877.370352,2664.741391,-9400.615463,4136.915689
20877.370685,-74.020594,-7698.141797,-1608.800546
20877.371018,-1258.350101,-7105.977043,-6128.763984
20877.371351,-1036.288319,-10658.965565,-3753.867940
20877.371685,0.000000,-7179.997637,-4903.011187
20877.372018,0.000000,-11029.068536,-2298.286494
20877.372351,-370.102971,-15100.201217,-1302.362347
20877.372684,-3552.988522,-13397.727550,-766.095498
20877.373018,-2368.659014,-9770.718434,1072.533697
20877.373351,148.041188,-7179.997637,2757.943793
20877.373684,2368.659014,-3034.844362,3677.258390
20877.374017,5847.626942,-5921.647536,4903.011187
20877.374350,7624.121203,-7105.977043,6052.154434
20877.374684,3404.947333,-6587.832884,3064.381992
20877.375017,0.000000,-11621.233289,1225.752797
20877.375350,-3552.988522,-10732.986159,-4903.011187
20877.375683,-5329.482782,-11621.233289,-4979.620737
20877.376017,-2664.741391,-9104.533087,-6052.154434
20877.376350,-370.102971,-10658.965565,-2451.505594
20877.376683,2886.803174,-11843.295072,1762.019645
20877.377016,962.267725,-11917.315666,1532.190996
20877.377350,3478.967927,-14211.954086,4826.401637
20877.377683,-1332.370696,-8364.327145,3677.258390
20877.378016,444.123565,-7994.224174,6052.154434
20877.378349,1110.308913,-4071.132681,2604.724693
20877.378682,1184.329507,-4145.153275,2374.896044
20877.379016,740.205942,-5403.503377,766.095498
20877.379349,-296.082377,-9178.553681,-383.047749
20877.379682,-3627.009116,-11843.295072,-2528.115143
20877.380015,-6513.812290,-11325.150913,-3370.820191
20877.380349,-6291.750507,-11325.150913,-7354.516781
20877.380682,-4145.153275,-7772.162391,-3677.258390
20877.381015,3997.112087,-9474.636058,2987.772442
20877.381348,5255.462188,-7698.141797,3294.210641
20877.381681,6735.874072,-10362.883188,5898.935335
20877.382015,2886.803174,-11917.315666,4979.620737
20877.382348,1184.329507,-9844.739029,2298.286494
20877.382681,0.000000,-7328.038826,-612.876398
20877.383014,814.226536,-9178.553681,-1302.362347
20877.383348,-1036.288319,-3627.009116,-2451.505594
20877.383681,888.247130,-7698.141797,-153.219100
20877.384014,1702.473667,-12879.583391,-1302.362347
20877.384347,-1850.514855,-10955.047942,-1915.238745
20877.384681,-370.102971,-12731.542202,-995.924147
20877.385014,-1332.370696,-11325.150913,-383.047749
20877.385347,1776.494261,-8438.347739,1072.533697
20877.385680,4663.297435,-7402.059420,3294.210641
20877.386013,8808.450710,-7994.224174,6052.154434
20877.386347,7698.141797,-7328.038826,5745.716235
20877.386680,4219.173869,-10807.006753,2374.896044
20877.387013,814.226536,-11843.295072,-1149.143247
20877.387346,-4737.318029,-8660.409521,-6741.640382
20877.387680,-2590.720797,-10658.965565,-5592.497135
20877.388013,-1258.350101,-9474.636058,-4979.620737
20877.388346,-2368.659014,-7179.997637,-1225.752797
20877.388679,1480.411884,-9548.656652,2068.457845
20877.389012,2886.803174,-9918.759623,3370.820191
20877.389346,3034.844362,-10362.883188,5439.278036
20877.389679,222.061783,-9992.780217,4060.306139
20877.390012,-592.164754,-7179.997637,2374.896044
20877.390345,1184.329507,-6365.771101,2757.943793
20877.390679,4145.153275,-8142.265362,3600.648841
20877.391012,-518.144159,-7179.997637,-1838.629195
20877.391345,-6513.812290,-10732.986159,-2451.505594
20877.391678,-3997.112087,-14211.954086,-3753.867940
20877.392012,-6513.812290,-9844.739029,-4290.134789
20877.392345,-4663.297435,-9104.533087,-3447.429741
20877.392678,-3552.988522,-7698.141797,-2298.286494
20877.393011,-666.185348,-6957.935855,1072.533697
20877.393344,4071.132681,-7105.977043,5439.278036
20877.393678,5847.626942,-11843.295072,7277.907231
20877.394011,2886.803174,-11029.068536,4903.011187
20877.394344,592.164754,-10436.903782,6128.763984
20877.394677,-666.185348,-9474.636058,-76.609550
20877.395011,-370.102971,-8216.285956,-76.609550
20877.395344,-518.144159,-6957.935855,-1991.848295
20877.395677,518.144159,-8734.430116,-2221.676944
20877.396010,-666.185348,-10288.862594,-1455.581446
20877.396344,-4293.194464,-11621.233289,-2451.505594
20877.396677,-2442.679609,-10955.047942,-3447.429741
20877.397010,-5625.565159,-8660.409521,0.000000
20877.397343,2220.617826,-8290.306550,-76.609550
20877.397676,2220.617826,-7105.977043,2068.457845
20877.398010,3552.988522,-7105.977043,4826.401637
20877.398343,3256.906145,-7476.080014,4060.306139
20877.398676,3552.988522,-9474.636058,3677.258390
20877.399009,1702.473667,-10584.944971,919.314598
20877.399343,-2072.576638,-11547.212695,-1991.848295
20877.399676,-4737.318029,-8364.327145,-5515.887586
20877.400009,-74.020594,-8882.471304,-3753.867940
20877.400342,2294.638420,-6883.915261,-3064.381992
20877.400675,2368.659014,-10436.903782,2374.896044
20877.401009,3478.967927,-11843.295072,2374.896044
20877.401342,0.000000,-12361.439231,2987.772442
20877.401675,-444.123565,-10807.006753,306.438199
20877.402008,-740.205942,-7624.121203,689.485948
20877.402342,592.164754,-5255.462188,1225.752797
20877.402675,1258.350101,-6587.832884,1838.629195
20877.403008,1036.288319,-7920.203579,1455.581446
20877.403342,-148.041188,-9178.553681,-153.219100
20877.403675,-1332.370696,-11843.295072,-612.876398
20877.404008,-2072.576638,-10732.986159,-3064.381992
20877.404341,-4219.173869,-9474.636058,-5592.497135
20877.404675,0.000000,-7328.038826,-612.876398
20877.405008,5551.544565,-7994.224174,3600.648841
20877.405341,7031.956449,-9474.636058,4826.401637
20877.405675,5033.400406,-10955.047942,4826.401637
20877.406008,2072.576638,-12213.398043,2221.676944
20877.406341,0.000000,-13249.686362,766.095498
20877.406674,-444.123565,-10140.821405,-995.924147
20877.407008,-74.020594,-9474.636058,-689.485948
20877.407341,-4145.153275,-4959.379811,-1225.752797
20877.407674,-2368.659014,-9252.574275,1608.800546
20877.408008,-1258.350101,-7402.059420,-1915.238745
20877.408341,-4737.318029,-7179.997637,0.000000
20877.408674,-1554.432478,-9474.636058,536.266849
20877.409007,-2664.741391,-8364.327145,1685.410096
20877.409341,-1480.411884,-6809.894666,1532.190996
20877.409674,4367.215058,-5329.482782,3294.210641
20877.410007,4071.132681,-7402.059420,4213.525239
20877.410341,1184.329507,-9548.656652,4290.134789
20877.410674,1110.308913,-13915.871710,2374.896044
20877.411007,-2442.679609,-14211.954086,-4979.620737
20877.411340,-4737.318029,-11473.192101,-3983.696590
20877.411674,-3627.009116,-8364.327145,-5132.839837
20877.412007,518.144159,-6217.729913,-1378.971896
20877.412340,148.041188,-6661.853478,1532.190996
20877.412674,666.185348,-7031.956449,2451.505594
20877.413007,1776.494261,-6587.832884,3677.258390
20877.413340,2368.659014,-9548.656652,8503.660028
20877.413673,2886.803174,-7402.059420,842.705048
20877.414007,296.082377,-8364.327145,0.000000
20877.414340,4071.132681,-9474.636058,-76.609550
20877.414673,5255.462188,-6143.709319,-1225.752797
20877.415007,5329.482782,-11843.295072,536.266849
20877.415340,2516.700203,-12065.356855,-2298.286494
20877.415673,-2368.659014,-16062.468941,-4290.134789
20877.416006,-3552.988522,-9548.656652,-6665.030833
20877.416340,-2294.638420,-11251.130318,-3753.867940
20877.416673,888.247130,-5773.606348,-536.266849
20877.417006,5403.503377,-6957.935855,5132.839837
20877.417340,7031.956449,-7994.224174,7584.345430
20877.417673,7920.203579,-5773.606348,6281.983084
20877.418006,3552.988522,-9696.697840,6894.859482
20877.418339,4663.297435,-11251.130318,3600.648841
20877.418673,-3330.926739,-7772.162391,-2451.505594
20877.419006,-1480.411884,-10658.965565,-3677.258390
20877.419339,-962.267725,-8734.430116,-4596.572988
20877.419673,-1702.473667,-11695.253884,-2604.724693
20877.420006,-1998.556043,-11547.212695,-2068.457845
20877.420339,-5477.523971,-12287.418637,-2987.772442
20877.420672,-3256.906145,-11029.068536,-3140.991542
20877.421006,-2368.659014,-9252.574275,4213.525239
20877.421339,814.226536,-5329.482782,4826.401637
20877.421672,2294.638420,-4737.318029,3907.087040
20877.422006,2072.576638,-7105.977043,5439.278036
20877.422339,3034.844362,-5403.503377,3677.258390
20877.422672,1258.350101,-10214.842000,2681.334243
20877.423005,-518.144159,-12065.356855,-76.609550
20877.423339,-7698.141797,-11621.233289,-3983.696590
20877.423672,-5995.668130,-9474.636058,-7737.564530
20877.424005,-2368.659014,-9992.780217,-689.485948
20877.424339,-74.020594,-9474.636058,-995.924147
20877.424672,0.000000,-9474.636058,842.705048
20877.425005,-3552.988522,-10732.986159,1532.190996
20877.425338,-1184.329507,-9548.656652,2757.943793
20877.425672,-1110.308913,-7402.059420,2068.457845
20877.426005,444.123565,-6883.915261,2604.724693
20877.426338,4071.132681,-5921.647536,3447.429741
20877.426672,0.000000,-4811.338623,1225.752797
20877.427005,3478.967927,-7698.141797,-1302.362347
20877.427338,-74.020594,-12435.459826,-2068.457845
20877.427671,-2368.659014,-12509.480420,-1072.533697
20877.428005,-1406.391290,-12583.501014,-2528.115143
20877.428338,-4441.235652,-11621.233289,-4366.744339
20877.428671,-518.144159,-8438.347739,-2221.676944
20877.429005,3997.112087,-8068.244768,3294.210641
20877.429338,7550.100608,-5995.668130,7201.297681
20877.429671,5921.647536,-10140.821405,9729.412825
20877.430004,4663.297435,-9178.553681,2834.553343
20877.430338,2368.659014,-9770.718434,3677.258390
20877.430671,2294.638420,-9474.636058,-2221.676944
20877.431004,1998.556043,-6957.935855,-2604.724693
20877.431338,-592.164754,-8216.285956,-2834.553343
20877.431671,296.082377,-9104.533087,-2834.553343
20877.432004,-148.041188,-11325.150913,-842.705048
20877.432337,-814.226536,-10732.986159,-1762.019645
20877.432671,-1480.411884,-11917.315666,-76.609550
20877.433004,-666.185348,-11029.068536,306.438199
20877.433337,3256.906145,-6217.729913,1532.190996
20877.433671,5181.441594,-6735.874072,4443.353888
20877.434004,8216.285956,-6809.894666,4519.963438
20877.434337,5033.400406,-9696.697840,4596.572988
20877.434670,4663.297435,-13619.789333,1762.019645
20877.435004,-2368.659014,-10140.821405,-2451.505594
20877.435337,-3330.926739,-12731.542202,-4979.620737
20877.435670,-1258.350101,-11843.295072,-4979.620737
20877.436004,-3478.967927,-9770.718434,-2681.334243
20877.436337,-1628.453072,-7920.203579,1072.533697
20877.436670,-2220.617826,-9474.636058,1608.800546
20877.437003,0.000000,-7179.997637,3677.258390
20877.437337,-2368.659014,-8956.491898,7507.735880
20877.437670,-1258.350101,-6957.935855,2068.457845
20877.438003,-1850.514855,-5403.503377,0.000000
20877.438337,0.000000,-5699.585753,1532.190996
20877.438670,4071.132681,-3701.029710,919.314598
20877.439003,518.144159,-10066.800811,-229.828649
20877.439336,-1406.391290,-10436.903782,-3524.039291
20877.439670,-5847.626942,-15322.262999,-4443.353888
20877.440003,-4145.153275,-11769.274478,-3677.258390
20877.440336,-2960.823768,-11029.068536,-76.609550
20877.440670,-1258.350101,-6439.791695,-2451.505594
20877.441003,2368.659014,-6587.832884,4903.011187
20877.441336,4663.297435,-8290.306550,6358.592633
20877.441669,4737.318029,-5403.503377,7660.954980
20877.442003,3182.885551,-10214.842000,4979.620737
20877.442336,3552.988522,-6735.874072,2987.772442
20877.442669,-666.185348,-8660.409521,-995.924147
20877.443003,1702.473667,-7698.141797,-2834.553343
20877.443336,3478.967927,-8290.306550,-2834.553343
20877.443669,1406.391290,-10140.821405,-5975.544884
20877.444002,1776.494261,-11473.192101,-2528.115143
20877.444336,-1776.494261,-15470.304188,-1378.971896
20877.444669,-74.020594,-14063.912898,-2221.676944
20877.445002,0.000000,-11325.150913,0.000000
20877.445336,4293.194464,-6883.915261,4060.306139
20877.445669,5625.565159,-4663.297435,6435.202183
20877.446002,4885.359217,-5107.421000,6741.640382
20877.446335,7031.956449,-4885.359217,4060.306139
20877.446669,2960.823768,-9474.636058,3677.258390
20877.447002,1776.494261,-11251.130318,1762.019645
20877.447335,-4219.173869,-10584.944971,-5592.497135
20877.447669,-4811.338623,-10955.047942,-6205.373534
20877.448002,-3552.988522,-9252.574275,-5669.106685
20877.448335,-1110.308913,-10066.800811,-2834.553343
20877.448668,-1184.329507,-10140.821405,-1225.752797
20877.449002,-2368.659014,-11621.233289,612.876398
20877.449335,-370.102971,-10584.944971,2298.286494
20877.449668,-666.185348,-8734.430116,3447.429741
20877.450002,1406.391290,-7105.977043,3830.477490
20877.450335,2146.597232,-5107.421000,4366.744339
20877.450668,740.205942,-4441.235652,3294.210641
20877.451001,2886.803174,-10658.965565,2374.896044
20877.451335,-4145.153275,-8364.327145,0.000000
20877.451668,-1850.514855,-12435.459826,-1838.629195
20877.452001,-3108.864956,-12361.439231,-2374.896044
20877.452335,-6217.729913,-9548.656652,-4290.134789
20877.452668,-2072.576638,-9030.512492,-2068.457845
20877.453001,1628.453072,-8216.285956,2068.457845
20877.453334,4293.194464,-6957.935855,4596.572988
20877.453668,592.164754,-8956.491898,3064.381992
20877.454001,1702.473667,-9844.739029,1838.629195
20877.454334,-1258.350101,-7920.203579,0.000000
20877.454668,-1480.411884,-9030.512492,-76.609550
20877.455001,1110.308913,-7994.224174,-1608.800546
20877.455334,0.000000,-6143.709319,1149.143247
20877.455667,740.205942,-8364.327145,0.000000
20877.456001,1554.432478,-8438.347739,536.266849
20877.456334,-962.267725,-11473.192101,-689.485948
20877.456667,-444.123565,-11843.295072,-383.047749
20877.457001,-1850.514855,-8364.327145,-3677.258390
20877.457334,0.000000,-7772.162391,0.000000
20877.457667,6735.874072,-8290.306550,2068.457845
20877.458000,2368.659014,-5403.503377,2451.505594
20877.458334,4663.297435,-10066.800811,2911.162892
20877.458667,2146.597232,-9992.780217,1762.019645
20877.459000,444.123565,-11399.171507,-842.705048
20877.459334,-2368.659014,-10807.006753,-2374.896044
20877.459667,-2146.597232,-7698.141797,-4366.744339
20877.460000,-2960.823768,-5403.503377,-1838.629195
20877.460333,3478.967927,-8882.471304,-842.705048
20877.460667,3034.844362,-8882.471304,-76.609550
20877.461000,0.000000,-9548.656652,3064.381992
20877.461333,2886.803174,-11251.130318,1762.019645
20877.461667,-888.247130,-9548.656652,919.314598
20877.462000,222.061783,-9474.636058,842.705048
20877.462333,2590.720797,-6957.935855,1838.629195
20877.462666,4071.132681,-8290.306550,2987.772442
20877.463000,2516.700203,-9400.615463,2221.676944
20877.463333,-1258.350101,-10584.944971,-1302.362347
20877.463666,-3997.112087,-13471.748144,-2221.676944
20877.464000,-4737.318029,-8660.409521,-1838.629195
20877.464333,-3627.009116,-10658.965565,-3753.867940
20877.464666,-2368.659014,-4219.173869,-2451.505594
20877.464999,518.144159,-6291.750507,1225.752797
20877.465333,3627.009116,-7105.977043,5898.935335
20877.465666,1184.329507,-8660.409521,2451.505594
20877.465999,1850.514855,-12287.418637,3600.648841
20877.466333,592.164754,-9252.574275,2451.505594
20877.466666,-2442.679609,-9696.697840,306.438199
20877.466999,1110.308913,-8586.388927,-76.609550
20877.467332,-1554.432478,-9474.636058,-76.609550
20877.467666,0.000000,-5995.668130,0.000000
20877.467999,-1332.370696,-11843.295072,1225.752797
20877.468332,-2442.679609,-12435.459826,-1915.238745
20877.468666,-4811.338623,-10658.965565,-1915.238745
20877.468999,-4071.132681,-8364.327145,-2221.676944
20877.469332,-296.082377,-5847.626942,1762.019645
20877.469665,2146.597232,-5847.626942,4213.525239
20877.469999,4367.215058,-4811.338623,4366.744339
20877.470332,4663.297435,-10658.965565,4826.401637
20877.470665,1184.329507,-9548.656652,5515.887586
20877.470999,2294.638420,-13619.789333,-536.266849
20877.471332,-3256.906145,-9548.656652,-4903.011187
20877.471665,-1184.329507,-9178.553681,-4366.744339
20877.471998,-888.247130,-7328.038826,-3370.820191
20877.472332,4441.235652,-7550.100608,-995.924147
20877.472665,592.164754,-10732.986159,-612.876398
20877.472998,592.164754,-11917.315666,612.876398
20877.473332,1702.473667,-10658.965565,0.000000
20877.473665,2368.659014,-10288.862594,3064.381992
20877.473998,4663.297435,-8290.306550,2374.896044
20877.474331,3182.885551,-4811.338623,3064.381992
20877.474665,3552.988522,-6735.874072,3677.258390
20877.474998,3256.906145,-9104.533087,229.828649
20877.475331,740.205942,-12065.356855,-612.876398
20877.475665,-1702.473667,-12583.501014,-3294.210641
20877.475998,-2442.679609,-13619.789333,-3140.991542
20877.476331,-4737.318029,-8364.327145,-3370.820191
20877.476664,2294.638420,-9474.636058,-689.485948
20877.476998,3478.967927,-5181.441594,1608.800546
20877.477331,5329.482782,-6883.915261,7124.688131
20877.477664,4145.153275,-9696.697840,4519.963438
20877.477998,1776.494261,-10732.986159,4213.525239
20877.478331,-962.267725,-11325.150913,1072.533697
20877.478664,-3330.926739,-8364.327145,-1915.238745
20877.478997,-74.020594,-8882.471304,-2528.115143
20877.479331,-3256.906145,-8364.327145,0.000000
20877.479664,-370.102971,-7402.059420,-306.438199
20877.479997,-2886.803174,-10140.821405,229.828649
20877.480331,-3775.050304,-9548.656652,-766.095498
20877.480664,-2442.679609,-12435.459826,-76.609550
20877.480997,-3330.926739,-8364.327145,306.438199
20877.481330,592.164754,-6883.915261,6052.154434
20877.481664,4071.132681,-6513.812290,2987.772442
20877.481997,4737.318029,-5995.668130,4903.011187
20877.482330,2664.741391,-10658.965565,4519.963438
20877.482664,-296.082377,-11917.315666,0.000000
20877.482997,-3256.906145,-12953.603985,-2681.334243
20877.483330,-6439.791695,-11843.295072,-5592.497135
20877.483663,-4219.173869,-8290.306550,-4979.620737
20877.483997,-4737.318029,-6587.832884,-1838.629195
20877.484330,1110.308913,-7105.977043,1762.019645
20877.484663,-74.020594,-8290.306550,1149.143247
20877.484997,592.164754,-9548.656652,5515.887586
20877.485330,4071.132681,-9474.636058,5286.058936
20877.485663,148.041188,-7994.224174,2987.772442
20877.485996,444.123565,-9474.636058,995.924147
20877.486330,3108.864956,-7105.977043,1149.143247
20877.486663,3849.070898,-6291.750507,1225.752797
20877.486996,592.164754,-7179.997637,1532.190996
20877.487330,-74.020594,-11547.212695,-4903.011187
20877.487663,-5921.647536,-11325.150913,-8580.269578
20877.487996,-5921.647536,-11325.150913,-5975.544884
20877.488329,-4219.173869,-9548.656652,-6741.640382
20877.488663,-962.267725,-7698.141797,-919.314598
20877.488996,2664.741391,-5255.462188,3907.087040
20877.489329,5773.606348,-5477.523971,6588.421283
20877.489663,7846.182985,-7402.059420,7967.393179
20877.489996,4737.318029,-8660.409521,8197.221829
20877.490329,5847.626942,-7994.224174,229.828649
20877.490662,592.164754,-9548.656652,919.314598
20877.490996,4663.297435,-10658.965565,-1915.238745
20877.491329,0.000000,-8956.491898,-3064.381992
20877.491662,-74.020594,-12065.356855,-4366.744339
20877.491996,-2368.659014,-13397.727550,-3524.039291
20877.492329,-2220.617826,-13915.871710,-2374.896044
20877.492662,-3627.009116,-11695.253884,-1608.800546
20877.492995,-74.020594,-8290.306550,1762.019645
20877.493329,0.000000,-1258.350101,1532.190996
20877.493662,4737.318029,-5847.626942,9116.536426
20877.493995,5847.626942,-3404.947333,5515.887586
20877.494329,1776.494261,-7179.997637,5515.887586
20877.494662,1258.350101,-10362.883188,2221.676944
20877.494995,-2368.659014,-11029.068536,-2068.457845
20877.495328,-5773.606348,-12213.398043,-6128.763984
20877.495662,-4811.338623,-10510.924376,-5745.716235
20877.495995,-2146.597232,-9992.780217,-3907.087040
20877.496328,-444.123565,-10288.862594,-76.609550
20877.496662,-1258.350101,-10288.862594,766.095498
20877.496995,-1036.288319,-11251.130318,2451.505594
20877.497328,-74.020594,-9474.636058,4826.401637
20877.497661,0.000000,-5995.668130,5745.716235
20877.497995,-74.020594,-6513.812290,2221.676944
20877.498328,1184.329507,-1258.350101,1225.752797
20877.498661,1184.329507,-4811.338623,2451.505594
20877.498995,1702.473667,-7402.059420,-1072.533697
20877.499328,-222.061783,-10436.903782,-2528.115143
20877.499661,-3552.988522,-13619.789333,-4136.915689
20877.499994,-3627.009116,-12879.583391,-4136.915689
20877.500328,-5255.462188,-10732.986159,-5592.497135
20877.500661,1702.473667,-10658.965565,-689.485948
20877.500994,4663.297435,-7994.224174,2374.896044
20877.501328,4145.153275,-5403.503377,5822.325785
20877.501661,6735.874072,-9474.636058,7277.907231
20877.501994,2960.823768,-7772.162391,3830.477490
20877.502327,3182.885551,-8808.450710,2451.505594
20877.502661,1332.370696,-6439.791695,306.438199
20877.502994,3478.967927,-6513.812290,-2374.896044
20877.503327,0.000000,-7772.162391,-2451.505594
20877.503661,2294.638420,-9918.759623,-5286.058936
20877.503994,0.000000,-10140.821405,-3677.258390
20877.504327,-2368.659014,-13101.645173,-2145.067394
20877.504660,-1258.350101,-13619.789333,-3140.991542
20877.504994,0.000000,-10881.027347,-76.609550
20877.505327,4589.276840,-8216.285956,4826.401637
20877.505660,7994.224174,-4811.338623,7354.516781
20877.505993,7179.997637,-6217.729913,6818.249932
20877.506326,7031.956449,-9474.636058,6665.030833
20877.506659,2294.638420,-7846.182985,0.000000
20877.506993,0.000000,-11399.171507,-995.924147
20877.507326,-4145.153275,-10140.821405,-6435.202183
20877.507659,-2442.679609,-10658.965565,-6511.811733
20877.507992,-3034.844362,-8734.430116,-6511.811733
20877.508325,-3552.988522,-9844.739029,-919.314598
20877.508658,-962.267725,-10362.883188,-76.609550
20877.508991,-740.205942,-10584.944971,2757.943793
20877.509324,-74.020594,-9474.636058,4826.401637
20877.509658,-1998.556043,-7920.203579,3830.477490
20877.509991,370.102971,-6217.729913,3370.820191
20877.510324,3404.947333,-6809.894666,5745.716235
20877.510657,2368.659014,-5403.503377,4903.011187
20877.510990,2368.659014,-10066.800811,2374.896044
20877.511323,-3627.009116,-10732.986159,-4290.134789
20877.511656,-7105.977043,-13101.645173,-3447.429741
20877.511989,-5255.462188,-11843.295072,-5132.839837
20877.512322,-6217.729913,-9548.656652,-6665.030833
20877.512656,-2146.597232,-8882.471304,-1991.848295
20877.512989,0.000000,-9030.512492,3140.991542
20877.513322,1554.432478,-7179.997637,4366.744339
20877.513655,4071.132681,-8290.306550,7277.907231
20877.513988,1406.391290,-11843.295072,7277.907231
20877.514321,0.000000,-4811.338623,4903.011187
20877.514654,-74.020594,-8882.471304,3600.648841
20877.514987,4071.132681,-4737.318029,-842.705048
20877.515321,666.185348,-9992.780217,-306.438199
20877.515654,518.144159,-8290.306550,-4826.401637
20877.515987,-1406.391290,-13249.686362,-3447.429741
20877.516320,-2442.679609,-13545.768739,-4366.744339
20877.516653,-1850.514855,-11251.130318,-3753.867940
20877.516986,-1332.370696,-13027.624579,-1302.362347
20877.517319,1628.453072,-4811.338623,0.000000
20877.517652,5181.441594,-8142.265362,6052.154434
20877.517985,5995.668130,-5921.647536,5439.278036
20877.518319,6291.750507,-6957.935855,6818.249932
20877.518652,2442.679609,-8660.409521,3677.258390
20877.518985,2442.679609,-7994.224174,766.095498
20877.519318,-2368.659014,-10436.903782,-1915.238745
20877.519651,0.000000,-8068.244768,-3064.381992
20877.519984,1702.473667,-9474.636058,-2834.553343
20877.520317,2072.576638,-10658.965565,-306.438199
20877.520650,-74.020594,-13027.624579,-2528.115143
20877.520984,-2960.823768,-11917.315666,-2451.505594
20877.521317,0.000000,-10732.986159,919.314598
20877.521650,1184.329507,-9622.677246,2068.457845
20877.521983,1628.453072,-7994.224174,3217.601092
20877.522316,3478.967927,-5033.400406,2221.676944
20877.522649,4071.132681,-9474.636058,4826.401637
20877.522982,2072.576638,-3627.009116,3064.381992
20877.523315,1110.308913,-12435.459826,-76.609550
20877.523649,-4145.153275,-8660.409521,-4060.306139
20877.523982,-7105.977043,-10140.821405,-4443.353888
20877.524315,-4737.318029,-10288.862594,-5592.497135
20877.524648,-888.247130,-8660.409521,-229.828649
20877.524981,1924.535449,-8512.368333,1762.019645
20877.525314,2368.659014,-8882.471304,3907.087040
20877.525647,1702.473667,-11251.130318,3600.648841
20877.525980,-1184.329507,-11917.315666,3524.039291
20877.526313,740.205942,-8956.491898,2068.457845
20877.526647,-1184.329507,-8364.327145,1915.238745
20877.526980,-518.144159,-6143.709319,0.000000
20877.527313,-74.020594,-9178.553681,1149.143247
20877.527646,-3256.906145,-7179.997637,-1838.629195
20877.527979,-888.247130,-10732.986159,1762.019645
20877.528312,-2442.679609,-9770.718434,-2757.943793
20877.528645,-2664.741391,-8734.430116,-1225.752797
20877.528978,-2960.823768,-9992.780217,1455.581446
20877.529312,1480.411884,-6217.729913,1991.848295
20877.529645,4071.132681,-7328.038826,3830.477490
20877.529978,5625.565159,-8586.388927,3907.087040
20877.530311,5847.626942,-10658.965565,3600.648841
20877.530644,222.061783,-9548.656652,612.876398
20877.530977,2294.638420,-11843.295072,-1302.362347
20877.531310,-2442.679609,-11103.089130,-4903.011187
20877.531643,0.000000,-8216.285956,-2221.676944
20877.531976,1702.473667,-8290.306550,-1915.238745
20877.532310,1184.329507,-8216.285956,-76.609550
20877.532643,444.123565,-7994.224174,-766.095498
20877.532976,666.185348,-10066.800811,766.095498
20877.533309,1776.494261,-7179.997637,1378.971896
20877.533642,0.000000,-7179.997637,4903.011187
20877.533975,5255.462188,-9178.553681,2068.457845
20877.534308,7328.038826,-7994.224174,1762.019645
20877.534641,5921.647536,-9548.656652,3064.381992
20877.534975,6439.791695,-10140.821405,0.000000
20877.535308,-370.102971,-13989.892304,-2451.505594
20877.535641,-2590.720797,-12731.542202,-4673.182538
20877.535974,-4885.359217,-10658.965565,-4979.620737
20877.536307,-2812.782580,-9474.636058,-3064.381992
20877.536640,-74.020594,-8290.306550,-76.609550
20877.536973,2294.638420,-5329.482782,2068.457845
20877.537306,2368.659014,-5995.668130,6588.421283
20877.537639,4663.297435,-8734.430116,7277.907231
20877.537973,1406.391290,-6291.750507,2451.505594
20877.538306,-962.267725,-9178.553681,383.047749
20877.538639,-2146.597232,-9918.759623,-1225.752797
20877.538972,-888.247130,-9178.553681,-1302.362347
20877.539305,-296.082377,-11843.295072,689.485948
20877.539638,148.041188,-9770.718434,-1302.362347
20877.539971,-3552.988522,-13767.830521,-1838.629195
20877.540304,-3256.906145,-10881.027347,-1532.190996
20877.540638,-5995.668130,-10658.965565,-3600.648841
20877.540971,-4737.318029,-7179.997637,-1608.800546
20877.541304,0.000000,-4811.338623,5362.668486
20877.541637,2294.638420,-5625.565159,4826.401637
20877.541970,4663.297435,-2812.782580,5056.230287
20877.542303,1702.473667,-10362.883188,4826.401637
20877.542636,1110.308913,-10362.883188,1455.581446
20877.542969,-2812.782580,-10140.821405,-2221.676944
20877.543302,-5551.544565,-11251.130318,-5362.668486
20877.543636,-3552.988522,-10288.862594,-4443.353888
20877.543969,-1850.514855,-12731.542202,-1915.238745
20877.544302,0.000000,-9548.656652,2374.896044
20877.544635,-74.020594,-10362.883188,-995.924147
20877.544968,0.000000,-8882.471304,383.047749
20877.545301,296.082377,-7328.038826,3064.381992
20877.545634,1110.308913,-6957.935855,1991.848295
20877.545967,3108.864956,-6513.812290,1991.848295
20877.546301,5181.441594,-6735.874072,4290.134789
20877.546634,5773.606348,-8068.244768,4519.963438
20877.546967,3330.926739,-6291.750507,536.266849
20877.547300,2294.638420,-11843.295072,-1302.362347
20877.547633,-1258.350101,-13027.624579,-5592.497135
20877.547966,-4737.318029,-11029.068536,-5515.887586
20877.548299,-888.247130,-11843.295072,-1991.848295
20877.548632,296.082377,-8956.491898,0.000000
20877.548966,4663.297435,-7698.141797,2834.553343
20877.549299,5847.626942,-7698.141797,4826.401637
20877.549632,3552.988522,-8956.491898,4749.792088
20877.549965,1184.329507,-8956.491898,2451.505594
20877.550298,2886.803174,-9178.553681,995.924147
20877.550631,0.000000,-4811.338623,-2451.505594
20877.550964,0.000000,-8734.430116,-76.609550
20877.551297,-74.020594,-9474.636058,-3753.867940
20877.551630,148.041188,-11843.295072,-842.705048
20877.551964,1036.288319,-10436.903782,612.876398
20877.552297,-518.144159,-11695.253884,-766.095498
20877.552630,-3182.885551,-10584.944971,-2298.286494
20877.552963,-1850.514855,-11843.295072,-229.828649
20877.553296,-74.020594,-5551.544565,0.000000
20877.553629,5329.482782,-6809.894666,7584.345430
20877.553962,3478.967927,-4737.318029,3600.648841
20877.554295,148.041188,-8956.491898,3983.696590
20877.554629,-1258.350101,-10510.924376,995.924147
20877.554962,-2220.617826,-9770.718434,-1225.752797
20877.555295,-3997.112087,-10955.047942,-2757.943793
20877.555628,-3923.091493,-8956.491898,-4366.744339
20877.555961,-4367.215058,-11769.274478,-1302.362347
20877.556294,-4145.153275,-10140.821405,-2068.457845
20877.556627,-1998.556043,-10066.800811,995.924147
20877.556960,-1554.432478,-10510.924376,2068.457845
20877.557293,0.000000,-4811.338623,2451.505594
20877.557627,-2368.659014,-9548.656652,4673.182538
20877.557960,1702.473667,-7105.977043,3600.648841
20877.558293,5255.462188,-3923.091493,2451.505594
20877.558626,3849.070898,-7328.038826,4749.792088
20877.558959,3775.050304,-8290.306550,-76.609550
20877.559292,-2220.617826,-11917.315666,-2911.162892
20877.559625,-3775.050304,-13101.645173,-7048.078582
20877.559958,-2146.597232,-11621.233289,-3753.867940
20877.560292,-1332.370696,-11843.295072,-2145.067394
20877.560625,1184.329507,-8364.327145,2451.505594
20877.560958,1702.473667,-7105.977043,153.219100
20877.561291,1924.535449,-5403.503377,2145.067394
20877.561624,5329.482782,-6587.832884,6665.030833
20877.561957,5033.400406,-7772.162391,2451.505594
20877.562290,5847.626942,-9474.636058,3600.648841
20877.562623,2368.659014,-7698.141797,153.219100
20877.562956,5847.626942,-9178.553681,-229.828649
20877.563290,7624.121203,-10658.965565,-76.609550
20877.563623,5329.482782,-11917.315666,-76.609550
20877.563956,962.267725,-11917.315666,-4290.134789
20877.564289,-2220.617826,-14582.057057,-3524.039291
20877.564622,-962.267725,-13619.789333,-2528.115143
20877.564955,-1554.432478,-9474.636058,-383.047749
20877.565288,3182.885551,-6513.812290,1915.238745
20877.565621,4663.297435,-5847.626942,7277.907231
20877.565955,4071.132681,-5403.503377,6281.983084
20877.566288,1480.411884,-4811.338623,4290.134789
20877.566621,2294.638420,-9474.636058,2987.772442
20877.566954,-2368.659014,-8660.409521,0.000000
20877.567287,-4515.256246,-13027.624579,-3753.867940
20877.567620,-5403.503377,-8956.491898,-6741.640382
20877.567953,-5033.400406,-10288.862594,-4749.792088
20877.568286,-1554.432478,-9474.636058,-2374.896044
20877.568619,-2812.782580,-11621.233289,-919.314598
20877.568953,-2886.803174,-11991.336260,0.000000
20877.569286,-2220.617826,-10510.924376,2451.505594
20877.569619,-3923.091493,-7402.059420,306.438199
20877.569952,-592.164754,-6513.812290,4213.525239
20877.570285,1110.308913,-7105.977043,4213.525239
20877.570618,1184.329507,-4811.338623,7431.126331
20877.570951,1184.329507,-6957.935855,3907.087040
20877.571284,-3552.988522,-8956.491898,0.000000
20877.571618,-6365.771101,-10807.006753,-4519.963438
20877.571951,-6439.791695,-9918.759623,-5286.058936
20877.572284,-4589.276840,-11177.109724,-4903.011187
20877.572617,-666.185348,-9252.574275,-2451.505594
20877.572950,1702.473667,-8660.409521,995.924147
20877.573283,1184.329507,-10362.883188,2528.115143
20877.573616,2886.803174,-8216.285956,2451.505594
20877.573949,592.164754,-11917.315666,4290.134789
20877.574283,3478.967927,-7624.121203,2145.067394
20877.574616,-2368.659014,-5995.668130,3370.820191
20877.574949,5847.626942,-7105.977043,536.266849
20877.575282,3478.967927,-6513.812290,842.705048
20877.575615,1184.329507,-9548.656652,1532.190996
20877.575948,2146.597232,-9548.656652,-1225.752797
20877.576281,-666.185348,-10362.883188,-3830.477490
20877.576614,-2442.679609,-11695.253884,-5286.058936
20877.576947,-962.267725,-10955.047942,-1915.238745
20877.577281,3478.967927,-7994.224174,0.000000
20877.577614,7402.059420,-7994.224174,6128.763984
20877.577947,9400.615463,-9474.636058,4213.525239
20877.578280,4293.194464,-8660.409521,3983.696590
20877.578613,2886.803174,-13027.624579,3294.210641
20877.578946,0.000000,-9030.512492,-766.095498
20877.579279,-1406.391290,-10658.965565,-1915.238745
20877.579612,0.000000,-6735.874072,-3907.087040
20877.579946,-666.185348,-7846.182985,-2221.676944
20877.580279,-1776.494261,-4811.338623,0.000000
20877.580612,1998.556043,-11251.130318,-76.609550
20877.580945,1702.473667,-12435.459826,-76.609550
20877.581278,370.102971,-8512.368333,1225.752797
20877.581611,-74.020594,-10658.965565,842.705048
20877.581944,592.164754,-9252.574275,612.876398
20877.582277,3701.029710,-8882.471304,3600.648841
20877.582610,2960.823768,-7772.162391,3140.991542
20877.582944,1184.329507,-8364.327145,1225.752797
20877.583277,-3552.988522,-12361.439231,-76.609550
20877.583610,-2442.679609,-11843.295072,-4979.620737
20877.583943,-6735.874072,-8956.491898,-3064.381992
20877.584276,-4737.318029,-7772.162391,-76.609550
20877.584609,-2442.679609,-9178.553681,-2221.676944
20877.584942,-1924.535449,-7328.038826,2221.676944
20877.585275,296.082377,-7476.080014,3447.429741
20877.585609,444.123565,-8290.306550,4749.792088
20877.585942,296.082377,-8660.409521,3983.696590
20877.586275,-2516.700203,-11251.130318,2528.115143
20877.586608,-1332.370696,-7402.059420,1532.190996
20877.586941,814.226536,-7254.018232,1225.752797
20877.587274,2294.638420,-10362.883188,-76.609550
20877.587607,0.000000,-8290.306550,-1302.362347
20877.587940,-6513.812290,-11917.315666,-1685.410096
20877.588273,-2442.679609,-10658.965565,-5286.058936
20877.588607,-4811.338623,-8956.491898,-5515.887586
20877.588940,-370.102971,-9474.636058,-689.485948
20877.589273,2812.782580,-6069.688724,2987.772442
20877.589606,4367.215058,-7550.100608,5286.058936
20877.589939,5625.565159,-7031.956449,5745.716235
20877.590272,3701.029710,-7476.080014,5056.230287
20877.590605,4737.318029,-8734.430116,2374.896044
20877.590938,1184.329507,-12213.398043,2068.457845
20877.591272,-74.020594,-13027.624579,-4060.306139
20877.591605,0.000000,-9548.656652,-4903.011187
20877.591938,4071.132681,-10214.842000,-1762.019645
20877.592271,6883.915261,-8882.471304,-1072.533697
20877.592604,1924.535449,-13027.624579,-689.485948
20877.592937,1850.514855,-10955.047942,-536.266849
20877.593270,0.000000,-11325.150913,306.438199
20877.593603,2886.803174,-7105.977043,2374.896044
20877.593936,5477.523971,-7105.977043,6052.154434
20877.594270,4663.297435,-9474.636058,3600.648841
20877.594603,1480.411884,-5995.668130,3064.381992
20877.594936,888.247130,-10066.800811,2145.067394
20877.595269,814.226536,-10214.842000,-1838.629195
20877.595602,-3923.091493,-10510.924376,-3524.039291
20877.595935,-5699.585753,-11251.130318,-4673.182538
20877.596268,-4663.297435,-8660.409521,-4596.572988
20877.596601,-1776.494261,-7772.162391,-1838.629195
20877.596935,4663.297435,-8882.471304,2374.896044
20877.597268,1702.473667,-6809.894666,995.924147
20877.597601,592.164754,-9548.656652,3677.258390
20877.597934,2886.803174,-11843.295072,2987.772442
20877.598267,-74.020594,-11251.130318,536.266849
20877.598600,-1036.288319,-7476.080014,1072.533697
20877.598933,-370.102971,-8142.265362,0.000000
20877.599266,-814.226536,-10066.800811,-229.828649
20877.599600,-74.020594,-9474.636058,1455.581446
20877.599933,-3627.009116,-10066.800811,-2911.162892
20877.600266,-4145.153275,-8660.409521,-76.609550
20877.600599,-4811.338623,-13027.624579,-76.609550
20877.600932,-3034.844362,-4737.318029,-2451.505594
20877.601265,1480.411884,-8290.306550,4213.525239
20877.601598,2368.659014,-5403.503377,3907.087040
20877.601931,3775.050304,-7772.162391,2451.505594
20877.602264,2294.638420,-10658.965565,995.924147
20877.602598,1702.473667,-11103.089130,-76.609550
20877.602931,-3701.029710,-12213.398043,-2604.724693
20877.603264,-2738.761985,-10732.986159,-4290.134789
20877.603597,-3849.070898,-10362.883188,-3830.477490
20877.603930,-2368.659014,-9548.656652,0.000000
20877.604263,296.082377,-9104.533087,3294.210641
20877.604596,-74.020594,-7772.162391,1838.629195
20877.604929,592.164754,-3923.091493,2451.505594
20877.605263,1702.473667,-9474.636058,2987.772442
20877.605596,0.000000,-5403.503377,766.095498
20877.605929,2368.659014,-7846.182985,1762.019645
20877.606262,7031.956449,-7105.977043,1762.019645
20877.606595,5033.400406,-8956.491898,1991.848295
20877.606928,4367.215058,-10955.047942,-689.485948
20877.607262,-1258.350101,-15988.448347,-4979.620737
20877.607595,-5403.503377,-12213.398043,-7354.516781
20877.607928,-3775.050304,-9918.759623,-7431.126331
20877.608261,-2960.823768,-8660.409521,-1072.533697
20877.608594,4071.132681,-9474.636058,3600.648841
20877.608928,3478.967927,-3627.009116,2451.505594
20877.609261,7846.182985,-6809.894666,7890.783629
20877.609594,8290.306550,-8290.306550,9116.536426
20877.609927,2368.659014,-5995.668130,2451.505594
20877.610260,2294.638420,-11251.130318,-1302.362347
20877.610593,518.144159,-8364.327145,-1838.629195
20877.610927,2368.659014,-9548.656652,2451.505594
20877.611260,4071.132681,-10658.965565,-1302.362347
20877.611593,0.000000,-9548.656652,-3447.429741
20877.611926,-4441.235652,-14137.933492,-3600.648841
20877.612259,-3997.112087,-11251.130318,-4136.915689
20877.612593,-5255.462188,-10436.903782,-2451.505594
20877.612926,-2072.576638,-7920.203579,1685.410096
20877.613259,-74.020594,-3182.885551,1225.752797
20877.613592,3478.967927,-5921.647536,8197.221829
20877.613925,4663.297435,-4737.318029,4213.525239
20877.614258,592.164754,-8364.327145,6128.763984
20877.614592,1776.494261,-7328.038826,2451.505594
20877.614925,-2368.659014,-11547.212695,-383.047749
20877.615258,-3182.885551,-10955.047942,-4366.744339
20877.615591,-3478.967927,-10732.986159,-4366.744339
20877.615924,-74.020594,-13619.789333,-1915.238745
20877.616258,0.000000,-9548.656652,0.000000
20877.616591,-1258.350101,-12435.459826,-1915.238745
20877.616924,-4071.132681,-8438.347739,-3140.991542
20877.617257,-3552.988522,-8660.409521,2834.553343
20877.617590,1036.288319,-6809.894666,4366.744339
20877.617923,3701.029710,-4293.194464,6052.154434
20877.618257,4515.256246,-5551.544565,6665.030833
20877.618590,3330.926739,-5329.482782,4060.306139
20877.618923,1406.391290,-8290.306550,1149.143247
20877.619256,0.000000,-8660.409521,-3370.820191
20877.619589,-2442.679609,-13767.830521,-6665.030833
20877.619923,-4885.359217,-13323.706956,-7814.174080
20877.620256,-2664.741391,-13101.645173,-5515.887586
20877.620589,4071.132681,-11251.130318,-76.609550
20877.620922,4737.318029,-10436.903782,3830.477490
20877.621255,7920.203579,-11251.130318,8503.660028
20877.621588,5847.626942,-7550.100608,3677.258390
20877.621922,3330.926739,-8364.327145,3677.258390
20877.622255,5181.441594,-10658.965565,4826.401637
20877.622588,3108.864956,-6587.832884,2451.505594
20877.622921,2146.597232,-7624.121203,1685.410096
20877.623254,1480.411884,-7994.224174,-383.047749
20877.623588,-1258.350101,-8068.244768,-2987.772442
20877.623921,-3552.988522,-9548.656652,-3064.381992
20877.624254,-2442.679609,-10658.965565,-4519.963438
20877.624587,-5995.668130,-10436.903782,-6741.640382
20877.624920,-4737.318029,-9844.739029,-1532.190996
20877.625253,2294.638420,-8882.471304,2068.457845
20877.625587,4071.132681,-6809.894666,5898.935335
20877.625920,3997.112087,-5995.668130,4979.620737
20877.626253,2590.720797,-9178.553681,3217.601092
20877.626586,1184.329507,-7772.162391,1225.752797
20877.626919,0.000000,-9548.656652,3064.381992
20877.627253,-1258.350101,-9474.636058,-4596.572988
20877.627586,-3552.988522,-8660.409521,-5362.668486
20877.627919,-2960.823768,-11917.315666,-842.705048
20877.628252,-1702.473667,-8068.244768,-1225.752797
20877.628585,-2146.597232,-9844.739029,536.266849
20877.628918,-2072.576638,-9104.533087,689.485948
20877.629252,-2442.679609,-9104.533087,1991.848295
20877.629585,-74.020594,-8142.265362,4826.401637
20877.629918,0.000000,-7105.977043,4826.401637
20877.630251,2886.803174,-5329.482782,2451.505594
20877.630584,3552.988522,-6513.812290,4826.401637
20877.630918,518.144159,-9474.636058,-76.609550
20877.631251,-666.185348,-10584.944971,-2221.676944
20877.631584,-5255.462188,-12361.439231,-6281.983084
20877.631917,-5477.523971,-12657.521608,-6205.373534
20877.632250,-2368.659014,-9844.739029,-4903.011187
20877.632583,-2072.576638,-8956.491898,-1991.848295
20877.632917,2294.638420,-7994.224174,229.828649
20877.633250,2664.741391,-8660.409521,3677.258390
20877.633583,7031.956449,-8882.471304,6052.154434
20877.633916,2368.659014,-6883.915261,6435.202183
20877.634249,2886.803174,-10214.842000,4826.401637
20877.634583,1850.514855,-7920.203579,1991.848295
20877.634916,3478.967927,-8216.285956,2068.457845
20877.635249,4071.132681,-7254.018232,0.000000
20877.635582,0.000000,-9548.656652,-3677.258390
20877.635915,-2146.597232,-11917.315666,-6588.421283
20877.636248,-4145.153275,-12509.480420,-5286.058936
20877.636582,-2664.741391,-11547.212695,-4290.134789
20877.636915,-1776.494261,-9696.697840,-1762.019645
20877.637248,0.000000,-8068.244768,3907.087040
20877.637581,4367.215058,-7105.977043,6052.154434
20877.637914,3552.988522,-4811.338623,7354.516781
20877.638248,7031.956449,-8290.306550,6665.030833
20877.638581,2886.803174,-7402.059420,1378.971896
20877.638914,-74.020594,-10658.965565,-995.924147
20877.639247,-888.247130,-10140.821405,-1608.800546
20877.639580,444.123565,-8956.491898,-1072.533697
20877.639914,2072.576638,-9326.594869,-689.485948
20877.640247,518.144159,-9548.656652,-1991.848295
20877.640580,-1332.370696,-13027.624579,-1302.362347
20877.640913,-3627.009116,-13027.624579,-3753.867940
20877.641246,-3923.091493,-9548.656652,-1838.629195
20877.641579,-444.123565,-10066.800811,4826.401637
20877.641913,222.061783,-4219.173869,1838.629195
20877.642246,2442.679609,-6883.915261,5056.230287
20877.642579,2664.741391,-5773.606348,5132.839837
20877.642912,2516.700203,-7550.100608,3983.696590
20877.643245,0.000000,-9548.656652,612.876398
20877.643579,-1258.350101,-13027.624579,-3140.991542
20877.643912,-6069.688724,-9548.656652,-5975.544884
20877.644245,-4737.318029,-9548.656652,-3064.381992
20877.644578,-518.144159,-11251.130318,-689.485948
20877.644911,296.082377,-7476.080014,1532.190996
20877.645244,1628.453072,-9696.697840,2451.505594
20877.645578,2368.659014,-7476.080014,3524.039291
20877.645911,-740.205942,-10288.862594,2298.286494
20877.646244,1702.473667,-9178.553681,2374.896044
20877.646577,1406.391290,-7105.977043,-76.609550
20877.646910,0.000000,-8364.327145,2451.505594
20877.647244,2886.803174,-8290.306550,2374.896044
20877.647577,-3627.009116,-9178.553681,-3753.867940
20877.647910,-3552.988522,-9252.574275,-1685.410096
20877.648243,-3552.988522,-8068.244768,-3677.258390
20877.648576,-3330.926739,-9918.759623,-1991.848295
20877.648909,-148.041188,-6513.812290,-689.485948
20877.649243,3182.885551,-10658.965565,3600.648841
20877.649576,5181.441594,-7031.956449,4060.306139
20877.649909,5181.441594,-7772.162391,2911.162892
20877.650242,3552.988522,-10732.986159,1225.752797
20877.650575,592.164754,-9548.656652,-2451.505594
20877.650909,0.000000,-11917.315666,306.438199
20877.651242,1702.473667,-12435.459826,-2528.115143
20877.651575,0.000000,-7772.162391,-4903.011187
20877.651908,0.000000,-9696.697840,1608.800546
20877.652241,962.267725,-6883.915261,536.266849
20877.652574,0.000000,-6587.832884,1149.143247
20877.652908,-666.185348,-7550.100608,-459.657299
20877.653241,-1554.432478,-7624.121203,842.705048
20877.653574,-592.164754,-7550.100608,2145.067394
20877.653907,2294.638420,-7254.018232,2374.896044
20877.654240,5847.626942,-8882.471304,1762.019645
20877.654574,1776.494261,-7772.162391,1532.190996
20877.654907,1184.329507,-11029.068536,2374.896044
20877.655240,0.000000,-12213.398043,-2145.067394
20877.655573,-2368.659014,-12139.377449,-2221.676944
20877.655906,-3182.885551,-9844.739029,-3217.601092
20877.656239,-888.247130,-9104.533087,-1378.971896
20877.656573,962.267725,-9178.553681,-76.609550
20877.656906,0.000000,-5403.503377,3064.381992
20877.657239,1554.432478,-3627.009116,459.657299
20877.657572,1184.329507,-6291.750507,4903.011187
20877.657905,2294.638420,-8882.471304,2374.896044
20877.658239,-74.020594,-10066.800811,842.705048
20877.658572,592.164754,-9474.636058,842.705048
20877.658905,666.185348,-10807.006753,1532.190996
20877.659238,444.123565,-9474.636058,536.266849
20877.659571,-962.267725,-9844.739029,-2068.457845
20877.659904,-1850.514855,-13101.645173,-689.485948
20877.660238,-4737.318029,-8956.491898,-3370.820191
20877.660571,-6513.812290,-10140.821405,-612.876398
20877.660904,-2442.679609,-8290.306550,-2528.115143
20877.661237,0.000000,-5403.503377,1838.629195
20877.661570,3478.967927,-6217.729913,4213.525239
20877.661904,5329.482782,-6069.688724,6435.202183
20877.662237,3108.864956,-8438.347739,4443.353888
20877.662570,1628.453072,-8956.491898,1838.629195
20877.662903,-666.185348,-10362.883188,-1302.362347
20877.663236,-4145.153275,-11917.315666,-306.438199
20877.663569,-74.020594,-11843.295072,-689.485948
20877.663903,-74.020594,-9474.636058,-2757.943793
20877.664236,-2368.659014,-5995.668130,-3064.381992
20877.664569,-2442.679609,-9770.718434,-2911.162892
20877.664902,-2368.659014,-7920.203579,-2298.286494
20877.665235,-1628.453072,-10066.800811,-383.047749
20877.665569,-592.164754,-8956.491898,1915.238745
20877.665902,4663.297435,-6513.812290,2374.896044
20877.666235,3849.070898,-9030.512492,4826.401637
20877.666568,7179.997637,-6291.750507,5286.058936
20877.666901,4589.276840,-8660.409521,3370.820191
20877.667234,1184.329507,-10140.821405,0.000000
20877.667568,-2442.679609,-12435.459826,-5286.058936
20877.667901,-5921.647536,-11325.150913,-7354.516781
20877.668234,0.000000,-10732.986159,-76.609550
20877.668567,1998.556043,-8290.306550,-76.609550
20877.668900,1258.350101,-5995.668130,612.876398
20877.669234,1702.473667,-8586.388927,3294.210641
20877.669567,1998.556043,-7031.956449,1991.848295
20877.669900,888.247130,-8438.347739,2451.505594
20877.670233,3182.885551,-10362.883188,2374.896044
20877.670566,2886.803174,-8290.306550,-229.828649
20877.670899,1184.329507,-9844.739029,2528.115143
20877.671233,4663.297435,-11843.295072,-76.609550
20877.671566,-1184.329507,-9548.656652,-1685.410096
20877.671899,-1184.329507,-10732.986159,-383.047749
20877.672232,-3775.050304,-11621.233289,-3524.039291
20877.672565,-4219.173869,-11251.130318,-3524.039291
20877.672899,-1628.453072,-8660.409521,-536.266849
20877.673232,666.185348,-7994.224174,3524.039291
20877.673565,6883.915261,-4737.318029,4826.401637
20877.673898,3849.070898,-7179.997637,7584.345430
20877.674231,5255.462188,-7105.977043,3600.648841
20877.674564,814.226536,-9178.553681,0.000000
20877.674898,-2146.597232,-11695.253884,-1302.362347
20877.675231,-2442.679609,-10510.924376,-3983.696590
20877.675564,-3627.009116,-11991.336260,-4366.744339
20877.675897,-2664.741391,-10140.821405,-2451.505594
20877.676230,-3552.988522,-8660.409521,-1225.752797
20877.676564,-1850.514855,-8364.327145,-1838.629195
20877.676897,-4145.153275,-7179.997637,306.438199
20877.677230,-74.020594,-9474.636058,2374.896044
20877.677563,0.000000,-4811.338623,3064.381992
20877.677896,2664.741391,-4811.338623,4903.011187
20877.678229,4663.297435,-7105.977043,5362.668486
20877.678563,4885.359217,-5995.668130,3600.648841
20877.678896,370.102971,-10584.944971,383.047749
20877.679229,-74.020594,-11843.295072,-2834.553343
20877.679562,-7105.977043,-12805.562797,-5669.106685
20877.679895,-5107.421000,-11251.130318,-8044.002729
20877.680229,-1258.350101,-9252.574275,-4903.011187
20877.680562,-592.164754,-10362.883188,2068.457845
20877.680895,2886.803174,-5995.668130,1838.629195
20877.681228,4071.132681,-8142.265362,6358.592633
20877.681561,5329.482782,-5181.441594,6435.202183
20877.681895,2664.741391,-5773.606348,4903.011187
20877.682228,3478.967927,-9474.636058,3294.210641
20877.682561,1776.494261,-8364.327145,1225.752797
20877.682894,1998.556043,-9622.677246,153.219100
20877.683227,4071.132681,-9252.574275,-689.485948
20877.683560,-1702.473667,-12435.459826,-3294.210641
20877.683894,-740.205942,-13323.706956,-4290.134789
20877.684227,-4737.318029,-11325.150913,-6128.763984
20877.684560,-3552.988522,-11473.192101,-1455.581446
20877.684893,-1554.432478,-8290.306550,-689.485948
20877.685226,518.144159,-5329.482782,1838.629195
20877.685560,6957.935855,-5625.565159,8503.660028
20877.685893,5773.606348,-4737.318029,7890.783629
20877.686226,5329.482782,-6735.874072,5669.106685
20877.686559,2442.679609,-7698.141797,2298.286494
20877.686892,-666.185348,-10658.965565,-2528.115143
20877.687225,-3552.988522,-11325.150913,-2221.676944
20877.687559,-74.020594,-13619.789333,-3140.991542
20877.687892,518.144159,-9696.697840,-4290.134789
20877.688225,-2368.659014,-10732.986159,-1838.629195
20877.688558,-1258.350101,-11547.212695,-3524.039291
20877.688891,-3849.070898,-11029.068536,-1378.971896
20877.689225,-1332.370696,-8808.450710,1685.410096
20877.689558,1036.288319,-6809.894666,4136.915689
20877.689891,1480.411884,-3627.009116,3830.477490
20877.690224,2368.659014,-7772.162391,7890.783629
20877.690557,4663.297435,-4589.276840,3447.429741
20877.690890,370.102971,-5995.668130,2451.505594
20877.691224,1702.473667,-12435.459826,-76.609550
20877.691557,-7328.038826,-11621.233289,-6741.640382
20877.691890,-8068.244768,-13249.686362,-8580.269578
20877.692223,-1776.494261,-10214.842000,-2757.943793
20877.692556,1480.411884,-9992.780217,1608.800546
20877.692890,2960.823768,-6439.791695,3064.381992
20877.693223,3182.885551,-11251.130318,4826.401637
20877.693556,962.267725,-6587.832884,153.219100
20877.693889,0.000000,-7476.080014,1225.752797
20877.694222,-74.020594,-11843.295072,2374.896044
20877.694555,0.000000,-7179.997637,0.000000
20877.694889,666.185348,-10066.800811,1991.848295
20877.695222,2812.782580,-8438.347739,1838.629195
20877.695555,2442.679609,-8734.430116,383.047749
20877.695888,0.000000,-10436.903782,0.000000
20877.696221,-1258.350101,-10955.047942,-2528.115143
20877.696555,-5181.441594,-11325.150913,-3600.648841
20877.696888,-1628.453072,-9252.574275,-2298.286494
20877.697221,1702.473667,-9474.636058,1762.019645
20877.697554,3923.091493,-5551.544565,4903.011187
20877.697887,2960.823768,-5995.668130,4443.353888
20877.698220,4663.297435,-11843.295072,3600.648841
20877.698554,0.000000,-7179.997637,612.876398
20877.698887,-74.020594,-9474.636058,-76.609550
20877.699220,-1554.432478,-9918.759623,-1991.848295
20877.699553,-1850.514855,-9474.636058,-2374.896044
20877.699886,-666.185348,-9770.718434,-1149.143247
20877.700220,0.000000,-7179.997637,0.000000
20877.700553,814.226536,-9178.553681,-3677.258390
20877.700886,-74.020594,-12731.542202,-1302.362347
20877.701219,-1850.514855,-9104.533087,-1532.190996
20877.701552,-2072.576638,-7179.997637,1532.190996
20877.701885,2664.741391,-7179.997637,3983.696590
20877.702219,4145.153275,-8364.327145,7048.078582
20877.702552,5477.523971,-6365.771101,5362.668486
20877.702885,2072.576638,-8956.491898,2298.286494
20877.703218,1110.308913,-11843.295072,-76.609550
20877.703551,-3627.009116,-9548.656652,-4903.011187
20877.703885,-1258.350101,-13027.624579,-3753.867940
20877.704218,-3256.906145,-8364.327145,-3677.258390
20877.704551,-666.185348,-10658.965565,-76.609550
20877.704884,-1480.411884,-9696.697840,306.438199
20877.705217,1036.288319,-7698.141797,2681.334243
20877.705550,3034.844362,-7254.018232,4596.572988
20877.705883,1776.494261,-8290.306550,4673.182538
20877.706216,370.102971,-9474.636058,3600.648841
20877.706549,0.000000,-6587.832884,2757.943793
20877.706882,3182.885551,-7179.997637,1225.752797
20877.707215,2368.659014,-5995.668130,1225.752797
20877.707548,2294.638420,-11843.295072,-1915.238745
20877.707882,-1850.514855,-11251.130318,-5592.497135
20877.708215,-3627.009116,-13027.624579,-5898.935335
20877.708548,-7994.224174,-11621.233289,-7048.078582
20877.708881,-1406.391290,-9474.636058,-1915.238745
20877.709214,1850.514855,-8660.409521,3830.477490
20877.709547,6439.791695,-7698.141797,8503.660028
20877.709880,4515.256246,-3627.009116,6128.763984
20877.710213,4663.297435,-8142.265362,6665.030833
20877.710546,3478.967927,-5995.668130,612.876398
20877.710879,-2442.679609,-10288.862594,-689.485948
20877.711212,-222.061783,-10658.965565,-2834.553343
20877.711545,-1924.535449,-10658.965565,-3370.820191
20877.711878,148.041188,-10066.800811,-3600.648841
20877.712211,-370.102971,-11251.130318,-1991.848295
20877.712544,-518.144159,-12435.459826,-2528.115143
20877.712877,-2960.823768,-11547.212695,-2834.553343
20877.713210,-1554.432478,-9992.780217,0.000000
20877.713543,666.185348,-8216.285956,4290.134789
20877.713876,2368.659014,-3627.009116,5515.887586
20877.714209,5033.400406,-7698.141797,7277.907231
20877.714542,4663.297435,-7105.977043,4826.401637
20877.714875,1184.329507,-5995.668130,3830.477490
20877.715208,444.123565,-9844.739029,-536.266849
20877.715541,-3627.009116,-11251.130318,-6894.859482
20877.715874,-5921.647536,-12879.583391,-6588.421283
20877.716207,-1850.514855,-11769.274478,-4136.915689
20877.716540,2590.720797,-9474.636058,229.828649
20877.716873,2368.659014,-8660.409521,2451.505594
20877.717206,2960.823768,-11251.130318,3294.210641
20877.717539,518.144159,-7179.997637,612.876398
20877.717872,-1184.329507,-6587.832884,1225.752797
20877.718205,1850.514855,-9474.636058,3907.087040
20877.718538,444.123565,-5403.503377,2451.505594
20877.718871,2294.638420,-7994.224174,2911.162892
20877.719204,2072.576638,-7402.059420,1455.581446
20877.719538,-370.102971,-9252.574275,-1302.362347
20877.719871,-370.102971,-10658.965565,-1302.362347
20877.720204,-2442.679609,-14211.954086,-2528.115143
20877.720537,-5847.626942,-9548.656652,-4903.011187
20877.720870,-2220.617826,-10732.986159,1225.752797
20877.721203,4071.132681,-8882.471304,3447.429741
20877.721536,8512.368333,-6439.791695,7890.783629
20877.721869,5181.441594,-7328.038826,5056.230287
20877.722202,1776.494261,-8808.450710,995.924147
20877.722535,-148.041188,-10658.965565,-1072.533697
20877.722868,-3478.967927,-9844.739029,-2451.505594
20877.723201,-74.020594,-10066.800811,-3447.429741
20877.723534,-4737.318029,-9548.656652,0.000000
20877.723867,1998.556043,-10362.883188,-383.047749
20877.724200,0.000000,-7105.977043,536.266849
20877.724533,148.041188,-7698.141797,1762.019645
20877.724866,-740.205942,-8142.265362,306.438199
20877.725199,-3330.926739,-8364.327145,-919.314598
20877.725532,-962.267725,-8660.409521,-459.657299
20877.725865,1184.329507,-9696.697840,3677.258390
20877.726198,3330.926739,-5995.668130,3064.381992
20877.726531,5255.462188,-10658.965565,4826.401637
20877.726864,4071.132681,-10362.883188,-76.609550
20877.727197,-1776.494261,-11029.068536,-2145.067394
20877.727530,-3034.844362,-13027.624579,-2528.115143
20877.727863,-3552.988522,-10214.842000,-3524.039291
20877.728196,-1776.494261,-10732.986159,-306.438199
20877.728529,296.082377,-8512.368333,2221.676944
20877.728862,0.000000,-6587.832884,2451.505594
20877.729195,1406.391290,-5403.503377,3370.820191
20877.729528,2442.679609,-5181.441594,3600.648841
20877.729861,888.247130,-7179.997637,2145.067394
20877.730194,-740.205942,-9992.780217,0.000000
20877.730527,0.000000,-9548.656652,0.000000
20877.730860,1702.473667,-8290.306550,-842.705048
20877.731194,2368.659014,-9548.656652,2451.505594
20877.731527,1702.473667,-11843.295072,-76.609550
20877.731860,-74.020594,-11843.295072,-2834.553343
20877.732193,-3552.988522,-11621.233289,-2374.896044
20877.732526,-4145.153275,-11029.068536,-2757.943793
20877.732859,-2146.597232,-8512.368333,0.000000
20877.733192,592.164754,-6883.915261,3677.258390
20877.733525,5551.544565,-6513.812290,8197.221829
20877.733858,1776.494261,-2442.679609,6128.763984
20877.734191,4737.318029,-7179.997637,6052.154434
20877.734524,3478.967927,-5921.647536,0.000000
20877.734857,-3256.906145,-10732.986159,0.000000
20877.735190,-74.020594,-11843.295072,-3140.991542
20877.735523,-1776.494261,-13323.706956,-1915.238745
20877.735856,0.000000,-10584.944971,-2757.943793
20877.736189,-444.123565,-11103.089130,-1149.143247
20877.736522,-1258.350101,-10658.965565,-2528.115143
20877.736855,-4737.318029,-9548.656652,-1225.752797
20877.737188,-1776.494261,-9252.574275,2451.505594
20877.737521,3478.967927,-7105.977043,2221.676944
20877.737854,1184.329507,-5995.668130,5515.887586
20877.738187,4663.297435,-6217.729913,4519.963438
20877.738520,4959.379811,-6439.791695,4749.792088
20877.738853,3478.967927,-7994.224174,2681.334243
20877.739186,148.041188,-9548.656652,-1378.971896
20877.739519,-4737.318029,-11029.068536,-6128.763984
20877.739852,-7105.977043,-13693.809927,-3447.429741
20877.740185,-1258.350101,-13027.624579,-3753.867940
20877.740518,0.000000,-7846.182985,-3064.381992
20877.740851,0.000000,-9548.656652,1838.629195
20877.741184,2738.761985,-7105.977043,1838.629195
20877.741517,1480.411884,-7179.997637,4519.963438
20877.741850,2294.638420,-6661.853478,4213.525239
20877.742183,518.144159,-8438.347739,2987.772442
20877.742516,1480.411884,-5995.668130,1762.019645
20877.742850,2812.782580,-9178.553681,2374.896044
20877.743183,2294.638420,-7846.182985,-76.609550
20877.743516,592.164754,-9252.574275,-2221.676944
20877.743849,-74.020594,-13619.789333,-2834.553343
20877.744182,-1258.350101,-12435.459826,-4673.182538
20877.744515,-7105.977043,-13693.809927,-1838.629195
20877.744848,-2368.659014,-9548.656652,1762.019645
20877.745181,2886.803174,-7698.141797,3753.867940
20877.745514,5921.647536,-5255.462188,8580.269578
20877.745847,5551.544565,-3108.864956,6128.763984
20877.746180,1776.494261,-7328.038826,2987.772442
20877.746513,1850.514855,-7179.997637,0.000000
20877.746846,-2146.597232,-10658.965565,-2221.676944
20877.747179,-1036.288319,-9770.718434,-4979.620737
20877.747512,-4145.153275,-11325.150913,-2757.943793
20877.747845,-3034.844362,-11843.295072,-5132.839837
20877.748178,-74.020594,-9474.636058,-3370.820191
20877.748511,-1850.514855,-10658.965565,-383.047749
20877.748844,-1554.432478,-8734.430116,-1149.143247
20877.749177,-1702.473667,-10584.944971,2221.676944
20877.749510,1628.453072,-7476.080014,5056.230287
20877.749843,3552.988522,-5995.668130,6435.202183
20877.750176,7031.956449,-4737.318029,5439.278036
20877.750509,8216.285956,-9474.636058,6052.154434
20877.750842,1406.391290,-7550.100608,0.000000
20877.751175,-74.020594,-11843.295072,-2451.505594
20877.751508,-5181.441594,-12361.439231,-7354.516781
20877.751841,-5921.647536,-13249.686362,-6818.249932
20877.752174,-3034.844362,-11843.295072,-4366.744339
20877.752507,-666.185348,-11843.295072,0.000000
20877.752840,2886.803174,-8882.471304,4826.401637
20877.753173,2368.659014,-3627.009116,4903.011187
20877.753506,4663.297435,-4737.318029,4826.401637
20877.753839,4071.132681,-5921.647536,3907.087040
20877.754172,296.082377,-7179.997637,4519.963438
20877.754506,5699.585753,-9178.553681,3600.648841
20877.754839,1776.494261,-10436.903782,842.705048
20877.755172,1776.494261,-10436.903782,-995.924147
20877.755505,-814.226536,-10881.027347,-4290.134789
20877.755838,148.041188,-10732.986159,-4519.963438
20877.756171,-2368.659014,-12509.480420,-842.705048
20877.756504,-1258.350101,-11251.130318,-3830.477490
20877.756837,-2960.823768,-9844.739029,-2451.505594
20877.757170,3478.967927,-11251.130318,3600.648841
20877.757503,6735.874072,-5625.565159,7737.564530
20877.757836,4145.153275,-5699.585753,8197.221829
20877.758169,3701.029710,-4367.215058,3830.477490
20877.758502,518.144159,-8068.244768,2145.067394
20877.758835,-1184.329507,-8438.347739,-612.876398
20877.759168,-1480.411884,-10510.924376,-76.609550
20877.759501,-1776.494261,-10881.027347,-2374.896044
20877.759834,-814.226536,-10214.842000,-3447.429741
20877.760167,-2146.597232,-11325.150913,-3064.381992
20877.760500,-1258.350101,-10955.047942,-3753.867940
20877.760833,-3256.906145,-10881.027347,-2221.676944
20877.761166,-74.020594,-12731.542202,-76.609550
20877.761499,-74.020594,-9844.739029,1838.629195
20877.761832,1776.494261,-5995.668130,5209.449386
20877.762165,5551.544565,-8882.471304,7277.907231
20877.762498,4737.318029,-5107.421000,6741.640382
20877.762831,3034.844362,-4885.359217,3140.991542
20877.763164,1998.556043,-8808.450710,689.485948
20877.763497,-5773.606348,-9548.656652,-4903.011187
20877.763830,-6513.812290,-11325.150913,-4060.306139
20877.764163,-1554.432478,-10955.047942,-4366.744339
20877.764496,-74.020594,-10955.047942,-3140.991542
20877.764829,148.041188,-8364.327145,-612.876398
20877.765162,-962.267725,-9178.553681,-1838.629195
20877.765495,518.144159,-9178.553681,1149.143247
20877.765828,0.000000,-8734.430116,2451.505594
20877.766162,666.185348,-8142.265362,3370.820191
20877.766495,3256.906145,-8142.265362,6128.763984
20877.766828,4145.153275,-8512.368333,8503.660028
20877.767161,4663.297435,-6587.832884,2451.505594
20877.767494,0.000000,-8364.327145,2451.505594
20877.767827,-1480.411884,-9104.533087,-3140.991542
20877.768160,-5625.565159,-9548.656652,-4903.011187
20877.768493,-4441.235652,-11473.192101,-4903.011187
20877.768826,-2442.679609,-10807.006753,-2298.286494
20877.769159,592.164754,-9548.656652,2145.067394
20877.769492,4663.297435,-7994.224174,5439.278036
20877.769825,4663.297435,-8290.306550,6052.154434
20877.770158,1554.432478,-5995.668130,2451.505594
20877.770491,1184.329507,-9474.636058,2374.896044
20877.770824,-666.185348,-9474.636058,-1302.362347
20877.771157,-74.020594,-10214.842000,-76.609550
20877.771490,-1258.350101,-9104.533087,-1762.019645
20877.771823,-2220.617826,-9548.656652,-1915.238745
20877.772156,-1480.411884,-8068.244768,-2298.286494
20877.772489,-2368.659014,-7772.162391,-3064.381992
20877.772822,-1258.350101,-8882.471304,-3294.210641
20877.773155,-1184.329507,-9548.656652,0.000000
20877.773488,3108.864956,-11843.295072,4826.401637
20877.773821,5181.441594,-8882.471304,4213.525239
20877.774154,5551.544565,-10807.006753,7277.907231
20877.774487,4293.194464,-7772.162391,2834.553343
20877.774820,2368.659014,-9400.615463,1072.533697
20877.775153,-962.267725,-11029.068536,-2911.162892
20877.775486,-4737.318029,-10732.986159,-5209.449386
20877.775819,-4515.256246,-11399.171507,-4903.011187
20877.776152,-1258.350101,-9474.636058,-459.657299
20877.776485,0.000000,-9030.512492,2298.286494
20877.776818,518.144159,-4885.359217,1532.190996
20877.777151,0.000000,-4811.338623,1762.019645
20877.777484,2294.638420,-9474.636058,4213.525239
20877.777817,-1406.391290,-7179.997637,306.438199
20877.778151,-888.247130,-10436.903782,3064.381992
20877.778484,2294.638420,-10362.883188,2221.676944
20877.778817,1776.494261,-8364.327145,2451.505594
20877.779150,3923.091493,-9622.677246,1685.410096
20877.779483,-666.185348,-9992.780217,-2298.286494
20877.779816,-962.267725,-9474.636058,-3294.210641
20877.780149,-3552.988522,-11325.150913,-3677.258390
20877.780482,-1850.514855,-9104.533087,-4213.525239
20877.780815,-2442.679609,-8364.327145,0.000000
20877.781148,3775.050304,-8290.306550,3294.210641
20877.781481,5255.462188,-5033.400406,4519.963438
20877.781814,5625.565159,-6809.894666,7277.907231
20877.782147,3478.967927,-6587.832884,2757.943793
20877.782480,0.000000,-8956.491898,-76.609550
20877.782813,-2368.659014,-10362.883188,-2528.115143
20877.783146,-74.020594,-12287.418637,-1455.581446
20877.783479,-2442.679609,-11325.150913,-5515.887586
20877.783812,592.164754,-9918.759623,-3677.258390
20877.784145,2146.597232,-13619.789333,-689.485948
20877.784478,0.000000,-7179.997637,0.000000
20877.784811,1702.473667,-11103.089130,1149.143247
20877.785144,-592.164754,-8512.368333,842.705048
20877.785477,3478.967927,-7624.121203,3983.696590
20877.785810,2812.782580,-9474.636058,5056.230287
20877.786143,7031.956449,-8290.306550,5439.278036
20877.786476,1184.329507,-4811.338623,6128.763984
20877.786809,3478.967927,-9474.636058,-76.609550
20877.787142,0.000000,-8290.306550,-3447.429741
20877.787475,-7105.977043,-10140.821405,-4903.011187
20877.787808,-2738.761985,-11251.130318,-4979.620737
20877.788141,-3701.029710,-11843.295072,-1685.410096
20877.788474,-74.020594,-9474.636058,0.000000
20877.788807,-888.247130,-8290.306550,2298.286494
20877.789140,518.144159,-7994.224174,2374.896044
20877.789473,740.205942,-6883.915261,2604.724693
20877.789807,-74.020594,-8290.306550,2298.286494
20877.790140,74.020594,-8364.327145,1378.971896
20877.790473,592.164754,-9548.656652,3830.477490
20877.790806,3478.967927,-11547.212695,2987.772442
20877.791139,1554.432478,-8364.327145,2451.505594
20877.791472,2812.782580,-10214.842000,1762.019645
20877.791805,-2146.597232,-9548.656652,-4596.572988
20877.792138,-4737.318029,-9548.656652,-5745.716235
20877.792471,-6291.750507,-12435.459826,-3907.087040
20877.792804,-1258.350101,-9474.636058,-1072.533697
20877.793137,2072.576638,-8882.471304,4749.792088
20877.793470,4663.297435,-7105.977043,6665.030833
20877.793803,3478.967927,-7698.141797,5745.716235
20877.794136,0.000000,-7179.997637,2451.505594
20877.794469,1998.556043,-10362.883188,1149.143247
20877.794802,-74.020594,-9326.594869,-229.828649
20877.795135,-74.020594,-11473.192101,-76.609550
20877.795468,-1850.514855,-10584.944971,-2911.162892
20877.795801,-444.123565,-10584.944971,-2451.505594
20877.796134,-74.020594,-10584.944971,-306.438199
20877.796467,-1258.350101,-7476.080014,-2451.505594
20877.796800,-1554.432478,-10658.965565,-1608.800546
20877.797133,-4737.318029,-8364.327145,0.000000
20877.797466,1850.514855,-9474.636058,3600.648841
20877.797799,3849.070898,-4219.173869,4903.011187
20877.798132,5477.523971,-6217.729913,5745.716235
20877.798465,4737.318029,-6069.688724,3370.820191
20877.798798,1332.370696,-10510.924376,689.485948
20877.799131,74.020594,-9548.656652,-3370.820191
20877.799464,-3552.988522,-12213.398043,-4443.353888
20877.799797,-3034.844362,-12287.418637,-6665.030833
20877.800130,-370.102971,-13027.624579,-1838.629195
20877.800463,-74.020594,-13619.789333,-76.609550
20877.800796,518.144159,-5995.668130,1225.752797
20877.801129,2368.659014,-7179.997637,4903.011187
20877.801463,3997.112087,-5329.482782,4903.011187
20877.801796,1776.494261,-6587.832884,3677.258390
20877.802129,2294.638420,-6957.935855,2528.115143
20877.802462,4663.297435,-10362.883188,4213.525239
20877.802795,2368.659014,-8364.327145,2451.505594
20877.803128,6439.791695,-10658.965565,-76.609550
20877.803461,-2442.679609,-11547.212695,-6205.373534
20877.803794,-4737.318029,-10732.986159,-7354.516781
20877.804127,-4737.318029,-14285.974681,-4213.525239
20877.804460,-3849.070898,-11325.150913,-2911.162892
20877.804793,-1554.432478,-9474.636058,1149.143247
20877.805126,1036.288319,-7920.203579,6128.763984
20877.805459,4663.297435,-4737.318029,9116.536426
20877.805792,2960.823768,-2442.679609,6894.859482
20877.806125,2442.679609,-5921.647536,3370.820191
20877.806458,-518.144159,-7328.038826,383.047749
20877.806792,-3404.947333,-11177.109724,-2451.505594
20877.807125,-74.020594,-13619.789333,-1608.800546
20877.807458,-3552.988522,-11029.068536,-4136.915689
20877.807791,-3552.988522,-10140.821405,-2145.067394
20877.808124,-370.102971,-11843.295072,-2834.553343
20877.808457,-2368.659014,-10288.862594,-2451.505594
20877.808790,-3256.906145,-11843.295072,-76.609550
20877.809124,-1036.288319,-8068.244768,1072.533697
20877.809457,2072.576638,-7402.059420,6358.592633
20877.809790,4071.132681,-7105.977043,6818.249932
20877.810123,4663.297435,-4737.318029,7124.688131
20877.810456,3478.967927,-3627.009116,2451.505594
20877.810789,5847.626942,-8290.306550,-76.609550
20877.811123,-1184.329507,-7772.162391,-2451.505594
20877.811456,-5329.482782,-10732.986159,-5209.449386
20877.811789,-2738.761985,-13619.789333,-6511.811733
20877.812122,0.000000,-11547.212695,-3294.210641
20877.812455,2072.576638,-12361.439231,612.876398
20877.812788,1924.535449,-7476.080014,536.266849
20877.813121,888.247130,-7772.162391,-1225.752797
20877.813455,0.000000,-7179.997637,3064.381992
20877.813788,4663.297435,-8882.471304,2374.896044
20877.814121,1184.329507,-5995.668130,612.876398
20877.814454,4737.318029,-8216.285956,4826.401637
20877.814787,3478.967927,-7624.121203,2451.505594
20877.815120,5699.585753,-8216.285956,3753.867940
20877.815454,1036.288319,-6661.853478,-689.485948
20877.815787,-1110.308913,-9918.759623,-4443.353888
20877.816120,-2294.638420,-11177.109724,-4290.134789
20877.816453,-4811.338623,-14211.954086,-2834.553343
20877.816786,-1850.514855,-10658.965565,-3907.087040
20877.817119,0.000000,-9548.656652,3064.381992
20877.817452,4663.297435,-9474.636058,4826.401637
20877.817786,2738.761985,-4811.338623,2451.505594
20877.818119,962.267725,-9178.553681,2911.162892
20877.818452,1332.370696,-6365.771101,2451.505594
20877.818785,-1702.473667,-9844.739029,1455.581446
20877.819118,1258.350101,-9548.656652,306.438199
20877.819451,-1850.514855,-11103.089130,-689.485948
20877.819784,-1184.329507,-9178.553681,-842.705048
20877.820118,518.144159,-8586.388927,-842.705048
20877.820451,-2590.720797,-9474.636058,-3447.429741
20877.820784,-3849.070898,-7179.997637,-4519.963438
20877.821117,-7105.977043,-10288.862594,-612.876398
20877.821450,962.267725,-9474.636058,4826.401637
20877.821783,3478.967927,-7402.059420,3217.601092
20877.822117,4663.297435,-7994.224174,5745.716235
20877.822450,3478.967927,-7550.100608,3370.820191
20877.822783,592.164754,-8216.285956,459.657299
20877.823116,-592.164754,-9918.759623,-1762.019645
20877.823449,-3330.926739,-9548.656652,-3064.381992
20877.823782,-2442.679609,-11251.130318,-2528.115143
20877.824115,-3552.988522,-8660.409521,-229.828649
20877.824449,-74.020594,-11843.295072,-76.609550
20877.824782,1554.432478,-7105.977043,1149.143247
20877.825115,0.000000,-6291.750507,2604.724693
20877.825448,814.226536,-6661.853478,383.047749
20877.825781,-370.102971,-8808.450710,306.438199
20877.826114,-888.247130,-9770.718434,689.485948
20877.826448,4885.359217,-7402.059420,2911.162892
20877.826781,4145.153275,-7179.997637,2604.724693
20877.827114,6439.791695,-9474.636058,2221.676944
20877.827447,-666.185348,-7476.080014,-4903.011187
20877.827780,-3552.988522,-11399.171507,-4366.744339
20877.828113,-1258.350101,-11547.212695,-4060.306139
20877.828446,-3552.988522,-10140.821405,-2757.943793
20877.828780,-962.267725,-9622.677246,-1072.533697
20877.829113,2368.659014,-8586.388927,3370.820191
20877.829446,5033.400406,-6809.894666,6971.469032
20877.829779,5329.482782,-5107.421000,6128.763984
20877.830112,4663.297435,-8290.306550,1762.019645
20877.830445,0.000000,-7476.080014,-2145.067394
20877.830778,-1776.494261,-13027.624579,-76.609550
20877.831112,-74.020594,-11251.130318,-2528.115143
20877.831445,592.164754,-11843.295072,-383.047749
20877.831778,296.082377,-9770.718434,-1149.143247
20877.832111,-444.123565,-9400.615463,-1149.143247
20877.832444,-1998.556043,-10214.842000,-3217.601092
20877.832777,-1258.350101,-11843.295072,-689.485948
20877.833111,-2442.679609,-7328.038826,-3064.381992
20877.833444,2368.659014,-6883.915261,5362.668486
20877.833777,4071.132681,-9474.636058,6052.154434
20877.834110,4071.132681,-5477.523971,5132.839837
20877.834443,5255.462188,-7105.977043,5439.278036
20877.834776,444.123565,-9696.697840,1378.971896
20877.835109,-1110.308913,-9400.615463,-3064.381992
20877.835443,-6439.791695,-11769.274478,-5592.497135
20877.835776,-1406.391290,-12139.377449,-2681.334243
20877.836109,296.082377,-10584.944971,-612.876398
20877.836442,2294.638420,-10510.924376,995.924147
20877.836775,-74.020594,-8512.368333,1149.143247
20877.837108,-3256.906145,-7179.997637,0.000000
20877.837442,0.000000,-7624.121203,2911.162892
20877.837775,-74.020594,-6809.894666,1608.800546
20877.838108,-74.020594,-6217.729913,-1225.752797
20877.838441,296.082377,-8068.244768,3370.820191
20877.838774,962.267725,-9474.636058,2987.772442
20877.839107,1924.535449,-8956.491898,2145.067394
20877.839440,-1480.411884,-7179.997637,-1685.410096
20877.839774,-3330.926739,-9844.739029,-5975.544884
20877.840107,-4589.276840,-13323.706956,-4596.572988
20877.840440,-3256.906145,-11029.068536,-76.609550
20877.840773,1110.308913,-9474.636058,-459.657299
20877.841106,5033.400406,-4811.338623,3677.258390
20877.841439,5329.482782,-8512.368333,8503.660028
20877.841772,4885.359217,-4811.338623,1225.752797
20877.842106,2886.803174,-10658.965565,153.219100
20877.842439,888.247130,-10658.965565,-536.266849
20877.842772,518.144159,-9548.656652,-1225.752797
20877.843105,-74.020594,-11843.295072,-689.485948
20877.843438,-1776.494261,-10214.842000,-76.609550
20877.843771,-3923.091493,-7179.997637,-3677.258390
20877.844105,592.164754,-9474.636058,-76.609550
20877.844438,-592.164754,-10436.903782,1149.143247
20877.844771,-1850.514855,-7698.141797,-1762.019645
20877.845104,-370.102971,-8734.430116,1072.533697
20877.845437,3923.091493,-8512.368333,5132.839837
20877.845770,7254.018232,-6735.874072,7507.735880
20877.846103,2664.741391,-6587.832884,4903.011187
20877.846437,5847.626942,-8882.471304,-76.609550
20877.846770,0.000000,-11621.233289,-2451.505594
20877.847103,2738.761985,-13619.789333,-3753.867940
20877.847436,-3775.050304,-9548.656652,-5515.887586
20877.847769,-5329.482782,-11621.233289,-4519.963438
20877.848102,-1628.453072,-10288.862594,-919.314598
20877.848436,-962.267725,-9992.780217,2221.676944
20877.848769,1332.370696,-5847.626942,3064.381992
20877.849102,1776.494261,-7031.956449,5745.716235
20877.849435,2294.638420,-2812.782580,0.000000
20877.849768,592.164754,-8142.265362,2987.772442
20877.850101,2294.638420,-11251.130318,2374.896044
20877.850434,2368.659014,-7179.997637,2451.505594
20877.850768,2368.659014,-8364.327145,1838.629195
20877.851101,1480.411884,-11103.089130,-1838.629195
20877.851434,-2812.782580,-11843.295072,-5515.887586
20877.851767,-4737.318029,-12583.501014,-6741.640382
20877.852100,-3256.906145,-11843.295072,-4443.353888
20877.852433,-4293.194464,-11103.089130,-2451.505594
20877.852766,-296.082377,-8586.388927,1762.019645
20877.853100,3034.844362,-6883.915261,7354.516781
20877.853433,5329.482782,-2886.803174,10418.898773
20877.853766,4737.318029,-3182.885551,7354.516781
20877.854099,3478.967927,-5181.441594,2451.505594
20877.854432,-4145.153275,-7772.162391,612.876398
20877.854765,-2442.679609,-11843.295072,-4673.182538
20877.855099,-3404.947333,-13175.665768,-4060.306139
20877.855432,-3552.988522,-10881.027347,-3677.258390
20877.855765,-2368.659014,-10732.986159,-3830.477490
20877.856098,-2738.761985,-10881.027347,-3294.210641
20877.856431,-1332.370696,-9474.636058,-1608.800546
20877.856764,-1554.432478,-10066.800811,-76.609550
20877.857097,-74.020594,-8216.285956,1302.362347
20877.857431,2368.659014,-6143.709319,4903.011187
20877.857764,5551.544565,-8290.306550,7277.907231
20877.858097,5033.400406,-5995.668130,5209.449386
20877.858430,6069.688724,-7105.977043,4826.401637
20877.858763,3330.926739,-7179.997637,153.219100
20877.859096,-1406.391290,-11251.130318,-4673.182538
20877.859429,-6513.812290,-13397.727550,-7737.564530
20877.859763,-5699.585753,-14211.954086,-6818.249932
20877.860096,-666.185348,-9548.656652,-2451.505594
20877.860429,3775.050304,-11251.130318,2374.896044
20877.860762,1702.473667,-9474.636058,2374.896044
20877.861095,370.102971,-6143.709319,1225.752797
20877.861428,1406.391290,-7550.100608,2374.896044
20877.861762,1258.350101,-6291.750507,2221.676944
20877.862095,1998.556043,-8290.306550,2221.676944
20877.862428,2146.597232,-7624.121203,3064.381992
20877.862761,1776.494261,-8068.244768,1225.752797
20877.863094,3552.988522,-9622.677246,4290.134789
20877.863427,-74.020594,-10658.965565,-3753.867940
20877.863760,-3256.906145,-10140.821405,-4903.011187
20877.864094,-6513.812290,-11029.068536,-3217.601092
20877.864427,-2442.679609,-12435.459826,-3907.087040
20877.864760,1184.329507,-9696.697840,2987.772442
20877.865093,3552.988522,-7328.038826,6588.421283
20877.865426,4515.256246,-5255.462188,6665.030833
20877.865759,1776.494261,-4811.338623,3064.381992
20877.866093,2220.617826,-7550.100608,2221.676944
20877.866426,-148.041188,-8512.368333,-536.266849
20877.866759,-1332.370696,-9622.677246,-2834.553343
20877.867092,-1554.432478,-14211.954086,-1915.238745
20877.867425,-1554.432478,-11843.295072,-3140.991542
20877.867758,-4145.153275,-10732.986159,0.000000
20877.868091,-74.020594,-9474.636058,-689.485948
20877.868425,-666.185348,-7698.141797,-1455.581446
20877.868758,-2442.679609,-9474.636058,-76.609550
20877.869091,-296.082377,-8142.265362,1608.800546
20877.869424,2664.741391,-6143.709319,5745.716235
20877.869757,5477.523971,-7698.141797,7201.297681
20877.870090,5921.647536,-5329.482782,5822.325785
20877.870423,2368.659014,-8660.409521,2528.115143
20877.870757,0.000000,-7772.162391,-1225.752797
20877.871090,-74.020594,-13027.624579,-6205.373534
20877.871423,-3923.091493,-13027.624579,-7660.954980
20877.871756,-2368.659014,-11251.130318,-3907.087040
20877.872089,-74.020594,-11251.130318,-1915.238745
20877.872422,1998.556043,-9474.636058,2374.896044
20877.872756,1554.432478,-7105.977043,2987.772442
20877.873089,3701.029710,-5403.503377,2528.115143
20877.873422,1702.473667,-8290.306550,3294.210641
20877.873755,3775.050304,-9474.636058,6665.030833
20877.874088,3478.967927,-10362.883188,2987.772442
20877.874421,2960.823768,-8660.409521,4903.011187
20877.874754,6217.729913,-7920.203579,4903.011187
20877.875088,1628.453072,-10288.862594,-919.314598
20877.875421,-518.144159,-10807.006753,-4826.401637
20877.875754,-4367.215058,-12731.542202,-5515.887586
20877.876087,-3182.885551,-10732.986159,-4903.011187
20877.876420,-4737.318029,-7772.162391,-4596.572988
20877.876753,-370.102971,-11843.295072,-76.609550
20877.877087,0.000000,-5403.503377,2987.772442
20877.877420,1184.329507,-4811.338623,9422.974625
20877.877753,4663.297435,-4737.318029,6052.154434
20877.878086,0.000000,-6587.832884,3064.381992
20877.878419,-1258.350101,-8364.327145,0.000000
20877.878752,-3627.009116,-10288.862594,-1072.533697
20877.879085,-814.226536,-11251.130318,-689.485948
20877.879419,0.000000,-10140.821405,-919.314598
20877.879752,-74.020594,-11843.295072,-3753.867940
20877.880085,-1776.494261,-8956.491898,-3064.381992
20877.880418,-7105.977043,-11325.150913,-3064.381992
20877.880751,-1850.514855,-11843.295072,-3140.991542
20877.881084,-2960.823768,-9548.656652,1532.190996
20877.881417,-296.082377,-8808.450710,3447.429741
20877.881751,4367.215058,-5477.523971,6205.373534
20877.882084,3034.844362,-7698.141797,7048.078582
20877.882417,4737.318029,-2738.761985,5669.106685
20877.882750,296.082377,-9548.656652,1225.752797
20877.883083,-1332.370696,-9252.574275,-3677.258390
20877.883416,-5033.400406,-12213.398043,-4903.011187
20877.883750,-2442.679609,-10362.883188,-3983.696590
20877.884083,0.000000,-10732.986159,306.438199
20877.884416,1850.514855,-8882.471304,2374.896044
20877.884749,2886.803174,-8290.306550,-1608.800546
20877.885082,-814.226536,-8660.409521,0.000000
20877.885415,3478.967927,-9474.636058,2987.772442
20877.885748,0.000000,-9474.636058,1378.971896
20877.886082,1924.535449,-10066.800811,2221.676944
20877.886415,2146.597232,-8882.471304,2834.553343
20877.886748,4737.318029,-7772.162391,3064.381992
20877.887081,2368.659014,-5995.668130,2451.505594
20877.887414,2886.803174,-8290.306550,-2528.115143
20877.887747,-2368.659014,-7179.997637,-4903.011187
20877.888081,-2960.823768,-10436.903782,-2068.457845
20877.888414,-2072.576638,-9178.553681,-3294.210641
20877.888747,1184.329507,-9696.697840,1608.800546
20877.889080,3404.947333,-8438.347739,3907.087040
20877.889413,4219.173869,-7328.038826,3907.087040
20877.889746,1184.329507,-9918.759623,2298.286494
20877.890079,-3330.926739,-7476.080014,-1532.190996
20877.890413,-1850.514855,-8586.388927,-5975.544884
20877.890746,-1776.494261,-9548.656652,-76.609550
20877.891079,-74.020594,-11843.295072,-76.609550
20877.891412,0.000000,-7476.080014,0.000000
20877.891745,1702.473667,-9474.636058,1608.800546
20877.892078,2294.638420,-8882.471304,1149.143247
20877.892411,-592.164754,-9400.615463,-1685.410096
20877.892745,-1554.432478,-11251.130318,-3753.867940
20877.893078,-2220.617826,-9918.759623,-842.705048
20877.893411,148.041188,-8364.327145,766.095498
20877.893744,2368.659014,-9548.656652,7890.783629
20877.894077,4071.132681,-6809.894666,4826.401637
20877.894410,2294.638420,-8290.306550,2374.896044
20877.894744,-518.144159,-7994.224174,306.438199
20877.895077,-2368.659014,-10436.903782,-1455.581446
20877.895410,-4737.318029,-9696.697840,-3217.601092
20877.895743,-6513.812290,-7772.162391,-3677.258390
20877.896076,-666.185348,-11547.212695,-1915.238745
20877.896409,-2368.659014,-8364.327145,2145.067394
20877.896742,0.000000,-7179.997637,2221.676944
20877.897076,-74.020594,-6069.688724,0.000000
20877.897409,518.144159,-9326.594869,2374.896044
20877.897742,0.000000,-9474.636058,2374.896044
20877.898075,1480.411884,-9548.656652,3447.429741
20877.898408,6809.894666,-7402.059420,5132.839837
20877.898741,4737.318029,-9548.656652,5056.230287
20877.899075,5107.421000,-8882.471304,919.314598
20877.899408,1258.350101,-9918.759623,-3447.429741
20877.899741,-2738.761985,-11621.233289,-6205.373534
20877.900074,-2442.679609,-10732.986159,-6588.421283
20877.900407,-4145.153275,-10140.821405,-3677.258390
20877.900740,962.267725,-10362.883188,-76.609550
20877.901073,1998.556043,-8660.409521,3600.648841
20877.901407,4737.318029,-6291.750507,8350.440928
20877.901740,7031.956449,-4737.318029,7277.907231
20877.902073,1554.432478,-7179.997637,1762.019645
20877.902406,1776.494261,-7105.977043,-2528.115143
20877.902739,-1110.308913,-13915.871710,-1991.848295
20877.903072,3256.906145,-10140.821405,-2451.505594
20877.903405,2368.659014,-13545.768739,1532.190996
20877.903739,2886.803174,-11843.295072,-1915.238745
20877.904072,0.000000,-9548.656652,-2145.067394
20877.904405,-4145.153275,-10436.903782,-1532.190996
20877.904738,-74.020594,-8882.471304,-1302.362347
20877.905071,-2812.782580,-8512.368333,1225.752797
20877.905404,2886.803174,-7179.997637,5132.839837
20877.905738,2368.659014,-6291.750507,6435.202183
20877.906071,2960.823768,-7179.997637,6281.983084
20877.906404,4367.215058,-4737.318029,4826.401637
20877.906737,-74.020594,-9474.636058,-2221.676944
20877.907070,-3552.988522,-9548.656652,-3447.429741
20877.907403,-7402.059420,-15174.221811,-3753.867940
20877.907736,-4811.338623,-11695.253884,-6665.030833
20877.908070,-1554.432478,-10732.986159,-2757.943793
20877.908403,814.226536,-9474.636058,842.705048
20877.908734,296.082377,-7624.121203,2987.772442
20877.909067,-148.041188,-7920.203579,2145.067394
20877.909400,1184.329507,-5995.668130,1378.971896
20877.909733,-1776.494261,-9474.636058,2451.505594
20877.910066,0.000000,-5995.668130,2451.505594
20877.910400,2738.761985,-9474.636058,4213.525239
20877.910733,2886.803174,-6291.750507,0.000000
20877.911066,-74.020594,-8142.265362,-1685.410096
20877.911399,-1628.453072,-11547.212695,-2528.115143
20877.911732,-3923.091493,-11251.130318,-5286.058936
20877.912065,-5699.585753,-12287.418637,-3677.258390
20877.912398,-1184.329507,-7772.162391,0.000000
20877.912732,-592.164754,-10658.965565,3217.601092
20877.913065,4737.318029,-5181.441594,4826.401637
20877.913398,3775.050304,-7402.059420,4749.792088
20877.913731,3478.967927,-7698.141797,1149.143247
20877.914064,1184.329507,-9178.553681,-76.609550
20877.914397,-2960.823768,-9548.656652,-1225.752797
20877.914730,2294.638420,-9474.636058,-2528.115143
20877.915063,-814.226536,-10436.903782,-2451.505594
20877.915397,3775.050304,-11843.295072,-76.609550
20877.915730,1036.288319,-9918.759623,1149.143247
20877.916063,1628.453072,-9178.553681,0.000000
20877.916396,-740.205942,-8068.244768,-1225.752797
20877.916729,-1480.411884,-9252.574275,-995.924147
20877.917062,1702.473667,-9104.533087,2834.553343
20877.917395,0.000000,-7179.997637,6741.640382
20877.917728,8216.285956,-7105.977043,4060.306139
20877.918062,3552.988522,-5995.668130,1838.629195
20877.918395,3627.009116,-7031.956449,459.657299
20877.918728,-74.020594,-10658.965565,-3064.381992
20877.919061,-1406.391290,-11843.295072,-3907.087040
20877.919394,-3849.070898,-11473.192101,-5592.497135
20877.919727,-2738.761985,-12583.501014,-2987.772442
20877.920060,-370.102971,-9474.636058,-76.609550
20877.920394,-74.020594,-9474.636058,3600.648841
20877.920727,1702.473667,-2442.679609,0.000000
20877.921060,1332.370696,-6587.832884,4060.306139
20877.921393,1036.288319,-7105.977043,1225.752797
20877.921726,-1184.329507,-7772.162391,612.876398
20877.922059,518.144159,-11547.212695,1838.629195
20877.922392,3256.906145,-9400.615463,2145.067394
20877.922725,3404.947333,-10510.924376,3294.210641
20877.923059,1184.329507,-8364.327145,-2451.505594
20877.923392,-370.102971,-13027.624579,-4979.620737
20877.923725,-4367.215058,-13027.624579,-4979.620737
20877.924058,-7105.977043,-10140.821405,-3064.381992
20877.924391,-2442.679609,-11843.295072,-76.609550
20877.924724,-4441.235652,-7624.121203,2145.067394
20877.925057,666.185348,-6217.729913,5592.497135
20877.925391,2738.761985,-4219.173869,7507.735880
20877.925724,2442.679609,-2368.659014,4673.182538
20877.926057,296.082377,-8660.409521,2987.772442
20877.926390,-74.020594,-7698.141797,-2834.553343
20877.926723,-3552.988522,-13101.645173,766.095498
20877.927056,2072.576638,-12509.480420,-76.609550
20877.927389,-74.020594,-10658.965565,-1608.800546
20877.927722,-2812.782580,-12509.480420,-2298.286494
20877.928056,-518.144159,-9178.553681,-3983.696590
20877.928389,-4219.173869,-10732.986159,-3830.477490
20877.928722,-2146.597232,-9770.718434,-1072.533697
20877.929055,0.000000,-6883.915261,3370.820191
20877.929388,2590.720797,-6957.935855,5515.887586
20877.929721,6143.709319,-4737.318029,8197.221829
20877.930054,4441.235652,-6291.750507,8656.879127
20877.930387,6143.709319,-2664.741391,2145.067394
20877.930721,0.000000,-7476.080014,-612.876398
20877.931054,-74.020594,-11843.295072,-7431.126331
20877.931387,-5403.503377,-14063.912898,-11031.775171
20877.931720,-2220.617826,-15100.201217,-4979.620737
20877.932053,4663.297435,-12435.459826,-2221.676944
20877.932386,5847.626942,-9844.739029,1762.019645
20877.932719,3108.864956,-10140.821405,2528.115143
20877.933053,2886.803174,-7624.121203,2451.505594
20877.933386,1480.411884,-6587.832884,1225.752797
20877.933719,1184.329507,-6587.832884,4290.134789
20877.934052,5551.544565,-9178.553681,4213.525239
20877.934385,2368.659014,-5995.668130,3064.381992
20877.934718,2664.741391,-8512.368333,5056.230287
20877.935051,1110.308913,-7402.059420,-689.485948
20877.935384,-666.185348,-8586.388927,-3753.867940
20877.935718,-5033.400406,-11547.212695,-6435.202183
20877.936051,-5477.523971,-12435.459826,-6741.640382
20877.936384,-3627.009116,-13545.768739,-3140.991542
20877.936717,-1776.494261,-9548.656652,3447.429741
20877.937050,4071.132681,-7105.977043,4519.963438
20877.937383,3256.906145,-4811.338623,6128.763984
20877.937716,2368.659014,-6291.750507,6665.030833
20877.938050,2294.638420,-9178.553681,2068.457845
20877.938383,-1776.494261,-7476.080014,0.000000
20877.938716,-2220.617826,-10436.903782,-229.828649
20877.939049,-666.185348,-11399.171507,-1302.362347
20877.939382,-3478.967927,-8068.244768,-1685.410096
20877.939715,-2442.679609,-11843.295072,-2528.115143
20877.940048,-3552.988522,-5995.668130,-4903.011187
20877.940381,-5921.647536,-9844.739029,-1072.533697
20877.940715,-3182.885551,-9474.636058,-1915.238745
20877.941048,-1998.556043,-7772.162391,1532.190996
20877.941381,74.020594,-8512.368333,5132.839837
20877.941714,4589.276840,-6439.791695,5822.325785
20877.942047,2516.700203,-7698.141797,4596.572988
20877.942380,2368.659014,-7476.080014,1838.629195
20877.942713,-74.020594,-7402.059420,-4290.134789
20877.943046,-2368.659014,-12731.542202,-3140.991542
20877.943380,-2442.679609,-14211.954086,-4979.620737
20877.943713,-3330.926739,-9844.739029,-3370.820191
20877.944046,0.000000,-8660.409521,919.314598
20877.944379,1480.411884,-8068.244768,3217.601092
20877.944712,3034.844362,-6439.791695,3217.601092
20877.945045,1924.535449,-7105.977043,2451.505594
20877.945378,2368.659014,-8512.368333,3370.820191
20877.945712,222.061783,-7624.121203,0.000000
20877.946045,3478.967927,-10510.924376,2298.286494
20877.946378,4737.318029,-9178.553681,3370.820191
20877.946711,4663.297435,-8660.409521,1991.848295
20877.947044,1776.494261,-9548.656652,-2145.067394
20877.947377,-74.020594,-10658.965565,-6205.373534
20877.947710,-5921.647536,-10732.986159,-4903.011187
20877.948043,-1850.514855,-11843.295072,-4979.620737
20877.948377,-1850.514855,-9474.636058,-1608.800546
20877.948710,0.000000,-8364.327145,3677.258390
20877.949043,3997.112087,-6735.874072,7201.297681
20877.949376,4885.359217,-3849.070898,6588.421283
20877.949709,2960.823768,-5995.668130,3370.820191
20877.950042,2886.803174,-9474.636058,-76.609550
20877.950375,-666.185348,-10584.944971,-4749.792088
20877.950709,-74.020594,-13471.748144,-76.609550
20877.951042,2294.638420,-11843.295072,-3140.991542
20877.951375,0.000000,-10140.821405,-1149.143247
20877.951708,592.164754,-13027.624579,-76.609550
20877.952041,-2368.659014,-8956.491898,-842.705048
20877.952374,-2146.597232,-9178.553681,-2221.676944
20877.952707,-2590.720797,-9696.697840,-919.314598
20877.953040,-666.185348,-8586.388927,2374.896044
20877.953374,1110.308913,-3923.091493,3064.381992
20877.953707,2442.679609,-8290.306550,7277.907231
20877.954040,1702.473667,-9474.636058,4213.525239
20877.954373,0.000000,-4811.338623,2451.505594
20877.954706,-1258.350101,-9474.636058,-1302.362347
20877.955039,-5107.421000,-11251.130318,-4826.401637
20877.955372,-5477.523971,-10955.047942,-4673.182538
20877.955706,-2960.823768,-11843.295072,-1762.019645
20877.956039,1184.329507,-7179.997637,0.000000
20877.956372,888.247130,-8364.327145,3677.258390
20877.956705,2294.638420,-9474.636058,-689.485948
20877.957038,-74.020594,-7328.038826,-1838.629195
20877.957371,0.000000,-8956.491898,2451.505594
20877.957704,2294.638420,-8882.471304,-536.266849
20877.958037,2368.659014,-9918.759623,3524.039291
20877.958371,2664.741391,-8956.491898,3983.696590
20877.958704,3923.091493,-7698.141797,3907.087040
20877.959037,2368.659014,-6587.832884,0.000000
20877.959370,-518.144159,-7920.203579,-1532.190996
20877.959703,-2886.803174,-9770.718434,-3753.867940
20877.960036,-2960.823768,-10140.821405,-5209.449386
20877.960369,-1258.350101,-11843.295072,-1302.362347
20877.960702,3478.967927,-9474.636058,-76.609550
20877.961036,6143.709319,-7772.162391,3064.381992
20877.961369,7328.038826,-9474.636058,6052.154434
20877.961702,6735.874072,-8290.306550,1149.143247
20877.962035,5847.626942,-10584.944971,2298.286494
20877.962368,3849.070898,-10658.965565,459.657299
20877.962701,1480.411884,-11547.212695,-842.705048
20877.963034,1998.556043,-11251.130318,-383.047749
20877.963368,0.000000,-9770.718434,-76.609550
20877.963701,296.082377,-8956.491898,1915.238745
20877.964034,0.000000,-6587.832884,2451.505594
20877.964367,-1850.514855,-8734.430116,-2068.457845
20877.964700,-1998.556043,-9474.636058,-1915.238745
20877.965033,-3404.947333,-7772.162391,1225.752797
20877.965366,2886.803174,-7698.141797,3524.039291
20877.965699,2812.782580,-7846.182985,4213.525239
20877.966033,2960.823768,-7994.224174,3524.039291
20877.966366,1406.391290,-8512.368333,-383.047749
20877.966699,-1258.350101,-13027.624579,-2528.115143
20877.967032,-2368.659014,-11917.315666,-4903.011187
20877.967365,-5921.647536,-14508.036463,-2068.457845
20877.967698,-3627.009116,-9548.656652,-2451.505594
20877.968031,-4145.153275,-9844.739029,1532.190996
20877.968365,-1702.473667,-5403.503377,2068.457845
20877.968698,148.041188,-5477.523971,3370.820191
20877.969031,370.102971,-5403.503377,3370.820191
20877.969364,-2220.617826,-7698.141797,1685.410096
20877.969697,-4441.235652,-7179.997637,-2451.505594
20877.970030,1628.453072,-11843.295072,2987.772442
20877.970363,1406.391290,-11843.295072,2374.896044
20877.970696,1480.411884,-5995.668130,2451.505594
20877.971030,-1406.391290,-11843.295072,-2528.115143
20877.971363,-2812.782580,-9252.574275,-5669.106685
20877.971696,-5477.523971,-12065.356855,-4749.792088
20877.972029,-3627.009116,-10362.883188,-4366.744339
20877.972362,-2442.679609,-9400.615463,-612.876398
20877.972695,-2368.659014,-9844.739029,3064.381992
20877.973028,7031.956449,-7105.977043,6052.154434
20877.973361,3701.029710,-3034.844362,8886.707777
20877.973695,4737.318029,-4811.338623,7890.783629
20877.974028,2294.638420,-9474.636058,-76.609550
20877.974361,0.000000,-10140.821405,-2068.457845
20877.974694,-592.164754,-12287.418637,-1838.629195
20877.975027,2368.659014,-11695.253884,-1072.533697
20877.975360,1924.535449,-9844.739029,-1455.581446
20877.975693,-2368.659014,-10732.986159,-2451.505594
20877.976027,296.082377,-9252.574275,-3217.601092
20877.976360,-2664.741391,-10362.883188,-3370.820191
20877.976693,-1184.329507,-9104.533087,-2374.896044
20877.977026,-666.185348,-8882.471304,995.924147
20877.977359,3108.864956,-6291.750507,6435.202183
20877.977692,6217.729913,-7698.141797,9729.412825
20877.978025,7031.956449,-5921.647536,6052.154434
20877.978358,4737.318029,-4219.173869,3294.210641
20877.978692,2294.638420,-11843.295072,-76.609550
20877.979025,0.000000,-11029.068536,-5209.449386
20877.979358,-4737.318029,-14878.139434,-7584.345430
20877.979691,-518.144159,-14211.954086,-3600.648841
20877.980024,0.000000,-11325.150913,-1838.629195
20877.980357,0.000000,-7179.997637,2451.505594
20877.980690,2886.803174,-9178.553681,-76.609550
20877.981024,-370.102971,-8290.306550,-76.609550
20877.981357,370.102971,-5699.585753,1532.190996
20877.981690,0.000000,-5773.606348,2374.896044
20877.982023,2590.720797,-7624.121203,4366.744339
20877.982356,2072.576638,-7476.080014,4366.744339
20877.982689,1258.350101,-6809.894666,1378.971896
20877.983022,-148.041188,-10658.965565,-1455.581446
20877.983355,-5625.565159,-9548.656652,-4366.744339
20877.983689,-4811.338623,-10955.047942,-8427.050478
20877.984022,-7105.977043,-13101.645173,-3600.648841
20877.984355,-1184.329507,-11695.253884,2068.457845
20877.984688,0.000000,-10732.986159,3677.258390
20877.985021,5107.421000,-5329.482782,7584.345430
20877.985354,4071.132681,-5477.523971,6665.030833
20877.985687,1480.411884,-7624.121203,3983.696590
20877.986020,1110.308913,-7994.224174,229.828649
20877.986354,-1776.494261,-11103.089130,-229.828649
20877.986687,-2294.638420,-8290.306550,-3370.820191
20877.987020,-2368.659014,-10436.903782,-76.609550
20877.987353,-74.020594,-10658.965565,-1302.362347
20877.987686,-666.185348,-8882.471304,-995.924147
20877.988019,-2368.659014,-8364.327145,-3064.381992
20877.988352,-3256.906145,-8808.450710,-2451.505594
20877.988686,-2072.576638,-9548.656652,-612.876398
20877.989019,0.000000,-6587.832884,2451.505594
20877.989352,7031.956449,-8290.306550,4826.401637
20877.989685,5329.482782,-6587.832884,6741.640382
20877.990018,6513.812290,-9696.697840,6052.154434
20877.990351,4663.297435,-7550.100608,-2221.676944
20877.990684,2886.803174,-10288.862594,-2834.553343
20877.991017,888.247130,-13915.871710,-5209.449386
20877.991351,-222.061783,-13323.706956,-3753.867940
20877.991684,-444.123565,-12287.418637,-766.095498
20877.992017,1184.329507,-8956.491898,1225.752797
20877.992350,1998.556043,-7105.977043,1149.143247
20877.992683,1406.391290,-7328.038826,1762.019645
20877.993016,0.000000,-5847.626942,2528.115143
20877.993349,-1184.329507,-7328.038826,459.657299
20877.993683,-2368.659014,-7476.080014,0.000000
20877.994016,1998.556043,-9474.636058,3600.648841
20877.994349,1406.391290,-4811.338623,2451.505594
20877.994682,4663.297435,-8882.471304,2374.896044
20877.995015,-74.020594,-11843.295072,-689.485948
20877.995348,-3923.091493,-9548.656652,-6741.640382
20877.995681,-3627.009116,-12657.521608,-5669.106685
20877.996014,-2960.823768,-12213.398043,-3370.820191
20877.996348,-2146.597232,-11103.089130,-229.828649
20877.996681,0.000000,-9252.574275,4290.134789
20877.997014,4663.297435,-8290.306550,4826.401637
20877.997347,2516.700203,-4219.173869,4903.011187
20877.997680,3923.091493,-8290.306550,4826.401637
20877.998013,-1998.556043,-7105.977043,-689.485948
20877.998346,-3256.906145,-9844.739029,-76.609550
20877.998679,-2590.720797,-9918.759623,-919.314598
20877.999013,-888.247130,-11621.233289,689.485948
20877.999346,1110.308913,-7846.182985,-229.828649
20877.999679,-74.020594,-11251.130318,-76.609550
20878.000012,-666.185348,-9474.636058,-5898.935335
20878.000345,-6513.812290,-10732.986159,-2911.162892
20878.000678,-6513.812290,-11917.315666,-995.924147
20878.001011,-1258.350101,-8734.430116,0.000000
20878.001345,1332.370696,-9474.636058,4826.401637
20878.001678,3478.967927,-7846.182985,5822.325785
20878.002011,3849.070898,-5921.647536,6665.030833
20878.002344,4959.379811,-5477.523971,4443.353888
20878.002677,2738.761985,-6513.812290,1762.019645
20878.003010,-1184.329507,-9548.656652,-4903.011187
20878.003343,-2368.659014,-11473.192101,-3677.258390
20878.003676,-370.102971,-13027.624579,-3140.991542
20878.004010,2294.638420,-9770.718434,-2451.505594
20878.004343,2294.638420,-9474.636058,-76.609550
20878.004676,296.082377,-8364.327145,-1685.410096
20878.005009,0.000000,-9326.594869,-383.047749
20878.005342,592.164754,-8660.409521,0.000000
20878.005675,296.082377,-8364.327145,919.314598
20878.006008,3108.864956,-9104.533087,4443.353888
20878.006342,5181.441594,-7994.224174,5362.668486
20878.006675,4293.194464,-7105.977043,4290.134789
20878.007008,3256.906145,-7772.162391,1532.190996
20878.007341,888.247130,-9400.615463,-2604.724693
20878.007674,-2442.679609,-11399.171507,-7737.564530
20878.008007,-3552.988522,-13545.768739,-3677.258390
20878.008340,-74.020594,-13619.789333,-842.705048
20878.008673,2368.659014,-8956.491898,3677.258390
20878.009007,6513.812290,-6365.771101,7277.907231
20878.009340,4885.359217,-6661.853478,5515.887586
20878.009673,2664.741391,-7550.100608,2451.505594
20878.010006,-74.020594,-9474.636058,-383.047749
20878.010339,-4145.153275,-10732.986159,-2451.505594
20878.010672,-2368.659014,-11621.233289,-76.609550
20878.011006,-1850.514855,-10214.842000,-3064.381992
20878.011339,-1184.329507,-7179.997637,-2451.505594
20878.011672,-74.020594,-9474.636058,2374.896044
20878.012005,-74.020594,-8290.306550,-689.485948
20878.012338,-4145.153275,-8364.327145,-2451.505594
20878.012671,-3701.029710,-10807.006753,-2298.286494
20878.013005,74.020594,-9844.739029,2374.896044
20878.013338,5551.544565,-9178.553681,6665.030833
20878.013671,4737.318029,-7476.080014,9116.536426
20878.014004,3478.967927,-9474.636058,2987.772442
20878.014337,0.000000,-8364.327145,766.095498
20878.014670,-3552.988522,-10732.986159,-1838.629195
20878.015004,-3627.009116,-11251.130318,-6435.202183
20878.015337,-5329.482782,-11399.171507,-4060.306139
20878.015670,-3330.926739,-9992.780217,-1072.533697
20878.016003,-962.267725,-8290.306550,1915.238745
20878.016336,-1184.329507,-4811.338623,766.095498
20878.016669,0.000000,-7328.038826,3907.087040
20878.017003,-1258.350101,-5995.668130,0.000000
20878.017336,-2738.761985,-6587.832884,0.000000
20878.017669,-666.185348,-11843.295072,-76.609550
20878.018002,370.102971,-8956.491898,1378.971896
20878.018335,3775.050304,-9770.718434,2987.772442
20878.018668,4811.338623,-8882.471304,2911.162892
20878.019002,1332.370696,-9326.594869,-995.924147
20878.019335,-1628.453072,-10214.842000,-4903.011187
20878.019668,-74.020594,-14211.954086,-3140.991542
20878.020001,-370.102971,-11991.336260,-3983.696590
20878.020334,296.082377,-10436.903782,2451.505594
20878.020667,2294.638420,-11843.295072,6052.154434
20878.021000,2516.700203,-3627.009116,6435.202183
20878.021334,4071.132681,-4145.153275,3907.087040
20878.021667,2368.659014,-6217.729913,2374.896044
20878.022000,-666.185348,-8438.347739,-1072.533697
20878.022333,-2368.659014,-9992.780217,-4903.011187
20878.022666,-666.185348,-12139.377449,-1378.971896
20878.022999,1480.411884,-10584.944971,-76.609550
20878.023333,666.185348,-9030.512492,-1302.362347
20878.023666,-666.185348,-9474.636058,-3447.429741
20878.023999,0.000000,-8956.491898,-3677.258390
20878.024332,-518.144159,-11843.295072,-689.485948
20878.024665,2294.638420,-10658.965565,-76.609550
20878.024998,1850.514855,-7772.162391,3677.258390
20878.025332,7031.956449,-7698.141797,8503.660028
20878.025665,5699.585753,-7105.977043,6741.640382
20878.025998,5699.585753,-7920.203579,4826.401637
