#time,accel_x,accel_y,accel_z
22539.108074,1776.494261,-8364.327145,2068.457845
22539.108407,2294.638420,-8290.306550,-1915.238745
22539.108740,2072.576638,-8438.347739,-2911.162892
22539.109074,1332.370696,-9548.656652,-3677.258390
22539.109407,3478.967927,-10658.965565,-1455.581446
22539.109740,3182.885551,-8808.450710,-3370.820191
22539.110073,4737.318029,-7772.162391,1225.752797
22539.110407,9400.615463,-10658.965565,3600.648841
22539.110740,7402.059420,-7179.997637,2451.505594
22539.111073,12361.439231,-9474.636058,4213.525239
22539.111407,10510.924376,-7624.121203,3370.820191
22539.111740,10288.862594,-8364.327145,1838.629195
22539.112073,8586.388927,-9104.533087,-306.438199
22539.112406,8216.285956,-9474.636058,-2528.115143
22539.112740,5329.482782,-7179.997637,-3064.381992
22539.113073,8512.368333,-11251.130318,-1915.238745
22539.113406,8808.450710,-10658.965565,-3753.867940
22539.113740,7402.059420,-10140.821405,0.000000
22539.114073,8808.450710,-10362.883188,1455.581446
22539.114406,7476.080014,-10362.883188,2987.772442
22539.114739,5551.544565,-11621.233289,2757.943793
22539.115073,5625.565159,-9400.615463,3830.477490
22539.115406,4737.318029,-7772.162391,3677.258390
22539.115739,3552.988522,-5995.668130,5515.887586
22539.116073,7031.956449,-7105.977043,2374.896044
22539.116406,4293.194464,-3627.009116,-1838.629195
22539.116739,5329.482782,-6291.750507,1838.629195
22539.117072,7031.956449,-6069.688724,-3447.429741
22539.117406,7031.956449,-8660.409521,-3830.477490
22539.117739,6809.894666,-10140.821405,-3830.477490
22539.118072,8956.491898,-10584.944971,-2757.943793
22539.118406,8438.347739,-11325.150913,-2374.896044
22539.118739,11103.089130,-12879.583391,383.047749
22539.119072,10584.944971,-11843.295072,1225.752797
22539.119405,9844.739029,-11251.130318,2451.505594
22539.119739,11177.109724,-10658.965565,3294.210641
22539.120072,11177.109724,-8882.471304,4213.525239
22539.120405,8290.306550,-4811.338623,4290.134789
22539.120739,12657.521608,-8290.306550,4826.401637
22539.121072,8956.491898,-5403.503377,0.000000
22539.121405,8364.327145,-9474.636058,-76.609550
22539.121738,6661.853478,-10658.965565,-2528.115143
22539.122072,6143.709319,-10362.883188,-2834.553343
22539.122405,5847.626942,-11251.130318,-3217.601092
22539.122738,5551.544565,-10436.903782,-2451.505594
22539.123072,11177.109724,-9474.636058,-76.609550
22539.123405,9474.636058,-9548.656652,4903.011187
22539.123738,13249.686362,-9474.636058,4826.401637
22539.124071,12361.439231,-7105.977043,1149.143247
22539.124405,8364.327145,-6957.935855,-1072.533697
22539.124738,8438.347739,-6291.750507,-1225.752797
22539.125071,8512.368333,-7772.162391,-3217.601092
22539.125405,6957.935855,-9104.533087,-3600.648841
22539.125738,7698.141797,-11917.315666,-612.876398
22539.126071,8216.285956,-10362.883188,0.000000
22539.126404,12731.542202,-11843.295072,6052.154434
22539.126738,14137.933492,-9326.594869,4213.525239
22539.127071,13323.706956,-4811.338623,2451.505594
22539.127404,15692.365970,-6661.853478,5515.887586
22539.127738,14359.995275,-6143.709319,1762.019645
22539.128071,12139.377449,-9400.615463,-1455.581446
22539.128404,8586.388927,-11399.171507,-4366.744339
22539.128737,5847.626942,-12435.459826,-5286.058936
22539.129071,3552.988522,-9548.656652,-5515.887586
22539.129404,8512.368333,-10658.965565,-3753.867940
22539.129737,11177.109724,-8290.306550,-689.485948
22539.130071,12139.377449,-6587.832884,6128.763984
22539.130404,17098.757260,-8882.471304,9116.536426
22539.130737,14656.077652,-9474.636058,7584.345430
22539.131070,12361.439231,-10362.883188,5132.839837
22539.131404,12361.439231,-7698.141797,2068.457845
22539.131737,12879.583391,-7328.038826,1225.752797
22539.132070,14211.954086,-9178.553681,1762.019645
22539.132404,10288.862594,-8068.244768,-5515.887586
22539.132737,5921.647536,-10732.986159,-6128.763984
22539.133070,4293.194464,-12731.542202,-5592.497135
22539.133403,5847.626942,-13619.789333,-4979.620737
22539.133737,7698.141797,-10955.047942,-2987.772442
22539.134070,11251.130318,-10140.821405,4903.011187
22539.134403,16062.468941,-5033.400406,9729.412825
22539.134737,15322.262999,-7105.977043,9729.412825
22539.135070,15988.448347,-9474.636058,9729.412825
22539.135403,13323.706956,-6291.750507,5362.668486
22539.135736,12435.459826,-8438.347739,1838.629195
22539.136070,10436.903782,-7105.977043,-3294.210641
22539.136403,3997.112087,-7772.162391,-9499.584175
22539.136736,2516.700203,-11695.253884,-8044.002729
22539.137070,5847.626942,-13027.624579,-5592.497135
22539.137403,5255.462188,-9548.656652,-3677.258390
22539.137736,9474.636058,-8660.409521,689.485948
22539.138069,11177.109724,-9178.553681,995.924147
22539.138403,9178.553681,-9400.615463,4213.525239
22539.138736,11399.171507,-9400.615463,6128.763984
22539.139069,15840.407159,-5107.421000,7354.516781
22539.139403,16580.613101,-8364.327145,9806.022374
22539.139736,12435.459826,-8216.285956,7277.907231
22539.140069,4145.153275,-9548.656652,-4596.572988
22539.140402,1184.329507,-10140.821405,-9499.584175
22539.140736,7031.956449,-9474.636058,-5898.935335
22539.141069,5033.400406,-8364.327145,-4903.011187
22539.141402,10288.862594,-7254.018232,-459.657299
22539.141736,4737.318029,-11325.150913,-2757.943793
22539.142069,9696.697840,-11843.295072,1685.410096
22539.142402,16506.592507,-7698.141797,7277.907231
22539.142735,16506.592507,-13027.624579,7277.907231
22539.143069,11843.295072,-5995.668130,7354.516781
22539.143402,11769.274478,-10066.800811,4826.401637
22539.143735,11769.274478,-10066.800811,1149.143247
22539.144069,13767.830521,-7031.956449,4443.353888
22539.144402,9474.636058,-9548.656652,-3064.381992
22539.144735,8216.285956,-10362.883188,-4903.011187
22539.145068,4959.379811,-12213.398043,-4136.915689
22539.145402,5921.647536,-6291.750507,-4903.011187
22539.145735,8808.450710,-8882.471304,-1302.362347
22539.146068,10288.862594,-2738.761985,-1838.629195
22539.146402,10362.883188,-11695.253884,6358.592633
22539.146735,13545.768739,-5921.647536,2374.896044
22539.147068,11769.274478,-11251.130318,2374.896044
22539.147402,13619.789333,-9178.553681,5515.887586
22539.147735,13027.624579,-9696.697840,3064.381992
22539.148068,9696.697840,-9622.677246,1225.752797
22539.148401,9030.512492,-8808.450710,-2834.553343
22539.148735,5329.482782,-10140.821405,-3677.258390
22539.149068,11547.212695,-9474.636058,1225.752797
22539.149401,12213.398043,-6513.812290,-4060.306139
22539.149735,5847.626942,-14656.077652,-2528.115143
22539.150068,9622.677246,-5329.482782,-1608.800546
22539.150401,11547.212695,-13027.624579,2374.896044
22539.150734,14211.954086,-8438.347739,6128.763984
22539.151068,11473.192101,-7994.224174,1532.190996
22539.151401,11547.212695,-12879.583391,1762.019645
22539.151734,11103.089130,-7624.121203,4903.011187
22539.152068,12361.439231,-7994.224174,1608.800546
22539.152401,9770.718434,-8808.450710,3907.087040
22539.152734,5181.441594,-9696.697840,-842.705048
22539.153067,2368.659014,-8660.409521,-4903.011187
22539.153401,6439.791695,-5329.482782,-5132.839837
22539.153734,7698.141797,-7772.162391,-766.095498
22539.154067,9992.780217,-8290.306550,-76.609550
22539.154401,8808.450710,-7994.224174,-76.609550
22539.154734,6883.915261,-11547.212695,-229.828649
22539.155067,10140.821405,-10140.821405,842.705048
22539.155400,7105.977043,-12583.501014,2987.772442
22539.155734,9696.697840,-6069.688724,612.876398
22539.156067,7624.121203,-11843.295072,3600.648841
22539.156400,5403.503377,-6587.832884,-2451.505594
22539.156734,7105.977043,-9548.656652,4290.134789
22539.157067,8808.450710,-9474.636058,-76.609550
22539.157400,4737.318029,-10732.986159,2451.505594
22539.157733,3182.885551,-7105.977043,-3447.429741
22539.158067,5107.421000,-9474.636058,-1685.410096
22539.158400,1850.514855,-8956.491898,-766.095498
22539.158733,7994.224174,-7846.182985,1225.752797
22539.159067,4071.132681,-7476.080014,766.095498
22539.159400,2960.823768,-9548.656652,2451.505594
22539.159733,3256.906145,-10362.883188,3907.087040
22539.160066,4071.132681,-11547.212695,-383.047749
22539.160400,4145.153275,-7698.141797,1915.238745
22539.160733,1184.329507,-7179.997637,-1225.752797
22539.161066,962.267725,-9178.553681,-1915.238745
22539.161400,2590.720797,-8882.471304,-1608.800546
22539.161733,-518.144159,-12583.501014,-2451.505594
22539.162066,4145.153275,-6587.832884,0.000000
22539.162399,6513.812290,-11325.150913,3600.648841
22539.162733,11769.274478,-4441.235652,5515.887586
22539.163066,7402.059420,-4811.338623,0.000000
22539.163399,8216.285956,-13397.727550,6052.154434
22539.163733,2590.720797,-10436.903782,0.000000
22539.164066,3182.885551,-7920.203579,-2757.943793
22539.164399,5107.421000,-15026.180623,1838.629195
22539.164732,2516.700203,-4515.256246,-2374.896044
22539.165066,-2368.659014,-12509.480420,0.000000
22539.165399,-74.020594,-5329.482782,-3447.429741
22539.165732,2738.761985,-9030.512492,229.828649
22539.166066,-2812.782580,-9696.697840,1072.533697
22539.166399,4663.297435,-3552.988522,2374.896044
22539.166732,-74.020594,-8290.306550,1149.143247
22539.167065,2960.823768,-11325.150913,4903.011187
22539.167399,12435.459826,-4219.173869,6665.030833
22539.167732,4663.297435,-13471.748144,3753.867940
22539.168065,8660.409521,-7105.977043,1149.143247
22539.168399,148.041188,-11029.068536,-5515.887586
22539.168732,-4367.215058,-19911.539840,-4749.792088
22539.169065,740.205942,-8142.265362,-2757.943793
22539.169398,-3552.988522,-11917.315666,-2298.286494
22539.169732,6439.791695,-7105.977043,1762.019645
22539.170065,0.000000,-6883.915261,5132.839837
22539.170398,3330.926739,-5921.647536,3907.087040
22539.170732,222.061783,-5995.668130,3677.258390
22539.171065,2664.741391,-3627.009116,-1072.533697
22539.171398,3849.070898,-9030.512492,4749.792088
22539.171731,3256.906145,-3701.029710,-229.828649
22539.172065,2368.659014,-9992.780217,-766.095498
22539.172398,-1258.350101,-15396.283594,-1302.362347
22539.172731,2146.597232,-11399.171507,-4903.011187
22539.173065,-1850.514855,-17172.777854,-2528.115143
22539.173398,-74.020594,-10362.883188,-4366.744339
22539.173731,-4441.235652,-8364.327145,-3677.258390
22539.174064,2368.659014,-10658.965565,689.485948
22539.174398,7031.956449,-8882.471304,8963.317327
22539.174731,5773.606348,-6069.688724,9039.926876
22539.175064,2368.659014,-9178.553681,7277.907231
22539.175398,-666.185348,-4737.318029,1762.019645
22539.175731,-3552.988522,-7476.080014,1378.971896
22539.176064,-1258.350101,-5699.585753,1532.190996
22539.176397,-3552.988522,-3034.844362,-2451.505594
22539.176731,-5921.647536,-12953.603985,-4366.744339
22539.177064,-4811.338623,-13027.624579,-4366.744339
22539.177397,-3923.091493,-8882.471304,-4060.306139
22539.177731,-7179.997637,-13693.809927,-4213.525239
22539.178064,-222.061783,-5181.441594,-1685.410096
22539.178397,-1184.329507,-9992.780217,2374.896044
22539.178730,9252.574275,-7105.977043,6052.154434
22539.179064,3552.988522,-7179.997637,4290.134789
22539.179397,-74.020594,-17468.860231,7277.907231
22539.179730,5847.626942,-3330.926739,612.876398
22539.180064,-1184.329507,-13323.706956,3447.429741
22539.180397,2294.638420,-4441.235652,842.705048
22539.180730,-4219.173869,-6513.812290,-4903.011187
22539.181063,-3478.967927,-11251.130318,-3140.991542
22539.181397,-370.102971,-7698.141797,-689.485948
22539.181730,-74.020594,-11251.130318,-3140.991542
22539.182063,-2220.617826,-10288.862594,76.609550
22539.182397,-2886.803174,-9030.512492,-4826.401637
22539.182730,3478.967927,-10362.883188,2987.772442
22539.183063,4737.318029,-4811.338623,3677.258390
22539.183396,7328.038826,-10658.965565,3294.210641
22539.183730,2220.617826,-8364.327145,0.000000
22539.184063,740.205942,-15396.283594,-76.609550
22539.184396,1628.453072,-10584.944971,-2451.505594
22539.184730,-1258.350101,-12509.480420,-3600.648841
22539.185063,1406.391290,-9104.533087,3524.039291
22539.185396,-1998.556043,-4811.338623,612.876398
22539.185729,1702.473667,-7772.162391,1608.800546
22539.186063,1924.535449,-5921.647536,5132.839837
22539.186396,1406.391290,-7698.141797,-76.609550
22539.186729,-1776.494261,-7772.162391,2451.505594
22539.187063,-2960.823768,-2442.679609,-3677.258390
22539.187396,-74.020594,-13915.871710,-1302.362347
22539.187729,0.000000,-9548.656652,2145.067394
22539.188062,4663.297435,-7772.162391,0.000000
22539.188396,1998.556043,-13323.706956,0.000000
22539.188729,888.247130,-12139.377449,-1838.629195
22539.189062,-666.185348,-10362.883188,-4673.182538
22539.189396,-1554.432478,-14211.954086,-76.609550
22539.189729,0.000000,-8512.368333,306.438199
22539.190062,-74.020594,-9474.636058,3600.648841
22539.190395,-74.020594,-5921.647536,1455.581446
22539.190729,1998.556043,-4145.153275,4519.963438
22539.191062,4959.379811,-2442.679609,3830.477490
22539.191395,1628.453072,-9252.574275,2374.896044
22539.191728,592.164754,-7624.121203,689.485948
22539.192061,-6217.729913,-11917.315666,-4290.134789
22539.192395,2590.720797,-10436.903782,-2451.505594
22539.192728,4663.297435,-10658.965565,-76.609550
22539.193061,-1850.514855,-13841.851115,-2451.505594
22539.193394,-1776.494261,-7179.997637,-3677.258390
22539.193727,-5551.544565,-18431.127956,-2528.115143
22539.194060,-4145.153275,-9252.574275,-2451.505594
22539.194393,2812.782580,-5033.400406,3140.991542
22539.194727,0.000000,-6883.915261,4290.134789
22539.195060,5847.626942,-7105.977043,6971.469032
22539.195393,888.247130,-3256.906145,2987.772442
22539.195726,-3552.988522,-9548.656652,3677.258390
22539.196059,1110.308913,-7698.141797,2374.896044
22539.196392,-74.020594,-8290.306550,-2528.115143
22539.196726,-5773.606348,-13101.645173,-1225.752797
22539.197059,-1776.494261,-6661.853478,-2528.115143
22539.197392,-6365.771101,-11325.150913,-5362.668486
22539.197725,-1036.288319,-12731.542202,-76.609550
22539.198058,592.164754,-9696.697840,229.828649
22539.198391,1776.494261,-11251.130318,2374.896044
22539.198724,0.000000,-10066.800811,766.095498
22539.199058,444.123565,-9030.512492,-1455.581446
22539.199391,3182.885551,-9474.636058,8044.002729
22539.199724,2294.638420,-5995.668130,2451.505594
22539.200057,5477.523971,-6069.688724,6052.154434
22539.200390,-3034.844362,-10658.965565,-76.609550
22539.200723,0.000000,-9548.656652,1225.752797
22539.201056,444.123565,-6661.853478,-383.047749
22539.201390,-666.185348,-11251.130318,-4366.744339
22539.201723,1184.329507,-4811.338623,-1915.238745
22539.202056,-5847.626942,-13693.809927,-5592.497135
22539.202389,2442.679609,-10807.006753,-2681.334243
22539.202722,-2368.659014,-9844.739029,0.000000
22539.203055,2960.823768,-10807.006753,4213.525239
22539.203388,6439.791695,-3034.844362,2451.505594
22539.203722,0.000000,-15470.304188,6128.763984
22539.204055,6143.709319,-7105.977043,3907.087040
22539.204388,-1110.308913,-8660.409521,2757.943793
22539.204721,5255.462188,-7698.141797,1455.581446
22539.205054,1184.329507,-7846.182985,0.000000
22539.205387,-1406.391290,-7994.224174,-995.924147
22539.205720,-74.020594,-9474.636058,-1915.238745
22539.206054,-1850.514855,-18357.107362,-76.609550
22539.206387,1998.556043,-1850.514855,0.000000
22539.206720,-6957.935855,-12213.398043,0.000000
22539.207053,3701.029710,1406.391290,995.924147
22539.207386,888.247130,-12657.521608,2068.457845
22539.207719,2220.617826,-12287.418637,5362.668486
22539.208052,4663.297435,-8068.244768,2145.067394
22539.208386,-518.144159,-15840.407159,1149.143247
22539.208719,1850.514855,-7254.018232,-1532.190996
22539.209052,-4219.173869,-11103.089130,-4673.182538
22539.209385,-4737.318029,-7772.162391,612.876398
22539.209718,1110.308913,-9474.636058,-2834.553343
22539.210051,-2960.823768,-9548.656652,0.000000
22539.210385,-888.247130,-8290.306550,4826.401637
22539.210718,0.000000,-8216.285956,5669.106685
22539.211051,5847.626942,888.247130,5132.839837
22539.211384,-2516.700203,-8882.471304,459.657299
22539.211717,5625.565159,-6143.709319,1225.752797
22539.212050,-3552.988522,-12509.480420,-1838.629195
22539.212383,4663.297435,-13619.789333,-76.609550
22539.212717,-1850.514855,-11251.130318,-3753.867940
22539.213050,-9178.553681,-14878.139434,-4903.011187
22539.213383,-1406.391290,-10658.965565,-3753.867940
22539.213716,-5625.565159,-11029.068536,-1302.362347
22539.214049,814.226536,-8142.265362,1378.971896
22539.214382,-3701.029710,-5107.421000,2374.896044
22539.214715,1184.329507,-8290.306550,4903.011187
22539.215049,0.000000,-5995.668130,6128.763984
22539.215382,2664.741391,-5477.523971,5898.935335
22539.215715,666.185348,-6957.935855,-153.219100
22539.216048,3701.029710,-10362.883188,383.047749
22539.216381,2368.659014,-9696.697840,2451.505594
22539.216714,-1258.350101,-9548.656652,-1838.629195
22539.217047,0.000000,-6587.832884,-2834.553343
22539.217381,-4811.338623,-15988.448347,-6818.249932
22539.217714,-2442.679609,-12435.459826,-6205.373534
22539.218047,-2368.659014,-13323.706956,-1302.362347
22539.218380,-2368.659014,-10214.842000,-689.485948
22539.218713,222.061783,-4737.318029,766.095498
22539.219046,1110.308913,-10066.800811,5745.716235
22539.219379,7624.121203,-2368.659014,7277.907231
22539.219713,1184.329507,-7179.997637,4903.011187
22539.220046,8216.285956,-11843.295072,2987.772442
22539.220379,2738.761985,-9548.656652,4903.011187
22539.220712,1184.329507,-5995.668130,2451.505594
22539.221045,4071.132681,-9326.594869,1149.143247
22539.221378,1554.432478,-5329.482782,-7737.564530
22539.221712,-3701.029710,-15026.180623,-8503.660028
22539.222045,-6661.853478,-16136.489536,-8197.221829
22539.222378,-2146.597232,-11325.150913,-6358.592633
22539.222711,-3552.988522,-11325.150913,2681.334243
22539.223044,6439.791695,-5921.647536,3907.087040
22539.223377,5551.544565,-3923.091493,6128.763984
22539.223710,6587.832884,-6513.812290,7277.907231
22539.224044,6069.688724,-6587.832884,5669.106685
22539.224377,4589.276840,-6661.853478,4443.353888
22539.224710,6883.915261,-7105.977043,3294.210641
22539.225043,-3552.988522,-13397.727550,-2451.505594
22539.225376,-2072.576638,-10436.903782,-5822.325785
22539.225709,-4811.338623,-17468.860231,-3753.867940
22539.226042,-3627.009116,-11843.295072,-7048.078582
22539.226376,-4145.153275,-6291.750507,-3064.381992
22539.226709,-8660.409521,-12509.480420,-689.485948
22539.227042,-1184.329507,-6587.832884,2451.505594
22539.227375,148.041188,-5773.606348,6971.469032
22539.227708,5255.462188,-3182.885551,7660.954980
22539.228041,7476.080014,-1776.494261,9422.974625
22539.228374,-2960.823768,-9548.656652,612.876398
22539.228708,3701.029710,-3256.906145,-689.485948
22539.229041,-3627.009116,-16580.613101,-5132.839837
22539.229374,74.020594,-8216.285956,-8120.612279
22539.229707,-1850.514855,-15248.242405,-6818.249932
22539.230040,-7179.997637,-21391.951724,-5822.325785
22539.230373,518.144159,-9474.636058,-1608.800546
22539.230706,-8364.327145,-20133.601622,-689.485948
22539.231040,5255.462188,-2368.659014,6128.763984
22539.231373,1110.308913,-4737.318029,9729.412825
22539.231706,2516.700203,-1998.556043,6128.763984
22539.232039,4663.297435,-4293.194464,10112.460574
22539.232372,962.267725,-3627.009116,5515.887586
22539.232705,6217.729913,1110.308913,0.000000
22539.233038,-3034.844362,-11843.295072,-4596.572988
22539.233372,-1258.350101,-11843.295072,-12334.137518
22539.233705,-6143.709319,-15470.304188,-11338.213370
22539.234038,-4145.153275,-16654.633695,-7354.516781
22539.234371,592.164754,-10140.821405,-4903.011187
22539.234704,-2368.659014,-14582.057057,2145.067394
22539.235037,3775.050304,-8660.409521,3294.210641
22539.235371,1480.411884,-11473.192101,9269.755526
22539.235704,9400.615463,-4737.318029,9729.412825
22539.236037,4737.318029,-3034.844362,6741.640382
22539.236370,7624.121203,-4145.153275,6665.030833
22539.236703,3552.988522,-3034.844362,4903.011187
22539.237036,1998.556043,-8290.306550,-76.609550
22539.237369,1406.391290,-6513.812290,-6358.592633
22539.237703,-7402.059420,-15914.427753,-9729.412825
22539.238036,-962.267725,-11399.171507,-8503.660028
22539.238369,-5107.421000,-13027.624579,-7737.564530
22539.238702,-3775.050304,-16580.613101,-2834.553343
22539.239035,0.000000,-10732.986159,3600.648841
22539.239368,1924.535449,-7179.997637,2451.505594
22539.239701,3108.864956,-3627.009116,7660.954980
22539.240035,7031.956449,-8586.388927,6358.592633
22539.240368,8734.430116,-2442.679609,6741.640382
22539.240701,6143.709319,-8290.306550,6052.154434
22539.241034,3775.050304,-5847.626942,-2374.896044
22539.241367,-666.185348,-9474.636058,-2834.553343
22539.241700,-9326.594869,-16432.571912,-7967.393179
22539.242033,-74.020594,-9474.636058,-4979.620737
22539.242367,-9474.636058,-14285.974681,-2451.505594
22539.242700,-814.226536,-10658.965565,-1915.238745
22539.243033,-74.020594,-8290.306550,1455.581446
22539.243366,1184.329507,-4811.338623,4903.011187
22539.243699,6439.791695,-4737.318029,7584.345430
22539.244032,2220.617826,-4663.297435,4443.353888
22539.244365,2368.659014,-7179.997637,3370.820191
22539.244699,-666.185348,-6883.915261,-689.485948
22539.245032,-666.185348,-11251.130318,-5132.839837
22539.245365,-4737.318029,-11695.253884,-3524.039291
22539.245698,-2960.823768,-13101.645173,-2911.162892
22539.246031,-1998.556043,-12435.459826,-1532.190996
22539.246364,-4737.318029,-12065.356855,0.000000
22539.246698,-370.102971,-10658.965565,-2604.724693
22539.247031,-2368.659014,-5995.668130,2451.505594
22539.247364,6513.812290,-4811.338623,9729.412825
22539.247697,5847.626942,-5773.606348,7660.954980
22539.248030,1776.494261,-3627.009116,5209.449386
22539.248363,-740.205942,-4811.338623,-3677.258390
22539.248696,148.041188,-10436.903782,2145.067394
22539.249030,-2146.597232,-10510.924376,-3983.696590
22539.249363,-1554.432478,-12731.542202,-3830.477490
22539.249696,-3627.009116,-14211.954086,-8963.317327
22539.250029,-4737.318029,-13101.645173,-4596.572988
22539.250362,-2368.659014,-11917.315666,2374.896044
22539.250695,1998.556043,-10658.965565,842.705048
22539.251028,5033.400406,-7031.956449,5898.935335
22539.251362,814.226536,-11177.109724,4903.011187
22539.251695,7994.224174,-5551.544565,7814.174080
22539.252028,4293.194464,-6365.771101,6588.421283
22539.252361,6809.894666,-2442.679609,3524.039291
22539.252694,3182.885551,-5403.503377,-3677.258390
22539.253027,3552.988522,-10288.862594,-76.609550
22539.253360,1554.432478,-14804.118840,-4979.620737
22539.253694,-1258.350101,-12139.377449,-6818.249932
22539.254027,-4515.256246,-10658.965565,-6205.373534
22539.254360,-3552.988522,-11695.253884,-3217.601092
22539.254693,-592.164754,-7328.038826,-2987.772442
22539.255026,-7476.080014,-12879.583391,-689.485948
22539.255359,4145.153275,-4959.379811,4903.011187
22539.255692,-1480.411884,-8364.327145,4903.011187
22539.256026,9400.615463,-6957.935855,9729.412825
22539.256359,3182.885551,-6587.832884,4903.011187
22539.256692,6069.688724,-5107.421000,4903.011187
22539.257025,5921.647536,-5995.668130,1225.752797
22539.257358,1036.288319,-14434.015869,-3600.648841
22539.257691,-444.123565,-9104.533087,-4136.915689
22539.258025,-7254.018232,-15248.242405,-8350.440928
22539.258358,1110.308913,-11843.295072,-5592.497135
22539.258691,-3552.988522,-12805.562797,-76.609550
22539.259024,-3923.091493,-9696.697840,-3677.258390
22539.259357,-3552.988522,-7772.162391,6128.763984
22539.259690,-1850.514855,-8290.306550,1455.581446
22539.260023,1332.370696,-4219.173869,4903.011187
22539.260357,1924.535449,-5181.441594,9729.412825
22539.260690,5329.482782,-962.267725,5209.449386
22539.261023,74.020594,-6217.729913,3064.381992
22539.261356,1110.308913,-14063.912898,-1915.238745
22539.261689,222.061783,-11843.295072,-1302.362347
22539.262022,-5995.668130,-14359.995275,-7431.126331
22539.262355,-1258.350101,-8808.450710,-7890.783629
22539.262689,-4515.256246,-12953.603985,-7507.735880
22539.263022,-1258.350101,-14211.954086,-2528.115143
22539.263355,2368.659014,-8956.491898,4903.011187
22539.263688,1998.556043,-11843.295072,6665.030833
22539.264021,6439.791695,-370.102971,6741.640382
22539.264354,0.000000,-5995.668130,6128.763984
22539.264687,6735.874072,-4737.318029,5898.935335
22539.265021,-444.123565,-7179.997637,2374.896044
22539.265354,2812.782580,-10510.924376,1915.238745
22539.265687,-3923.091493,-5995.668130,-3064.381992
22539.266020,-5625.565159,-9696.697840,-9806.022374
22539.266353,-2516.700203,-14804.118840,-4979.620737
22539.266686,-3627.009116,-13619.789333,-7431.126331
22539.267019,-1702.473667,-11917.315666,-4596.572988
22539.267353,2294.638420,-10658.965565,2374.896044
22539.267686,5033.400406,-7772.162391,2451.505594
22539.268019,5995.668130,-7105.977043,10265.679673
22539.268352,8586.388927,-7031.956449,5592.497135
22539.268685,5625.565159,-8068.244768,8273.831378
22539.269018,5921.647536,-7179.997637,6128.763984
22539.269351,5551.544565,-11843.295072,-76.609550
22539.269685,-3552.988522,-8956.491898,-1838.629195
22539.270018,-5921.647536,-11029.068536,-4903.011187
22539.270351,-74.020594,-10658.965565,-383.047749
22539.270684,-4737.318029,-11029.068536,-2528.115143
22539.271017,-4441.235652,-10510.924376,-2528.115143
22539.271350,-7550.100608,-11621.233289,-1378.971896
22539.271684,1258.350101,-3182.885551,766.095498
22539.272017,4071.132681,-4737.318029,4826.401637
22539.272350,3330.926739,-5995.668130,1225.752797
22539.272683,7105.977043,-7772.162391,5132.839837
22539.273016,-74.020594,-11843.295072,3447.429741
22539.273349,8216.285956,-3034.844362,-3064.381992
22539.273682,296.082377,-13841.851115,1762.019645
22539.274016,-1554.432478,-9548.656652,-4060.306139
22539.274349,-1406.391290,-12583.501014,-5056.230287
22539.274682,-6957.935855,-14137.933492,-2911.162892
22539.275015,-370.102971,-9178.553681,-2528.115143
22539.275348,-4293.194464,-12361.439231,7277.907231
22539.275681,814.226536,-2442.679609,4290.134789
22539.276014,-370.102971,-4145.153275,1149.143247
22539.276348,-2368.659014,-8364.327145,5209.449386
22539.276681,4737.318029,-1850.514855,5669.106685
22539.277014,-74.020594,-10658.965565,2681.334243
22539.277347,1776.494261,-4219.173869,-4290.134789
22539.277680,-4737.318029,-16284.530724,-4979.620737
22539.278013,-2072.576638,-9844.739029,-4903.011187
22539.278346,-1628.453072,-13175.665768,-4749.792088
22539.278680,-1776.494261,-13175.665768,-1225.752797
22539.279013,1850.514855,-10066.800811,-2911.162892
22539.279346,-1850.514855,-16580.613101,4213.525239
22539.279679,2368.659014,-4219.173869,4979.620737
22539.280012,2294.638420,-5847.626942,4903.011187
22539.280345,2960.823768,-6143.709319,9422.974625
22539.280678,4663.297435,-4441.235652,5745.716235
22539.281012,1702.473667,-11103.089130,4826.401637
22539.281345,-1406.391290,-5403.503377,1149.143247
22539.281678,-2886.803174,-7624.121203,-4903.011187
22539.282011,-1258.350101,-8808.450710,-5669.106685
22539.282344,-1628.453072,-9918.759623,-5898.935335
22539.282677,-3997.112087,-16580.613101,-3753.867940
22539.283011,0.000000,-9548.656652,-4903.011187
22539.283344,296.082377,-12583.501014,-76.609550
22539.283677,4071.132681,-10658.965565,1149.143247
22539.284010,1480.411884,-9548.656652,6741.640382
22539.284343,6883.915261,-7994.224174,5286.058936
22539.284676,8142.265362,-7105.977043,9422.974625
22539.285009,3701.029710,-6069.688724,4826.401637
22539.285343,3923.091493,-4589.276840,1838.629195
22539.285676,-2146.597232,-9178.553681,-4366.744339
22539.286009,0.000000,-11843.295072,-2834.553343
22539.286342,-4885.359217,-14211.954086,-76.609550
22539.286675,-2442.679609,-8290.306550,-6358.592633
22539.287008,-4737.318029,-6661.853478,-3370.820191
22539.287341,-4293.194464,-8734.430116,-6281.983084
22539.287675,3627.009116,-9992.780217,3370.820191
22539.288008,1776.494261,-8068.244768,5209.449386
22539.288341,6661.853478,-7550.100608,2528.115143
22539.288674,592.164754,-7179.997637,2451.505594
22539.289007,4663.297435,-12879.583391,1149.143247
22539.289340,5773.606348,-9844.739029,2451.505594
22539.289673,0.000000,-9844.739029,2451.505594
22539.290007,1998.556043,-10362.883188,-536.266849
22539.290340,-4737.318029,-10288.862594,-4290.134789
22539.290673,-1110.308913,-10510.924376,-383.047749
22539.291006,-5995.668130,-9770.718434,-4213.525239
22539.291339,-888.247130,-9326.594869,2604.724693
22539.291672,-5329.482782,-7179.997637,2451.505594
22539.292005,-1850.514855,-4293.194464,2681.334243
22539.292338,1258.350101,-4663.297435,3064.381992
22539.292671,-666.185348,-5847.626942,536.266849
22539.293004,2294.638420,-10658.965565,3294.210641
22539.293336,0.000000,-6587.832884,612.876398
22539.293669,1924.535449,-13915.871710,-76.609550
22539.294002,-1258.350101,-11251.130318,-3370.820191
22539.294335,-3256.906145,-11917.315666,-2451.505594
22539.294668,-1332.370696,-14211.954086,-689.485948
22539.295001,-3108.864956,-10214.842000,-1302.362347
22539.295334,-2146.597232,-9178.553681,-383.047749
22539.295667,-1184.329507,-6587.832884,4136.915689
22539.296000,-4145.153275,-6291.750507,3064.381992
22539.296333,1110.308913,-5107.421000,3677.258390
22539.296666,0.000000,-1850.514855,7354.516781
22539.296999,3478.967927,-2368.659014,1762.019645
22539.297331,-2368.659014,-5403.503377,-4903.011187
22539.297664,-4441.235652,-12509.480420,-3064.381992
22539.297997,1110.308913,-10510.924376,-6971.469032
22539.298330,1184.329507,-13397.727550,-1685.410096
22539.298663,962.267725,-11621.233289,-4366.744339
22539.298996,1702.473667,-12731.542202,-3753.867940
22539.299329,-2072.576638,-15692.365970,-76.609550
22539.299662,4367.215058,-8364.327145,-2451.505594
22539.299995,-1776.494261,-16432.571912,7277.907231
22539.300328,4663.297435,-4441.235652,7890.783629
22539.300661,5847.626942,-4441.235652,5439.278036
22539.300993,7179.997637,-2146.597232,9193.145976
22539.301326,5699.585753,-6217.729913,5592.497135
22539.301659,5477.523971,-4737.318029,3753.867940
22539.301992,-2368.659014,-9548.656652,-5822.325785
22539.302325,-3034.844362,-11843.295072,-11184.994271
22539.302658,-1480.411884,-11843.295072,-6128.763984
22539.302991,-3627.009116,-18949.272115,-6818.249932
22539.303324,2590.720797,-7179.997637,-5515.887586
22539.303657,-4145.153275,-14878.139434,-1838.629195
22539.303990,6439.791695,-11325.150913,5209.449386
22539.304323,3627.009116,-5329.482782,6818.249932
22539.304656,2664.741391,-10436.903782,6971.469032
22539.304988,7920.203579,-5921.647536,7890.783629
22539.305321,2960.823768,-5403.503377,5515.887586
22539.305654,6439.791695,-9474.636058,6511.811733
22539.305987,0.000000,-1850.514855,-3677.258390
22539.306320,0.000000,-11177.109724,-76.609550
22539.306653,-5699.585753,-13027.624579,-1915.238745
22539.306986,-3478.967927,-5551.544565,-5515.887586
22539.307319,-9474.636058,-11029.068536,-11338.213370
22539.307652,-3923.091493,-14285.974681,-5745.716235
22539.307985,-518.144159,-7698.141797,689.485948
22539.308318,-2368.659014,-9844.739029,5362.668486
22539.308651,5255.462188,-2590.720797,6358.592633
22539.308983,-2886.803174,-12361.439231,2987.772442
22539.309316,7031.956449,-9178.553681,6511.811733
22539.309649,1406.391290,-5921.647536,4213.525239
22539.309982,0.000000,-9548.656652,1149.143247
22539.310315,-74.020594,-10658.965565,-1608.800546
22539.310648,-5921.647536,-9844.739029,-2911.162892
22539.310981,-3849.070898,-12435.459826,-4673.182538
22539.311314,-3923.091493,-12879.583391,-3140.991542
22539.311647,0.000000,-7994.224174,383.047749
22539.311980,-814.226536,-10140.821405,-689.485948
22539.312313,2294.638420,-7476.080014,6128.763984
22539.312646,-4589.276840,-6291.750507,1838.629195
22539.312978,2368.659014,-4219.173869,5515.887586
22539.313311,2294.638420,-6735.874072,1225.752797
22539.313644,74.020594,-9548.656652,-3677.258390
22539.313977,296.082377,-11547.212695,-76.609550
22539.314310,-5403.503377,-11917.315666,-6128.763984
22539.314643,1110.308913,-9178.553681,-3753.867940
22539.314976,-814.226536,-13323.706956,-1378.971896
22539.315309,1776.494261,-11251.130318,2374.896044
22539.315642,3478.967927,-8142.265362,-76.609550
22539.315975,3182.885551,-16062.468941,6665.030833
22539.316308,7031.956449,-2590.720797,6128.763984
22539.316640,4145.153275,-7846.182985,7967.393179
22539.316973,9400.615463,-5921.647536,4826.401637
22539.317306,-3256.906145,-8956.491898,1991.848295
22539.317639,3775.050304,-2664.741391,-5439.278036
22539.317972,-2368.659014,-9844.739029,-4903.011187
22539.318305,-1628.453072,-14730.098246,-6205.373534
22539.318638,-2146.597232,-10955.047942,-5056.230287
22539.318971,-2146.597232,-15840.407159,-3753.867940
22539.319304,-1850.514855,-10732.986159,-4290.134789
22539.319637,2368.659014,-8068.244768,4136.915689
22539.319970,4663.297435,-11251.130318,9422.974625
22539.320303,6439.791695,-296.082377,3600.648841
22539.320635,3849.070898,-12731.542202,8350.440928
22539.320968,5033.400406,-6587.832884,4979.620737
22539.321301,4737.318029,-4811.338623,3600.648841
22539.321634,1776.494261,-11325.150913,919.314598
22539.321967,0.000000,-7179.997637,-4903.011187
22539.322300,-4811.338623,-12435.459826,-5592.497135
22539.322633,-1258.350101,-13027.624579,-6818.249932
22539.322966,-3182.885551,-11177.109724,-2451.505594
22539.323299,-4589.276840,-7179.997637,-2681.334243
22539.323632,-2812.782580,-10584.944971,-689.485948
22539.323965,-4515.256246,-12361.439231,2987.772442
22539.324298,1702.473667,-5995.668130,2911.162892
22539.324630,-592.164754,-11251.130318,6358.592633
22539.324963,4145.153275,-3330.926739,5056.230287
22539.325296,-666.185348,-7550.100608,2911.162892
22539.325629,4589.276840,-5477.523971,1608.800546
22539.325962,1406.391290,-12731.542202,1762.019645
22539.326295,0.000000,-9844.739029,0.000000
22539.326628,-1702.473667,-6587.832884,-7890.783629
22539.326961,-2960.823768,-13249.686362,-689.485948
22539.327294,-2146.597232,-9918.759623,-4519.963438
22539.327627,-3627.009116,-9178.553681,-4673.182538
22539.327960,-3404.947333,-13027.624579,-1302.362347
22539.328293,-592.164754,-6883.915261,1072.533697
22539.328625,-666.185348,-11177.109724,2757.943793
22539.328958,2368.659014,-6809.894666,6511.811733
22539.329291,-74.020594,-9474.636058,3600.648841
22539.329624,592.164754,-4811.338623,6128.763984
22539.329957,0.000000,-7476.080014,5439.278036
22539.330290,-74.020594,-9474.636058,-3140.991542
22539.330623,-4737.318029,-9548.656652,0.000000
22539.330956,-666.185348,-8290.306550,-4443.353888
22539.331289,2516.700203,-7105.977043,-1532.190996
22539.331622,888.247130,-8956.491898,-1532.190996
22539.331955,740.205942,-11399.171507,-2221.676944
22539.332287,-1184.329507,-9548.656652,-4903.011187
22539.332620,0.000000,-13693.809927,4826.401637
22539.332953,2294.638420,-7698.141797,2528.115143
22539.333286,1702.473667,-3627.009116,2451.505594
22539.333619,4663.297435,-9474.636058,4213.525239
22539.333952,592.164754,-9548.656652,3064.381992
22539.334285,6143.709319,-5477.523971,4060.306139
22539.334618,-4589.276840,-11029.068536,-919.314598
22539.334951,2812.782580,-6217.729913,-2834.553343
22539.335284,-5625.565159,-12583.501014,-3064.381992
22539.335617,3478.967927,-9474.636058,-2528.115143
22539.335950,1406.391290,-7772.162391,-1225.752797
22539.336282,3256.906145,-9548.656652,2451.505594
22539.336615,9400.615463,-9474.636058,3600.648841
22539.336948,1924.535449,-11917.315666,3370.820191
22539.337281,2368.659014,-11843.295072,5056.230287
22539.337614,2590.720797,-2590.720797,-2298.286494
22539.337947,0.000000,-16358.551318,-229.828649
22539.338280,2368.659014,-6661.853478,612.876398
22539.338613,-666.185348,-9770.718434,-1915.238745
22539.338946,592.164754,-6069.688724,-766.095498
22539.339279,-4441.235652,-12805.562797,-1762.019645
22539.339612,-74.020594,-4737.318029,-1302.362347
22539.339945,-4145.153275,-7476.080014,306.438199
22539.340277,-4145.153275,-10510.924376,842.705048
22539.340610,2294.638420,-11251.130318,4826.401637
22539.340943,1036.288319,-7179.997637,3677.258390
22539.341276,7031.956449,-8586.388927,7277.907231
22539.341609,3256.906145,-3552.988522,4443.353888
22539.341942,1924.535449,-10881.027347,-76.609550
22539.342275,-1850.514855,-8808.450710,-4443.353888
22539.342608,-3552.988522,-11917.315666,-7354.516781
22539.342941,-2738.761985,-13027.624579,-5515.887586
22539.343274,-3627.009116,-13619.789333,-2528.115143
22539.343607,-2368.659014,-7476.080014,-3064.381992
22539.343940,-4737.318029,-10140.821405,6281.983084
22539.344272,0.000000,-5995.668130,3370.820191
22539.344605,2516.700203,-4219.173869,9116.536426
22539.344938,-2146.597232,-10362.883188,6665.030833
22539.345271,2960.823768,-3182.885551,2451.505594
22539.345604,-370.102971,-10658.965565,4826.401637
22539.345937,2368.659014,-5995.668130,612.876398
22539.346270,3478.967927,-8290.306550,-4366.744339
22539.346603,-2960.823768,-10140.821405,-7354.516781
22539.346936,-370.102971,-17172.777854,-4903.011187
22539.347269,-74.020594,-14211.954086,-5592.497135
22539.347602,1184.329507,-12361.439231,-1302.362347
22539.347934,-3775.050304,-13471.748144,-1685.410096
22539.348267,3701.029710,-6143.709319,3983.696590
22539.348600,-74.020594,-10140.821405,5515.887586
22539.348933,8882.471304,-5403.503377,12180.918418
22539.349266,962.267725,-3034.844362,6128.763984
22539.349599,2368.659014,-3627.009116,5515.887586
22539.349932,1110.308913,-6809.894666,1455.581446
22539.350265,-3182.885551,-9326.594869,-4826.401637
22539.350598,814.226536,-5995.668130,-7354.516781
22539.350931,-962.267725,-12731.542202,-3294.210641
22539.351264,592.164754,-10214.842000,-4979.620737
22539.351597,-2738.761985,-10214.842000,-4673.182538
22539.351929,-962.267725,-13693.809927,-5669.106685
22539.352262,1776.494261,-12065.356855,4060.306139
22539.352595,4071.132681,-8882.471304,3600.648841
22539.352928,2590.720797,-7179.997637,0.000000
22539.353261,0.000000,-9548.656652,5209.449386
22539.353594,5255.462188,-5921.647536,6435.202183
22539.353927,5107.421000,-4737.318029,8656.879127
22539.354260,370.102971,-6217.729913,3600.648841
22539.354593,-1184.329507,-3034.844362,-4443.353888
22539.354926,-4219.173869,-10362.883188,-5439.278036
22539.355259,-3849.070898,-11843.295072,-6511.811733
22539.355592,-2960.823768,-12213.398043,-2834.553343
22539.355924,-2146.597232,-9844.739029,-2987.772442
22539.356257,1628.453072,-11843.295072,-76.609550
22539.356590,1702.473667,-7402.059420,-1915.238745
22539.356923,2368.659014,-9548.656652,0.000000
22539.357256,2664.741391,-11621.233289,5286.058936
22539.357589,5847.626942,-8882.471304,6665.030833
22539.357922,-1776.494261,-8364.327145,4290.134789
22539.358255,-666.185348,-7698.141797,2298.286494
22539.358588,-3034.844362,-9474.636058,-1455.581446
22539.358921,-666.185348,-8882.471304,2681.334243
22539.359254,-962.267725,-888.247130,-3753.867940
22539.359587,-5995.668130,-10732.986159,-6128.763984
22539.359919,-7105.977043,-9474.636058,-1915.238745
22539.360252,-3923.091493,-12731.542202,-1608.800546
22539.360585,2294.638420,-8808.450710,1838.629195
22539.360918,4071.132681,-8290.306550,5745.716235
22539.361251,6365.771101,-7624.121203,6281.983084
22539.361584,3034.844362,-6661.853478,1532.190996
22539.361917,2664.741391,-12657.521608,76.609550
22539.362250,0.000000,-10140.821405,-2451.505594
22539.362583,-1554.432478,-13397.727550,-4903.011187
22539.362916,-1258.350101,-14211.954086,-5592.497135
22539.363249,-1998.556043,-8512.368333,306.438199
22539.363581,-4441.235652,-7772.162391,0.000000
22539.363914,4293.194464,-1850.514855,3600.648841
22539.364247,1332.370696,-5699.585753,4903.011187
22539.364580,1776.494261,-6883.915261,4443.353888
22539.364913,666.185348,-3923.091493,4213.525239
22539.365246,-962.267725,-10658.965565,-76.609550
22539.365579,592.164754,-8364.327145,2145.067394
22539.365912,1110.308913,-8882.471304,-3140.991542
22539.366245,1184.329507,-11621.233289,-2451.505594
22539.366578,-74.020594,-11695.253884,-4979.620737
22539.366911,-74.020594,-13027.624579,-7660.954980
22539.367244,-3182.885551,-16876.695478,-3907.087040
22539.367576,666.185348,-10362.883188,1455.581446
22539.367909,370.102971,-13175.665768,3294.210641
22539.368242,5329.482782,-3034.844362,9806.022374
22539.368575,5699.585753,-8290.306550,8503.660028
22539.368908,4737.318029,-1850.514855,9806.022374
22539.369241,0.000000,-3034.844362,5822.325785
22539.369574,2886.803174,-7105.977043,-76.609550
22539.369907,-74.020594,-8216.285956,-2451.505594
22539.370240,-3330.926739,-13027.624579,-6358.592633
22539.370573,-3256.906145,-9400.615463,-8427.050478
22539.370906,-5699.585753,-15470.304188,-7124.688131
22539.371239,1184.329507,-9548.656652,-3064.381992
22539.371571,-814.226536,-14211.954086,-2068.457845
22539.371904,0.000000,-9548.656652,1915.238745
22539.372237,1628.453072,-4515.256246,1991.848295
22539.372570,1702.473667,-9844.739029,5592.497135
22539.372903,4663.297435,-5625.565159,7737.564530
22539.373236,2516.700203,-8882.471304,9116.536426
22539.373569,3478.967927,-6957.935855,2145.067394
22539.373902,1184.329507,-6957.935855,4213.525239
22539.374235,2368.659014,-7698.141797,-766.095498
22539.374568,-4811.338623,-9548.656652,-5515.887586
22539.374901,-8808.450710,-11547.212695,-9269.755526
22539.375233,-5847.626942,-12139.377449,-4213.525239
22539.375566,-6587.832884,-11695.253884,-1762.019645
22539.375899,1184.329507,-4811.338623,306.438199
22539.376232,2294.638420,-9474.636058,-76.609550
22539.376565,2960.823768,-3034.844362,2221.676944
22539.376898,0.000000,-8512.368333,5209.449386
22539.377231,4663.297435,-9474.636058,2374.896044
22539.377564,1480.411884,-11917.315666,919.314598
22539.377897,-222.061783,-12065.356855,-2528.115143
22539.378230,2442.679609,-12805.562797,4749.792088
22539.378563,962.267725,-9104.533087,459.657299
22539.378896,4663.297435,-9474.636058,3600.648841
22539.379228,-74.020594,-9474.636058,-1915.238745
22539.379561,-3552.988522,-6291.750507,1455.581446
22539.379894,-4737.318029,-4515.256246,-76.609550
22539.380227,1702.473667,-10955.047942,-1302.362347
22539.380560,2146.597232,-7105.977043,4213.525239
22539.380893,2146.597232,-6587.832884,76.609550
22539.381226,1776.494261,-8956.491898,76.609550
22539.381559,-1924.535449,-12879.583391,-2068.457845
22539.381892,962.267725,-10066.800811,-2068.457845
22539.382225,-1480.411884,-11917.315666,-3677.258390
22539.382558,4441.235652,-10510.924376,-689.485948
22539.382891,-1554.432478,-11029.068536,612.876398
22539.383223,1184.329507,-7772.162391,3677.258390
22539.383556,5551.544565,-8882.471304,3600.648841
22539.383889,0.000000,-9252.574275,3907.087040
22539.384222,5329.482782,-6069.688724,4290.134789
22539.384555,-592.164754,-4219.173869,459.657299
22539.384888,0.000000,-7328.038826,-1608.800546
22539.385221,-3552.988522,-11177.109724,-1225.752797
22539.385554,2072.576638,-6735.874072,-306.438199
22539.385887,0.000000,-12879.583391,842.705048
22539.386220,888.247130,-9474.636058,1149.143247
22539.386553,-5107.421000,-13619.789333,-4366.744339
22539.386886,-3034.844362,-8734.430116,-2451.505594
22539.387218,-2072.576638,-9548.656652,-4903.011187
22539.387551,-1776.494261,-13619.789333,4673.182538
22539.387884,-2368.659014,-5107.421000,306.438199
22539.388217,-1628.453072,-9030.512492,-76.609550
22539.388550,5181.441594,-9770.718434,5362.668486
22539.388883,4515.256246,-7476.080014,7048.078582
22539.389216,5847.626942,-5921.647536,4826.401637
22539.389549,1776.494261,-5995.668130,1991.848295
22539.389882,0.000000,-9548.656652,-2451.505594
22539.390215,4959.379811,-11251.130318,2068.457845
22539.390548,-1554.432478,-14211.954086,-1608.800546
22539.390880,-666.185348,-9770.718434,-3753.867940
22539.391213,-4811.338623,-11251.130318,-7431.126331
22539.391546,-6587.832884,-12583.501014,-4903.011187
22539.391879,-4811.338623,-8364.327145,-1762.019645
22539.392212,-2294.638420,-9696.697840,2298.286494
22539.392545,2294.638420,-8290.306550,6052.154434
22539.392878,3552.988522,-2442.679609,7967.393179
22539.393211,5033.400406,-8882.471304,9729.412825
22539.393544,5995.668130,-2146.597232,6435.202183
22539.393877,5921.647536,-4959.379811,0.000000
22539.394210,1702.473667,-14952.160028,1225.752797
22539.394543,1628.453072,-10362.883188,-4060.306139
22539.394876,-4441.235652,-15174.221811,-7354.516781
22539.395209,-1406.391290,-12139.377449,-4213.525239
22539.395541,-3256.906145,-10140.821405,-7277.907231
22539.395874,-222.061783,-11843.295072,1762.019645
22539.396207,-3478.967927,-7105.977043,-2528.115143
22539.396540,-4737.318029,-8364.327145,2757.943793
22539.396873,4663.297435,-4737.318029,6665.030833
22539.397206,5847.626942,-5921.647536,7277.907231
22539.397539,296.082377,-7105.977043,5898.935335
22539.397872,3404.947333,-3330.926739,5132.839837
22539.398205,-2220.617826,-11843.295072,-2221.676944
22539.398538,2516.700203,-12213.398043,0.000000
22539.398871,-74.020594,-14211.954086,-4979.620737
22539.399204,-1554.432478,-13101.645173,-9806.022374
22539.399537,-1184.329507,-11917.315666,-6128.763984
22539.399870,-74.020594,-15396.283594,-76.609550
22539.400203,4145.153275,-5699.585753,2451.505594
22539.400536,1850.514855,-8290.306550,6971.469032
22539.400869,3478.967927,-4515.256246,1072.533697
22539.401202,2960.823768,-10584.944971,7584.345430
22539.401535,-296.082377,-7105.977043,3677.258390
22539.401868,-74.020594,-7624.121203,2987.772442
22539.402201,-1184.329507,-7476.080014,0.000000
22539.402533,-518.144159,-7179.997637,-3217.601092
22539.402866,-4885.359217,-8734.430116,-4979.620737
22539.403199,-2664.741391,-9548.656652,-2451.505594
22539.403532,-1036.288319,-13323.706956,-1302.362347
22539.403865,-1554.432478,-8882.471304,-3140.991542
22539.404198,1184.329507,-7179.997637,3064.381992
22539.404531,2294.638420,-8882.471304,2374.896044
22539.404864,7031.956449,-5033.400406,4060.306139
22539.405197,4071.132681,-11399.171507,4673.182538
22539.405530,4441.235652,-9696.697840,1762.019645
22539.405863,1184.329507,-11029.068536,5515.887586
22539.406196,2294.638420,-7698.141797,0.000000
22539.406529,2886.803174,-11843.295072,-76.609550
22539.406862,-5255.462188,-6291.750507,-3983.696590
22539.407195,-5329.482782,-9548.656652,-2451.505594
22539.407528,-8290.306550,-11325.150913,-2451.505594
22539.407861,-4145.153275,-6735.874072,-3064.381992
22539.408194,-6143.709319,-10362.883188,2681.334243
22539.408527,2368.659014,3330.926739,1455.581446
22539.408860,1702.473667,-8882.471304,2374.896044
22539.409193,1776.494261,-8660.409521,3983.696590
22539.409525,4811.338623,-8734.430116,0.000000
22539.409858,0.000000,-13397.727550,0.000000
22539.410191,7624.121203,-12435.459826,-2451.505594
22539.410524,-1850.514855,-15396.283594,-1608.800546
22539.410857,4663.297435,-9474.636058,-76.609550
22539.411190,-1776.494261,-14359.995275,0.000000
22539.411523,2590.720797,-6291.750507,919.314598
22539.411856,-1480.411884,-8216.285956,4443.353888
22539.412189,-666.185348,-5255.462188,6665.030833
22539.412522,296.082377,-2442.679609,1225.752797
22539.412855,-6513.812290,-7772.162391,3064.381992
22539.413188,4663.297435,-4737.318029,-383.047749
22539.413521,0.000000,-5107.421000,-1225.752797
22539.413854,4663.297435,-10658.965565,-2451.505594
22539.414187,2516.700203,-9326.594869,-995.924147
22539.414520,-962.267725,-13841.851115,-4903.011187
22539.414853,-444.123565,-13545.768739,-6741.640382
22539.415186,-74.020594,-14508.036463,-4060.306139
22539.415519,-4737.318029,-13101.645173,153.219100
22539.415852,1110.308913,-9178.553681,2374.896044
22539.416185,-666.185348,-9548.656652,3064.381992
22539.416517,6217.729913,-74.020594,12257.527968
22539.416850,4663.297435,-1184.329507,9499.584175
22539.417183,5625.565159,-1036.288319,7201.297681
22539.417516,-2812.782580,-7920.203579,0.000000
22539.417849,-2368.659014,-9474.636058,-4136.915689
22539.418182,-2738.761985,-13027.624579,-6665.030833
22539.418515,-3997.112087,-10807.006753,-6511.811733
22539.418848,-3330.926739,-13249.686362,-8886.707777
22539.419181,-1406.391290,-11547.212695,-4060.306139
22539.419514,-4145.153275,-14285.974681,-2451.505594
22539.419847,-74.020594,-9474.636058,-229.828649
22539.420180,-2368.659014,-9548.656652,0.000000
22539.420513,3552.988522,-9918.759623,4826.401637
22539.420846,5255.462188,-9326.594869,10648.727422
22539.421179,3552.988522,-2442.679609,7354.516781
22539.421512,7624.121203,-6809.894666,7814.174080
22539.421845,4959.379811,-4737.318029,4136.915689
22539.422178,-1628.453072,-10288.862594,0.000000
22539.422511,-1850.514855,-8882.471304,-3753.867940
22539.422844,-3627.009116,-13915.871710,-12947.013916
22539.423177,-5921.647536,-15174.221811,-4979.620737
22539.423509,-2368.659014,-11917.315666,-1455.581446
22539.423842,-74.020594,-6365.771101,-2145.067394
22539.424175,-2590.720797,-10140.821405,1149.143247
22539.424508,-1184.329507,-7476.080014,-1991.848295
22539.424841,0.000000,-8216.285956,5515.887586
22539.425174,4145.153275,-4663.297435,4826.401637
22539.425507,6217.729913,-5107.421000,7048.078582
22539.425840,3478.967927,-8364.327145,0.000000
22539.426173,8808.450710,-9474.636058,5745.716235
22539.426506,2294.638420,-11843.295072,3983.696590
22539.426839,3182.885551,-8068.244768,-2451.505594
22539.427172,-3923.091493,-10362.883188,-4979.620737
22539.427505,-6957.935855,-13471.748144,-7660.954980
22539.427838,-3997.112087,-10807.006753,-1608.800546
22539.428171,-5107.421000,-8438.347739,-689.485948
22539.428504,2812.782580,-5921.647536,2834.553343
22539.428837,-3552.988522,-4811.338623,4903.011187
22539.429170,4663.297435,-3552.988522,-76.609550
22539.429503,370.102971,-8364.327145,0.000000
22539.429836,5921.647536,-11547.212695,2757.943793
22539.430169,2368.659014,-13545.768739,0.000000
22539.430501,2294.638420,-10214.842000,-1608.800546
22539.430834,592.164754,-15174.221811,-5975.544884
22539.431167,-296.082377,-17172.777854,-1149.143247
22539.431500,3478.967927,-10510.924376,995.924147
22539.431833,-2368.659014,-14878.139434,1762.019645
22539.432166,-2442.679609,-3034.844362,612.876398
22539.432499,-8290.306550,-5403.503377,1225.752797
22539.432832,8216.285956,0.000000,8350.440928
22539.433165,2516.700203,-3182.885551,9806.022374
22539.433498,3478.967927,-3997.112087,3217.601092
22539.433831,-1110.308913,-8956.491898,-1608.800546
22539.434164,-2886.803174,-12953.603985,-5286.058936
22539.434497,814.226536,-8438.347739,-5822.325785
22539.434830,-4515.256246,-16284.530724,-4979.620737
22539.435163,-1332.370696,-14952.160028,-7277.907231
22539.435496,-6809.894666,-13915.871710,-3370.820191
22539.435829,888.247130,-11325.150913,1072.533697
22539.436162,1110.308913,-6217.729913,5439.278036
22539.436495,2664.741391,-7179.997637,9806.022374
22539.436828,6143.709319,-6513.812290,8197.221829
22539.437160,0.000000,-5107.421000,5515.887586
22539.437493,4737.318029,-7179.997637,3830.477490
22539.437826,4071.132681,-10214.842000,7584.345430
22539.438159,5773.606348,-3478.967927,0.000000
22539.438492,2146.597232,-9918.759623,229.828649
22539.438825,-5995.668130,-10288.862594,-8886.707777
22539.439158,-5329.482782,-9844.739029,-12257.527968
22539.439491,-6587.832884,-18949.272115,-4979.620737
22539.439824,-3627.009116,-9474.636058,-6205.373534
22539.440157,-9844.739029,-11325.150913,-4290.134789
22539.440490,-1850.514855,-9474.636058,2068.457845
22539.440823,2368.659014,-3627.009116,6128.763984
22539.441156,6217.729913,-5921.647536,11491.432470
22539.441489,10510.924376,-2886.803174,10725.336972
22539.441822,3034.844362,-8364.327145,2604.724693
22539.442155,7105.977043,-11621.233289,1838.629195
22539.442488,7031.956449,-16580.613101,1149.143247
22539.442821,3849.070898,-10732.986159,2757.943793
22539.443154,0.000000,-9844.739029,-919.314598
22539.443487,-74.020594,-8586.388927,-4213.525239
22539.443820,-6809.894666,-12435.459826,-8044.002729
22539.444152,1480.411884,-8364.327145,-1838.629195
22539.444485,-6291.750507,-8290.306550,-2604.724693
22539.444818,-1480.411884,-6957.935855,-1225.752797
22539.445151,-3034.844362,-9178.553681,2068.457845
22539.445484,-1554.432478,-2442.679609,0.000000
22539.445817,2368.659014,-7179.997637,7660.954980
22539.446150,3182.885551,-5921.647536,3294.210641
22539.446483,3182.885551,-11917.315666,0.000000
22539.446816,-1776.494261,-14211.954086,2374.896044
22539.447149,2442.679609,-4071.132681,-3217.601092
22539.447482,-1628.453072,-13397.727550,-2068.457845
22539.447815,6883.915261,-7105.977043,995.924147
22539.448148,2886.803174,-13323.706956,3907.087040
22539.448481,0.000000,-9992.780217,459.657299
22539.448814,2368.659014,-5403.503377,-383.047749
22539.449147,-5773.606348,-13101.645173,-1455.581446
22539.449480,3552.988522,-6587.832884,1225.752797
22539.449813,-3552.988522,-8068.244768,1455.581446
22539.450146,-1850.514855,-12435.459826,-3064.381992
22539.450479,1480.411884,-4219.173869,1225.752797
22539.450812,-1332.370696,-12435.459826,2987.772442
22539.451144,-888.247130,-7179.997637,0.000000
22539.451477,-2368.659014,-11177.109724,1072.533697
22539.451810,-4219.173869,-9770.718434,-4519.963438
22539.452143,0.000000,-9178.553681,-1991.848295
22539.452476,-1258.350101,-11843.295072,3600.648841
22539.452809,1184.329507,-2442.679609,4903.011187
22539.453142,1702.473667,-8660.409521,2451.505594
22539.453475,2368.659014,-7772.162391,6665.030833
22539.453808,592.164754,-6291.750507,1149.143247
22539.454141,2294.638420,-12435.459826,-689.485948
22539.454474,2960.823768,-9474.636058,-689.485948
22539.454807,-5181.441594,-14804.118840,-4749.792088
22539.455140,1554.432478,-9178.553681,-3294.210641
22539.455473,-5477.523971,-13101.645173,-3064.381992
22539.455806,2294.638420,-13027.624579,1762.019645
22539.456139,0.000000,-5995.668130,1225.752797
22539.456472,-74.020594,-9474.636058,-76.609550
22539.456805,-1850.514855,-6883.915261,0.000000
22539.457138,0.000000,-4219.173869,4979.620737
22539.457471,4663.297435,-8290.306550,5975.544884
22539.457804,7772.162391,-444.123565,5056.230287
22539.458136,4885.359217,-9992.780217,2757.943793
22539.458469,814.226536,-9474.636058,-2221.676944
22539.458802,1998.556043,-14804.118840,-5592.497135
22539.459135,0.000000,-13693.809927,-4060.306139
22539.459468,-74.020594,-12435.459826,-689.485948
22539.459801,-3627.009116,-9696.697840,-6435.202183
22539.460134,-1184.329507,-9400.615463,1225.752797
22539.460467,-7846.182985,-13101.645173,-3677.258390
22539.460800,3478.967927,-8290.306550,5439.278036
22539.461133,3552.988522,-5329.482782,8197.221829
22539.461466,74.020594,-9178.553681,6741.640382
22539.461799,3552.988522,-1258.350101,4903.011187
22539.462132,-2146.597232,-16580.613101,4213.525239
22539.462465,6439.791695,-2442.679609,0.000000
22539.462798,3478.967927,-7179.997637,306.438199
22539.463131,1184.329507,-10288.862594,-2911.162892
22539.463464,1776.494261,-5995.668130,-4903.011187
22539.463797,-5477.523971,-15248.242405,-4673.182538
22539.464130,1850.514855,-10881.027347,-6128.763984
22539.464463,-4737.318029,-13989.892304,-1685.410096
22539.464796,-5773.606348,-11325.150913,-3677.258390
22539.465128,-222.061783,-6957.935855,3983.696590
22539.465461,-814.226536,-6957.935855,4903.011187
22539.465794,6439.791695,-3108.864956,8044.002729
22539.466127,1702.473667,-8290.306550,8503.660028
22539.466460,3701.029710,-3627.009116,2451.505594
22539.466793,1036.288319,-8216.285956,6052.154434
22539.467126,-2442.679609,-12287.418637,-2528.115143
22539.467459,0.000000,-5995.668130,-2451.505594
22539.467792,-1554.432478,-13915.871710,-3753.867940
22539.468125,1702.473667,-10584.944971,-4443.353888
22539.468458,-2664.741391,-11325.150913,-3447.429741
22539.468791,-2368.659014,-11991.336260,-4443.353888
22539.469124,0.000000,-9548.656652,0.000000
22539.469457,-4737.318029,-11917.315666,0.000000
22539.469790,4071.132681,-9326.594869,4213.525239
22539.470123,962.267725,-3552.988522,5745.716235
22539.470456,5033.400406,-1850.514855,8580.269578
22539.470789,4367.215058,-4441.235652,8197.221829
22539.471122,4959.379811,-7031.956449,2834.553343
22539.471455,-3552.988522,-9844.739029,-3677.258390
22539.471788,-5107.421000,-10510.924376,-7277.907231
22539.472120,-6439.791695,-14656.077652,-8427.050478
22539.472453,-6513.812290,-11917.315666,-2757.943793
22539.472786,2294.638420,-11251.130318,-2834.553343
22539.473119,518.144159,-9548.656652,0.000000
22539.473452,2368.659014,-5403.503377,4903.011187
22539.473785,5403.503377,-7698.141797,4290.134789
22539.474118,5403.503377,-7846.182985,5439.278036
22539.474451,1776.494261,-12065.356855,3753.867940
22539.474784,1628.453072,-11695.253884,842.705048
22539.475117,-74.020594,-10214.842000,1149.143247
22539.475450,0.000000,-10362.883188,-76.609550
22539.475783,-962.267725,-4219.173869,-2298.286494
22539.476116,-4145.153275,-9548.656652,-3524.039291
22539.476449,-74.020594,-9474.636058,-76.609550
22539.476782,-5403.503377,-9474.636058,-4979.620737
22539.477115,-2812.782580,-11177.109724,919.314598
22539.477448,740.205942,-7105.977043,4826.401637
22539.477781,5921.647536,-6661.853478,5592.497135
22539.478114,7105.977043,-3923.091493,7354.516781
22539.478447,4663.297435,-4737.318029,-842.705048
22539.478780,1184.329507,-9548.656652,-1838.629195
22539.479112,2960.823768,-13397.727550,-1915.238745
22539.479445,-1850.514855,-17764.942608,-8120.612279
22539.479778,-2738.761985,-17320.819043,-3447.429741
22539.480111,-2368.659014,-9474.636058,306.438199
22539.480444,-370.102971,-8142.265362,1991.848295
22539.480777,0.000000,-4811.338623,6128.763984
22539.481110,2368.659014,-74.020594,5822.325785
22539.481443,1110.308913,-7105.977043,4060.306139
22539.481776,740.205942,-8734.430116,3907.087040
22539.482109,444.123565,-7920.203579,612.876398
22539.482442,370.102971,-9474.636058,1991.848295
22539.482775,3552.988522,-7772.162391,0.000000
22539.483108,2294.638420,-8882.471304,-3753.867940
22539.483441,-2294.638420,-10732.986159,-7354.516781
22539.483774,-2960.823768,-15544.324782,-7737.564530
22539.484107,-1258.350101,-15396.283594,-8656.879127
22539.484440,-4737.318029,-18431.127956,3064.381992
22539.484773,2442.679609,-3997.112087,4749.792088
22539.485106,592.164754,-7698.141797,7737.564530
22539.485439,3182.885551,-4441.235652,8120.612279
22539.485772,4663.297435,-3256.906145,7890.783629
22539.486104,1702.473667,-6217.729913,2298.286494
22539.486437,2960.823768,-4219.173869,0.000000
22539.486770,-5995.668130,-16580.613101,-2528.115143
22539.487103,-1776.494261,-7772.162391,-3524.039291
22539.487436,-2960.823768,-14804.118840,-1915.238745
22539.487769,296.082377,-11621.233289,-1762.019645
22539.488102,-962.267725,-8586.388927,-4060.306139
22539.488435,-2072.576638,-7920.203579,-3447.429741
22539.488768,222.061783,-9918.759623,-3140.991542
22539.489101,518.144159,-7179.997637,0.000000
22539.489434,7254.018232,-8290.306550,4826.401637
22539.489767,2590.720797,-13619.789333,5439.278036
22539.490100,4145.153275,-7179.997637,7507.735880
22539.490433,-74.020594,-8882.471304,2068.457845
22539.490766,2960.823768,-7105.977043,2221.676944
22539.491099,148.041188,-8216.285956,0.000000
22539.491432,-1110.308913,-9844.739029,383.047749
22539.491765,-5625.565159,-9548.656652,-2451.505594
22539.492098,-4737.318029,-10658.965565,-76.609550
22539.492431,-666.185348,-8882.471304,-3140.991542
22539.492764,-1036.288319,-4811.338623,-2451.505594
22539.493096,0.000000,-9548.656652,-76.609550
22539.493429,1110.308913,-9770.718434,-2298.286494
22539.493762,2368.659014,-10214.842000,612.876398
22539.494095,0.000000,-11325.150913,-3064.381992
22539.494428,5255.462188,-12287.418637,7890.783629
22539.494761,3256.906145,-6883.915261,4903.011187
22539.495094,5033.400406,-9178.553681,4443.353888
22539.495427,0.000000,-10436.903782,2757.943793
22539.495760,148.041188,-5625.565159,536.266849
22539.496093,-1776.494261,-7105.977043,-76.609550
22539.496426,0.000000,-5995.668130,-5056.230287
22539.496759,-3552.988522,-11325.150913,995.924147
22539.497092,-3923.091493,-11547.212695,-3907.087040
22539.497425,1110.308913,-5107.421000,-3064.381992
22539.497758,-3034.844362,-13027.624579,-1302.362347
22539.498091,4441.235652,-8734.430116,2681.334243
22539.498423,3923.091493,-8290.306550,2987.772442
22539.498756,3552.988522,-7846.182985,2451.505594
22539.499089,3775.050304,-7550.100608,919.314598
22539.499422,2442.679609,-7698.141797,1149.143247
22539.499755,1776.494261,-13619.789333,2987.772442
22539.500088,-1850.514855,-10584.944971,-4290.134789
22539.500421,-1776.494261,-11029.068536,-4290.134789
22539.500754,-5921.647536,-14878.139434,-612.876398
22539.501087,2368.659014,-4811.338623,2451.505594
22539.501420,-74.020594,-10510.924376,2987.772442
22539.501753,4737.318029,-7105.977043,6052.154434
22539.502086,0.000000,-5551.544565,2528.115143
22539.502419,1184.329507,-7179.997637,4903.011187
22539.502752,-74.020594,-5625.565159,-689.485948
22539.503085,-2368.659014,-5995.668130,-4903.011187
22539.503418,5255.462188,-11547.212695,-689.485948
22539.503750,-1258.350101,-11251.130318,-3753.867940
22539.504083,0.000000,-10732.986159,-4213.525239
22539.504416,-3256.906145,-13249.686362,-4290.134789
22539.504749,-4737.318029,-15174.221811,-2221.676944
22539.505082,-592.164754,-10732.986159,919.314598
22539.505415,4219.173869,-9474.636058,8503.660028
22539.505748,4071.132681,-3923.091493,4903.011187
22539.506081,4737.318029,-5107.421000,12870.404366
22539.506414,5551.544565,-3552.988522,6052.154434
22539.506747,2368.659014,-2442.679609,1532.190996
22539.507080,2886.803174,-9474.636058,842.705048
22539.507413,-6883.915261,-15174.221811,-5898.935335
22539.507746,-2368.659014,-6291.750507,-8886.707777
22539.508079,-4145.153275,-16506.592507,-7277.907231
22539.508412,3478.967927,-10658.965565,-689.485948
22539.508744,-4737.318029,-7179.997637,0.000000
22539.509077,-2664.741391,-10362.883188,-3753.867940
22539.509410,-74.020594,-14211.954086,-76.609550
22539.509743,-2368.659014,-7772.162391,3064.381992
22539.510076,10288.862594,-7698.141797,11874.480219
22539.510409,3701.029710,-4589.276840,6052.154434
22539.510742,5625.565159,-7031.956449,6818.249932
22539.511075,4515.256246,-3552.988522,2987.772442
22539.511408,1702.473667,-9474.636058,-383.047749
22539.511741,-3478.967927,-11843.295072,-5822.325785
22539.512074,-5921.647536,-13471.748144,-9193.145976
22539.512407,-7994.224174,-14952.160028,-7584.345430
22539.512740,-4145.153275,-12065.356855,-2298.286494
22539.513073,-1258.350101,-7698.141797,-76.609550
22539.513406,148.041188,-4811.338623,5209.449386
22539.513738,0.000000,-2442.679609,7354.516781
22539.514071,3182.885551,-9474.636058,2374.896044
22539.514404,296.082377,-8956.491898,3064.381992
22539.514737,4959.379811,-8734.430116,1762.019645
22539.515070,2960.823768,-12657.521608,7277.907231
22539.515403,4663.297435,-3108.864956,383.047749
22539.515736,-1258.350101,-13471.748144,-3753.867940
22539.516069,444.123565,-17468.860231,-2528.115143
22539.516402,-5625.565159,-10140.821405,-5822.325785
22539.516735,-3330.926739,-11843.295072,-1685.410096
22539.517068,-2442.679609,-11843.295072,-689.485948
22539.517401,-370.102971,-8142.265362,4213.525239
22539.517734,5033.400406,-5107.421000,5669.106685
22539.518067,4737.318029,-7550.100608,7890.783629
22539.518400,5995.668130,-2812.782580,1838.629195
22539.518732,0.000000,-7179.997637,153.219100
22539.519065,2886.803174,-11843.295072,-2834.553343
22539.519398,0.000000,-9548.656652,-1072.533697
22539.519731,-1258.350101,-15988.448347,-4136.915689
22539.520064,-1480.411884,-7254.018232,-4903.011187
22539.520397,-3997.112087,-11917.315666,-5822.325785
22539.520730,814.226536,-12953.603985,3677.258390
22539.521063,1924.535449,-3849.070898,5209.449386
22539.521396,0.000000,-7179.997637,1685.410096
22539.521729,5551.544565,-9326.594869,9652.803275
22539.522062,2294.638420,-1406.391290,612.876398
22539.522395,4663.297435,-9474.636058,4826.401637
22539.522728,3478.967927,-3552.988522,-3217.601092
22539.523061,-4145.153275,-14878.139434,-2834.553343
22539.523394,-74.020594,-11843.295072,-1378.971896
22539.523727,-5921.647536,-9548.656652,-4749.792088
22539.524059,-3182.885551,-8882.471304,-4673.182538
22539.524392,-2368.659014,-10732.986159,-1838.629195
22539.524725,148.041188,-11695.253884,-612.876398
22539.525058,0.000000,-11917.315666,4979.620737
22539.525391,-74.020594,-11547.212695,5362.668486
22539.525724,6513.812290,-6587.832884,9193.145976
22539.526057,4663.297435,-7994.224174,4519.963438
22539.526390,6291.750507,-7476.080014,4443.353888
22539.526723,2368.659014,-7698.141797,1149.143247
22539.527056,1110.308913,-6217.729913,-995.924147
22539.527389,-1628.453072,-11547.212695,-3370.820191
22539.527722,-2146.597232,-8882.471304,-2451.505594
22539.528055,-4737.318029,-12287.418637,-3753.867940
22539.528388,-2368.659014,-5699.585753,-1685.410096
22539.528721,-3182.885551,-7105.977043,-6205.373534
22539.529053,-3404.947333,-11325.150913,-1072.533697
22539.529386,-74.020594,-7105.977043,-1608.800546
22539.529719,-1480.411884,-11917.315666,4290.134789
22539.530052,5847.626942,-10658.965565,8503.660028
22539.530385,2294.638420,-9252.574275,3983.696590
22539.530718,2960.823768,-9844.739029,2451.505594
22539.531051,3478.967927,-10658.965565,3600.648841
22539.531384,2664.741391,-10066.800811,3907.087040
22539.531717,4515.256246,-6513.812290,0.000000
22539.532050,1776.494261,-7179.997637,0.000000
22539.532383,-4737.318029,-7179.997637,-7354.516781
22539.532716,-2368.659014,-9548.656652,-1685.410096
22539.533049,-3034.844362,-13101.645173,-4290.134789
22539.533382,-3775.050304,-7476.080014,-5822.325785
22539.533715,-4737.318029,-12065.356855,-76.609550
22539.534047,-3330.926739,-5995.668130,0.000000
22539.534380,814.226536,-4737.318029,3677.258390
22539.534713,4737.318029,-5403.503377,7201.297681
22539.535046,3552.988522,-6069.688724,5975.544884
22539.535379,1998.556043,-10288.862594,4060.306139
22539.535712,4515.256246,-9474.636058,3600.648841
22539.536045,-3923.091493,-10140.821405,-4596.572988
22539.536378,740.205942,-14656.077652,-1608.800546
22539.536711,2294.638420,-15988.448347,-4060.306139
22539.537044,592.164754,-11325.150913,5209.449386
22539.537377,1332.370696,-5625.565159,-3294.210641
22539.537710,5033.400406,-9252.574275,5209.449386
22539.538043,2220.617826,-11325.150913,4519.963438
22539.538376,5255.462188,-2294.638420,3217.601092
22539.538709,-666.185348,-13027.624579,3600.648841
22539.539041,-4145.153275,-1258.350101,0.000000
22539.539374,-666.185348,-11547.212695,-3140.991542
22539.539707,1406.391290,-11251.130318,1149.143247
22539.540040,-1554.432478,-5625.565159,-6818.249932
22539.540373,-5181.441594,-10214.842000,-2068.457845
22539.540706,-444.123565,-11547.212695,-3140.991542
22539.541039,-1184.329507,-11843.295072,306.438199
22539.541372,592.164754,-12509.480420,6741.640382
22539.541705,2442.679609,-74.020594,1225.752797
22539.542038,4219.173869,-12139.377449,7277.907231
22539.542371,7920.203579,-9474.636058,3600.648841
22539.542704,4737.318029,-10732.986159,6741.640382
22539.543037,2664.741391,-7105.977043,842.705048
22539.543370,0.000000,-11251.130318,-1455.581446
22539.543703,-2146.597232,-15100.201217,-1378.971896
22539.544035,-1554.432478,-7624.121203,-3294.210641
22539.544368,-2368.659014,-7031.956449,-1532.190996
22539.544701,-5181.441594,-8956.491898,-2757.943793
22539.545034,-3849.070898,-8290.306550,-2451.505594
22539.545367,-5033.400406,-9696.697840,0.000000
22539.545700,1332.370696,-4367.215058,1532.190996
22539.546033,4737.318029,-5699.585753,5209.449386
22539.546366,-2442.679609,-13027.624579,1455.581446
22539.546699,2960.823768,-6587.832884,4596.572988
22539.547032,-2590.720797,-10658.965565,-2221.676944
22539.547365,-74.020594,-13915.871710,1455.581446
22539.547698,3552.988522,-9252.574275,4519.963438
22539.548031,-2738.761985,-12287.418637,0.000000
22539.548364,1184.329507,-3108.864956,306.438199
22539.548697,-7105.977043,-8142.265362,-2834.553343
22539.549030,6883.915261,-5329.482782,2987.772442
22539.549362,-2368.659014,-10732.986159,612.876398
22539.549695,0.000000,-11325.150913,919.314598
22539.550028,-1850.514855,-10658.965565,-5898.935335
22539.550361,-3256.906145,-9548.656652,-2145.067394
22539.550694,4071.132681,-13471.748144,-76.609550
22539.551027,3775.050304,-7624.121203,5745.716235
22539.551360,962.267725,-10436.903782,3140.991542
22539.551693,-2220.617826,-8956.491898,-1378.971896
22539.552026,2294.638420,-10510.924376,3600.648841
22539.552359,-4145.153275,-2442.679609,-459.657299
22539.552692,4663.297435,-7402.059420,2834.553343
22539.553025,-1850.514855,-5995.668130,612.876398
22539.553358,1184.329507,-8660.409521,-76.609550
22539.553691,1998.556043,-7772.162391,2451.505594
22539.554024,-1480.411884,-7402.059420,-2987.772442
22539.554356,1554.432478,-12879.583391,-1991.848295
22539.554689,-2664.741391,-17394.839637,306.438199
22539.555022,0.000000,-7772.162391,-2451.505594
22539.555355,-1776.494261,-11917.315666,3600.648841
22539.555688,3182.885551,-8142.265362,-3677.258390
22539.556021,2368.659014,-10732.986159,0.000000
22539.556354,6069.688724,-8142.265362,9116.536426
22539.556687,2590.720797,-1258.350101,0.000000
22539.557020,2886.803174,-7698.141797,-689.485948
22539.557353,-1776.494261,-14730.098246,-2604.724693
22539.557686,1480.411884,-12213.398043,4136.915689
22539.558019,2368.659014,-5995.668130,0.000000
22539.558352,4071.132681,-9178.553681,3140.991542
22539.558685,-666.185348,-10807.006753,-153.219100
22539.559018,2294.638420,-5033.400406,1378.971896
22539.559350,-74.020594,-9474.636058,1762.019645
22539.559683,2590.720797,-5995.668130,-2451.505594
22539.560016,-4737.318029,-12509.480420,-689.485948
22539.560349,-4811.338623,-13027.624579,-4979.620737
22539.560682,-3034.844362,-6735.874072,-4903.011187
22539.561015,-2146.597232,-12879.583391,1762.019645
22539.561348,3182.885551,-9030.512492,4290.134789
22539.561681,-1924.535449,-8364.327145,4290.134789
22539.562014,2886.803174,-6957.935855,1455.581446
22539.562347,0.000000,-8956.491898,3677.258390
22539.562680,6735.874072,-7402.059420,0.000000
22539.563013,3478.967927,-15396.283594,5745.716235
22539.563346,3182.885551,-5995.668130,0.000000
22539.563679,0.000000,-5995.668130,-1838.629195
22539.564012,-1110.308913,-13101.645173,-4519.963438
22539.564344,0.000000,-10288.862594,2451.505594
22539.564677,-5403.503377,-5403.503377,-4903.011187
22539.565010,-3330.926739,-10658.965565,-1762.019645
22539.565343,-4811.338623,-9326.594869,2374.896044
22539.565676,-4219.173869,-5107.421000,0.000000
22539.566009,2294.638420,-7105.977043,8503.660028
22539.566342,-370.102971,-4219.173869,-1225.752797
22539.566675,-370.102971,-11843.295072,2374.896044
22539.567008,-370.102971,-13915.871710,2451.505594
22539.567341,0.000000,-6957.935855,-3447.429741
22539.567674,-2146.597232,-14582.057057,1149.143247
22539.568007,2072.576638,-12731.542202,-536.266849
22539.568340,4737.318029,-8364.327145,-689.485948
22539.568673,2368.659014,-9548.656652,2145.067394
22539.569006,6735.874072,-3627.009116,2451.505594
22539.569339,888.247130,-7179.997637,0.000000
22539.569671,6735.874072,-11843.295072,4826.401637
22539.570004,-666.185348,-10066.800811,229.828649
22539.570337,2590.720797,-6513.812290,-76.609550
22539.570670,0.000000,-8956.491898,-3524.039291
22539.571003,-2886.803174,-15322.262999,-1225.752797
22539.571336,592.164754,-7179.997637,2604.724693
22539.571669,-1258.350101,-9474.636058,-76.609550
22539.572002,-3256.906145,-7772.162391,919.314598
22539.572335,-2960.823768,-8142.265362,2374.896044
22539.572668,-74.020594,-7105.977043,1762.019645
22539.573001,2368.659014,-666.185348,0.000000
22539.573334,3478.967927,-10510.924376,1762.019645
22539.573667,3849.070898,-7624.121203,1608.800546
22539.574000,2516.700203,-9326.594869,-536.266849
22539.574333,2072.576638,-13101.645173,-2145.067394
22539.574665,2294.638420,-15396.283594,-2528.115143
22539.574998,666.185348,-14730.098246,-919.314598
22539.575331,3256.906145,-11029.068536,4519.963438
22539.575664,0.000000,-9104.533087,2451.505594
22539.575997,0.000000,-4811.338623,4903.011187
22539.576330,-1258.350101,-4145.153275,-76.609550
22539.576663,-1480.411884,-4219.173869,-1225.752797
22539.576996,-4737.318029,-10807.006753,2221.676944
22539.577329,-1258.350101,-6513.812290,-3140.991542
22539.577662,-4737.318029,-7179.997637,0.000000
22539.577995,-3034.844362,-11695.253884,-1455.581446
22539.578328,1702.473667,-9474.636058,-76.609550
22539.578661,1850.514855,-9474.636058,-1762.019645
22539.578994,5699.585753,-14804.118840,2681.334243
22539.579327,4663.297435,-11843.295072,4826.401637
22539.579659,296.082377,-7179.997637,612.876398
22539.579992,0.000000,-10732.986159,7048.078582
22539.580325,-74.020594,-5033.400406,-612.876398
22539.580658,0.000000,-8956.491898,1225.752797
22539.580991,222.061783,-7105.977043,2451.505594
22539.581324,-1776.494261,-4959.379811,-4519.963438
22539.581657,-5921.647536,-13915.871710,-919.314598
22539.581990,814.226536,-7698.141797,-1149.143247
22539.582323,-74.020594,-12435.459826,-689.485948
22539.582656,0.000000,-8364.327145,4673.182538
22539.582989,814.226536,-9474.636058,-383.047749
22539.583322,-74.020594,-9178.553681,153.219100
22539.583655,2590.720797,-8882.471304,2374.896044
22539.583988,1258.350101,-6957.935855,1455.581446
22539.584321,-1332.370696,-8512.368333,-766.095498
22539.584653,-1184.329507,-8068.244768,-1608.800546
22539.584986,-2368.659014,-12213.398043,612.876398
22539.585319,-666.185348,-5403.503377,-3677.258390
22539.585652,1184.329507,-13915.871710,-76.609550
22539.585985,518.144159,-10881.027347,0.000000
22539.586318,1776.494261,-9548.656652,6128.763984
22539.586651,888.247130,-1554.432478,1378.971896
22539.586984,3775.050304,-7772.162391,3753.867940
22539.587317,-2072.576638,-14804.118840,1608.800546
22539.587650,3775.050304,-7994.224174,2068.457845
22539.587983,-1258.350101,-11843.295072,1455.581446
22539.588316,1776.494261,-6587.832884,-1455.581446
22539.588649,-1258.350101,-7698.141797,-4673.182538
22539.588982,-74.020594,-8068.244768,-4903.011187
22539.589315,2072.576638,-7772.162391,-2528.115143
22539.589647,-2146.597232,-9844.739029,-3677.258390
22539.589980,3330.926739,-11325.150913,-919.314598
22539.590313,592.164754,-13989.892304,5515.887586
22539.590646,3478.967927,-7031.956449,6741.640382
22539.590979,1998.556043,-8290.306550,4213.525239
22539.591312,4885.359217,-9252.574275,8044.002729
22539.591645,1480.411884,-8068.244768,153.219100
22539.591978,2738.761985,-9104.533087,3907.087040
22539.592311,-2146.597232,-9770.718434,-3370.820191
22539.592644,1406.391290,-7105.977043,-3753.867940
22539.592977,-3552.988522,-13101.645173,0.000000
22539.593310,-1184.329507,-10658.965565,-3140.991542
22539.593643,-3034.844362,-8660.409521,-3524.039291
22539.593976,0.000000,-8660.409521,0.000000
22539.594309,8216.285956,-7994.224174,5439.278036
22539.594642,3256.906145,-6069.688724,5132.839837
22539.594974,4293.194464,-8734.430116,3447.429741
22539.595307,-444.123565,-11843.295072,2987.772442
22539.595640,-1110.308913,-10732.986159,-2911.162892
22539.595973,592.164754,-10732.986159,1149.143247
22539.596306,-2738.761985,-14211.954086,-1302.362347
22539.596639,-3478.967927,-3627.009116,0.000000
22539.596972,-3034.844362,-9474.636058,-1915.238745
22539.597305,1110.308913,-6587.832884,306.438199
22539.597642,-1554.432478,-7179.997637,919.314598
22539.597974,2368.659014,-7698.141797,536.266849
22539.598307,-4441.235652,-11621.233289,689.485948
22539.598640,-2960.823768,-8364.327145,-2451.505594
22539.598973,5847.626942,-13027.624579,4826.401637
22539.599306,1628.453072,-8660.409521,1378.971896
22539.599639,1184.329507,-5403.503377,0.000000
22539.599972,-4145.153275,-11843.295072,-1302.362347
22539.600305,0.000000,-9844.739029,689.485948
22539.600638,1110.308913,-6365.771101,-1225.752797
22539.600971,-666.185348,-12879.583391,-842.705048
22539.601304,296.082377,-8068.244768,2145.067394
22539.601637,-370.102971,-5329.482782,-1302.362347
22539.601970,2886.803174,-13027.624579,4826.401637
22539.602303,0.000000,-4811.338623,4290.134789
22539.602636,4219.173869,-7105.977043,3600.648841
22539.602969,-74.020594,-11251.130318,536.266849
22539.603302,3552.988522,-6735.874072,-76.609550
22539.603635,-1998.556043,-13619.789333,689.485948
22539.603967,3182.885551,-7105.977043,-995.924147
22539.604300,-1480.411884,-12361.439231,-1608.800546
22539.604633,-5995.668130,-11251.130318,-4979.620737
22539.604966,-2664.741391,-8956.491898,-2987.772442
22539.605299,-3627.009116,-10584.944971,-383.047749
22539.605632,2960.823768,-7328.038826,3217.601092
22539.605965,0.000000,-7772.162391,3677.258390
22539.606298,5329.482782,-10140.821405,8197.221829
22539.606631,4663.297435,-4811.338623,4290.134789
22539.606964,2960.823768,-9548.656652,2451.505594
22539.607297,1998.556043,-10510.924376,4213.525239
22539.607630,-1776.494261,-8364.327145,0.000000
22539.607963,1480.411884,-8882.471304,-4060.306139
22539.608296,1110.308913,-8956.491898,-2528.115143
22539.608629,-2220.617826,-10732.986159,-6435.202183
22539.608962,-3627.009116,-9474.636058,-4979.620737
22539.609295,-5995.668130,-12731.542202,-5898.935335
22539.609628,-6291.750507,-8660.409521,-7354.516781
22539.609960,-1776.494261,-11029.068536,4213.525239
22539.610293,5847.626942,-9474.636058,8503.660028
22539.610626,5847.626942,-3923.091493,7967.393179
22539.610959,3552.988522,-9844.739029,11644.651570
22539.611292,7402.059420,-5181.441594,10648.727422
22539.611625,5699.585753,-3478.967927,2221.676944
22539.611958,740.205942,-12065.356855,1149.143247
22539.612291,-3404.947333,-10584.944971,-6741.640382
22539.612624,-1258.350101,-8512.368333,-9652.803275
22539.612957,-5403.503377,-11917.315666,-6741.640382
22539.613290,-74.020594,-11843.295072,-1915.238745
22539.613623,-6587.832884,-8290.306550,-5745.716235
22539.613956,0.000000,-7550.100608,-76.609550
22539.614289,444.123565,-9992.780217,2451.505594
22539.614622,1258.350101,-9622.677246,6818.249932
22539.614955,5551.544565,-3923.091493,6971.469032
22539.615288,2294.638420,-9474.636058,4213.525239
22539.615621,3552.988522,-4811.338623,4903.011187
22539.615954,2442.679609,-12879.583391,5209.449386
22539.616286,5847.626942,-11843.295072,-76.609550
22539.616619,-2368.659014,-9844.739029,-3677.258390
22539.616952,-5107.421000,-12583.501014,-7354.516781
22539.617285,-1554.432478,-8290.306550,-4366.744339
22539.617618,-3256.906145,-8660.409521,-1762.019645
22539.617951,3108.864956,-6513.812290,1838.629195
22539.618284,-2368.659014,-6587.832884,2451.505594
22539.618617,1184.329507,-5107.421000,4596.572988
22539.618950,-74.020594,-10658.965565,2068.457845
22539.619283,-2294.638420,-10732.986159,-3677.258390
22539.619616,592.164754,-12213.398043,2374.896044
22539.619949,-2294.638420,-11917.315666,3217.601092
22539.620282,0.000000,-9844.739029,-1838.629195
22539.620615,148.041188,-8142.265362,-1608.800546
22539.620948,1850.514855,-10066.800811,2528.115143
22539.621281,2368.659014,-5699.585753,0.000000
22539.621614,-962.267725,-10658.965565,-612.876398
22539.621947,-1924.535449,-8586.388927,536.266849
22539.622279,-4811.338623,-7994.224174,383.047749
22539.622612,4663.297435,-5625.565159,5439.278036
22539.622945,4515.256246,-5995.668130,766.095498
22539.623278,5329.482782,-8290.306550,3600.648841
22539.623611,-1258.350101,-11251.130318,-4366.744339
22539.623944,-4441.235652,-13101.645173,-5515.887586
22539.624277,-1850.514855,-16284.530724,-2528.115143
22539.624610,-3627.009116,-11473.192101,-3600.648841
22539.624943,740.205942,-9104.533087,2068.457845
22539.625276,-666.185348,-5699.585753,842.705048
22539.625609,1776.494261,-3034.844362,3677.258390
22539.625942,1998.556043,-6365.771101,2451.505594
22539.626275,7031.956449,-6513.812290,3294.210641
22539.626608,1184.329507,-12213.398043,3064.381992
22539.626941,1480.411884,-9844.739029,3677.258390
22539.627274,-1184.329507,-12213.398043,-3064.381992
22539.627607,2368.659014,-10362.883188,1378.971896
22539.627940,4737.318029,-9030.512492,1378.971896
22539.628272,-296.082377,-9474.636058,-2451.505594
22539.628605,1110.308913,-8882.471304,-383.047749
22539.628938,-9474.636058,-9844.739029,-7354.516781
22539.629271,-3627.009116,-14211.954086,-1302.362347
22539.629604,-6587.832884,-4367.215058,-4290.134789
22539.629937,-3997.112087,-11769.274478,-612.876398
22539.630270,3478.967927,-8290.306550,6052.154434
22539.630603,5033.400406,-7550.100608,5132.839837
22539.630936,5255.462188,-6143.709319,4443.353888
22539.631269,4293.194464,-6439.791695,689.485948
22539.631602,5255.462188,-14137.933492,-76.609550
22539.631935,7105.977043,-11325.150913,8120.612279
22539.632268,3923.091493,-7179.997637,0.000000
22539.632601,0.000000,-16062.468941,2987.772442
22539.632934,-74.020594,-5921.647536,-3907.087040
22539.633267,-6291.750507,-7179.997637,-5209.449386
22539.633600,-666.185348,-6957.935855,-3830.477490
22539.633933,-6365.771101,-11473.192101,-1762.019645
22539.634265,-9400.615463,-12953.603985,-2451.505594
22539.634598,-2886.803174,-7105.977043,2681.334243
22539.634931,1110.308913,-14211.954086,6665.030833
22539.635264,5329.482782,-74.020594,9346.365076
22539.635597,5847.626942,-8290.306550,8503.660028
22539.635930,6439.791695,-3108.864956,-2451.505594
22539.636263,0.000000,-5995.668130,-4596.572988
22539.636596,1110.308913,-14063.912898,-5056.230287
22539.636929,1258.350101,-10955.047942,-4749.792088
22539.637262,-1776.494261,-15100.201217,-3830.477490
22539.637595,74.020594,-12213.398043,3447.429741
22539.637928,-666.185348,-6513.812290,-1302.362347
22539.638261,-370.102971,-10436.903782,1608.800546
22539.638594,-444.123565,-7179.997637,2834.553343
22539.638927,3256.906145,-8216.285956,3677.258390
22539.639260,0.000000,-9030.512492,7354.516781
22539.639593,814.226536,-6809.894666,536.266849
22539.639926,-2072.576638,-7179.997637,1225.752797
22539.640258,-2368.659014,-6587.832884,2834.553343
22539.640591,1628.453072,-6513.812290,-4979.620737
22539.640924,-2146.597232,-7476.080014,-4903.011187
22539.641257,-1850.514855,-10214.842000,-7431.126331
22539.641590,-592.164754,-13915.871710,-2068.457845
22539.641923,-1998.556043,-12065.356855,2451.505594
22539.642256,-74.020594,-9474.636058,-1302.362347
22539.642589,3478.967927,-11843.295072,5898.935335
22539.642922,0.000000,-8364.327145,4443.353888
22539.643255,5921.647536,-4811.338623,8580.269578
22539.643588,-74.020594,-5921.647536,3140.991542
22539.643921,7105.977043,-6587.832884,6128.763984
22539.644254,-3404.947333,-7624.121203,1991.848295
22539.644587,148.041188,-18875.251521,-1991.848295
22539.644920,-3997.112087,-2368.659014,-8963.317327
22539.645253,-8364.327145,-18949.272115,-6818.249932
22539.645586,2294.638420,-7994.224174,-6511.811733
22539.645919,-4737.318029,370.102971,-76.609550
22539.646252,-2220.617826,-12953.603985,-76.609550
22539.646584,-74.020594,-27831.743419,7277.907231
22539.646917,11473.192101,6513.812290,7890.783629
22539.647250,14211.954086,8660.409521,4826.401637
22539.647583,2738.761985,-12139.377449,6818.249932
22539.647916,0.000000,-14582.057057,1225.752797
22539.648249,-7105.977043,-20725.766376,0.000000
22539.648582,2294.638420,-9992.780217,-1532.190996
22539.648915,-5107.421000,-18949.272115,-5592.497135
22539.649248,1406.391290,-7254.018232,-10955.165621
22539.649581,-1776.494261,-9548.656652,-7354.516781
22539.649914,-2368.659014,-8956.491898,-2451.505594
22539.650247,3182.885551,-2072.576638,5898.935335
22539.650580,2220.617826,-4737.318029,9959.241474
22539.650913,9252.574275,2812.782580,9729.412825
22539.651246,2886.803174,-3256.906145,7124.688131
22539.651579,10658.965565,-9474.636058,4826.401637
22539.651912,1850.514855,-8364.327145,7354.516781
22539.652245,0.000000,-9548.656652,-3677.258390
22539.652577,-1850.514855,-23094.425390,-1302.362347
22539.652910,-5329.482782,-18061.024985,-6128.763984
22539.653243,-3034.844362,-13027.624579,-6052.154434
22539.653576,-9030.512492,-12953.603985,-3677.258390
22539.653909,-296.082377,-8808.450710,-3447.429741
22539.654242,-5699.585753,-7476.080014,2681.334243
22539.654575,1702.473667,-6217.729913,6052.154434
22539.654908,1628.453072,-4071.132681,2221.676944
22539.655241,2072.576638,-7328.038826,2298.286494
22539.655574,5181.441594,-7772.162391,-995.924147
22539.655907,2886.803174,-10066.800811,-2528.115143
22539.656240,2516.700203,-13545.768739,-3524.039291
22539.656573,1702.473667,-16580.613101,-8656.879127
22539.656906,-2368.659014,-14285.974681,-6128.763984
22539.657239,-1776.494261,-10732.986159,-4903.011187
22539.657572,-2442.679609,-11843.295072,-6435.202183
22539.657905,-962.267725,-8290.306550,3294.210641
22539.658238,-2072.576638,-6365.771101,2681.334243
22539.658570,296.082377,-2072.576638,4903.011187
22539.658903,0.000000,-4811.338623,5515.887586
22539.659236,3182.885551,-4737.318029,4826.401637
22539.659569,814.226536,-7698.141797,4213.525239
22539.659902,-5625.565159,-9548.656652,0.000000
22539.660235,-1258.350101,-11843.295072,-76.609550
22539.660568,-2072.576638,-7772.162391,1225.752797
22539.660901,-666.185348,-8734.430116,-919.314598
22539.661234,444.123565,-9400.615463,-689.485948
22539.661567,888.247130,-9104.533087,-1072.533697
22539.661900,4441.235652,-5995.668130,919.314598
22539.662233,3478.967927,-16580.613101,6971.469032
22539.662566,4737.318029,-1850.514855,4903.011187
22539.662899,2368.659014,-12509.480420,9729.412825
22539.663232,5847.626942,-7105.977043,5362.668486
22539.663565,1776.494261,-8438.347739,1455.581446
22539.663898,962.267725,-9030.512492,-1072.533697
22539.664231,3997.112087,-8882.471304,-1608.800546
22539.664563,-2812.782580,-13693.809927,612.876398
22539.664896,-74.020594,-10214.842000,1149.143247
22539.665229,-4737.318029,-3627.009116,-6128.763984
22539.665562,-4737.318029,-7772.162391,-1532.190996
22539.665895,-74.020594,-8882.471304,-689.485948
22539.666228,-1850.514855,-7772.162391,-3677.258390
22539.666561,3552.988522,-8290.306550,-76.609550
22539.666894,0.000000,-12879.583391,919.314598
22539.667227,4663.297435,-8882.471304,995.924147
22539.667560,2294.638420,-14137.933492,3907.087040
22539.667893,7476.080014,-12435.459826,1455.581446
22539.668226,2664.741391,-12509.480420,3370.820191
22539.668559,1702.473667,-9252.574275,1378.971896
22539.668892,666.185348,-8956.491898,-2451.505594
22539.669225,-4737.318029,-11029.068536,-2451.505594
22539.669558,-2960.823768,-8068.244768,-2145.067394
22539.669891,-3627.009116,-5329.482782,-4060.306139
22539.670224,-7105.977043,-5403.503377,-6128.763984
22539.670556,-6513.812290,-8068.244768,-2757.943793
22539.670889,-2368.659014,-8956.491898,1838.629195
22539.671222,4145.153275,-6291.750507,5132.839837
22539.671555,-592.164754,-8882.471304,6358.592633
22539.671888,2664.741391,-1702.473667,0.000000
22539.672221,-74.020594,-16580.613101,-76.609550
22539.672554,1776.494261,-5995.668130,612.876398
22539.672887,-74.020594,-9548.656652,-3370.820191
22539.673220,-7105.977043,-11029.068536,-3677.258390
22539.673553,-74.020594,-11251.130318,-2528.115143
22539.673886,-5403.503377,-15396.283594,1149.143247
22539.674219,3627.009116,-4737.318029,3600.648841
22539.674552,0.000000,-8956.491898,6894.859482
22539.674885,3923.091493,-4071.132681,7431.126331
22539.675218,2516.700203,-4589.276840,11338.213370
22539.675551,4367.215058,-6957.935855,8503.660028
22539.675884,4737.318029,-5995.668130,0.000000
22539.676217,-888.247130,-17912.983796,1149.143247
22539.676550,0.000000,-7179.997637,-7048.078582
22539.676882,-4737.318029,-9548.656652,-8810.098227
22539.677215,-3627.009116,-14211.954086,-8963.317327
22539.677548,-814.226536,-11251.130318,-4136.915689
22539.677881,-4367.215058,-11769.274478,-3064.381992
22539.678214,3404.947333,-7698.141797,2681.334243
22539.678547,-666.185348,-7698.141797,2987.772442
22539.678880,5921.647536,-8956.491898,7890.783629
22539.679213,4663.297435,-11251.130318,10648.727422
22539.679546,6069.688724,-5403.503377,5209.449386
22539.679879,10658.965565,-8290.306550,6971.469032
22539.680212,4737.318029,-8364.327145,2757.943793
22539.680545,1850.514855,-8438.347739,-6128.763984
22539.680878,-1998.556043,-11103.089130,-6205.373534
22539.681211,-5699.585753,-14434.015869,-10418.898773
22539.681544,-4737.318029,-10140.821405,-4903.011187
22539.681877,-3923.091493,-10658.965565,-2528.115143
22539.682210,-3330.926739,-9548.656652,-2451.505594
22539.682543,-3552.988522,-3627.009116,0.000000
22539.682875,4145.153275,-8956.491898,6281.983084
22539.683208,2072.576638,-7179.997637,7354.516781
22539.683541,5625.565159,-5995.668130,2911.162892
22539.683874,0.000000,-13989.892304,3217.601092
22539.684207,4293.194464,-9474.636058,2451.505594
22539.684540,0.000000,-12213.398043,1225.752797
22539.684873,3923.091493,-5921.647536,689.485948
22539.685206,-888.247130,-7772.162391,-2987.772442
22539.685539,-4145.153275,-8438.347739,-1378.971896
22539.685872,-1258.350101,-4441.235652,-995.924147
22539.686205,-3404.947333,-5995.668130,-2374.896044
22539.686538,-592.164754,-8290.306550,-76.609550
22539.686871,-1258.350101,-12435.459826,-2528.115143
22539.687204,-2368.659014,-10140.821405,0.000000
22539.687537,-74.020594,-15026.180623,4826.401637
22539.687870,1406.391290,-12361.439231,2451.505594
22539.688203,1702.473667,-9770.718434,3830.477490
22539.688536,0.000000,-9474.636058,3370.820191
22539.688868,0.000000,-5403.503377,612.876398
22539.689201,-1998.556043,-5403.503377,1225.752797
22539.689534,2886.803174,-8882.471304,-1915.238745
22539.689867,592.164754,-2738.761985,2451.505594
22539.690200,-1480.411884,-2738.761985,-2451.505594
22539.690533,-2812.782580,-7105.977043,-2528.115143
22539.690866,-1480.411884,-12509.480420,-2834.553343
22539.691199,296.082377,-13249.686362,-2451.505594
22539.691532,-148.041188,-13471.748144,306.438199
22539.691865,-74.020594,-13471.748144,0.000000
22539.692198,-4737.318029,-12509.480420,4213.525239
22539.692531,3478.967927,-4737.318029,2374.896044
22539.692864,-1776.494261,-9548.656652,2451.505594
22539.693197,1480.411884,-5995.668130,2374.896044
22539.693530,2368.659014,-5033.400406,0.000000
22539.693863,-1702.473667,-11695.253884,306.438199
22539.694196,4219.173869,-4219.173869,1149.143247
22539.694529,-1628.453072,-10362.883188,-1302.362347
22539.694861,5107.421000,-10658.965565,-2834.553343
22539.695194,0.000000,-18283.086767,4673.182538
22539.695527,2664.741391,-8882.471304,-383.047749
22539.695860,1776.494261,-9548.656652,2451.505594
22539.696193,4441.235652,-7698.141797,9729.412825
22539.696526,1702.473667,-2960.823768,-1915.238745
22539.696859,1480.411884,-7179.997637,612.876398
22539.697192,-148.041188,-9548.656652,-3447.429741
22539.697525,-4885.359217,-11843.295072,-4519.963438
22539.697858,-4737.318029,-8956.491898,-2451.505594
22539.698191,-5995.668130,-13027.624579,-5592.497135
22539.698524,-2368.659014,-9844.739029,-306.438199
22539.698857,2368.659014,-6957.935855,4826.401637
22539.699190,5255.462188,-5625.565159,2834.553343
22539.699523,4071.132681,-5181.441594,5132.839837
22539.699856,3256.906145,-9992.780217,4060.306139
22539.700189,4737.318029,-7920.203579,3064.381992
22539.700522,4441.235652,-13767.830521,3140.991542
22539.700854,8290.306550,-7179.997637,7354.516781
22539.701187,-222.061783,-8290.306550,-2298.286494
22539.701520,-2368.659014,-7179.997637,-3064.381992
22539.701853,-5847.626942,-10288.862594,-7584.345430
22539.702186,-4737.318029,-10584.944971,-6358.592633
22539.702519,-8882.471304,-12213.398043,-3677.258390
22539.702852,-6587.832884,-11843.295072,-2528.115143
22539.703185,-4515.256246,-9548.656652,1532.190996
22539.703518,1184.329507,-8882.471304,7277.907231
22539.703851,7031.956449,-4737.318029,7277.907231
22539.704184,0.000000,-7179.997637,3983.696590
22539.704517,8438.347739,-5181.441594,4366.744339
22539.704850,0.000000,-9696.697840,842.705048
22539.705183,3775.050304,-7920.203579,-2604.724693
22539.705516,-1110.308913,-12879.583391,-4366.744339
22539.705849,-74.020594,-11547.212695,-8580.269578
22539.706181,-1184.329507,-16062.468941,1532.190996
22539.706514,-666.185348,-10658.965565,-689.485948
22539.706847,-1702.473667,-9548.656652,-2451.505594
22539.707180,-888.247130,-8734.430116,4826.401637
22539.707513,2368.659014,-6587.832884,4903.011187
22539.707846,1110.308913,-6439.791695,5975.544884
22539.708179,1776.494261,-10436.903782,2681.334243
22539.708512,1110.308913,-9474.636058,536.266849
22539.708845,2294.638420,-5403.503377,0.000000
22539.709178,2886.803174,-9474.636058,-689.485948
22539.709511,518.144159,-9474.636058,-3140.991542
22539.709844,-2960.823768,-8364.327145,-4903.011187
22539.710177,-74.020594,-7698.141797,-4060.306139
22539.710510,-2664.741391,-7624.121203,-2911.162892
22539.710843,222.061783,-10955.047942,-76.609550
22539.711176,3404.947333,-8142.265362,3524.039291
22539.711509,-2368.659014,-14285.974681,3064.381992
22539.711841,4737.318029,-9252.574275,5362.668486
22539.712174,2294.638420,-13027.624579,7890.783629
22539.712507,2368.659014,-4811.338623,5056.230287
22539.712840,2664.741391,-7031.956449,7584.345430
22539.713173,-74.020594,-8290.306550,-4366.744339
22539.713506,0.000000,-6143.709319,-4290.134789
22539.713839,-5477.523971,-10807.006753,-4213.525239
22539.714172,-1628.453072,-8882.471304,-5056.230287
22539.714505,-5625.565159,-8660.409521,-1838.629195
22539.714838,-2368.659014,-10066.800811,-2451.505594
22539.715171,1406.391290,-6957.935855,2221.676944
22539.715504,444.123565,-9178.553681,2911.162892
22539.715837,5255.462188,-8290.306550,4826.401637
22539.716170,814.226536,-11251.130318,5439.278036
22539.716503,1184.329507,-10436.903782,4903.011187
22539.716836,5551.544565,-9474.636058,6052.154434
22539.717169,3478.967927,-8142.265362,459.657299
22539.717501,-74.020594,-9474.636058,-3140.991542
22539.717834,-1332.370696,-11843.295072,-4519.963438
22539.718167,-2442.679609,-9474.636058,-6358.592633
22539.718500,-4589.276840,-9474.636058,-4826.401637
22539.718833,-3404.947333,-11547.212695,-1608.800546
22539.719166,2294.638420,-9474.636058,2987.772442
22539.719499,0.000000,-8364.327145,8733.488677
22539.719832,4663.297435,-7698.141797,5286.058936
22539.720165,3552.988522,-5107.421000,3064.381992
22539.720498,1924.535449,-8438.347739,4213.525239
22539.720831,5107.421000,-8142.265362,1532.190996
22539.721164,2294.638420,-8660.409521,76.609550
22539.721497,-2368.659014,-12805.562797,-3370.820191
22539.721830,-4367.215058,-9844.739029,-5439.278036
22539.722163,-5403.503377,-10658.965565,-6818.249932
22539.722496,-2738.761985,-11843.295072,-689.485948
22539.722829,-74.020594,-4885.359217,-3677.258390
22539.723161,0.000000,-6291.750507,2145.067394
22539.723494,3478.967927,-7698.141797,7660.954980
22539.723827,2960.823768,-6587.832884,7354.516781
22539.724160,4441.235652,-9104.533087,6435.202183
22539.724493,1258.350101,-10658.965565,2451.505594
22539.724826,-74.020594,-10658.965565,-995.924147
22539.725159,-4441.235652,-11917.315666,-3677.258390
22539.725492,-4811.338623,-11843.295072,-5898.935335
22539.725825,-7105.977043,-9548.656652,-4290.134789
22539.726158,-8290.306550,-9104.533087,-1302.362347
22539.726491,-4811.338623,-8290.306550,-3140.991542
22539.726824,-7550.100608,-6587.832884,2374.896044
22539.727157,-6957.935855,-7550.100608,1685.410096
22539.727490,-5107.421000,-9474.636058,2987.772442
22539.727823,-3997.112087,-10066.800811,7584.345430
22539.728156,-1258.350101,-7698.141797,3140.991542
22539.728489,-2442.679609,-8734.430116,306.438199
22539.728821,-5921.647536,-12435.459826,-76.609550
22539.729154,-4811.338623,-9474.636058,-3753.867940
22539.729487,-8364.327145,-12731.542202,-3140.991542
22539.729820,-3923.091493,-12435.459826,-76.609550
22539.730153,-11103.089130,-8956.491898,-2757.943793
22539.730486,-9030.512492,-8216.285956,-1838.629195
22539.730819,-7698.141797,-8956.491898,-2068.457845
22539.731152,-3034.844362,-9178.553681,5898.935335
22539.731485,-2664.741391,-6883.915261,6665.030833
22539.731818,-3775.050304,-7698.141797,3753.867940
22539.732151,-5699.585753,-10362.883188,306.438199
22539.732484,-6513.812290,-9548.656652,612.876398
22539.732817,-7105.977043,-9918.759623,2374.896044
22539.733150,-4811.338623,-8290.306550,-3753.867940
22539.733483,-9252.574275,-10140.821405,-3064.381992
22539.733816,-8290.306550,-10214.842000,-842.705048
22539.734149,-6883.915261,-7105.977043,-1302.362347
22539.734481,-5847.626942,-5921.647536,1455.581446
22539.734814,-9474.636058,-7254.018232,-2374.896044
22539.735147,-5107.421000,-6957.935855,1225.752797
22539.735480,-7031.956449,-14211.954086,3677.258390
22539.735813,-4811.338623,-13027.624579,1762.019645
22539.736146,-8364.327145,-11917.315666,306.438199
22539.736479,-5773.606348,-10362.883188,2451.505594
22539.736812,-6291.750507,-11843.295072,1762.019645
22539.737145,-6217.729913,-5995.668130,0.000000
22539.737478,-7772.162391,-9178.553681,-689.485948
22539.737811,-10436.903782,-8734.430116,-383.047749
22539.738144,-9326.594869,-6661.853478,-1225.752797
22539.738477,-9548.656652,-6513.812290,-2834.553343
22539.738810,-7846.182985,-7105.977043,2987.772442
22539.739143,-10066.800811,-4811.338623,0.000000
22539.739476,-9622.677246,-14508.036463,1762.019645
22539.739809,-4811.338623,-8882.471304,-3140.991542
22539.740141,-8956.491898,-14211.954086,-76.609550
22539.740474,-7179.997637,-9474.636058,-1762.019645
22539.740807,-5847.626942,-13323.706956,995.924147
22539.741140,-7772.162391,-9844.739029,1762.019645
22539.741473,-6809.894666,-7179.997637,0.000000
22539.741806,-7772.162391,-10362.883188,1455.581446
22539.742139,-10362.883188,-5995.668130,0.000000
22539.742472,-8956.491898,-11251.130318,-1302.362347
22539.742805,-11473.192101,-7772.162391,0.000000
22539.743138,-12435.459826,-8364.327145,1225.752797
22539.743471,-11251.130318,-9030.512492,1762.019645
22539.743804,-9252.574275,-8660.409521,1838.629195
22539.744137,-8216.285956,-9548.656652,1455.581446
22539.744470,-5403.503377,-9474.636058,2374.896044
22539.744803,-11843.295072,-10732.986159,612.876398
22539.745136,-9548.656652,-9474.636058,-1915.238745
22539.745468,-11917.315666,-11843.295072,-2528.115143
22539.745801,-13027.624579,-10732.986159,-2451.505594
22539.746134,-14211.954086,-8364.327145,612.876398
22539.746467,-11769.274478,-4737.318029,-689.485948
22539.746800,-13915.871710,-8956.491898,842.705048
22539.747133,-10288.862594,-4737.318029,536.266849
22539.747466,-9844.739029,-9474.636058,3600.648841
22539.747799,-6957.935855,-7476.080014,6128.763984
22539.748132,-9918.759623,-11029.068536,2757.943793
22539.748465,-9844.739029,-10362.883188,766.095498
22539.748798,-9474.636058,-11103.089130,536.266849
22539.749131,-7476.080014,-8882.471304,-1302.362347
22539.749464,-10214.842000,-8364.327145,-2451.505594
22539.749797,-10066.800811,-11325.150913,-76.609550
22539.750130,-10732.986159,-7698.141797,-4213.525239
22539.750463,-13027.624579,-11103.089130,842.705048
22539.750796,-9918.759623,-11251.130318,1149.143247
22539.751128,-12583.501014,-7179.997637,-995.924147
22539.751461,-8290.306550,-9548.656652,2757.943793
22539.751794,-5403.503377,-6439.791695,3600.648841
22539.752127,-6883.915261,-10510.924376,2528.115143
22539.752460,-7105.977043,-9548.656652,2451.505594
22539.752793,-5995.668130,-11843.295072,2374.896044
22539.753126,-5403.503377,-8586.388927,-2451.505594
22539.753459,-6513.812290,-9548.656652,-76.609550
22539.753792,-9548.656652,-11251.130318,-3140.991542
22539.754125,-10881.027347,-10362.883188,-2528.115143
22539.754458,-11399.171507,-9474.636058,-2528.115143
22539.754791,-9622.677246,-8882.471304,-689.485948
22539.755124,-9474.636058,-8068.244768,1225.752797
22539.755457,-11843.295072,-7179.997637,4596.572988
22539.755790,-7179.997637,-9474.636058,2068.457845
22539.756123,-7254.018232,-9474.636058,4213.525239
22539.756456,-6217.729913,-8364.327145,5209.449386
22539.756788,-4737.318029,-7179.997637,4290.134789
22539.757121,-8068.244768,-9474.636058,-306.438199
22539.757454,-10510.924376,-7920.203579,-2681.334243
22539.757787,-12287.418637,-7994.224174,-6435.202183
22539.758120,-10140.821405,-11843.295072,-3907.087040
22539.758453,-10214.842000,-12435.459826,-76.609550
22539.758786,-10732.986159,-7179.997637,-4903.011187
22539.759119,-10658.965565,-11029.068536,2221.676944
22539.759452,-9548.656652,-9474.636058,842.705048
22539.759785,-6291.750507,-9844.739029,6511.811733
22539.760118,-5773.606348,-8586.388927,5975.544884
22539.760451,-7624.121203,-9992.780217,2987.772442
22539.760784,-8142.265362,-9548.656652,2374.896044
22539.761117,-8438.347739,-8512.368333,1302.362347
22539.761450,-9548.656652,-8290.306550,-2834.553343
22539.761783,-13619.789333,-9548.656652,-3677.258390
22539.762116,-14211.954086,-9474.636058,-2528.115143
22539.762448,-13101.645173,-6957.935855,-4903.011187
22539.762781,-10140.821405,-9326.594869,1149.143247
22539.763114,-9696.697840,-7550.100608,1225.752797
22539.763447,-9104.533087,-9178.553681,1149.143247
22539.763780,-9030.512492,-9992.780217,2987.772442
22539.764113,-12435.459826,-10732.986159,1225.752797
22539.764446,-9548.656652,-10881.027347,0.000000
22539.764779,-7772.162391,-12139.377449,2681.334243
22539.765112,-8290.306550,-9548.656652,1915.238745
22539.765445,-6587.832884,-6661.853478,1455.581446
22539.765778,-8142.265362,-4589.276840,-383.047749
22539.766111,-7179.997637,-9474.636058,-1302.362347
22539.766444,-14211.954086,-8364.327145,-4903.011187
22539.766777,-14137.933492,-12435.459826,-3753.867940
22539.767110,-14656.077652,-13915.871710,-2451.505594
22539.767443,-13027.624579,-10732.986159,612.876398
22539.767776,-7920.203579,-8364.327145,4290.134789
22539.768108,-5403.503377,-6143.709319,5745.716235
22539.768441,-3552.988522,-4959.379811,5209.449386
22539.768774,-3552.988522,-7328.038826,3677.258390
22539.769107,-4367.215058,-8512.368333,0.000000
22539.769440,-8364.327145,-10140.821405,-4290.134789
22539.769773,-11843.295072,-13471.748144,-4366.744339
22539.770106,-13101.645173,-11843.295072,-8350.440928
22539.770439,-14211.954086,-11325.150913,-4979.620737
22539.770772,-14137.933492,-8290.306550,-3600.648841
22539.771105,-12657.521608,-7550.100608,612.876398
22539.771438,-9696.697840,-6365.771101,4903.011187
22539.771771,-4811.338623,-7698.141797,10955.165621
22539.772104,-3701.029710,-3034.844362,9806.022374
22539.772437,-1110.308913,-5551.544565,7354.516781
22539.772770,-74.020594,-9474.636058,4826.401637
22539.773103,-3552.988522,-7772.162391,-1838.629195
22539.773436,-4811.338623,-11251.130318,-7584.345430
22539.773768,-8364.327145,-14508.036463,-10801.946522
22539.774101,-11103.089130,-14211.954086,-11874.480219
22539.774434,-10658.965565,-12953.603985,-8044.002729
22539.774767,-7846.182985,-8364.327145,-3524.039291
22539.775100,-7105.977043,-7179.997637,5209.449386
22539.775433,-666.185348,-6513.812290,6971.469032
22539.775766,592.164754,-4811.338623,9806.022374
22539.776099,2960.823768,-7772.162391,14096.157163
22539.776432,2294.638420,-7402.059420,6588.421283
22539.776765,-222.061783,-10955.047942,3907.087040
22539.777098,-2220.617826,-12213.398043,383.047749
22539.777431,-3404.947333,-12139.377449,-2451.505594
22539.777764,-5181.441594,-10214.842000,-4673.182538
22539.778097,-7846.182985,-11769.274478,-4826.401637
22539.778430,-9326.594869,-9548.656652,-4749.792088
22539.778763,-7920.203579,-7105.977043,-1991.848295
22539.779096,-5107.421000,-8290.306550,4213.525239
22539.779428,-5107.421000,-8586.388927,4826.401637
22539.779761,-5921.647536,-7179.997637,7354.516781
22539.780094,-4737.318029,-7772.162391,10725.336972
22539.780427,-74.020594,-8734.430116,8503.660028
22539.780760,888.247130,-10436.903782,9806.022374
22539.781093,1258.350101,-10658.965565,8350.440928
22539.781426,-740.205942,-10807.006753,6511.811733
22539.781759,-1702.473667,-8956.491898,2987.772442
22539.782092,-4811.338623,-8882.471304,536.266849
22539.782425,-5625.565159,-10066.800811,2068.457845
22539.782758,-8882.471304,-8956.491898,6741.640382
22539.783091,-5995.668130,-9474.636058,7890.783629
22539.783424,-5995.668130,-8882.471304,8656.879127
22539.783757,-4515.256246,-8142.265362,14632.424012
22539.784090,-2072.576638,-7179.997637,17773.415554
22539.784423,0.000000,-8142.265362,20224.921147
22539.784755,592.164754,-8734.430116,19535.435199
22539.785088,0.000000,-7772.162391,18386.291952
22539.785421,-74.020594,-8142.265362,15551.738609
22539.785754,-2368.659014,-7476.080014,16854.100956
22539.786087,-2442.679609,-8586.388927,12487.356617
22539.786420,-4737.318029,-8364.327145,13713.109414
22539.786753,-2960.823768,-3627.009116,15321.909960
22539.787086,148.041188,-5773.606348,19535.435199
22539.787419,1702.473667,-4737.318029,20148.311597
22539.787752,962.267725,-6069.688724,20991.016645
22539.788085,1998.556043,-9474.636058,21986.940793
22539.788418,0.000000,-8660.409521,21450.673944
22539.788751,2294.638420,-11547.212695,21067.626195
22539.789084,0.000000,-9548.656652,24515.055936
22539.789417,2590.720797,-11843.295072,24132.008187
22539.789750,3478.967927,-1776.494261,21986.940793
22539.790083,1776.494261,-4737.318029,23212.693589
22539.790415,2812.782580,-1110.308913,21757.112143
22539.790748,2812.782580,-2590.720797,19841.873398
22539.791081,-518.144159,-2442.679609,15015.471761
22539.791414,-2368.659014,-8586.388927,13100.233016
22539.791747,-2442.679609,-7846.182985,9806.022374
22539.792080,-1776.494261,-12953.603985,15934.786358
22539.792413,-74.020594,-13027.624579,14019.547613
22539.792746,-74.020594,-10658.965565,16930.710506
22539.793079,1110.308913,-10955.047942,19228.997000
22539.793412,3404.947333,-8512.368333,21757.112143
22539.793745,2812.782580,-3627.009116,19305.606550
22539.794078,962.267725,-4441.235652,15858.176809
22539.794411,-296.082377,-7105.977043,14479.204912
22539.794744,-2738.761985,-7105.977043,10648.727422
22539.795077,-5181.441594,-7846.182985,6741.640382
22539.795410,-4219.173869,-9104.533087,5745.716235
22539.795743,-1554.432478,-6587.832884,5362.668486
22539.796075,2368.659014,-9252.574275,11721.261119
22539.796408,3478.967927,-11251.130318,9729.412825
22539.796741,-814.226536,-11325.150913,9806.022374
22539.797074,0.000000,-13841.851115,14325.985813
22539.797407,1110.308913,-10955.047942,12640.575717
22539.797740,2220.617826,-5551.544565,12793.794817
22539.798073,1406.391290,-1850.514855,6894.859482
22539.798406,-1406.391290,-4885.359217,3677.258390
22539.798739,-3256.906145,-7476.080014,2451.505594
22539.799071,-3552.988522,-12435.459826,2374.896044
22539.799404,-3182.885551,-8364.327145,612.876398
22539.799737,0.000000,-9548.656652,2757.943793
22539.800070,6069.688724,-11251.130318,6358.592633
22539.800403,2960.823768,-9548.656652,4903.011187
22539.800736,3775.050304,-11769.274478,4136.915689
22539.801069,2072.576638,-10732.986159,4060.306139
22539.801401,1998.556043,-11103.089130,4060.306139
22539.801734,1184.329507,-7772.162391,4903.011187
22539.802067,-2146.597232,-3775.050304,-1532.190996
22539.802400,-2886.803174,-6587.832884,0.000000
22539.802733,-74.020594,-9178.553681,2068.457845
22539.803066,-74.020594,-10658.965565,2987.772442
22539.803398,-1184.329507,-9548.656652,1225.752797
22539.803731,-1480.411884,-10140.821405,536.266849
22539.804064,-666.185348,-13397.727550,153.219100
22539.804397,296.082377,-11917.315666,3600.648841
22539.804730,3478.967927,-11843.295072,6358.592633
22539.805063,5773.606348,-12435.459826,9729.412825
22539.805396,2516.700203,-3775.050304,5898.935335
22539.805728,-2072.576638,-9548.656652,6128.763984
22539.806061,-74.020594,-9474.636058,4213.525239
22539.806394,-2442.679609,-9474.636058,1302.362347
22539.806727,-3552.988522,-8068.244768,2374.896044
22539.807060,-2072.576638,-8808.450710,3217.601092
22539.807393,-2368.659014,-8438.347739,5745.716235
22539.807726,-1184.329507,-5699.585753,7354.516781
22539.808058,-74.020594,-7994.224174,4596.572988
22539.808391,1776.494261,-11177.109724,10495.508323
22539.808724,3404.947333,-13249.686362,10955.165621
22539.809057,1702.473667,-11251.130318,7967.393179
22539.809390,0.000000,-8364.327145,8273.831378
22539.809723,0.000000,-9104.533087,10495.508323
22539.810056,-296.082377,-4885.359217,7507.735880
22539.810388,-1776.494261,-7698.141797,6588.421283
22539.810721,296.082377,-11029.068536,9806.022374
22539.811054,2590.720797,-11251.130318,11874.480219
22539.811387,-592.164754,-9770.718434,15168.690860
22539.811720,-740.205942,-6809.894666,14019.547613
22539.812053,1110.308913,-4145.153275,14632.424012
22539.812385,1184.329507,-4811.338623,13483.280765
22539.812718,4071.132681,-9474.636058,15934.786358
22539.813051,296.082377,-9548.656652,17773.415554
22539.813384,1776.494261,-9104.533087,19535.435199
22539.813717,2294.638420,-8290.306550,20761.187996
22539.814050,0.000000,-6291.750507,21757.112143
22539.814383,1110.308913,-2516.700203,16164.615008
22539.814715,-1480.411884,-3627.009116,12717.185267
22539.815048,-592.164754,-6143.709319,16394.443657
22539.815381,-74.020594,-8290.306550,18309.682402
22539.815714,-2442.679609,-5033.400406,12334.137518
22539.816047,-740.205942,-7476.080014,15321.909960
22539.816380,1702.473667,-10658.965565,18922.558801
22539.816713,1628.453072,-8956.491898,22369.988542
22539.817045,2220.617826,-9474.636058,23825.569988
22539.817378,2072.576638,-2590.720797,19535.435199
22539.817711,1406.391290,-3627.009116,15551.738609
22539.818044,0.000000,-9178.553681,15092.081311
22539.818377,-1184.329507,-7105.977043,11874.480219
22539.818710,-5699.585753,-4811.338623,8580.269578
22539.819042,-1776.494261,-7031.956449,9729.412825
22539.819375,-1258.350101,-9474.636058,8503.660028
22539.819708,-1258.350101,-12805.562797,11644.651570
22539.820041,1702.473667,-11695.253884,13100.233016
22539.820374,222.061783,-7254.018232,13406.671215
22539.820707,1850.514855,-6883.915261,12717.185267
22539.821040,3330.926739,-13323.706956,20301.530697
22539.821372,3701.029710,-8364.327145,21450.673944
22539.821705,1184.329507,-2368.659014,17083.929605
22539.822038,2886.803174,-3552.988522,6665.030833
22539.822371,-1776.494261,-8956.491898,8886.707777
22539.822704,0.000000,-9548.656652,9729.412825
22539.823037,-74.020594,-6143.709319,7048.078582
22539.823370,-2960.823768,-4737.318029,6052.154434
22539.823702,-2886.803174,-10881.027347,5745.716235
22539.824035,1702.473667,-9104.533087,8580.269578
22539.824368,2368.659014,-8068.244768,5209.449386
22539.824701,3552.988522,-11251.130318,9422.974625
22539.825034,3997.112087,-10658.965565,8810.098227
22539.825367,1110.308913,-12583.501014,8733.488677
22539.825700,2146.597232,-7994.224174,6052.154434
22539.826032,2072.576638,-5921.647536,1149.143247
22539.826365,0.000000,-3923.091493,-1225.752797
22539.826698,-74.020594,-7105.977043,-6818.249932
22539.827031,-1850.514855,-11843.295072,-5209.449386
22539.827364,-666.185348,-13619.789333,-1302.362347
22539.827697,-370.102971,-14211.954086,-76.609550
22539.828029,-1628.453072,-7994.224174,-995.924147
22539.828362,-444.123565,-7179.997637,-4903.011187
22539.828695,3330.926739,-6513.812290,-2987.772442
22539.829028,3478.967927,-14804.118840,-1302.362347
22539.829361,2368.659014,-16654.633695,7890.783629
22539.829694,-74.020594,-10066.800811,-689.485948
22539.830027,0.000000,-3627.009116,-4213.525239
22539.830359,0.000000,-6291.750507,-4903.011187
22539.830692,-74.020594,-8364.327145,-8733.488677
22539.831025,1110.308913,-7920.203579,-8273.831378
22539.831358,-3330.926739,-12435.459826,-10495.508323
22539.831691,-74.020594,-13027.624579,-4749.792088
22539.832024,-3849.070898,-6587.832884,-9193.145976
22539.832357,4367.215058,-11843.295072,-3140.991542
22539.832689,3182.885551,-13027.624579,-5592.497135
22539.833022,-1480.411884,-11917.315666,-5362.668486
22539.833355,3923.091493,-19541.436869,4213.525239
22539.833688,2516.700203,-9992.780217,919.314598
22539.834021,4145.153275,-1258.350101,-3447.429741
22539.834354,518.144159,-5995.668130,-6435.202183
22539.834687,-1776.494261,-4145.153275,-10955.165621
22539.835019,-6513.812290,-9104.533087,-12257.527968
22539.835352,-74.020594,-14211.954086,-9269.755526
22539.835685,-1184.329507,-14582.057057,-3677.258390
22539.836018,1184.329507,-8512.368333,0.000000
22539.836351,3478.967927,-7105.977043,-1302.362347
22539.836684,4663.297435,-9178.553681,2068.457845
22539.837016,4441.235652,-8142.265362,-459.657299
22539.837349,1480.411884,-14063.912898,1532.190996
22539.837682,1036.288319,-10658.965565,-2374.896044
22539.838015,2294.638420,-6513.812290,-4979.620737
22539.838348,814.226536,-5477.523971,-6128.763984
22539.838681,-2368.659014,-7920.203579,-4749.792088
22539.839014,-1776.494261,-7920.203579,-3140.991542
22539.839346,-1850.514855,-12731.542202,-5592.497135
22539.839679,2590.720797,-13323.706956,2987.772442
22539.840012,148.041188,-8290.306550,1762.019645
22539.840345,0.000000,-6735.874072,536.266849
22539.840678,3478.967927,-10436.903782,4979.620737
22539.841011,2886.803174,-13767.830521,9729.412825
22539.841344,2220.617826,-6365.771101,5362.668486
22539.841676,-370.102971,-11843.295072,2451.505594
22539.842009,1702.473667,-13767.830521,7124.688131
22539.842342,-2368.659014,-7328.038826,7660.954980
22539.842675,-888.247130,-3256.906145,4213.525239
22539.843008,814.226536,148.041188,-2451.505594
22539.843341,-2294.638420,-7179.997637,1225.752797
22539.843673,-2368.659014,-12213.398043,5132.839837
22539.844006,-6809.894666,-13101.645173,0.000000
22539.844339,-1406.391290,-11251.130318,4826.401637
22539.844672,2294.638420,-5773.606348,7048.078582
22539.845005,4071.132681,-7179.997637,8580.269578
22539.845338,4959.379811,-7402.059420,9116.536426
22539.845671,3775.050304,-12879.583391,9729.412825
22539.846003,0.000000,-8364.327145,7354.516781
22539.846336,1332.370696,-8808.450710,4903.011187
22539.846669,592.164754,-14137.933492,11261.603821
22539.847002,-74.020594,-7920.203579,7354.516781
22539.847335,-74.020594,0.000000,-76.609550
22539.847668,-6513.812290,-7328.038826,-2374.896044
22539.848001,-1702.473667,-15766.386565,7737.564530
22539.848333,962.267725,-7105.977043,12027.699319
22539.848666,814.226536,-4737.318029,9729.412825
22539.848999,740.205942,-3034.844362,8580.269578
22539.849332,5255.462188,-8882.471304,11874.480219
22539.849665,7328.038826,-6513.812290,11568.042020
22539.849998,1036.288319,-6735.874072,4826.401637
22539.850331,0.000000,-7328.038826,919.314598
22539.850663,-3034.844362,-12509.480420,766.095498
22539.850996,-1554.432478,-4293.194464,-2604.724693
22539.851329,-2368.659014,-9844.739029,-3983.696590
22539.851662,-74.020594,-9474.636058,-3753.867940
22539.851995,-296.082377,-6735.874072,1838.629195
22539.852328,1110.308913,-16580.613101,3294.210641
22539.852660,1184.329507,-13693.809927,10418.898773
22539.852993,-2368.659014,-11325.150913,5209.449386
22539.853326,296.082377,814.226536,-1608.800546
22539.853659,1850.514855,-4663.297435,-2451.505594
22539.853992,3034.844362,-12139.377449,1838.629195
22539.854325,4663.297435,-10658.965565,3600.648841
22539.854658,-2960.823768,-10732.986159,0.000000
22539.854990,-370.102971,-9474.636058,-1915.238745
22539.855323,-666.185348,-11843.295072,-3140.991542
22539.855656,1628.453072,-2442.679609,-5515.887586
22539.855989,-1776.494261,-7179.997637,-7967.393179
22539.856322,2072.576638,-13915.871710,-6205.373534
22539.856655,-2812.782580,-22724.322419,1302.362347
22539.856988,-2442.679609,-10807.006753,-1532.190996
22539.857320,370.102971,-4589.276840,-4979.620737
22539.857653,1184.329507,-4811.338623,-4136.915689
22539.857986,4811.338623,-10955.047942,-1685.410096
22539.858319,2294.638420,-8438.347739,-3064.381992
22539.858652,740.205942,-13323.706956,-6128.763984
22539.858985,-74.020594,-11843.295072,-5592.497135
22539.859318,-2886.803174,-3627.009116,-10418.898773
22539.859650,-4737.318029,-14285.974681,-9882.631924
22539.859983,-2442.679609,-14063.912898,-11568.042020
22539.860316,-1776.494261,-10140.821405,-9269.755526
22539.860649,6809.894666,-16284.530724,-689.485948
22539.860982,4441.235652,-14285.974681,8886.707777
22539.861315,3849.070898,-10362.883188,9499.584175
22539.861647,-444.123565,-5329.482782,5286.058936
22539.861980,814.226536,-962.267725,-3753.867940
22539.862313,888.247130,-3627.009116,-6128.763984
22539.862646,2886.803174,-11843.295072,-76.609550
22539.862979,3478.967927,-13027.624579,0.000000
22539.863312,-3552.988522,-5107.421000,-1685.410096
22539.863645,-2738.761985,-4145.153275,-8963.317327
22539.863977,-1332.370696,-5847.626942,-11108.384721
22539.864310,-1036.288319,-12287.418637,-4826.401637
22539.864643,1184.329507,-16506.592507,-3830.477490
22539.864976,-1184.329507,-10140.821405,612.876398
22539.865309,-3552.988522,-11029.068536,3064.381992
22539.865642,5255.462188,-15396.283594,8503.660028
22539.865975,0.000000,-9548.656652,8886.707777
22539.866307,-4441.235652,-3034.844362,0.000000
22539.866640,-6217.729913,-74.020594,-7048.078582
22539.866973,-1406.391290,-14434.015869,2528.115143
22539.867306,3256.906145,-8142.265362,10648.727422
22539.867639,1110.308913,-4219.173869,7124.688131
22539.867972,2886.803174,-5329.482782,3294.210641
22539.868304,1776.494261,-2368.659014,2374.896044
22539.868637,4663.297435,-10510.924376,3370.820191
22539.868970,2960.823768,-11325.150913,5592.497135
22539.869303,296.082377,-14878.139434,5592.497135
22539.869636,-74.020594,-17468.860231,6665.030833
22539.869969,-1480.411884,-11325.150913,4443.353888
22539.870302,74.020594,-10807.006753,3677.258390
22539.870634,518.144159,-1184.329507,1149.143247
22539.870967,0.000000,3182.885551,0.000000
22539.871300,-1554.432478,-3404.947333,-1455.581446
22539.871633,-6513.812290,-10732.986159,0.000000
22539.871966,-74.020594,-18949.272115,4826.401637
22539.872299,-2368.659014,-5403.503377,2604.724693
22539.872632,1702.473667,-8512.368333,4826.401637
22539.872964,4811.338623,-9252.574275,8120.612279
22539.873297,4441.235652,-11843.295072,10495.508323
22539.873630,8586.388927,-14285.974681,17083.929605
22539.873963,3552.988522,-7476.080014,9959.241474
22539.874296,3182.885551,-5033.400406,3983.696590
22539.874629,-1184.329507,-7994.224174,1378.971896
22539.874962,-4367.215058,-9178.553681,-76.609550
22539.875294,-5921.647536,-2220.617826,0.000000
22539.875627,-9474.636058,-4441.235652,-5745.716235
22539.875960,-1258.350101,-13619.789333,-76.609550
22539.876293,-2664.741391,-7328.038826,306.438199
22539.876626,3330.926739,-7698.141797,3370.820191
22539.876959,3997.112087,-15914.427753,6894.859482
22539.877291,740.205942,-5403.503377,2451.505594
22539.877624,5551.544565,-4737.318029,5132.839837
22539.877957,6587.832884,-13397.727550,7890.783629
22539.878290,2146.597232,-15248.242405,2374.896044
22539.878623,-2072.576638,-9548.656652,-3370.820191
22539.878956,-3627.009116,-13693.809927,-2451.505594
22539.879289,-6513.812290,-11325.150913,2145.067394
22539.879621,-74.020594,-7105.977043,2298.286494
22539.879954,518.144159,4959.379811,0.000000
22539.880287,962.267725,-5625.565159,1149.143247
22539.880620,1924.535449,-4515.256246,536.266849
22539.880953,2072.576638,-11769.274478,2681.334243
22539.881286,518.144159,-9696.697840,2451.505594
22539.881619,740.205942,-3552.988522,-1608.800546
22539.881951,-2368.659014,-11917.315666,0.000000
22539.882284,-814.226536,-14804.118840,-1838.629195
22539.882617,-74.020594,-16580.613101,-6205.373534
22539.882950,0.000000,-11917.315666,-7354.516781
22539.883283,-74.020594,-2960.823768,-12410.747068
22539.883616,2812.782580,-1258.350101,-11721.261119
22539.883949,4515.256246,-11843.295072,-6281.983084
22539.884281,2886.803174,-17764.942608,-689.485948
22539.884614,222.061783,-13915.871710,0.000000
22539.884947,-4737.318029,-9548.656652,2757.943793
22539.885280,-5551.544565,-10658.965565,-10495.508323
22539.885613,-3330.926739,-5773.606348,-9652.803275
22539.885946,4737.318029,-13101.645173,4903.011187
22539.886278,2294.638420,-11547.212695,2374.896044
22539.886611,5181.441594,3552.988522,-2145.067394
22539.886944,2812.782580,-8808.450710,-3217.601092
22539.887277,740.205942,-5033.400406,-3140.991542
22539.887610,592.164754,-5255.462188,-3753.867940
22539.887943,-8586.388927,-22798.343014,-4749.792088
22539.888276,-10066.800811,-17616.901420,-8810.098227
22539.888608,-2590.720797,-8438.347739,-5592.497135
22539.888941,3478.967927,-13915.871710,4213.525239
22539.889274,7624.121203,-4737.318029,3600.648841
22539.889607,2960.823768,-10140.821405,4903.011187
22539.889940,5329.482782,-2738.761985,4903.011187
22539.890273,3182.885551,-1480.411884,-229.828649
22539.890606,0.000000,-10436.903782,1838.629195
22539.890938,-3775.050304,-23686.590144,2374.896044
22539.891271,-4145.153275,-9770.718434,-3294.210641
22539.891604,-2368.659014,2738.761985,-9806.022374
22539.891937,-2442.679609,-7698.141797,-10035.851024
22539.892270,2960.823768,-16580.613101,-1302.362347
22539.892603,1184.329507,-20799.786970,13483.280765
22539.892935,1924.535449,0.000000,9729.412825
22539.893268,3256.906145,1184.329507,3600.648841
22539.893601,2294.638420,-7105.977043,2987.772442
22539.893934,1480.411884,-11621.233289,5822.325785
22539.894267,4811.338623,-4663.297435,2681.334243
22539.894600,-2590.720797,-13545.768739,383.047749
22539.894933,-4737.318029,-4811.338623,-3677.258390
22539.895265,-5403.503377,-15988.448347,-2528.115143
22539.895598,1036.288319,-9104.533087,-76.609550
